time,seconds_elapsed,z,y,x
1690841756307435000,0.03443505859375,-0.975494384765625,0.049591064453125,-0.01983642578125
1690841756317414100,0.0444140625,-0.9758148193359375,0.0465087890625,-0.01495361328125
1690841756327454200,0.0544541015625,-0.975921630859375,0.042999267578125,-0.00799560546875
1690841756337494000,0.064493896484375,-0.9754638671875,0.0380096435546875,-0.0020751953125
1690841756347535000,0.07453515625,-0.97796630859375,0.0336761474609375,0.003021240234375
1690841756357575000,0.084574951171875,-0.982391357421875,0.029388427734375,0.00836181640625
1690841756367615000,0.094614990234375,-0.981475830078125,0.0234832763671875,0.01092529296875
1690841756377656000,0.104656005859375,-0.98016357421875,0.0175933837890625,0.00946044921875
1690841756387696000,0.114696044921875,-0.98101806640625,0.0139617919921875,0.0059051513671875
1690841756397736200,0.124736083984375,-0.980712890625,0.0113067626953125,0.002044677734375
1690841756407776000,0.13477587890625,-0.9805908203125,0.0093231201171875,-0.0027923583984375
1690841756417847000,0.144846923828125,-0.980010986328125,0.009063720703125,-0.0067596435546875
1690841756427888000,0.15488818359375,-0.9787750244140625,0.0106048583984375,-0.00872802734375
1690841756437928000,0.164927978515625,-0.9783782958984375,0.0140380859375,-0.00982666015625
1690841756447968000,0.174968017578125,-0.976470947265625,0.0175933837890625,-0.0092620849609375
1690841756458008000,0.185008056640625,-0.975494384765625,0.0235443115234375,-0.0084686279296875
1690841756468049200,0.195049072265625,-0.9743804931640625,0.02838134765625,-0.007568359375
1690841756478089200,0.205089111328125,-0.9732818603515625,0.0337066650390625,-0.0052947998046875
1690841756488129000,0.21512890625,-0.973236083984375,0.0387725830078125,-0.0040740966796875
1690841756498170000,0.225170166015625,-0.971038818359375,0.0425262451171875,-0.0041656494140625
1690841756508210000,0.2352099609375,-0.9701385498046875,0.0466156005859375,-0.0038604736328125
1690841756518250000,0.24525,-0.9697723388671875,0.0473785400390625,-0.0045318603515625
1690841756528290000,0.2552900390625,-0.9695281982421875,0.048248291015625,-0.00592041015625
1690841756538331100,0.2653310546875,-0.970062255859375,0.048187255859375,-0.0078582763671875
1690841756548371200,0.27537109375,-0.9694671630859375,0.046966552734375,-0.0100860595703125
1690841756558411000,0.285410888671875,-0.970245361328125,0.0443572998046875,-0.010711669921875
1690841756568482000,0.29548193359375,-0.9714202880859375,0.04144287109375,-0.011932373046875
1690841756578521900,0.30552197265625,-0.972412109375,0.038543701171875,-0.0127410888671875
1690841756588563000,0.31556298828125,-0.97308349609375,0.0345458984375,-0.012908935546875
1690841756598603000,0.32560302734375,-0.97381591796875,0.03143310546875,-0.0115966796875
1690841756608643000,0.33564306640625,-0.9759979248046875,0.0285186767578125,-0.0102081298828125
1690841756618683100,0.34568310546875,-0.976959228515625,0.0259552001953125,-0.00860595703125
1690841756628724200,0.35572412109375,-0.977386474609375,0.024627685546875,-0.0051422119140625
1690841756638764000,0.365763916015625,-0.9796905517578125,0.022613525390625,-0.001739501953125
1690841756648803800,0.375803955078125,-0.9794769287109375,0.0214385986328125,0.001373291015625
1690841756658845000,0.385844970703125,-0.980255126953125,0.02081298828125,0.0025177001953125
1690841756668885000,0.395885009765625,-0.980072021484375,0.021087646484375,0.0029754638671875
1690841756678925000,0.405925048828125,-0.9787445068359375,0.0215606689453125,0.0009307861328125
1690841756688965000,0.415965087890625,-0.9805145263671875,0.023406982421875,-0.0001220703125
1690841756699006200,0.426006103515625,-0.976837158203125,0.024810791015625,-0.001678466796875
1690841756709076000,0.436075927734375,-0.9786376953125,0.027069091796875,-0.0047149658203125
1690841756719116000,0.446115966796875,-0.976806640625,0.0294189453125,-0.00762939453125
1690841756729156000,0.456156005859375,-0.9755859375,0.031097412109375,-0.0087890625
1690841756739196200,0.466196044921875,-0.97412109375,0.03314208984375,-0.0106353759765625
1690841756749237000,0.476237060546875,-0.9743499755859375,0.0360565185546875,-0.010498046875
1690841756759277000,0.486277099609375,-0.973968505859375,0.0376434326171875,-0.0104827880859375
1690841756769317000,0.496317138671875,-0.9740447998046875,0.039215087890625,-0.0102691650390625
1690841756779357000,0.50635693359375,-0.9732818603515625,0.040191650390625,-0.008758544921875
1690841756789398000,0.51639794921875,-0.973541259765625,0.0402679443359375,-0.0081787109375
1690841756799438000,0.52643798828125,-0.973907470703125,0.0392913818359375,-0.0071563720703125
1690841756809478100,0.53647802734375,-0.9747467041015625,0.0395050048828125,-0.00653076171875
1690841756819519000,0.54651904296875,-0.9749298095703125,0.039276123046875,-0.0058746337890625
1690841756829559000,0.55655908203125,-0.9747314453125,0.0365142822265625,-0.006622314453125
1690841756839599000,0.56659912109375,-0.9770660400390625,0.0341796875,-0.0055389404296875
1690841756849670000,0.576669921875,-0.9763641357421875,0.0319976806640625,-0.0052337646484375
1690841756859710000,0.5867099609375,-0.9770965576171875,0.0301666259765625,-0.0062713623046875
1690841756869751000,0.5967509765625,-0.9776153564453125,0.02838134765625,-0.005523681640625
1690841756879791000,0.606791015625,-0.9774932861328125,0.0270538330078125,-0.0061798095703125
1690841756889831200,0.6168310546875,-0.978485107421875,0.0254058837890625,-0.0057525634765625
1690841756899871200,0.626871337890625,-0.9794158935546875,0.0245513916015625,-0.004302978515625
1690841756909912000,0.636912109375,-0.9789276123046875,0.0243072509765625,-0.0049896240234375
1690841756919952100,0.6469521484375,-0.9788055419921875,0.0254669189453125,-0.004241943359375
1690841756929992000,0.656991943359375,-0.979217529296875,0.02593994140625,-0.003173828125
1690841756940033000,0.667032958984375,-0.9787139892578125,0.0272369384765625,-0.0036468505859375
1690841756950073000,0.677072998046875,-0.978668212890625,0.029144287109375,-0.0032958984375
1690841756960113200,0.687113037109375,-0.9783935546875,0.03076171875,-0.003326416015625
1690841756970153200,0.6971533203125,-0.9761810302734375,0.0315093994140625,-0.0041961669921875
1690841756980194000,0.707194091796875,-0.9780731201171875,0.032806396484375,-0.0051727294921875
1690841756990264000,0.71726416015625,-0.9773406982421875,0.0335235595703125,-0.0058746337890625
1690841757000305000,0.727304931640625,-0.975738525390625,0.035064697265625,-0.0066375732421875
1690841757010345000,0.737344970703125,-0.97576904296875,0.034942626953125,-0.0071563720703125
1690841757020385000,0.747385009765625,-0.9760894775390625,0.035675048828125,-0.00775146484375
1690841757030426000,0.757426025390625,-0.9763031005859375,0.0355224609375,-0.0087890625
1690841757040466200,0.767466064453125,-0.9758453369140625,0.03509521484375,-0.00848388671875
1690841757050506200,0.77750634765625,-0.97576904296875,0.0355987548828125,-0.0084991455078125
1690841757060546000,0.787546142578125,-0.976593017578125,0.034576416015625,-0.0083465576171875
1690841757070587100,0.797587158203125,-0.97637939453125,0.0350189208984375,-0.007049560546875
1690841757080627000,0.807626953125,-0.9771881103515625,0.033111572265625,-0.006317138671875
1690841757090667000,0.8176669921875,-0.977264404296875,0.0319671630859375,-0.005767822265625
1690841757100708000,0.8277080078125,-0.9783172607421875,0.0314483642578125,-0.006195068359375
1690841757110748200,0.837748046875,-0.9795074462890625,0.0299072265625,-0.005279541015625
1690841757120788200,0.847788330078125,-0.97930908203125,0.0296783447265625,-0.004638671875
1690841757130859300,0.857859375,-0.9792022705078125,0.0292205810546875,-0.004852294921875
1690841757140898800,0.86789892578125,-0.978271484375,0.0284423828125,-0.0046844482421875
1690841757150940000,0.87793994140625,-0.97857666015625,0.0282440185546875,-0.004364013671875
1690841757160980000,0.88797998046875,-0.97900390625,0.0285797119140625,-0.0034942626953125
1690841757171020000,0.89802001953125,-0.979339599609375,0.029510498046875,-0.0045166015625
1690841757181060000,0.90806005859375,-0.9797515869140625,0.0291595458984375,-0.0051422119140625
1690841757191101200,0.91810107421875,-0.9789581298828125,0.0300140380859375,-0.005615234375
1690841757201141000,0.92814111328125,-0.978179931640625,0.03094482421875,-0.006317138671875
1690841757211180800,0.938180908203125,-0.977996826171875,0.0315399169921875,-0.0061492919921875
1690841757221220900,0.948220947265625,-0.978851318359375,0.03277587890625,-0.0061492919921875
1690841757231262000,0.958261962890625,-0.97784423828125,0.0329437255859375,-0.0059967041015625
1690841757241302000,0.968302001953125,-0.9775848388671875,0.0330047607421875,-0.005645751953125
1690841757251342000,0.978342041015625,-0.9773712158203125,0.033355712890625,-0.0055694580078125
1690841757261383200,0.988383056640625,-0.977386474609375,0.034393310546875,-0.0059356689453125
1690841757271453200,0.998453125,-0.977691650390625,0.03497314453125,-0.0061492919921875
1690841757281494000,1.008493896484375,-0.97735595703125,0.03485107421875,-0.006317138671875
1690841757291533800,1.018533935546875,-0.9777984619140625,0.0333709716796875,-0.006561279296875
1690841757301574000,1.028573974609375,-0.9779052734375,0.0333709716796875,-0.0062103271484375
1690841757311615000,1.038614990234375,-0.9786529541015625,0.0317840576171875,-0.0067291259765625
1690841757321655000,1.048655029296875,-0.9793243408203125,0.0319366455078125,-0.0066375732421875
1690841757331695000,1.058695068359375,-0.9791107177734375,0.03179931640625,-0.005950927734375
1690841757341735200,1.068735107421875,-0.978912353515625,0.0310516357421875,-0.0059356689453125
1690841757351776000,1.07877587890625,-0.97869873046875,0.0305328369140625,-0.0058441162109375
1690841757361815800,1.08881591796875,-0.979644775390625,0.0304412841796875,-0.0049896240234375
1690841757371856000,1.09885595703125,-0.979461669921875,0.0300445556640625,-0.0052490234375
1690841757381897000,1.10889697265625,-0.9799041748046875,0.030242919921875,-0.00543212890625
1690841757391937000,1.11893701171875,-0.9794769287109375,0.030242919921875,-0.005462646484375
1690841757401977000,1.12897705078125,-0.979522705078125,0.0291290283203125,-0.00506591796875
1690841757412048100,1.139048095703125,-0.9797210693359375,0.0301666259765625,-0.0046234130859375
1690841757422088200,1.149088134765625,-0.978607177734375,0.0303192138671875,-0.0052032470703125
1690841757432128000,1.1591279296875,-0.978912353515625,0.0315704345703125,-0.0060577392578125
1690841757442168800,1.1691689453125,-0.9783935546875,0.03204345703125,-0.0062255859375
1690841757452209000,1.179208984375,-0.9792327880859375,0.0314178466796875,-0.0065765380859375
1690841757462249000,1.1892490234375,-0.97857666015625,0.032440185546875,-0.00634765625
1690841757472290000,1.1992900390625,-0.97772216796875,0.0322113037109375,-0.0066375732421875
1690841757482330000,1.209330078125,-0.978302001953125,0.0329132080078125,-0.00640869140625
1690841757492370200,1.2193701171875,-0.9786529541015625,0.0333099365234375,-0.005828857421875
1690841757502410000,1.229409912109375,-0.978729248046875,0.032745361328125,-0.005950927734375
1690841757512450800,1.239450927734375,-0.9777984619140625,0.032989501953125,-0.0063323974609375
1690841757522491000,1.249490966796875,-0.9783477783203125,0.0326385498046875,-0.006011962890625
1690841757532531000,1.259531005859375,-0.9788055419921875,0.0325927734375,-0.005523681640625
1690841757542572000,1.269572021484375,-0.97943115234375,0.03240966796875,-0.005950927734375
1690841757552642000,1.27964208984375,-0.9785308837890625,0.0319671630859375,-0.0064239501953125
1690841757562683100,1.28968310546875,-0.9792327880859375,0.031585693359375,-0.0063934326171875
1690841757572723200,1.29972314453125,-0.97857666015625,0.0304412841796875,-0.0063629150390625
1690841757582763000,1.309762939453125,-0.9786529541015625,0.0307159423828125,-0.005889892578125
1690841757592803800,1.319803955078125,-0.9798431396484375,0.03057861328125,-0.0058135986328125
1690841757602844000,1.329843994140625,-0.979827880859375,0.03070068359375,-0.0057525634765625
1690841757612884000,1.339884033203125,-0.9801788330078125,0.029937744140625,-0.0054473876953125
1690841757622924000,1.349924072265625,-0.97943115234375,0.031219482421875,-0.00592041015625
1690841757632965000,1.359965087890625,-0.979339599609375,0.031036376953125,-0.0053253173828125
1690841757643005200,1.370005126953125,-0.9793548583984375,0.0310211181640625,-0.0054473876953125
1690841757653045000,1.380044921875,-0.9797821044921875,0.0310211181640625,-0.0055999755859375
1690841757663085800,1.3900859375,-0.98004150390625,0.0313720703125,-0.005859375
1690841757673126000,1.4001259765625,-0.9801177978515625,0.0318450927734375,-0.005950927734375
1690841757683166000,1.410166015625,-0.979766845703125,0.0311431884765625,-0.005889892578125
1690841757693237000,1.420237060546875,-0.9790802001953125,0.03192138671875,-0.0068206787109375
1690841757703277000,1.430277099609375,-0.97967529296875,0.0320892333984375,-0.0059356689453125
1690841757713308200,1.44030810546875,-0.9791107177734375,0.032440185546875,-0.0061798095703125
1690841757723349000,1.450348876953125,-0.97918701171875,0.03192138671875,-0.0055084228515625
1690841757733389000,1.46038916015625,-0.9789581298828125,0.0322418212890625,-0.0069732666015625
1690841757743429000,1.47042919921875,-0.9804534912109375,0.032440185546875,-0.0059967041015625
1690841757753470200,1.48047021484375,-0.9794158935546875,0.0330352783203125,-0.0061187744140625
1690841757763510300,1.49051025390625,-0.97821044921875,0.0327301025390625,-0.0069580078125
1690841757773550000,1.500550048828125,-0.9790496826171875,0.0319671630859375,-0.007049560546875
1690841757783590100,1.510590087890625,-0.98046875,0.0318603515625,-0.0064697265625
1690841757793631000,1.520630859375,-0.9803466796875,0.0317230224609375,-0.0066680908203125
1690841757803671000,1.530671142578125,-0.980560302734375,0.0310211181640625,-0.00634765625
1690841757813711000,1.540711181640625,-0.98046875,0.031036376953125,-0.00537109375
1690841757823752200,1.550752197265625,-0.9794158935546875,0.0310211181640625,-0.005645751953125
1690841757833822000,1.560822021484375,-0.979736328125,0.0312652587890625,-0.004974365234375
1690841757843863000,1.570863037109375,-0.9801025390625,0.031494140625,-0.0052642822265625
1690841757853903000,1.580903076171875,-0.9792938232421875,0.0319976806640625,-0.0052947998046875
1690841757863943200,1.590943115234375,-0.9791107177734375,0.031463623046875,-0.0054931640625
1690841757873983200,1.600983154296875,-0.97979736328125,0.0306549072265625,-0.00592041015625
1690841757884024000,1.611024169921875,-0.97998046875,0.030975341796875,-0.0050201416015625
1690841757894064000,1.621064208984375,-0.98028564453125,0.0314483642578125,-0.005950927734375
1690841757904104200,1.631104248046875,-0.9795989990234375,0.03216552734375,-0.005462646484375
1690841757914145300,1.641145263671875,-0.9800872802734375,0.0316314697265625,-0.0056304931640625
1690841757924185000,1.65118505859375,-0.9798126220703125,0.0309906005859375,-0.0058441162109375
1690841757934225200,1.66122509765625,-0.9793548583984375,0.0319366455078125,-0.0060577392578125
1690841757944265200,1.67126513671875,-0.97930908203125,0.03173828125,-0.0050811767578125
1690841757954306000,1.68130615234375,-0.9794769287109375,0.0315399169921875,-0.00579833984375
1690841757964346000,1.69134619140625,-0.979949951171875,0.032073974609375,-0.0062103271484375
1690841757974417200,1.701417236328125,-0.97955322265625,0.0318450927734375,-0.0059814453125
1690841757984457000,1.71145703125,-0.978240966796875,0.0326995849609375,-0.005828857421875
1690841757994497000,1.7214970703125,-0.9794464111328125,0.0318145751953125,-0.006378173828125
1690841758004538000,1.7315380859375,-0.979461669921875,0.03204345703125,-0.006072998046875
1690841758014578200,1.741578125,-0.979827880859375,0.0317840576171875,-0.0052642822265625
1690841758024618200,1.7516181640625,-0.9797515869140625,0.031524658203125,-0.0064239501953125
1690841758034659000,1.7616591796875,-0.980133056640625,0.031494140625,-0.0054473876953125
1690841758044699100,1.77169921875,-0.979949951171875,0.0313262939453125,-0.0057220458984375
1690841758054739200,1.7817392578125,-0.9797821044921875,0.0315399169921875,-0.0070343017578125
1690841758064779000,1.791779052734375,-0.9804229736328125,0.0316925048828125,-0.0049896240234375
1690841758074820000,1.801820068359375,-0.979766845703125,0.03192138671875,-0.00579833984375
1690841758084860200,1.811860107421875,-0.9803924560546875,0.0313720703125,-0.0060272216796875
1690841758094900200,1.821900146484375,-0.9803314208984375,0.031402587890625,-0.0062408447265625
1690841758104941000,1.831941162109375,-0.9795989990234375,0.0315399169921875,-0.005615234375
1690841758115011300,1.84201123046875,-0.980010986328125,0.0314788818359375,-0.00634765625
1690841758125052200,1.85205224609375,-0.979949951171875,0.0305938720703125,-0.006256103515625
1690841758135092000,1.862092041015625,-0.980072021484375,0.0315093994140625,-0.0058746337890625
1690841758145132000,1.872132080078125,-0.9804229736328125,0.031890869140625,-0.0064849853515625
1690841758155172000,1.882172119140625,-0.980224609375,0.0316162109375,-0.0064849853515625
1690841758165213200,1.892213134765625,-0.9797515869140625,0.0314483642578125,-0.0061187744140625
1690841758175253200,1.902253173828125,-0.9791717529296875,0.031768798828125,-0.0057830810546875
1690841758185293300,1.912293212890625,-0.9802703857421875,0.031951904296875,-0.0055084228515625
1690841758195334100,1.922334228515625,-0.9808807373046875,0.0324249267578125,-0.0063018798828125
1690841758205374200,1.932374267578125,-0.980255126953125,0.03155517578125,-0.0061187744140625
1690841758215414000,1.9424140625,-0.9799346923828125,0.031585693359375,-0.006072998046875
1690841758225454000,1.9524541015625,-0.979949951171875,0.0322113037109375,-0.006561279296875
1690841758235495200,1.9624951171875,-0.9800872802734375,0.03155517578125,-0.0060882568359375
1690841758245535200,1.97253515625,-0.9801483154296875,0.0315399169921875,-0.00567626953125
1690841758255606300,1.982606201171875,-0.979827880859375,0.031585693359375,-0.005035400390625
1690841758265646300,1.992646240234375,-0.9801788330078125,0.03131103515625,-0.005523681640625
1690841758275686100,2.00268603515625,-0.9803314208984375,0.031219482421875,-0.0056610107421875
1690841758285727000,2.01272705078125,-0.9801177978515625,0.0316925048828125,-0.0059967041015625
1690841758295767000,2.02276708984375,-0.9798431396484375,0.0315704345703125,-0.0062103271484375
1690841758305807000,2.03280712890625,-0.98040771484375,0.03179931640625,-0.00653076171875
1690841758315848200,2.04284814453125,-0.9806976318359375,0.032196044921875,-0.005859375
1690841758325888300,2.05288818359375,-0.980316162109375,0.0318450927734375,-0.0054931640625
1690841758335928300,2.06292822265625,-0.9794464111328125,0.031036376953125,-0.0060882568359375
1690841758345968000,2.072968017578125,-0.9810791015625,0.0320587158203125,-0.0061187744140625
1690841758356009200,2.08300927734375,-0.9795684814453125,0.0324554443359375,-0.005889892578125
1690841758366049000,2.093049072265625,-0.9795074462890625,0.03167724609375,-0.005706787109375
1690841758376089000,2.103089111328125,-0.98004150390625,0.0319671630859375,-0.0052337646484375
1690841758386129200,2.113129150390625,-0.97955322265625,0.0320892333984375,-0.00592041015625
1690841758396200200,2.1232001953125,-0.9801025390625,0.0322113037109375,-0.0055694580078125
1690841758406241300,2.1332412109375,-0.9801483154296875,0.03094482421875,-0.00579833984375
1690841758416281300,2.14328125,-0.9806365966796875,0.0319061279296875,-0.0052642822265625
1690841758426321200,2.153321044921875,-0.980194091796875,0.0316925048828125,-0.006072998046875
1690841758436361000,2.16336083984375,-0.9810028076171875,0.0314788818359375,-0.0063934326171875
1690841758446402000,2.173402099609375,-0.9804534912109375,0.03118896484375,-0.005828857421875
1690841758456442000,2.183442138671875,-0.9808197021484375,0.0323028564453125,-0.0055084228515625
1690841758466482200,2.193482177734375,-0.9798126220703125,0.032379150390625,-0.0063018798828125
1690841758476523300,2.203523193359375,-0.979705810546875,0.0320587158203125,-0.0067138671875
1690841758486563300,2.213563232421875,-0.97955322265625,0.0321502685546875,-0.005950927734375
1690841758496603100,2.22360302734375,-0.9800567626953125,0.0313262939453125,-0.0061492919921875
1690841758506643000,2.233642822265625,-0.9803619384765625,0.0316314697265625,-0.0058441162109375
1690841758516684000,2.24368408203125,-0.9801025390625,0.0325164794921875,-0.0058441162109375
1690841758526724000,2.25372412109375,-0.979736328125,0.0315093994140625,-0.0057830810546875
1690841758536795100,2.263795166015625,-0.9801788330078125,0.031707763671875,-0.00616455078125
1690841758546835200,2.273835205078125,-0.9804840087890625,0.03204345703125,-0.00604248046875
1690841758556875300,2.283875244140625,-0.981201171875,0.031646728515625,-0.0061798095703125
1690841758566916400,2.293916259765625,-0.979827880859375,0.0320892333984375,-0.0057830810546875
1690841758576956200,2.3039560546875,-0.979827880859375,0.031280517578125,-0.00494384765625
1690841758586996000,2.313995849609375,-0.9812164306640625,0.031402587890625,-0.0056610107421875
1690841758597036000,2.3240361328125,-0.9816741943359375,0.0311279296875,-0.0057525634765625
1690841758607077000,2.3340771484375,-0.980926513671875,0.031494140625,-0.0057525634765625
1690841758617117200,2.3441171875,-0.98089599609375,0.0319671630859375,-0.005767822265625
1690841758627157200,2.3541572265625,-0.9806671142578125,0.031951904296875,-0.0065155029296875
1690841758637198300,2.3641982421875,-0.980804443359375,0.0322113037109375,-0.005462646484375
1690841758647238100,2.374238037109375,-0.981781005859375,0.03228759765625,-0.0058135986328125
1690841758657278000,2.38427783203125,-0.9813995361328125,0.0324554443359375,-0.006622314453125
1690841758667318000,2.394318115234375,-0.9804534912109375,0.031951904296875,-0.0059661865234375
1690841758677389000,2.40438916015625,-0.980010986328125,0.0318603515625,-0.0056915283203125
1690841758687430100,2.41443017578125,-0.98114013671875,0.03167724609375,-0.0059051513671875
1690841758697470200,2.42447021484375,-0.980926513671875,0.0320587158203125,-0.006256103515625
1690841758707510300,2.43451025390625,-0.9775543212890625,0.031646728515625,-0.0059356689453125
1690841758717527600,2.444527587890625,-0.9860687255859375,0.03173828125,-0.005828857421875
1690841758727568600,2.454568603515625,-0.9773406982421875,0.031036376953125,-0.006103515625
1690841758737608700,2.464608642578125,-0.98394775390625,0.03118896484375,-0.0055389404296875
1690841758747648800,2.474648681640625,-0.978973388671875,0.0312652587890625,-0.006103515625
1690841758757689600,2.484689697265625,-0.98236083984375,0.032073974609375,-0.0056915283203125
1690841758767729700,2.494729736328125,-0.9791259765625,0.0314483642578125,-0.0058135986328125
1690841758777769500,2.50476953125,-0.981903076171875,0.031402587890625,-0.00555419921875
1690841758787809500,2.5148095703125,-0.9805908203125,0.0316009521484375,-0.00537109375
1690841758797850600,2.5248505859375,-0.981719970703125,0.0319061279296875,-0.0049285888671875
1690841758807890700,2.534890625,-0.9796905517578125,0.032135009765625,-0.0055999755859375
1690841758817961700,2.544961669921875,-0.981048583984375,0.0317230224609375,-0.0057830810546875
1690841758828001800,2.555001708984375,-0.9807281494140625,0.03125,-0.0055999755859375
1690841758838041900,2.565041748046875,-0.9800872802734375,0.031036376953125,-0.0061798095703125
1690841758848082700,2.575082763671875,-0.98089599609375,0.0315704345703125,-0.0066070556640625
1690841758858122500,2.58512255859375,-0.98211669921875,0.031494140625,-0.006683349609375
1690841758868162600,2.59516259765625,-0.97918701171875,0.031890869140625,-0.0059051513671875
1690841758878202600,2.60520263671875,-0.981201171875,0.0319061279296875,-0.0062408447265625
1690841758888243700,2.61524365234375,-0.9802703857421875,0.031524658203125,-0.006378173828125
1690841758898283800,2.62528369140625,-0.980255126953125,0.031829833984375,-0.006011962890625
1690841758908323800,2.63532373046875,-0.9800567626953125,0.0321807861328125,-0.005615234375
1690841758918364700,2.64536474609375,-0.9810028076171875,0.03228759765625,-0.00506591796875
1690841758928404500,2.655404541015625,-0.9804840087890625,0.0314178466796875,-0.0050048828125
1690841758938444500,2.665444580078125,-0.9810028076171875,0.03082275390625,-0.004669189453125
1690841758948515600,2.675515625,-0.9810333251953125,0.032135009765625,-0.0048065185546875
1690841758958555600,2.6855556640625,-0.98095703125,0.03155517578125,-0.005157470703125
1690841758968596700,2.6955966796875,-0.9794921875,0.031280517578125,-0.005340576171875
1690841758978636800,2.70563671875,-0.9813232421875,0.031158447265625,-0.0064239501953125
1690841758988676900,2.7156767578125,-0.9817352294921875,0.0312652587890625,-0.0056915283203125
1690841758998716700,2.725716552734375,-0.9799346923828125,0.0309906005859375,-0.005126953125
1690841759008757500,2.735757568359375,-0.9804534912109375,0.0307159423828125,-0.0055694580078125
1690841759018797600,2.745797607421875,-0.9801483154296875,0.03155517578125,-0.0063629150390625
1690841759028837600,2.755837646484375,-0.9804840087890625,0.0313720703125,-0.0057830810546875
1690841759038877700,2.765877685546875,-0.981719970703125,0.031005859375,-0.0061187744140625
1690841759048918800,2.775918701171875,-0.98138427734375,0.031097412109375,-0.0054473876953125
1690841759058958800,2.785958740234375,-0.981658935546875,0.0309295654296875,-0.0055389404296875
1690841759068998700,2.79599853515625,-0.9817047119140625,0.0315093994140625,-0.0052032470703125
1690841759079039500,2.80603955078125,-0.9806671142578125,0.03173828125,-0.00506591796875
1690841759089109800,2.81610986328125,-0.980926513671875,0.03216552734375,-0.00543212890625
1690841759099150600,2.826150634765625,-0.98028564453125,0.0320892333984375,-0.005859375
1690841759109190700,2.836190673828125,-0.980743408203125,0.0319671630859375,-0.005615234375
1690841759119230700,2.846230712890625,-0.981048583984375,0.0313873291015625,-0.0056610107421875
1690841759129271800,2.856271728515625,-0.9813385009765625,0.0321197509765625,-0.005828857421875
1690841759139311600,2.8663115234375,-0.9806060791015625,0.03143310546875,-0.006103515625
1690841759149351700,2.8763515625,-0.979278564453125,0.0321197509765625,-0.0060882568359375
1690841759159391700,2.886391845703125,-0.980865478515625,0.031982421875,-0.00640869140625
1690841759169432600,2.8964326171875,-0.98162841796875,0.0311126708984375,-0.005889892578125
1690841759179472600,2.90647265625,-0.9803924560546875,0.031341552734375,-0.00592041015625
1690841759189512700,2.9165126953125,-0.980621337890625,0.0314178466796875,-0.00653076171875
1690841759199553800,2.9265537109375,-0.98114013671875,0.0316314697265625,-0.0059356689453125
1690841759209593900,2.93659375,-0.980621337890625,0.0308074951171875,-0.00579833984375
1690841759219633700,2.946633544921875,-0.98052978515625,0.0316162109375,-0.0048828125
1690841759229704700,2.95670458984375,-0.9806976318359375,0.031463623046875,-0.005096435546875
1690841759239744800,2.966744873046875,-0.9811859130859375,0.030364990234375,-0.0060882568359375
1690841759249784800,2.976784912109375,-0.98162841796875,0.0312652587890625,-0.0057525634765625
1690841759259825700,2.98682568359375,-0.9808349609375,0.0307159423828125,-0.0056304931640625
1690841759269865700,2.99686572265625,-0.9811553955078125,0.030792236328125,-0.006011962890625
1690841759279905500,3.006905517578125,-0.980712890625,0.03216552734375,-0.0056304931640625
1690841759289946600,3.016946533203125,-0.9816741943359375,0.031494140625,-0.0063323974609375
1690841759299986700,3.026986572265625,-0.98162841796875,0.0318756103515625,-0.0058441162109375
1690841759310026800,3.03702685546875,-0.98150634765625,0.0318450927734375,-0.005950927734375
1690841759320066800,3.04706689453125,-0.9803619384765625,0.0317535400390625,-0.0060577392578125
1690841759330107600,3.057107666015625,-0.980712890625,0.0317840576171875,-0.00531005859375
1690841759340147700,3.067147705078125,-0.981048583984375,0.031707763671875,-0.006103515625
1690841759350187800,3.077187744140625,-0.979949951171875,0.0313720703125,-0.006561279296875
1690841759360228900,3.087228759765625,-0.981597900390625,0.0316162109375,-0.004791259765625
1690841759370298600,3.097298583984375,-0.98150634765625,0.03192138671875,-0.0064544677734375
1690841759380339700,3.107339599609375,-0.9814453125,0.0318450927734375,-0.006103515625
1690841759390379800,3.1173798828125,-0.981048583984375,0.0320281982421875,-0.0051422119140625
1690841759400419800,3.127419921875,-0.98065185546875,0.0316162109375,-0.0058135986328125
1690841759410460700,3.137460693359375,-0.9810943603515625,0.0312042236328125,-0.0057830810546875
1690841759420500700,3.147500732421875,-0.9815673828125,0.031829833984375,-0.0055084228515625
1690841759430540500,3.15754052734375,-0.9810028076171875,0.0316162109375,-0.0058746337890625
1690841759440580600,3.16758056640625,-0.980194091796875,0.0315399169921875,-0.006011962890625
1690841759450621700,3.17762158203125,-0.9813385009765625,0.03179931640625,-0.0056304931640625
1690841759460661800,3.187661865234375,-0.9808349609375,0.031829833984375,-0.006011962890625
1690841759470701600,3.19770166015625,-0.980712890625,0.03179931640625,-0.0056915283203125
1690841759480741600,3.20774169921875,-0.9806365966796875,0.032501220703125,-0.0054168701171875
1690841759490782700,3.21778271484375,-0.980316162109375,0.0315399169921875,-0.005859375
1690841759500822800,3.22782275390625,-0.9808807373046875,0.03277587890625,-0.0059967041015625
1690841759510893600,3.2378935546875,-0.9810638427734375,0.03240966796875,-0.005889892578125
1690841759520933600,3.24793359375,-0.9806365966796875,0.0316925048828125,-0.005279541015625
1690841759530973700,3.2579736328125,-0.98004150390625,0.032135009765625,-0.0062103271484375
1690841759541014800,3.268014892578125,-0.980865478515625,0.0322265625,-0.0059051513671875
1690841759551054600,3.2780546875,-0.9807586669921875,0.031524658203125,-0.00628662109375
1690841759561094700,3.2880947265625,-0.981170654296875,0.0316925048828125,-0.0053558349609375
1690841759571135700,3.2981357421875,-0.98114013671875,0.0315399169921875,-0.00640869140625
1690841759581175600,3.308175537109375,-0.9808807373046875,0.0323638916015625,-0.0063323974609375
1690841759591215600,3.318215576171875,-0.9813690185546875,0.031707763671875,-0.00555419921875
1690841759601255700,3.328255615234375,-0.9817962646484375,0.0317535400390625,-0.0063323974609375
1690841759611296800,3.338296875,-0.9814910888671875,0.0319061279296875,-0.006744384765625
1690841759621336600,3.348336669921875,-0.980987548828125,0.0320892333984375,-0.0064239501953125
1690841759631376600,3.358376708984375,-0.981170654296875,0.031280517578125,-0.006317138671875
1690841759641417700,3.368417724609375,-0.9814910888671875,0.0316925048828125,-0.0071258544921875
1690841759651487500,3.378487548828125,-0.9809722900390625,0.0316619873046875,-0.00604248046875
1690841759661528600,3.388528564453125,-0.980682373046875,0.031341552734375,-0.0054931640625
1690841759671568600,3.398568603515625,-0.9812164306640625,0.031005859375,-0.0064697265625
1690841759681608700,3.408608642578125,-0.98150634765625,0.0308380126953125,-0.0059051513671875
1690841759691648800,3.418648681640625,-0.9812164306640625,0.0316314697265625,-0.0059661865234375
1690841759701689600,3.428689697265625,-0.981414794921875,0.0316009521484375,-0.005950927734375
1690841759711736800,3.43873681640625,-0.981109619140625,0.0316619873046875,-0.006103515625
1690841759721777000,3.44877685546875,-0.9808807373046875,0.0312957763671875,-0.0067596435546875
1690841759731818000,3.45881787109375,-0.98101806640625,0.0315399169921875,-0.00653076171875
1690841759741858000,3.468858154296875,-0.980316162109375,0.0315399169921875,-0.005584716796875
1690841759751898000,3.478898193359375,-0.9810333251953125,0.0316009521484375,-0.0057373046875
1690841759761938200,3.488938232421875,-0.9809417724609375,0.031463623046875,-0.0061798095703125
1690841759771979000,3.49897900390625,-0.9813079833984375,0.0309295654296875,-0.005401611328125
1690841759782018800,3.509018798828125,-0.980255126953125,0.0316925048828125,-0.005859375
1690841759792089900,3.51908984375,-0.98052978515625,0.0318145751953125,-0.0060882568359375
1690841759802130000,3.5291298828125,-0.9798431396484375,0.0316619873046875,-0.005615234375
1690841759812170000,3.539169921875,-0.9806671142578125,0.0309600830078125,-0.0055694580078125
1690841759822211000,3.549211181640625,-0.9815826416015625,0.030914306640625,-0.005645751953125
1690841759832251100,3.559251220703125,-0.9821014404296875,0.031646728515625,-0.0055694580078125
1690841759842291200,3.569291259765625,-0.9811859130859375,0.0320281982421875,-0.0064849853515625
1690841759852332000,3.57933203125,-0.9813079833984375,0.0319061279296875,-0.0063629150390625
1690841759862371800,3.589371826171875,-0.9804534912109375,0.0319976806640625,-0.005767822265625
1690841759872412000,3.599411865234375,-0.9814910888671875,0.03179931640625,-0.006683349609375
1690841759882452000,3.609451904296875,-0.9811248779296875,0.031646728515625,-0.0063323974609375
1690841759892493000,3.6194931640625,-0.98114013671875,0.031707763671875,-0.005340576171875
1690841759902533000,3.629533203125,-0.980560302734375,0.0321807861328125,-0.005615234375
1690841759912573200,3.6395732421875,-0.9805908203125,0.03192138671875,-0.0059051513671875
1690841759922614000,3.649614013671875,-0.98089599609375,0.032135009765625,-0.0059661865234375
1690841759932684000,3.65968408203125,-0.9805450439453125,0.0318450927734375,-0.0059661865234375
1690841759942724900,3.669724853515625,-0.9808349609375,0.031829833984375,-0.006011962890625
1690841759952765000,3.679764892578125,-0.9813385009765625,0.0321197509765625,-0.0059967041015625
1690841759962805000,3.689804931640625,-0.9809417724609375,0.0323333740234375,-0.00616455078125
1690841759972845000,3.699844970703125,-0.9811248779296875,0.0311737060546875,-0.006256103515625
1690841759982886100,3.70988623046875,-0.98046875,0.0309295654296875,-0.0063018798828125
1690841759992926000,3.719926025390625,-0.9801788330078125,0.0308990478515625,-0.0055999755859375
1690841760002966000,3.729966064453125,-0.9807586669921875,0.031158447265625,-0.0058441162109375
1690841760013006800,3.7400068359375,-0.980804443359375,0.0315093994140625,-0.0064239501953125
1690841760023047000,3.750046875,-0.982421875,0.031402587890625,-0.0060272216796875
1690841760033087000,3.7600869140625,-0.9821624755859375,0.0323333740234375,-0.0058135986328125
1690841760043127000,3.770126953125,-0.9814300537109375,0.0315093994140625,-0.0057830810546875
1690841760053168000,3.780168212890625,-0.9812774658203125,0.0317535400390625,-0.00543212890625
1690841760063208200,3.790208251953125,-0.981597900390625,0.031982421875,-0.0056304931640625
1690841760073279000,3.800279052734375,-0.9798583984375,0.0322113037109375,-0.005706787109375
1690841760083319000,3.810319091796875,-0.9805755615234375,0.031982421875,-0.005157470703125
1690841760093359000,3.820359130859375,-0.9815826416015625,0.0327911376953125,-0.0059814453125
1690841760103400000,3.83039990234375,-0.9814910888671875,0.03192138671875,-0.006591796875
1690841760113440000,3.84043994140625,-0.981170654296875,0.0316619873046875,-0.0060577392578125
1690841760123480000,3.85047998046875,-0.9812469482421875,0.031768798828125,-0.005767822265625
1690841760133520000,3.860519775390625,-0.9809722900390625,0.032073974609375,-0.0055694580078125
1690841760143561000,3.87056103515625,-0.981292724609375,0.0322418212890625,-0.0052947998046875
1690841760153601000,3.88060107421875,-0.9804534912109375,0.0320281982421875,-0.0060577392578125
1690841760163641000,3.89064111328125,-0.98095703125,0.0316162109375,-0.0057373046875
1690841760173682000,3.900681884765625,-0.9803466796875,0.0322265625,-0.0061492919921875
1690841760183722000,3.910721923828125,-0.9807586669921875,0.032257080078125,-0.0054779052734375
1690841760193762000,3.920761962890625,-0.9818267822265625,0.0322265625,-0.0060272216796875
1690841760203802000,3.930802001953125,-0.982025146484375,0.031494140625,-0.006866455078125
1690841760213873000,3.940872802734375,-0.9807586669921875,0.0322723388671875,-0.005584716796875
1690841760223914000,3.9509140625,-0.980712890625,0.0315704345703125,-0.00543212890625
1690841760233954000,3.9609541015625,-0.9819793701171875,0.0313720703125,-0.0064849853515625
1690841760243994000,3.970994140625,-0.9812164306640625,0.031707763671875,-0.005706787109375
1690841760254034000,3.981033935546875,-0.981719970703125,0.031829833984375,-0.006103515625
1690841760264075000,3.991074951171875,-0.981414794921875,0.031341552734375,-0.005706787109375
1690841760274115000,4.001114990234375,-0.980804443359375,0.0312042236328125,-0.0059661865234375
1690841760284155000,4.01115478515625,-0.9814300537109375,0.0312957763671875,-0.00579833984375
1690841760294196000,4.021196044921875,-0.98089599609375,0.0318603515625,-0.0056304931640625
1690841760304236000,4.031236083984375,-0.980316162109375,0.032562255859375,-0.0055084228515625
1690841760314276000,4.041276123046875,-0.9803466796875,0.032562255859375,-0.00518798828125
1690841760324316000,4.05131591796875,-0.9814453125,0.0311279296875,-0.005767822265625
1690841760334357000,4.06135693359375,-0.98187255859375,0.0316619873046875,-0.0062713623046875
1690841760344397000,4.07139697265625,-0.9807891845703125,0.031982421875,-0.0057373046875
1690841760354468000,4.081468017578125,-0.98065185546875,0.0321044921875,-0.00531005859375
1690841760364508000,4.0915078125,-0.98199462890625,0.0323333740234375,-0.0057830810546875
1690841760374548000,4.1015478515625,-0.98101806640625,0.0315093994140625,-0.0052337646484375
1690841760384589000,4.111589111328125,-0.9805908203125,0.0314788818359375,-0.005157470703125
1690841760394629000,4.121629150390625,-0.9810638427734375,0.0319671630859375,-0.00579833984375
1690841760404669000,4.1316689453125,-0.9802703857421875,0.0322265625,-0.006195068359375
1690841760414709000,4.141708984375,-0.980865478515625,0.0314788818359375,-0.0057525634765625
1690841760424750000,4.15175,-0.9809112548828125,0.031402587890625,-0.0058135986328125
1690841760434790000,4.161789794921875,-0.9803466796875,0.0320892333984375,-0.0053253173828125
1690841760444830000,4.171829833984375,-0.9814300537109375,0.03094482421875,-0.0064849853515625
1690841760454871000,4.18187109375,-0.9811553955078125,0.031463623046875,-0.0069122314453125
1690841760464911000,4.1919111328125,-0.9813079833984375,0.0319976806640625,-0.005645751953125
1690841760474951000,4.201950927734375,-0.98162841796875,0.0318756103515625,-0.0058441162109375
1690841760485022000,4.21202197265625,-0.9805908203125,0.031280517578125,-0.006011962890625
1690841760495062000,4.22206201171875,-0.9801483154296875,0.031646728515625,-0.0064697265625
1690841760505103000,4.23210302734375,-0.9811248779296875,0.032379150390625,-0.0058135986328125
1690841760515143000,4.242142822265625,-0.9815521240234375,0.031951904296875,-0.0050506591796875
1690841760525183000,4.252182861328125,-0.9815673828125,0.0314483642578125,-0.0062103271484375
1690841760535223000,4.26222314453125,-0.98077392578125,0.0318756103515625,-0.0059967041015625
1690841760545264000,4.27226416015625,-0.9798126220703125,0.0313568115234375,-0.0054931640625
1690841760555304000,4.282303955078125,-0.9801788330078125,0.0315093994140625,-0.005828857421875
1690841760565344000,4.292343994140625,-0.980987548828125,0.0318145751953125,-0.0069580078125
1690841760575385000,4.302385009765625,-0.981475830078125,0.0317535400390625,-0.006195068359375
1690841760585425000,4.3124248046875,-0.98046875,0.0320587158203125,-0.0055694580078125
1690841760595465000,4.32246484375,-0.9817657470703125,0.0322418212890625,-0.0059661865234375
1690841760605505000,4.332505126953125,-0.98126220703125,0.0315399169921875,-0.0059967041015625
1690841760615546000,4.342546142578125,-0.981414794921875,0.0316925048828125,-0.005767822265625
1690841760625616100,4.3526162109375,-0.980987548828125,0.0320892333984375,-0.0058135986328125
1690841760635657000,4.362656982421875,-0.980255126953125,0.0320281982421875,-0.00592041015625
1690841760645697000,4.372697021484375,-0.9805450439453125,0.0322113037109375,-0.005889892578125
1690841760655736800,4.38273681640625,-0.9808807373046875,0.031463623046875,-0.0059967041015625
1690841760665778000,4.39277783203125,-0.9810333251953125,0.0306854248046875,-0.00714111328125
1690841760675818000,4.40281787109375,-0.9807281494140625,0.0311431884765625,-0.005828857421875
1690841760685858000,4.412858154296875,-0.9810638427734375,0.032073974609375,-0.0057525634765625
1690841760695898000,4.422898193359375,-0.9811859130859375,0.03271484375,-0.0064697265625
1690841760705939000,4.43293896484375,-0.9803619384765625,0.03179931640625,-0.0057830810546875
1690841760715972400,4.442972412109375,-0.979827880859375,0.031646728515625,-0.00640869140625
1690841760726012400,4.453012451171875,-0.9805145263671875,0.031829833984375,-0.00677490234375
1690841760736053500,4.463053466796875,-0.9813232421875,0.0321502685546875,-0.00665283203125
1690841760746093600,4.473093505859375,-0.980926513671875,0.0317535400390625,-0.0051727294921875
1690841760756133600,4.483133544921875,-0.9812774658203125,0.0319976806640625,-0.00634765625
1690841760766204700,4.49320458984375,-0.981658935546875,0.030731201171875,-0.00616455078125
1690841760776244700,4.50324462890625,-0.981414794921875,0.03118896484375,-0.0059967041015625
1690841760786284500,4.513284423828125,-0.981170654296875,0.0317840576171875,-0.006011962890625
1690841760796325400,4.523325439453125,-0.98138427734375,0.031280517578125,-0.0061492919921875
1690841760806365400,4.533365478515625,-0.978759765625,0.03106689453125,-0.0064697265625
1690841760816405500,4.543405517578125,-0.9910125732421875,0.0071868896484375,-0.030609130859375
1690841760826446600,4.553446533203125,-1.0016632080078125,0.0555419921875,0.0208892822265625
1690841760836486700,4.563486572265625,-0.9811248779296875,0.0284271240234375,0.0206451416015625
1690841760846526700,4.573526611328125,-0.9698944091796875,0.020721435546875,-0.02435302734375
1690841760856566500,4.58356640625,-1.000213623046875,0.028717041015625,0.0119781494140625
1690841760866607400,4.593607421875,-0.9790496826171875,0.0259246826171875,-0.0037841796875
1690841760876647400,4.6036474609375,-0.985565185546875,0.03106689453125,-0.00750732421875
1690841760886687500,4.6136875,-0.9778594970703125,0.03369140625,-0.0150604248046875
1690841760896728600,4.623728515625,-0.980438232421875,0.03472900390625,-0.0159454345703125
1690841760906798600,4.633798583984375,-0.9777679443359375,0.036651611328125,-0.01715087890625
1690841760916839700,4.643839599609375,-0.9771270751953125,0.03887939453125,-0.0172576904296875
1690841760926879700,4.653879638671875,-0.97509765625,0.0415802001953125,-0.014801025390625
1690841760936919600,4.66391943359375,-0.979888916015625,0.0427093505859375,-0.01214599609375
1690841760946960400,4.67396044921875,-0.977020263671875,0.0434112548828125,-0.009857177734375
1690841760957000400,4.68400048828125,-0.977996826171875,0.0438995361328125,-0.007080078125
1690841760967040500,4.69404052734375,-0.979888916015625,0.044158935546875,-0.0045318603515625
1690841760977080600,4.70408056640625,-0.9806671142578125,0.043487548828125,-0.0029296875
1690841760987121700,4.71412158203125,-0.9757843017578125,0.041168212890625,-0.00213623046875
1690841760997161700,4.72416162109375,-0.9839324951171875,0.039398193359375,-0.0020599365234375
1690841761007201500,4.734201416015625,-0.9788665771484375,0.036224365234375,-0.0028533935546875
1690841761017242400,4.744242431640625,-0.983489990234375,0.03277587890625,-0.0036163330078125
1690841761027282400,4.754282470703125,-0.98223876953125,0.0298309326171875,-0.007110595703125
1690841761037322500,4.764322509765625,-0.983489990234375,0.0284423828125,-0.0089874267578125
1690841761047393500,4.7743935546875,-0.9834442138671875,0.0276336669921875,-0.009246826171875
1690841761057433600,4.78443359375,-0.9818267822265625,0.0259857177734375,-0.0101318359375
1690841761067473700,4.7944736328125,-0.9832763671875,0.02532958984375,-0.0086669921875
1690841761077514800,4.8045146484375,-0.9838409423828125,0.0258026123046875,-0.00830078125
1690841761087554600,4.814554443359375,-0.97955322265625,0.02740478515625,-0.0067138671875
1690841761097594600,4.8245947265625,-0.983306884765625,0.0292205810546875,-0.005126953125
1690841761107635500,4.834635498046875,-0.9829559326171875,0.030364990234375,-0.004913330078125
1690841761117675500,4.844675537109375,-0.9804840087890625,0.0321197509765625,-0.003448486328125
1690841761127715600,4.854715576171875,-0.982757568359375,0.0341339111328125,-0.003448486328125
1690841761137755600,4.864755615234375,-0.980804443359375,0.035797119140625,-0.0039520263671875
1690841761147796700,4.874796630859375,-0.97967529296875,0.0371856689453125,-0.005279541015625
1690841761157836500,4.88483642578125,-0.981292724609375,0.037506103515625,-0.0068359375
1690841761167876600,4.894876708984375,-0.9798431396484375,0.0390777587890625,-0.0080108642578125
1690841761177917400,4.90491748046875,-0.980316162109375,0.039398193359375,-0.009002685546875
1690841761187987500,4.914987548828125,-0.9799957275390625,0.0381011962890625,-0.0104522705078125
1690841761198028500,4.925028564453125,-0.9787750244140625,0.0391387939453125,-0.01104736328125
1690841761208068600,4.935068603515625,-0.980377197265625,0.03826904296875,-0.010833740234375
1690841761218108700,4.945108642578125,-0.9783477783203125,0.03790283203125,-0.0104522705078125
1690841761228149800,4.955149658203125,-0.97991943359375,0.0379791259765625,-0.0101470947265625
1690841761238189600,4.965189453125,-0.981109619140625,0.0367279052734375,-0.010467529296875
1690841761248229400,4.9752294921875,-0.9800262451171875,0.03509521484375,-0.0089569091796875
1690841761258269400,4.98526953125,-0.9814453125,0.035064697265625,-0.007659912109375
1690841761268310500,4.995310546875,-0.982666015625,0.0340423583984375,-0.00604248046875
1690841761278350600,5.0053505859375,-0.9821624755859375,0.03375244140625,-0.0048980712890625
1690841761288390700,5.015390625,-0.9828948974609375,0.033203125,-0.005157470703125
1690841761298430500,5.025430419921875,-0.9814300537109375,0.032073974609375,-0.003936767578125
1690841761308471600,5.035471435546875,-0.9825439453125,0.03106689453125,-0.00347900390625
1690841761318511400,5.045511474609375,-0.98248291015625,0.0306854248046875,-0.003997802734375
1690841761328582400,5.05558251953125,-0.9818115234375,0.0301361083984375,-0.00494384765625
1690841761338622500,5.06562255859375,-0.9832305908203125,0.0312347412109375,-0.0059814453125
1690841761348662500,5.07566259765625,-0.9821319580078125,0.0315399169921875,-0.00689697265625
1690841761358703600,5.08570361328125,-0.98223876953125,0.0317535400390625,-0.0073394775390625
1690841761368743700,5.09574365234375,-0.982696533203125,0.032440185546875,-0.0079498291015625
1690841761378783500,5.105783447265625,-0.98138427734375,0.0336151123046875,-0.0082550048828125
1690841761388824600,5.115824462890625,-0.981170654296875,0.0347900390625,-0.007965087890625
1690841761398864400,5.125864501953125,-0.9804840087890625,0.035186767578125,-0.0080718994140625
1690841761408904400,5.135904541015625,-0.9795684814453125,0.036468505859375,-0.00811767578125
1690841761418944500,5.145944580078125,-0.981170654296875,0.038177490234375,-0.0082855224609375
1690841761428985600,5.155985595703125,-0.980499267578125,0.0373992919921875,-0.007537841796875
1690841761439025700,5.166025634765625,-0.980438232421875,0.0371246337890625,-0.00799560546875
1690841761449065500,5.1760654296875,-0.981597900390625,0.03759765625,-0.0078582763671875
1690841761459106600,5.1861064453125,-0.9797515869140625,0.037322998046875,-0.00762939453125
1690841761469176600,5.196176513671875,-0.9807586669921875,0.0380401611328125,-0.0064849853515625
1690841761479217400,5.206217529296875,-0.981964111328125,0.036285400390625,-0.0079803466796875
1690841761489257500,5.216257568359375,-0.98089599609375,0.036407470703125,-0.007781982421875
1690841761499297500,5.226297607421875,-0.98065185546875,0.0348052978515625,-0.0074615478515625
1690841761509337300,5.23633740234375,-0.980621337890625,0.0346527099609375,-0.008209228515625
1690841761519378400,5.24637841796875,-0.98095703125,0.0334930419921875,-0.0077972412109375
1690841761529418500,5.25641845703125,-0.9817962646484375,0.0328369140625,-0.007476806640625
1690841761539458600,5.26645849609375,-0.980865478515625,0.032989501953125,-0.007293701171875
1690841761549499400,5.27649951171875,-0.9833526611328125,0.0332489013671875,-0.00762939453125
1690841761559539500,5.28653955078125,-0.9828338623046875,0.0322265625,-0.0066680908203125
1690841761569579500,5.29657958984375,-0.9820709228515625,0.0322113037109375,-0.0059814453125
1690841761579619600,5.30661962890625,-0.9820556640625,0.033111572265625,-0.00604248046875
1690841761589660700,5.31666064453125,-0.98162841796875,0.0328521728515625,-0.006072998046875
1690841761599700500,5.326700439453125,-0.9814453125,0.03314208984375,-0.005767822265625
1690841761609771500,5.336771484375,-0.982177734375,0.0334625244140625,-0.0059356689453125
1690841761619811600,5.3468115234375,-0.98162841796875,0.03436279296875,-0.0065460205078125
1690841761629851600,5.3568515625,-0.9816741943359375,0.0352783203125,-0.00677490234375
1690841761639892500,5.366892578125,-0.9810943603515625,0.0353546142578125,-0.00726318359375
1690841761649932500,5.3769326171875,-0.981201171875,0.0357666015625,-0.0073699951171875
1690841761659972400,5.386972412109375,-0.9808349609375,0.03619384765625,-0.0069580078125
1690841761670013400,5.397013427734375,-0.980865478515625,0.0356292724609375,-0.008148193359375
1690841761680053500,5.407053466796875,-0.980377197265625,0.0355987548828125,-0.008209228515625
1690841761690093600,5.417093505859375,-0.980224609375,0.0360107421875,-0.0088043212890625
1690841761700133600,5.427133544921875,-0.9797821044921875,0.0355682373046875,-0.00830078125
1690841761710174500,5.437174560546875,-0.9807586669921875,0.035736083984375,-0.00787353515625
1690841761720201000,5.447200927734375,-0.980743408203125,0.035675048828125,-0.00689697265625
1690841761730241000,5.457240966796875,-0.9798431396484375,0.035003662109375,-0.00689697265625
1690841761740282000,5.4672822265625,-0.9806976318359375,0.0347900390625,-0.007415771484375
1690841761750352000,5.477351806640625,-0.9808502197265625,0.0356903076171875,-0.00738525390625
1690841761760393000,5.48739306640625,-0.980712890625,0.0344390869140625,-0.0071868896484375
1690841761770433000,5.49743310546875,-0.98175048828125,0.0341796875,-0.006622314453125
1690841761780473000,5.50747314453125,-0.9810943603515625,0.0340576171875,-0.006805419921875
1690841761790513200,5.51751318359375,-0.9815521240234375,0.0330810546875,-0.00689697265625
1690841761800554000,5.527553955078125,-0.9815521240234375,0.0336456298828125,-0.0067138671875
1690841761810594000,5.537593994140625,-0.9810333251953125,0.0335540771484375,-0.0071868896484375
1690841761820633900,5.5476337890625,-0.9818267822265625,0.0338134765625,-0.0073394775390625
1690841761830675000,5.557675048828125,-0.9814453125,0.0345306396484375,-0.007354736328125
1690841761840715000,5.567715087890625,-0.9815826416015625,0.033599853515625,-0.007965087890625
1690841761850755000,5.577755126953125,-0.982025146484375,0.03375244140625,-0.0077972412109375
1690841761860795100,5.587795166015625,-0.981903076171875,0.0339813232421875,-0.0074462890625
1690841761870836000,5.5978359375,-0.981231689453125,0.0348968505859375,-0.0075225830078125
1690841761880907000,5.607906982421875,-0.9806976318359375,0.035003662109375,-0.0066375732421875
1690841761890947000,5.617947021484375,-0.9809722900390625,0.0352630615234375,-0.0069122314453125
1690841761900987000,5.62798681640625,-0.9815521240234375,0.0348358154296875,-0.007354736328125
1690841761911027000,5.63802685546875,-0.981201171875,0.0354461669921875,-0.006622314453125
1690841761921068000,5.648068115234375,-0.980987548828125,0.035430908203125,-0.0076141357421875
1690841761931108000,5.658108154296875,-0.9810638427734375,0.0352020263671875,-0.006561279296875
1690841761941148200,5.668148193359375,-0.9804534912109375,0.0356292724609375,-0.007110595703125
1690841761951188000,5.67818798828125,-0.981414794921875,0.0351715087890625,-0.008148193359375
1690841761961229000,5.68822900390625,-0.9807891845703125,0.0346527099609375,-0.0075531005859375
1690841761971268900,5.698268798828125,-0.9810028076171875,0.034454345703125,-0.0074462890625
1690841761981309000,5.708308837890625,-0.9807281494140625,0.03466796875,-0.007293701171875
1690841761991350000,5.71835009765625,-0.980712890625,0.034942626953125,-0.007232666015625
1690841762001390000,5.72839013671875,-0.9806671142578125,0.034271240234375,-0.007781982421875
1690841762011430100,5.73843017578125,-0.98040771484375,0.034149169921875,-0.007293701171875
1690841762021501200,5.748501220703125,-0.9811859130859375,0.0350189208984375,-0.0068511962890625
1690841762031541000,5.758541015625,-0.982086181640625,0.0347442626953125,-0.0066986083984375
1690841762041582000,5.76858203125,-0.9818115234375,0.0337982177734375,-0.0072479248046875
1690841762051622000,5.778621826171875,-0.9815826416015625,0.0344085693359375,-0.0072479248046875
1690841762061662000,5.788661865234375,-0.981048583984375,0.0332794189453125,-0.0067596435546875
1690841762071702000,5.798701904296875,-0.980682373046875,0.03350830078125,-0.0067596435546875
1690841762081743000,5.8087431640625,-0.98248291015625,0.032958984375,-0.0067138671875
1690841762091783200,5.818783203125,-0.9814605712890625,0.0338592529296875,-0.00677490234375
1690841762101823000,5.828822998046875,-0.980377197265625,0.03399658203125,-0.00775146484375
1690841762111864000,5.838864013671875,-0.980865478515625,0.03448486328125,-0.00726318359375
1690841762121903900,5.84890380859375,-0.9806365966796875,0.0348358154296875,-0.0076141357421875
1690841762131944000,5.85894384765625,-0.98089599609375,0.034759521484375,-0.007598876953125
1690841762141984000,5.86898388671875,-0.9809112548828125,0.035186767578125,-0.0075531005859375
1690841762152025000,5.879025146484375,-0.9807891845703125,0.03497314453125,-0.0078277587890625
1690841762162095000,5.88909521484375,-0.9808502197265625,0.034759521484375,-0.00732421875
1690841762172136200,5.89913623046875,-0.9801788330078125,0.0344696044921875,-0.007476806640625
1690841762182176000,5.909176025390625,-0.9804840087890625,0.034912109375,-0.006591796875
1690841762192215800,5.9192158203125,-0.9808807373046875,0.0349578857421875,-0.0068817138671875
1690841762202257000,5.9292568359375,-0.9802398681640625,0.0350494384765625,-0.0069427490234375
1690841762212297000,5.939296875,-0.9812164306640625,0.034576416015625,-0.0074462890625
1690841762222337000,5.9493369140625,-0.98089599609375,0.034881591796875,-0.00775146484375
1690841762232377000,5.959377197265625,-0.9805145263671875,0.0349578857421875,-0.0078125
1690841762242418200,5.969418212890625,-0.98101806640625,0.0347442626953125,-0.007659912109375
1690841762252458000,5.9794580078125,-0.980987548828125,0.0345458984375,-0.0078277587890625
1690841762262497800,5.989497802734375,-0.9810943603515625,0.0339813232421875,-0.0072479248046875
1690841762272539000,5.999538818359375,-0.980865478515625,0.033782958984375,-0.0076446533203125
1690841762282579000,6.009578857421875,-0.981475830078125,0.033843994140625,-0.0069427490234375
1690841762292619000,6.019618896484375,-0.98138427734375,0.0340728759765625,-0.007659912109375
1690841762302690000,6.02968994140625,-0.9811553955078125,0.0335845947265625,-0.0072021484375
1690841762312730000,6.039730224609375,-0.980987548828125,0.0345001220703125,-0.0069427490234375
1690841762322771200,6.049771240234375,-0.981414794921875,0.0345458984375,-0.0075836181640625
1690841762332811000,6.05981103515625,-0.9808502197265625,0.0343475341796875,-0.0069122314453125
1690841762342850800,6.069850830078125,-0.98126220703125,0.03466796875,-0.0066375732421875
1690841762352891000,6.079890869140625,-0.9806671142578125,0.035308837890625,-0.007354736328125
1690841762362932000,6.089931884765625,-0.9808807373046875,0.0352783203125,-0.00732421875
1690841762372972000,6.099971923828125,-0.981414794921875,0.0345001220703125,-0.007354736328125
1690841762383012000,6.11001220703125,-0.9813232421875,0.0354461669921875,-0.0068511962890625
1690841762393052200,6.12005224609375,-0.98095703125,0.0355377197265625,-0.006805419921875
1690841762403093000,6.130093017578125,-0.980621337890625,0.03472900390625,-0.00714111328125
1690841762413132800,6.1401328125,-0.9813995361328125,0.034881591796875,-0.0069732666015625
1690841762423172900,6.1501728515625,-0.981414794921875,0.0348968505859375,-0.0077056884765625
1690841762433214000,6.1602138671875,-0.9813995361328125,0.0353851318359375,-0.0078582763671875
1690841762443284000,6.170283935546875,-0.98138427734375,0.0350341796875,-0.00628662109375
1690841762453325000,6.180324951171875,-0.981842041015625,0.0340423583984375,-0.0066375732421875
1690841762463365000,6.190365234375,-0.98175048828125,0.0338134765625,-0.008209228515625
1690841762473405000,6.200405029296875,-0.9808349609375,0.03460693359375,-0.0077362060546875
1690841762483445800,6.21044580078125,-0.9805450439453125,0.0345916748046875,-0.0076446533203125
1690841762493485800,6.22048583984375,-0.980682373046875,0.034271240234375,-0.006988525390625
1690841762503526000,6.23052587890625,-0.9811859130859375,0.0347747802734375,-0.00665283203125
1690841762513566000,6.24056591796875,-0.981689453125,0.035552978515625,-0.0072174072265625
1690841762523607000,6.25060693359375,-0.9809112548828125,0.0347747802734375,-0.00738525390625
1690841762533647000,6.260647216796875,-0.98114013671875,0.03436279296875,-0.0073089599609375
1690841762543687200,6.270687255859375,-0.98101806640625,0.0350799560546875,-0.0077056884765625
1690841762553728000,6.28072802734375,-0.9810791015625,0.0349578857421875,-0.0073394775390625
1690841762563767800,6.290767822265625,-0.9801788330078125,0.0342559814453125,-0.0070037841796875
1690841762573807900,6.300807861328125,-0.9805908203125,0.0341644287109375,-0.0074462890625
1690841762583879000,6.31087890625,-0.9806365966796875,0.034210205078125,-0.00726318359375
1690841762593919000,6.3209189453125,-0.9801025390625,0.033660888671875,-0.007568359375
1690841762603959000,6.330958984375,-0.9815673828125,0.035308837890625,-0.00732421875
1690841762614000000,6.341000244140625,-0.9822540283203125,0.03564453125,-0.007171630859375
1690841762624040000,6.3510400390625,-0.9819183349609375,0.034576416015625,-0.0077056884765625
1690841762634080000,6.361080078125,-0.9813079833984375,0.0338287353515625,-0.0078125
1690841762644120800,6.371120849609375,-0.9807586669921875,0.0348052978515625,-0.0076446533203125
1690841762654161000,6.381160888671875,-0.9809112548828125,0.0349884033203125,-0.0073089599609375
1690841762664201000,6.391200927734375,-0.980926513671875,0.03424072265625,-0.007110595703125
1690841762674241000,6.401240966796875,-0.9803314208984375,0.035003662109375,-0.0074005126953125
1690841762684282000,6.4112822265625,-0.9814605712890625,0.0341949462890625,-0.0071868896484375
1690841762694322200,6.421322265625,-0.98089599609375,0.0350189208984375,-0.0071258544921875
1690841762704362000,6.431362060546875,-0.980499267578125,0.0349273681640625,-0.0074462890625
1690841762714399200,6.441399169921875,-0.9810638427734375,0.03521728515625,-0.007232666015625
1690841762724469500,6.451469482421875,-0.98101806640625,0.0343170166015625,-0.0073394775390625
1690841762734510300,6.46151025390625,-0.9816741943359375,0.0352020263671875,-0.007171630859375
1690841762744550400,6.47155029296875,-0.98150634765625,0.0352783203125,-0.0072784423828125
1690841762754590200,6.481590087890625,-0.9812164306640625,0.034942626953125,-0.0080718994140625
1690841762764631300,6.49163134765625,-0.98046875,0.034393310546875,-0.008087158203125
1690841762774671400,6.50167138671875,-0.9810791015625,0.034149169921875,-0.00750732421875
1690841762784711400,6.51171142578125,-0.98187255859375,0.0341339111328125,-0.0066986083984375
1690841762794751500,6.52175146484375,-0.98138427734375,0.0348663330078125,-0.00726318359375
1690841762804792300,6.531792236328125,-0.9810791015625,0.03485107421875,-0.0073089599609375
1690841762814832400,6.541832275390625,-0.98193359375,0.0342254638671875,-0.007232666015625
1690841762824872400,6.55187255859375,-0.9805145263671875,0.03466796875,-0.00750732421875
1690841762834913500,6.56191357421875,-0.9817047119140625,0.0346221923828125,-0.00653076171875
1690841762844953300,6.571953369140625,-0.9816436767578125,0.0345306396484375,-0.0071563720703125
1690841762854993400,6.581993408203125,-0.9812774658203125,0.03497314453125,-0.006927490234375
1690841762865064400,6.592064453125,-0.9810333251953125,0.0351715087890625,-0.0066070556640625
1690841762875104500,6.6021044921875,-0.980712890625,0.0353240966796875,-0.0081024169921875
1690841762885144600,6.61214453125,-0.9815216064453125,0.0353546142578125,-0.0077056884765625
1690841762895185400,6.622185302734375,-0.98077392578125,0.03472900390625,-0.007415771484375
1690841762905225200,6.63222509765625,-0.9806976318359375,0.034423828125,-0.0068511962890625
1690841762915265300,6.642265380859375,-0.981201171875,0.0346527099609375,-0.0067138671875
1690841762925306400,6.652306396484375,-0.981414794921875,0.0347747802734375,-0.0073394775390625
1690841762935346400,6.662346435546875,-0.9815826416015625,0.0351409912109375,-0.0075836181640625
1690841762945386500,6.672386474609375,-0.9811553955078125,0.0342254638671875,-0.0074310302734375
1690841762955426600,6.682426513671875,-0.981414794921875,0.0349578857421875,-0.0069427490234375
1690841762965467400,6.69246728515625,-0.9812469482421875,0.034332275390625,-0.0075225830078125
1690841762975507200,6.702507080078125,-0.9799652099609375,0.0347747802734375,-0.007781982421875
1690841762985547300,6.71254736328125,-0.9809417724609375,0.03509521484375,-0.007171630859375
1690841762995588400,6.72258837890625,-0.98175048828125,0.0344696044921875,-0.0065460205078125
1690841763005658400,6.732658447265625,-0.9810333251953125,0.034576416015625,-0.0074005126953125
1690841763015699500,6.742699462890625,-0.9810638427734375,0.0350494384765625,-0.0073699951171875
1690841763025739500,6.752739501953125,-0.9803924560546875,0.034393310546875,-0.007110595703125
1690841763035779600,6.762779541015625,-0.9814910888671875,0.0351715087890625,-0.0066375732421875
1690841763045819400,6.7728193359375,-0.9815521240234375,0.035400390625,-0.0074310302734375
1690841763055860200,6.782860107421875,-0.981658935546875,0.035247802734375,-0.0077667236328125
1690841763065900300,6.792900390625,-0.9806976318359375,0.03521728515625,-0.0072784423828125
1690841763075940400,6.8029404296875,-0.9805908203125,0.0344085693359375,-0.007598876953125
1690841763085981400,6.8129814453125,-0.9806671142578125,0.034820556640625,-0.00726318359375
1690841763096021500,6.823021484375,-0.9805755615234375,0.0345306396484375,-0.0072021484375
1690841763106061600,6.8330615234375,-0.9808807373046875,0.0351104736328125,-0.0074462890625
1690841763116101400,6.843101318359375,-0.9822845458984375,0.035430908203125,-0.007110595703125
1690841763126142200,6.85314208984375,-0.98126220703125,0.034942626953125,-0.0073089599609375
1690841763136182300,6.863182373046875,-0.9806365966796875,0.0354156494140625,-0.0070953369140625
1690841763146253300,6.87325341796875,-0.9815673828125,0.0346221923828125,-0.0079803466796875
1690841763156293400,6.88329345703125,-0.9817047119140625,0.0341796875,-0.0067138671875
1690841763166333400,6.89333349609375,-0.9805908203125,0.033966064453125,-0.00701904296875
1690841763176374500,6.90337451171875,-0.98040771484375,0.0352630615234375,-0.007598876953125
1690841763186414600,6.91341455078125,-0.98101806640625,0.0341033935546875,-0.00738525390625
1690841763196454400,6.923454345703125,-0.9814605712890625,0.0351715087890625,-0.00762939453125
1690841763206495200,6.9334951171875,-0.9812164306640625,0.0348052978515625,-0.0074615478515625
1690841763216535300,6.943535400390625,-0.98101806640625,0.03472900390625,-0.007293701171875
1690841763226575400,6.953575439453125,-0.981231689453125,0.0356903076171875,-0.00726318359375
1690841763236615400,6.963615478515625,-0.981719970703125,0.03411865234375,-0.0072174072265625
1690841763246656500,6.973656494140625,-0.98175048828125,0.034515380859375,-0.00726318359375
1690841763256696600,6.983696533203125,-0.981781005859375,0.03485107421875,-0.007965087890625
1690841763266736400,6.993736328125,-0.98150634765625,0.03466796875,-0.007110595703125
1690841763276777200,7.003777099609375,-0.9811553955078125,0.0344696044921875,-0.00665283203125
1690841763286847200,7.01384716796875,-0.9813079833984375,0.034088134765625,-0.0067901611328125
1690841763296888300,7.023888427734375,-0.9815826416015625,0.035125732421875,-0.00714111328125
1690841763306928400,7.033928466796875,-0.9816436767578125,0.03509521484375,-0.007476806640625
1690841763316968400,7.043968505859375,-0.9814605712890625,0.034515380859375,-0.006866455078125
1690841763327008500,7.054008544921875,-0.982208251953125,0.0351104736328125,-0.00701904296875
1690841763337049600,7.064049560546875,-0.98187255859375,0.03546142578125,-0.0071563720703125
1690841763347089400,7.07408935546875,-0.98162841796875,0.0345916748046875,-0.0071258544921875
1690841763357129200,7.084129150390625,-0.9806671142578125,0.0350341796875,-0.006500244140625
1690841763367170300,7.09417041015625,-0.9816131591796875,0.03448486328125,-0.007476806640625
1690841763377210400,7.10421044921875,-0.9815216064453125,0.034576416015625,-0.0079345703125
1690841763387250400,7.11425048828125,-0.97998046875,0.0344696044921875,-0.0072784423828125
1690841763397290500,7.12429052734375,-0.9817352294921875,0.03472900390625,-0.0067596435546875
1690841763407331600,7.13433154296875,-0.9803314208984375,0.0350799560546875,-0.0075531005859375
1690841763417402400,7.14440234375,-0.9807586669921875,0.0352020263671875,-0.0069580078125
1690841763427442400,7.1544423828125,-0.9819488525390625,0.0348358154296875,-0.007049560546875
1690841763437482200,7.164482177734375,-0.981292724609375,0.034515380859375,-0.0074462890625
1690841763447522300,7.174522216796875,-0.9803314208984375,0.0349884033203125,-0.007080078125
1690841763457563400,7.1845634765625,-0.9804840087890625,0.0343475341796875,-0.0076446533203125
1690841763467603500,7.194603515625,-0.980712890625,0.03521728515625,-0.0073394775390625
1690841763477643500,7.2046435546875,-0.9808197021484375,0.0350494384765625,-0.0076141357421875
1690841763487684600,7.2146845703125,-0.981231689453125,0.0345001220703125,-0.0077362060546875
1690841763497724400,7.224724365234375,-0.9817962646484375,0.034210205078125,-0.0063323974609375
1690841763507764200,7.23476416015625,-0.981353759765625,0.035125732421875,-0.0070648193359375
1690841763517804300,7.24480419921875,-0.980316162109375,0.0349273681640625,-0.007720947265625
1690841763527845400,7.254845458984375,-0.980682373046875,0.0344390869140625,-0.0072784423828125
1690841763537885400,7.264885498046875,-0.9803924560546875,0.034881591796875,-0.0073089599609375
1690841763547925500,7.274925537109375,-0.98101806640625,0.0343475341796875,-0.0076904296875
1690841763557996300,7.284996337890625,-0.981475830078125,0.0335540771484375,-0.0064239501953125
1690841763568036400,7.295036376953125,-0.98150634765625,0.0348052978515625,-0.00701904296875
1690841763578077400,7.305077392578125,-0.98052978515625,0.0351715087890625,-0.0071258544921875
1690841763588117200,7.3151171875,-0.98193359375,0.0352935791015625,-0.0075836181640625
1690841763598157300,7.3251572265625,-0.9813385009765625,0.0356597900390625,-0.007720947265625
1690841763608197400,7.335197265625,-0.9807281494140625,0.035308837890625,-0.0076446533203125
1690841763618238500,7.345238525390625,-0.9810791015625,0.0352630615234375,-0.00732421875
1690841763628278500,7.355278564453125,-0.98162841796875,0.034637451171875,-0.0069427490234375
1690841763638318300,7.365318359375,-0.981414794921875,0.034332275390625,-0.006591796875
1690841763648359400,7.375359375,-0.9810333251953125,0.0351715087890625,-0.007049560546875
1690841763658399200,7.385399169921875,-0.9813232421875,0.034210205078125,-0.007537841796875
1690841763668439300,7.395439208984375,-0.9810943603515625,0.035186767578125,-0.0069122314453125
1690841763678479400,7.405479248046875,-0.9813385009765625,0.034393310546875,-0.0074615478515625
1690841763688520400,7.4155205078125,-0.980865478515625,0.0346221923828125,-0.00726318359375
1690841763698590200,7.425590087890625,-0.981048583984375,0.034881591796875,-0.0075531005859375
1690841763708631300,7.43563134765625,-0.98187255859375,0.03485107421875,-0.007171630859375
1690841763718679800,7.4456796875,-0.9823150634765625,0.0341339111328125,-0.007293701171875
1690841763728720000,7.455719970703125,-0.981231689453125,0.0346221923828125,-0.0071868896484375
1690841763738761000,7.465760986328125,-0.9809417724609375,0.03485107421875,-0.0072784423828125
1690841763748801000,7.475801025390625,-0.98126220703125,0.034515380859375,-0.0074615478515625
1690841763758841000,7.485841064453125,-0.9805755615234375,0.034912109375,-0.0080108642578125
1690841763768881200,7.495881103515625,-0.98077392578125,0.03472900390625,-0.0076904296875
1690841763778922000,7.505921875,-0.981170654296875,0.034698486328125,-0.0081024169921875
1690841763788961800,7.5159619140625,-0.98150634765625,0.0343475341796875,-0.0079803466796875
1690841763799001900,7.526001953125,-0.98028564453125,0.0347747802734375,-0.007110595703125
1690841763809043000,7.53604296875,-0.9814605712890625,0.0347900390625,-0.0076751708984375
1690841763819083000,7.5460830078125,-0.98089599609375,0.035064697265625,-0.0060272216796875
1690841763829123000,7.556123046875,-0.9811859130859375,0.0350341796875,-0.006866455078125
1690841763839194000,7.566194091796875,-0.98126220703125,0.0351104736328125,-0.007781982421875
1690841763849234200,7.576234130859375,-0.9814300537109375,0.0347900390625,-0.007110595703125
1690841763859275000,7.58627490234375,-0.980499267578125,0.034881591796875,-0.00738525390625
1690841763869314800,7.596314697265625,-0.9810943603515625,0.0347137451171875,-0.007659912109375
1690841763879355000,7.60635498046875,-0.9809417724609375,0.034637451171875,-0.006927490234375
1690841763889395000,7.61639501953125,-0.9807586669921875,0.0352325439453125,-0.00689697265625
1690841763899436000,7.62643603515625,-0.981109619140625,0.0348052978515625,-0.007415771484375
1690841763909476000,7.63647607421875,-0.98114013671875,0.0346832275390625,-0.00677490234375
1690841763919516200,7.64651611328125,-0.981658935546875,0.0340118408203125,-0.007415771484375
1690841763929557000,7.656556884765625,-0.9812164306640625,0.0339813232421875,-0.008148193359375
1690841763939596800,7.6665966796875,-0.9812164306640625,0.0338287353515625,-0.00823974609375
1690841763949636900,7.676636962890625,-0.9813995361328125,0.0345001220703125,-0.0072784423828125
1690841763959677000,7.686677001953125,-0.981414794921875,0.035430908203125,-0.007415771484375
1690841763969718000,7.696718017578125,-0.9810791015625,0.0353851318359375,-0.007354736328125
1690841763979788000,7.7067880859375,-0.9821014404296875,0.0355224609375,-0.0070343017578125
1690841763989829000,7.7168291015625,-0.9813995361328125,0.0346832275390625,-0.0066680908203125
1690841763999869200,7.726869140625,-0.980804443359375,0.03521728515625,-0.00726318359375
1690841764009909000,7.736908935546875,-0.9806365966796875,0.03515625,-0.0072021484375
1690841764019949800,7.74694970703125,-0.9818115234375,0.0357208251953125,-0.006622314453125
1690841764029990000,7.756989990234375,-0.9805145263671875,0.0351715087890625,-0.0075225830078125
1690841764040030000,7.767030029296875,-0.981719970703125,0.035369873046875,-0.0071868896484375
1690841764050070000,7.777070068359375,-0.9826202392578125,0.0351104736328125,-0.0068206787109375
1690841764060111000,7.787111083984375,-0.98028564453125,0.034912109375,-0.0072021484375
1690841764070151200,7.797151123046875,-0.981536865234375,0.0352630615234375,-0.006866455078125
1690841764080191000,7.80719091796875,-0.9813232421875,0.035125732421875,-0.0078887939453125
1690841764090231800,7.817231689453125,-0.980743408203125,0.035003662109375,-0.00787353515625
1690841764100271900,7.82727197265625,-0.981353759765625,0.03497314453125,-0.0081939697265625
1690841764110312000,7.83731201171875,-0.981536865234375,0.034912109375,-0.0070953369140625
1690841764120383000,7.847383056640625,-0.9814453125,0.0352783203125,-0.006866455078125
1690841764130423000,7.857423095703125,-0.9813385009765625,0.0346832275390625,-0.0074615478515625
1690841764140464000,7.867464111328125,-0.9812469482421875,0.0356903076171875,-0.0076446533203125
1690841764150504200,7.877504150390625,-0.9812774658203125,0.0353851318359375,-0.00714111328125
1690841764160544000,7.8875439453125,-0.9811553955078125,0.03485107421875,-0.0074310302734375
1690841764170584000,7.897583984375,-0.9812164306640625,0.035064697265625,-0.008270263671875
1690841764180625000,7.907625,-0.980926513671875,0.0353240966796875,-0.008026123046875
1690841764190665000,7.9176650390625,-0.982025146484375,0.0363922119140625,-0.0070648193359375
1690841764200705000,7.927705078125,-0.981414794921875,0.034942626953125,-0.0067291259765625
1690841764210745000,7.9377451171875,-0.980926513671875,0.0350799560546875,-0.0078277587890625
1690841764220786200,7.9477861328125,-0.9818267822265625,0.0352325439453125,-0.007598876953125
1690841764230826000,7.957825927734375,-0.9808807373046875,0.035614013671875,-0.0072479248046875
1690841764240866000,7.967865966796875,-0.980804443359375,0.03424072265625,-0.006988525390625
1690841764250907000,7.977906982421875,-0.98114013671875,0.034698486328125,-0.0079803466796875
1690841764260977200,7.98797705078125,-0.980926513671875,0.034576416015625,-0.0077362060546875
1690841764271018000,7.99801806640625,-0.981353759765625,0.035125732421875,-0.0082244873046875
1690841764281058000,8.00805810546875,-0.9809417724609375,0.0352325439453125,-0.00726318359375
1690841764291098000,8.01809814453125,-0.98211669921875,0.035400390625,-0.0078887939453125
1690841764301139200,8.02813916015625,-0.9812774658203125,0.034820556640625,-0.0078582763671875
1690841764311179000,8.038178955078125,-0.98101806640625,0.0346832275390625,-0.007415771484375
1690841764321219000,8.048218994140624,-0.9810791015625,0.0352325439453125,-0.0069580078125
1690841764331259100,8.058259033203125,-0.9809722900390625,0.0352325439453125,-0.00689697265625
1690841764341300000,8.068300048828124,-0.9809112548828125,0.034332275390625,-0.00714111328125
1690841764351340000,8.078340087890625,-0.9813079833984375,0.0340423583984375,-0.0067596435546875
1690841764361380000,8.088380126953124,-0.9818572998046875,0.0347747802734375,-0.0072784423828125
1690841764371421200,8.098421142578125,-0.98077392578125,0.03509521484375,-0.0078887939453125
1690841764381461000,8.1084609375,-0.9814605712890625,0.034576416015625,-0.0070343017578125
1690841764391501000,8.1185009765625,-0.981353759765625,0.0358123779296875,-0.007171630859375
1690841764401572000,8.128572021484375,-0.981353759765625,0.035491943359375,-0.007568359375
1690841764411612200,8.138612060546874,-0.9807891845703125,0.0345458984375,-0.00750732421875
1690841764421652000,8.14865185546875,-0.98077392578125,0.0350341796875,-0.007232666015625
1690841764431693000,8.158693115234374,-0.981475830078125,0.0351715087890625,-0.0077972412109375
1690841764441732900,8.16873291015625,-0.981231689453125,0.0351409912109375,-0.0075225830078125
1690841764451773000,8.17877294921875,-0.9816131591796875,0.0352935791015625,-0.0073089599609375
1690841764461814000,8.18881396484375,-0.981414794921875,0.034942626953125,-0.0077056884765625
1690841764471854000,8.19885400390625,-0.980804443359375,0.0347747802734375,-0.0081787109375
1690841764481894100,8.20889404296875,-0.98138427734375,0.03460693359375,-0.0073394775390625
1690841764491934000,8.218933837890624,-0.9813232421875,0.0349273681640625,-0.007354736328125
1690841764501975000,8.22897509765625,-0.9806671142578125,0.0351104736328125,-0.00665283203125
1690841764512015000,8.23901513671875,-0.9813385009765625,0.03485107421875,-0.0072174072265625
1690841764522055000,8.249054931640625,-0.9809722900390625,0.035247802734375,-0.007965087890625
1690841764532096000,8.259095947265624,-0.98162841796875,0.035186767578125,-0.0079498291015625
1690841764542166000,8.269166015625,-0.9809417724609375,0.0350189208984375,-0.0084686279296875
1690841764552207000,8.27920703125,-0.9816741943359375,0.03546142578125,-0.007232666015625
1690841764562247000,8.289246826171874,-0.98114013671875,0.0351409912109375,-0.00762939453125
1690841764572287000,8.299286865234375,-0.98077392578125,0.0348052978515625,-0.007965087890625
1690841764582328000,8.309328125,-0.9804229736328125,0.0352325439453125,-0.0081787109375
1690841764592367900,8.319367919921875,-0.9821014404296875,0.0352630615234375,-0.0068511962890625
1690841764602408000,8.329407958984374,-0.981536865234375,0.03466796875,-0.006805419921875
1690841764612448000,8.339447998046875,-0.9816436767578125,0.03375244140625,-0.0070343017578125
1690841764622489000,8.349489013671874,-0.9819183349609375,0.0342864990234375,-0.007598876953125
1690841764632529000,8.35952880859375,-0.982208251953125,0.034912109375,-0.0073394775390625
1690841764642569000,8.36956884765625,-0.9826812744140625,0.034393310546875,-0.008056640625
1690841764652609000,8.379609130859375,-0.981781005859375,0.0341949462890625,-0.0074920654296875
1690841764662650000,8.389650146484374,-0.98187255859375,0.034637451171875,-0.007537841796875
1690841764672690000,8.39968994140625,-0.9818572998046875,0.0355224609375,-0.0074615478515625
1690841764682761000,8.409760986328125,-0.983001708984375,0.0343170166015625,-0.0070953369140625
1690841764692801000,8.419801025390624,-0.9815673828125,0.0345458984375,-0.006317138671875
1690841764702841000,8.429841064453125,-0.980255126953125,0.0344696044921875,-0.0070037841796875
1690841764712882000,8.4398818359375,-0.9810028076171875,0.03485107421875,-0.0076904296875
1690841764722894800,8.449894775390625,-0.9815673828125,0.0351715087890625,-0.0071258544921875
1690841764732934700,8.4599345703125,-0.9827423095703125,0.035736083984375,-0.006805419921875
1690841764742975700,8.469975830078125,-0.9816131591796875,0.034820556640625,-0.0068511962890625
1690841764753015800,8.480015869140624,-0.98126220703125,0.0352325439453125,-0.00799560546875
1690841764763055900,8.490055908203125,-0.980804443359375,0.035247802734375,-0.0076904296875
1690841764773096000,8.500095947265624,-0.9814300537109375,0.035400390625,-0.00750732421875
1690841764783136800,8.51013671875,-0.981170654296875,0.03509521484375,-0.0068206787109375
1690841764793176800,8.5201767578125,-0.9812164306640625,0.034942626953125,-0.0062713623046875
1690841764803216600,8.530216552734375,-0.981353759765625,0.0353240966796875,-0.00689697265625
1690841764813257700,8.5402578125,-0.980926513671875,0.0352630615234375,-0.007415771484375
1690841764823327700,8.55032763671875,-0.98187255859375,0.035064697265625,-0.007080078125
1690841764833368800,8.560368896484375,-0.981353759765625,0.03521728515625,-0.0072021484375
1690841764843409000,8.570408935546874,-0.981231689453125,0.0349884033203125,-0.0074920654296875
1690841764853449000,8.580448974609375,-0.980499267578125,0.0345611572265625,-0.0070953369140625
1690841764863488800,8.59048876953125,-0.9814605712890625,0.034576416015625,-0.0074005126953125
1690841764873529900,8.60052978515625,-0.9810638427734375,0.0352935791015625,-0.007232666015625
1690841764883569700,8.610569580078124,-0.981201171875,0.0347900390625,-0.00714111328125
1690841764893609700,8.620609619140625,-0.98193359375,0.0348358154296875,-0.0082855224609375
1690841764903650800,8.63065087890625,-0.980621337890625,0.03497314453125,-0.007720947265625
1690841764913691000,8.64069091796875,-0.980682373046875,0.035369873046875,-0.00738525390625
1690841764923731000,8.65073095703125,-0.9814453125,0.0348968505859375,-0.007476806640625
1690841764933771000,8.66077099609375,-0.9812469482421875,0.0351409912109375,-0.007720947265625
1690841764943811800,8.670811767578124,-0.9808502197265625,0.0352630615234375,-0.0066375732421875
1690841764953851600,8.6808515625,-0.980682373046875,0.035125732421875,-0.007049560546875
1690841764963922700,8.690922607421875,-0.9808502197265625,0.035064697265625,-0.007659912109375
1690841764973962800,8.700962646484374,-0.9801788330078125,0.034637451171875,-0.007415771484375
1690841764984002800,8.7110029296875,-0.9810791015625,0.0347442626953125,-0.0077056884765625
1690841764994044000,8.7210439453125,-0.98199462890625,0.0359344482421875,-0.0070343017578125
1690841765004084000,8.731083984375,-0.9819183349609375,0.0351715087890625,-0.00732421875
1690841765014123800,8.741123779296874,-0.980316162109375,0.03448486328125,-0.0078125
1690841765024164600,8.75116455078125,-0.9810638427734375,0.0345458984375,-0.008026123046875
1690841765034204700,8.76120458984375,-0.980987548828125,0.0341339111328125,-0.008544921875
1690841765044244700,8.77124462890625,-0.9813690185546875,0.0351409912109375,-0.0081329345703125
1690841765054284800,8.781284912109374,-0.9810638427734375,0.0350799560546875,-0.0074920654296875
1690841765064326000,8.791325927734375,-0.981903076171875,0.0346221923828125,-0.00689697265625
1690841765074366000,8.801365966796874,-0.9812774658203125,0.03497314453125,-0.0072021484375
1690841765084406000,8.811406005859375,-0.9805145263671875,0.0345916748046875,-0.006561279296875
1690841765094476800,8.821476806640625,-0.98028564453125,0.03472900390625,-0.007415771484375
1690841765104516900,8.831516845703124,-0.98175048828125,0.0350341796875,-0.0079193115234375
1690841765114557700,8.8415576171875,-0.9817352294921875,0.0357208251953125,-0.006317138671875
1690841765124597800,8.85159765625,-0.9804229736328125,0.035369873046875,-0.0069580078125
1690841765134637800,8.861637939453125,-0.9815521240234375,0.0348358154296875,-0.0076141357421875
1690841765144678000,8.871677978515624,-0.9823760986328125,0.0348663330078125,-0.0072174072265625
1690841765154719000,8.881718994140625,-0.982208251953125,0.034881591796875,-0.0072021484375
1690841765164758800,8.8917587890625,-0.9812774658203125,0.0353851318359375,-0.007049560546875
1690841765174798800,8.901798828125,-0.9801483154296875,0.0348052978515625,-0.0078582763671875
1690841765184839700,8.911839599609374,-0.9814300537109375,0.0341339111328125,-0.007232666015625
1690841765194879700,8.921879638671875,-0.98052978515625,0.03515625,-0.00738525390625
1690841765204919800,8.931919921875,-0.98065185546875,0.0347442626953125,-0.0072784423828125
1690841765214959900,8.9419599609375,-0.9810943603515625,0.034576416015625,-0.00738525390625
1690841765225001000,8.9520009765625,-0.9816131591796875,0.0350494384765625,-0.007598876953125
1690841765235072000,8.962072021484374,-0.982421875,0.03533935546875,-0.0071563720703125
1690841765245111800,8.97211181640625,-0.981414794921875,0.0353851318359375,-0.007843017578125
1690841765255151900,8.98215185546875,-0.9794158935546875,0.0351409912109375,-0.0072174072265625
1690841765265191700,8.992191650390625,-0.98101806640625,0.0346221923828125,-0.0067901611328125
1690841765275232800,9.002232666015624,-0.9815521240234375,0.035247802734375,-0.0076904296875
1690841765285272800,9.01227294921875,-0.981536865234375,0.034881591796875,-0.0076904296875
1690841765295313000,9.02231298828125,-0.9814453125,0.0354766845703125,-0.007598876953125
1690841765305352700,9.032352783203125,-0.9811859130859375,0.0353851318359375,-0.007415771484375
1690841765315393800,9.042393798828124,-0.980682373046875,0.0350494384765625,-0.0079193115234375
1690841765325433900,9.052433837890625,-0.9808807373046875,0.0349884033203125,-0.007904052734375
1690841765335473700,9.0624736328125,-0.980804443359375,0.03472900390625,-0.008209228515625
1690841765345514800,9.0725146484375,-0.9805755615234375,0.034515380859375,-0.0071868896484375
1690841765355554800,9.082554931640624,-0.98101806640625,0.035125732421875,-0.007476806640625
1690841765365595000,9.092594970703125,-0.9809112548828125,0.0352783203125,-0.0075225830078125
1690841765375666000,9.102666015625,-0.982086181640625,0.035430908203125,-0.007049560546875
1690841765385705700,9.112705810546874,-0.979278564453125,0.036163330078125,-0.007232666015625
1690841765395746800,9.122746826171875,-0.9732208251953125,-0.016387939453125,-0.0217132568359375
1690841765405787000,9.132786865234374,-1.0418243408203125,0.032562255859375,0.0364227294921875
1690841765415826700,9.14282666015625,-0.942230224609375,0.05615234375,-0.0018463134765625
1690841765425866800,9.15286669921875,-0.9837799072265625,0.0555877685546875,-0.0106353759765625
1690841765435907800,9.162907958984375,-0.9612579345703125,0.0693206787109375,-0.018890380859375
1690841765445948000,9.172947998046874,-0.9863433837890625,0.0588836669921875,-0.001068115234375
1690841765455987700,9.18298779296875,-0.97357177734375,0.0275421142578125,-0.021026611328125
1690841765466028800,9.19302880859375,-0.984130859375,0.03985595703125,-0.0094451904296875
1690841765476068600,9.203068603515625,-0.97869873046875,0.0388336181640625,-0.015594482421875
1690841765486108700,9.213108642578124,-0.9835205078125,0.0305938720703125,-0.02532958984375
1690841765496148700,9.223148681640625,-0.9754180908203125,0.0317840576171875,-0.0217437744140625
1690841765506189800,9.23318994140625,-0.9835357666015625,0.030975341796875,-0.0201873779296875
1690841765516259800,9.243259765625,-0.98138427734375,0.029815673828125,-0.0189971923828125
1690841765526301000,9.253301025390625,-0.9811553955078125,0.030029296875,-0.0146026611328125
1690841765536340700,9.2633408203125,-0.979248046875,0.03045654296875,-0.009735107421875
1690841765546380800,9.273380859375,-0.9884185791015625,0.03125,-0.0051116943359375
1690841765556421600,9.283421630859374,-0.9783782958984375,0.0325164794921875,-0.0009307861328125
1690841765566461700,9.293461669921875,-0.9852447509765625,0.03387451171875,0.0042572021484375
1690841765576501800,9.303501708984374,-0.9833526611328125,0.033538818359375,0.0055084228515625
1690841765586541800,9.313541748046875,-0.982879638671875,0.033905029296875,0.0045928955078125
1690841765596583000,9.3235830078125,-0.9833221435546875,0.03460693359375,0.0035552978515625
1690841765606622700,9.333622802734375,-0.98193359375,0.03399658203125,-0.000396728515625
1690841765616662800,9.343662841796874,-0.9833984375,0.03436279296875,-0.00335693359375
1690841765626703600,9.35370361328125,-0.9810028076171875,0.0349273681640625,-0.00750732421875
1690841765636743700,9.36374365234375,-0.97821044921875,0.034576416015625,-0.0114288330078125
1690841765646783700,9.37378369140625,-0.9839019775390625,0.034271240234375,-0.01336669921875
1690841765656854800,9.383854736328125,-0.9783935546875,0.034881591796875,-0.0156707763671875
1690841765666894600,9.39389453125,-0.9796600341796875,0.0352630615234375,-0.0175628662109375
1690841765676936000,9.40393603515625,-0.980865478515625,0.0349273681640625,-0.01806640625
1690841765686975700,9.413975830078124,-0.9782867431640625,0.0362548828125,-0.0166168212890625
1690841765697015800,9.424015869140625,-0.978057861328125,0.037139892578125,-0.0152130126953125
1690841765707055900,9.434055908203124,-0.9811248779296875,0.0383148193359375,-0.01324462890625
1690841765717096400,9.444096435546875,-0.9794921875,0.0386962890625,-0.0107269287109375
1690841765727136500,9.454136474609374,-0.98052978515625,0.03997802734375,-0.007720947265625
1690841765737176600,9.464176513671875,-0.9793243408203125,0.0399932861328125,-0.00604248046875
1690841765747217700,9.4742177734375,-0.980987548828125,0.0400238037109375,-0.0036163330078125
1690841765757257700,9.4842578125,-0.9810638427734375,0.03936767578125,-0.002044677734375
1690841765767297800,9.4942978515625,-0.98046875,0.0388946533203125,-0.0027313232421875
1690841765777337600,9.504337646484375,-0.9828338623046875,0.0377197265625,-0.0044403076171875
1690841765787378400,9.51437841796875,-0.9824066162109375,0.0360107421875,-0.00445556640625
1690841765797448700,9.52444873046875,-0.980560302734375,0.034088134765625,-0.0061798095703125
1690841765807489500,9.534489501953125,-0.9829254150390625,0.033935546875,-0.006805419921875
1690841765817529600,9.544529541015624,-0.9824066162109375,0.0313873291015625,-0.0084991455078125
1690841765827569700,9.554569580078125,-0.980865478515625,0.03118896484375,-0.01104736328125
1690841765837610800,9.56461083984375,-0.982452392578125,0.031463623046875,-0.0112152099609375
1690841765847650600,9.574650634765625,-0.9808197021484375,0.030517578125,-0.0115966796875
1690841765857690600,9.584690673828124,-0.9811553955078125,0.0310516357421875,-0.0116729736328125
1690841765867730700,9.594730712890625,-0.98223876953125,0.0322265625,-0.01153564453125
1690841765877771500,9.604771484375,-0.9818878173828125,0.0333709716796875,-0.01007080078125
1690841765887811600,9.6148115234375,-0.982025146484375,0.03350830078125,-0.0086212158203125
1690841765897851600,9.6248515625,-0.981964111328125,0.03448486328125,-0.0077972412109375
1690841765907892700,9.634892822265625,-0.981781005859375,0.0367584228515625,-0.0060882568359375
1690841765917932500,9.6449326171875,-0.9816741943359375,0.037109375,-0.0059051513671875
1690841765927972600,9.65497265625,-0.979736328125,0.0377655029296875,-0.0055999755859375
1690841765938043600,9.665043701171875,-0.980194091796875,0.03826904296875,-0.0056610107421875
1690841765948083700,9.675083740234374,-0.9810333251953125,0.038177490234375,-0.005523681640625
1690841765958123800,9.685123779296875,-0.978973388671875,0.0379791259765625,-0.007232666015625
1690841765968164600,9.69516455078125,-0.9799041748046875,0.0375213623046875,-0.007781982421875
1690841765978204700,9.70520458984375,-0.9806060791015625,0.036712646484375,-0.0083160400390625
1690841765988244500,9.715244384765626,-0.9810791015625,0.037628173828125,-0.009002685546875
1690841765998285600,9.72528564453125,-0.98040771484375,0.036956787109375,-0.009979248046875
1690841766008325600,9.73532568359375,-0.9792327880859375,0.0359039306640625,-0.01129150390625
1690841766018365700,9.74536572265625,-0.980712890625,0.0362396240234375,-0.0110321044921875
1690841766028405800,9.75540576171875,-0.980133056640625,0.035797119140625,-0.011566162109375
1690841766038446600,9.765446533203125,-0.9807891845703125,0.0346832275390625,-0.009796142578125
1690841766048486700,9.775486572265624,-0.9820098876953125,0.034332275390625,-0.0099945068359375
1690841766058526500,9.7855263671875,-0.9814605712890625,0.0337982177734375,-0.0082550048828125
1690841766068567600,9.795567626953124,-0.9813232421875,0.035003662109375,-0.0084686279296875
1690841766078637600,9.805637451171876,-0.9821624755859375,0.0348358154296875,-0.0073699951171875
1690841766088678700,9.8156787109375,-0.9812469482421875,0.0347137451171875,-0.0066680908203125
1690841766098718700,9.82571875,-0.9815216064453125,0.0334930419921875,-0.0057373046875
1690841766108758800,9.8357587890625,-0.982421875,0.034088134765625,-0.0047607421875
1690841766118799600,9.845799560546874,-0.980865478515625,0.034637451171875,-0.00518798828125
1690841766128839700,9.855839599609375,-0.98150634765625,0.0346527099609375,-0.0065155029296875
1690841766138879500,9.86587939453125,-0.9808349609375,0.0354461669921875,-0.0080108642578125
1690841766148919600,9.87591943359375,-0.9805755615234375,0.0354461669921875,-0.00836181640625
1690841766158960600,9.885960693359374,-0.9814910888671875,0.035064697265625,-0.0087890625
1690841766169000700,9.896000732421875,-0.980316162109375,0.0359039306640625,-0.0096893310546875
1690841766179040800,9.906040771484374,-0.9814300537109375,0.035736083984375,-0.010009765625
1690841766189081600,9.91608154296875,-0.981414794921875,0.0355987548828125,-0.00970458984375
1690841766199121700,9.92612158203125,-0.981292724609375,0.0358123779296875,-0.009796142578125
1690841766209161500,9.936161376953125,-0.9805145263671875,0.036163330078125,-0.009857177734375
1690841766219232500,9.946232421875,-0.98004150390625,0.035858154296875,-0.0097503662109375
1690841766229272600,9.9562724609375,-0.98095703125,0.0365753173828125,-0.008575439453125
1690841766239312600,9.966312744140625,-0.9801025390625,0.03704833984375,-0.008575439453125
1690841766249353700,9.976353759765624,-0.9812164306640625,0.0370635986328125,-0.0080108642578125
1690841766259393800,9.986393798828125,-0.9820098876953125,0.0367889404296875,-0.0079803466796875
1690841766269433900,9.996433837890624,-0.9808197021484375,0.036529541015625,-0.0076141357421875
1690841766279474700,10.006474609375,-0.980133056640625,0.03662109375,-0.007904052734375
1690841766289514500,10.016514404296874,-0.981658935546875,0.0364990234375,-0.008056640625
1690841766299554600,10.026554443359375,-0.9810638427734375,0.0362091064453125,-0.0077667236328125
1690841766309594600,10.0365947265625,-0.980712890625,0.0355224609375,-0.007659912109375
1690841766319635700,10.0466357421875,-0.9813232421875,0.0347900390625,-0.0082855224609375
1690841766329675800,10.05667578125,-0.981781005859375,0.033905029296875,-0.008331298828125
1690841766339715800,10.0667158203125,-0.9813079833984375,0.0356597900390625,-0.0087890625
1690841766349756700,10.076756591796874,-0.98175048828125,0.034637451171875,-0.0084228515625
1690841766359826700,10.08682666015625,-0.982391357421875,0.0340118408203125,-0.0087890625
1690841766369867500,10.096867431640625,-0.9812164306640625,0.034637451171875,-0.0085906982421875
1690841766379907600,10.106907470703124,-0.9814300537109375,0.0353546142578125,-0.0090179443359375
1690841766389947600,10.11694775390625,-0.9811553955078125,0.03497314453125,-0.009368896484375
1690841766399988700,10.12698876953125,-0.9822998046875,0.0343170166015625,-0.008636474609375
1690841766410028800,10.13702880859375,-0.980682373046875,0.0354461669921875,-0.007568359375
1690841766420068900,10.14706884765625,-0.9812164306640625,0.0349884033203125,-0.0082855224609375
1690841766430108700,10.157108642578125,-0.9808807373046875,0.03594970703125,-0.0077972412109375
1690841766440149500,10.1671494140625,-0.9822235107421875,0.0367889404296875,-0.00677490234375
1690841766450189600,10.177189453125,-0.9807586669921875,0.0369110107421875,-0.00830078125
1690841766460229600,10.187229736328124,-0.981689453125,0.0359039306640625,-0.0093536376953125
1690841766470269700,10.197269775390625,-0.9804229736328125,0.0361785888671875,-0.008575439453125
1690841766480310800,10.207310791015624,-0.982177734375,0.03631591796875,-0.0091094970703125
1690841766490350800,10.217350830078125,-0.9806671142578125,0.0361175537109375,-0.0091400146484375
1690841766500421600,10.227421630859375,-0.9819488525390625,0.0368194580078125,-0.0093841552734375
1690841766510461700,10.237461669921874,-0.9799346923828125,0.0362091064453125,-0.00921630859375
1690841766520501500,10.24750146484375,-0.9813690185546875,0.0358428955078125,-0.008575439453125
1690841766530542600,10.25754248046875,-0.9806060791015625,0.0350189208984375,-0.0092926025390625
1690841766540582700,10.267582763671875,-0.980743408203125,0.03619384765625,-0.0092620849609375
1690841766550622700,10.277622802734374,-0.9807586669921875,0.035888671875,-0.0084686279296875
1690841766560663800,10.287663818359375,-0.981231689453125,0.03546142578125,-0.007781982421875
1690841766570704000,10.297703857421874,-0.981536865234375,0.035888671875,-0.0083770751953125
1690841766580743400,10.307743408203125,-0.981170654296875,0.0356292724609375,-0.008392333984375
1690841766590783500,10.317783447265626,-0.9806060791015625,0.0350494384765625,-0.0074005126953125
1690841766600824600,10.327824462890625,-0.9817962646484375,0.035247802734375,-0.0067596435546875
1690841766610864600,10.33786474609375,-0.981719970703125,0.035247802734375,-0.0081329345703125
1690841766620904700,10.34790478515625,-0.98187255859375,0.034698486328125,-0.0078887939453125
1690841766630945800,10.35794580078125,-0.98150634765625,0.0353546142578125,-0.00811767578125
1690841766641015600,10.368015625,-0.982635498046875,0.035064697265625,-0.0081024169921875
1690841766651056600,10.378056640625,-0.9816741943359375,0.0357513427734375,-0.009124755859375
1690841766661096400,10.388096435546874,-0.980621337890625,0.0350189208984375,-0.0090179443359375
1690841766671136500,10.398136474609375,-0.9814910888671875,0.03564453125,-0.008392333984375
1690841766681176600,10.408176513671876,-0.981292724609375,0.0356597900390625,-0.007843017578125
1690841766691217700,10.4182177734375,-0.9812469482421875,0.0365447998046875,-0.0078125
1690841766701257700,10.4282578125,-0.981597900390625,0.036163330078125,-0.008819580078125
1690841766711297500,10.438297607421875,-0.9807891845703125,0.0357208251953125,-0.0089263916015625
1690841766721336800,10.4483369140625,-0.981231689453125,0.0362548828125,-0.008636474609375
1690841766731377000,10.458376953125,-0.981109619140625,0.0360260009765625,-0.0084381103515625
1690841766741416700,10.468416748046875,-0.9810638427734375,0.035858154296875,-0.0089874267578125
1690841766751456800,10.478456787109375,-0.9813995361328125,0.0360260009765625,-0.0081787109375
1690841766761497900,10.488497802734376,-0.9814910888671875,0.0364227294921875,-0.0084075927734375
1690841766771537700,10.49853759765625,-0.9810333251953125,0.0356292724609375,-0.009368896484375
1690841766781608700,10.508608642578125,-0.9805450439453125,0.035430908203125,-0.0089874267578125
1690841766791648800,10.518648681640625,-0.9806365966796875,0.0354766845703125,-0.0089111328125
1690841766801688800,10.528688720703125,-0.980621337890625,0.0349578857421875,-0.0086212158203125
1690841766811730000,10.53872998046875,-0.9818878173828125,0.034881591796875,-0.0080718994140625
1690841766821769700,10.548769775390625,-0.98162841796875,0.03521728515625,-0.00860595703125
1690841766831809800,10.558809814453125,-0.9809417724609375,0.03533935546875,-0.0082550048828125
1690841766841851000,10.568850830078125,-0.98126220703125,0.03564453125,-0.007476806640625
1690841766851890700,10.578890625,-0.981292724609375,0.03680419921875,-0.0080108642578125
1690841766861930800,10.5889306640625,-0.981903076171875,0.036407470703125,-0.0082855224609375
1690841766871970800,10.598970703125,-0.9817962646484375,0.035675048828125,-0.0084228515625
1690841766882012000,10.609011962890625,-0.9814605712890625,0.035797119140625,-0.007965087890625
1690841766892051700,10.6190517578125,-0.9808807373046875,0.0351104736328125,-0.0094451904296875
1690841766902091800,10.629091796875,-0.980682373046875,0.0343475341796875,-0.008819580078125
1690841766912162800,10.639162841796875,-0.9816436767578125,0.0347747802734375,-0.008270263671875
1690841766922203000,10.649202880859375,-0.981353759765625,0.035369873046875,-0.008514404296875
1690841766932243700,10.65924365234375,-0.980682373046875,0.035400390625,-0.0086822509765625
1690841766942283800,10.66928369140625,-0.9807891845703125,0.0360260009765625,-0.008880615234375
1690841766952323600,10.679323486328125,-0.981292724609375,0.03570556640625,-0.0083160400390625
1690841766962363600,10.68936376953125,-0.98199462890625,0.0359954833984375,-0.0086669921875
1690841766972404700,10.69940478515625,-0.982330322265625,0.036346435546875,-0.0090789794921875
1690841766982444800,10.70944482421875,-0.9808197021484375,0.035614013671875,-0.0085906982421875
1690841766992484900,10.71948486328125,-0.9808502197265625,0.035125732421875,-0.0083465576171875
1690841767002525700,10.729525634765626,-0.9807891845703125,0.0352935791015625,-0.0086669921875
1690841767012565800,10.739565673828125,-0.9810028076171875,0.0348968505859375,-0.008148193359375
1690841767022605800,10.749605712890625,-0.98150634765625,0.0352630615234375,-0.008087158203125
1690841767032645600,10.759645751953125,-0.98065185546875,0.035430908203125,-0.0081787109375
1690841767042686700,10.769686767578126,-0.98211669921875,0.0350189208984375,-0.0090789794921875
1690841767052757800,10.7797578125,-0.98150634765625,0.035614013671875,-0.00787353515625
1690841767062797800,10.7897978515625,-0.980499267578125,0.0362701416015625,-0.008575439453125
1690841767072838000,10.799837890625,-0.9815216064453125,0.0360565185546875,-0.008819580078125
1690841767082878000,10.8098779296875,-0.981475830078125,0.0358123779296875,-0.0083770751953125
1690841767092918800,10.819918701171876,-0.981536865234375,0.0355987548828125,-0.007781982421875
1690841767102958600,10.82995849609375,-0.981231689453125,0.035308837890625,-0.0081329345703125
1690841767112998700,10.83999853515625,-0.98114013671875,0.0352935791015625,-0.0087738037109375
1690841767123038700,10.850038818359375,-0.9812469482421875,0.03497314453125,-0.00848388671875
1690841767133079800,10.860079833984376,-0.9818878173828125,0.0356903076171875,-0.0089111328125
1690841767143120000,10.870119873046875,-0.9809722900390625,0.035308837890625,-0.008544921875
1690841767153160000,10.880159912109375,-0.9810333251953125,0.0351409912109375,-0.0081787109375
1690841767163200800,10.89020068359375,-0.98150634765625,0.035797119140625,-0.007965087890625
1690841767173240800,10.90024072265625,-0.9814910888671875,0.03607177734375,-0.0088348388671875
1690841767183280600,10.91028076171875,-0.98126220703125,0.0362091064453125,-0.0089874267578125
1690841767193351700,10.9203515625,-0.9817962646484375,0.0354461669921875,-0.008331298828125
1690841767203391700,10.930391845703125,-0.9810791015625,0.035797119140625,-0.0080413818359375
1690841767213432800,10.940432861328125,-0.9809417724609375,0.0362548828125,-0.0078125
1690841767223473000,10.950472900390626,-0.9820098876953125,0.0357818603515625,-0.00897216796875
1690841767233513000,10.960512939453125,-0.981292724609375,0.0358734130859375,-0.0089263916015625
1690841767243552800,10.970552734375,-0.981048583984375,0.036163330078125,-0.0092010498046875
1690841767253593600,10.980593505859375,-0.9800567626953125,0.035491943359375,-0.008331298828125
1690841767263633700,10.990633544921875,-0.980377197265625,0.0356292724609375,-0.0082244873046875
1690841767273673700,11.000673828125,-0.9808807373046875,0.03558349609375,-0.0086822509765625
1690841767283714800,11.01071484375,-0.9814300537109375,0.036285400390625,-0.0089263916015625
1690841767293755000,11.0207548828125,-0.9805755615234375,0.035614013671875,-0.008514404296875
1690841767303795000,11.030794921875,-0.9817047119140625,0.0355224609375,-0.0084686279296875
1690841767313835000,11.0408349609375,-0.9807281494140625,0.0361328125,-0.00860595703125
1690841767323875800,11.050875732421876,-0.980621337890625,0.0356597900390625,-0.0079193115234375
1690841767333945900,11.06094580078125,-0.9811248779296875,0.034698486328125,-0.00836181640625
1690841767343986700,11.070986572265625,-0.9809722900390625,0.036041259765625,-0.008941650390625
1690841767354026800,11.08102685546875,-0.9798736572265625,0.0360260009765625,-0.00872802734375
1690841767364066800,11.09106689453125,-0.980438232421875,0.035888671875,-0.00830078125
1690841767374108000,11.10110791015625,-0.981414794921875,0.03619384765625,-0.0083160400390625
1690841767384148000,11.11114794921875,-0.980621337890625,0.0351715087890625,-0.008880615234375
1690841767394187800,11.121187744140625,-0.980621337890625,0.034698486328125,-0.00848388671875
1690841767404227800,11.131227783203125,-0.9812774658203125,0.035064697265625,-0.0081634521484375
1690841767414268700,11.1412685546875,-0.9814300537109375,0.034912109375,-0.0077362060546875
1690841767424308700,11.151308837890625,-0.982421875,0.0347442626953125,-0.0079803466796875
1690841767434348800,11.161348876953125,-0.9825592041015625,0.0347900390625,-0.0082244873046875
1690841767444390000,11.171389892578125,-0.98175048828125,0.0354766845703125,-0.0082244873046875
1690841767454430000,11.181429931640626,-0.9823760986328125,0.0353546142578125,-0.00799560546875
1690841767464470000,11.191469970703125,-0.9814605712890625,0.03582763671875,-0.009735107421875
1690841767474540800,11.201540771484375,-0.9813232421875,0.0361175537109375,-0.0089111328125
1690841767484580900,11.211580810546875,-0.9814910888671875,0.035247802734375,-0.008026123046875
1690841767494621700,11.22162158203125,-0.9823455810546875,0.0356597900390625,-0.008941650390625
1690841767504661800,11.231661865234376,-0.9823760986328125,0.0355682373046875,-0.0095977783203125
1690841767514701800,11.241701904296875,-0.981414794921875,0.036224365234375,-0.008880615234375
1690841767524742000,11.251741943359375,-0.9813690185546875,0.035858154296875,-0.00921630859375
1690841767534783000,11.261782958984375,-0.9804229736328125,0.0353546142578125,-0.0085296630859375
1690841767544822800,11.27182275390625,-0.98052978515625,0.03533935546875,-0.0085906982421875
1690841767554862800,11.28186279296875,-0.9810638427734375,0.0360260009765625,-0.008270263671875
1690841767564902700,11.291902587890625,-0.98101806640625,0.03533935546875,-0.0087432861328125
1690841767574943700,11.30194384765625,-0.980804443359375,0.035308837890625,-0.0089111328125
1690841767584983800,11.31198388671875,-0.9819793701171875,0.0350341796875,-0.00885009765625
1690841767595024000,11.32202392578125,-0.981842041015625,0.0353240966796875,-0.008941650390625
1690841767605065000,11.33206494140625,-0.980712890625,0.03521728515625,-0.0087738037109375
1690841767615134700,11.342134765625,-0.980865478515625,0.0349884033203125,-0.0088653564453125
1690841767625175800,11.35217578125,-0.9810791015625,0.0351104736328125,-0.0087890625
1690841767635216000,11.3622158203125,-0.9811859130859375,0.034881591796875,-0.008026123046875
1690841767645255700,11.372255615234375,-0.9810638427734375,0.0352935791015625,-0.008270263671875
1690841767655296800,11.382296875,-0.9818267822265625,0.0355072021484375,-0.0084075927734375
1690841767665336800,11.3923369140625,-0.9807281494140625,0.0352020263671875,-0.008209228515625
1690841767675377000,11.402376953125,-0.9808349609375,0.0355377197265625,-0.008453369140625
1690841767685416700,11.412416748046875,-0.981292724609375,0.0365142822265625,-0.00885009765625
1690841767695457800,11.422457763671876,-0.9810943603515625,0.0360260009765625,-0.00811767578125
1690841767705497900,11.432497802734375,-0.981201171875,0.0354156494140625,-0.0077972412109375
1690841767715537700,11.44253759765625,-0.98114013671875,0.035491943359375,-0.007965087890625
1690841767725577000,11.452576904296874,-0.981781005859375,0.0361175537109375,-0.0088348388671875
1690841767735617000,11.462616943359375,-0.98095703125,0.0357513427734375,-0.0091552734375
1690841767745657000,11.472656982421874,-0.9813232421875,0.0350189208984375,-0.0089263916015625
1690841767755728000,11.482727783203124,-0.9815673828125,0.0351715087890625,-0.00848388671875
1690841767765768000,11.492767822265625,-0.9811248779296875,0.035400390625,-0.0086517333984375
1690841767775807700,11.502807861328124,-0.9807586669921875,0.03564453125,-0.009124755859375
1690841767785848800,11.512848876953125,-0.98162841796875,0.035125732421875,-0.0081939697265625
1690841767795889000,11.522888916015624,-0.981414794921875,0.035430908203125,-0.0084075927734375
1690841767805929000,11.532928955078125,-0.9814300537109375,0.0355224609375,-0.0092620849609375
1690841767815970000,11.542969970703124,-0.98162841796875,0.037017822265625,-0.0091552734375
1690841767826010000,11.553010009765625,-0.98101806640625,0.0361328125,-0.00823974609375
1690841767836050000,11.5630498046875,-0.98077392578125,0.0354156494140625,-0.0092010498046875
1690841767846089700,11.57308984375,-0.981109619140625,0.035552978515625,-0.008758544921875
1690841767856130800,11.583130859375,-0.9824676513671875,0.0356597900390625,-0.0078125
1690841767866171000,11.5931708984375,-0.980560302734375,0.0358428955078125,-0.008636474609375
1690841767876211000,11.6032109375,-0.9820556640625,0.035430908203125,-0.0081787109375
1690841767886252000,11.613251953125,-0.9817352294921875,0.0359649658203125,-0.0082550048828125
1690841767896321800,11.62332177734375,-0.981170654296875,0.0356597900390625,-0.008880615234375
1690841767906363000,11.63336279296875,-0.98095703125,0.0355072021484375,-0.008270263671875
1690841767916403000,11.64340283203125,-0.9808502197265625,0.03564453125,-0.008544921875
1690841767926442800,11.65344287109375,-0.98138427734375,0.035858154296875,-0.0088958740234375
1690841767936483800,11.66348388671875,-0.98162841796875,0.0363006591796875,-0.0088348388671875
1690841767946524000,11.67352392578125,-0.9816436767578125,0.0354766845703125,-0.0086669921875
1690841767956564000,11.68356396484375,-0.9810943603515625,0.035491943359375,-0.008331298828125
1690841767966604000,11.69360400390625,-0.9810791015625,0.03564453125,-0.00836181640625
1690841767976645000,11.70364501953125,-0.981231689453125,0.0353240966796875,-0.0083160400390625
1690841767986684700,11.7136845703125,-0.9806976318359375,0.035552978515625,-0.008087158203125
1690841767996724700,11.723724853515625,-0.98095703125,0.0358123779296875,-0.0090484619140625
1690841768006765800,11.733765869140624,-0.980438232421875,0.036163330078125,-0.00897216796875
1690841768016806000,11.743805908203125,-0.9818115234375,0.0363922119140625,-0.008392333984375
1690841768026846000,11.753845947265624,-0.9810943603515625,0.0359039306640625,-0.008575439453125
1690841768036917000,11.7639169921875,-0.98052978515625,0.035400390625,-0.0083465576171875
1690841768046956800,11.773956787109375,-0.9815216064453125,0.0355224609375,-0.008148193359375
1690841768056996900,11.783996826171874,-0.981475830078125,0.0359039306640625,-0.0087890625
1690841768067037700,11.79403759765625,-0.982269287109375,0.0352020263671875,-0.008575439453125
1690841768077077800,11.804077880859374,-0.9813690185546875,0.035369873046875,-0.008575439453125
1690841768087117800,11.814117919921875,-0.9810791015625,0.0355224609375,-0.0086212158203125
1690841768097159000,11.824158935546874,-0.980926513671875,0.03594970703125,-0.008880615234375
1690841768107199000,11.834198974609375,-0.981109619140625,0.03619384765625,-0.008056640625
1690841768117238800,11.84423876953125,-0.9813232421875,0.0358428955078125,-0.007598876953125
1690841768127278800,11.85427880859375,-0.9807891845703125,0.0352325439453125,-0.008758544921875
1690841768137319700,11.864319580078124,-0.981109619140625,0.03619384765625,-0.0084075927734375
1690841768147359700,11.87435986328125,-0.9812469482421875,0.0360260009765625,-0.008209228515625
1690841768157399800,11.88439990234375,-0.980743408203125,0.035308837890625,-0.008544921875
1690841768167441000,11.89444091796875,-0.980987548828125,0.03570556640625,-0.0096282958984375
1690841768177511000,11.904510986328125,-0.980865478515625,0.036163330078125,-0.0095367431640625
1690841768187552000,11.914552001953124,-0.9811859130859375,0.0362091064453125,-0.0082550048828125
1690841768197591800,11.924591796875,-0.9816741943359375,0.0356292724609375,-0.008209228515625
1690841768207632000,11.9346318359375,-0.981170654296875,0.0357513427734375,-0.008453369140625
1690841768217672000,11.944671875,-0.9808197021484375,0.0349273681640625,-0.0087890625
1690841768227712800,11.954712646484374,-0.9813385009765625,0.0352020263671875,-0.0081634521484375
1690841768237752800,11.9647529296875,-0.9813232421875,0.0359954833984375,-0.0083770751953125
1690841768247793000,11.97479296875,-0.9817962646484375,0.0360565185546875,-0.009368896484375
1690841768257834000,11.984833984375,-0.980621337890625,0.03582763671875,-0.008941650390625
1690841768267873800,11.994873779296874,-0.9814453125,0.0361175537109375,-0.0079193115234375
1690841768277913900,12.004913818359375,-0.982269287109375,0.0358123779296875,-0.0080718994140625
1690841768287954000,12.014953857421874,-0.9810333251953125,0.0362091064453125,-0.0087738037109375
1690841768297994800,12.024994873046875,-0.9807281494140625,0.03570556640625,-0.00836181640625
1690841768308034800,12.035034912109374,-0.980377197265625,0.0358734130859375,-0.009246826171875
1690841768318105900,12.04510595703125,-0.9811553955078125,0.036529541015625,-0.0098419189453125
1690841768328146000,12.05514599609375,-0.9809417724609375,0.0354766845703125,-0.00909423828125
1690841768338185700,12.065185791015624,-0.9810333251953125,0.035186767578125,-0.008056640625
1690841768348226800,12.075226806640625,-0.981170654296875,0.0358123779296875,-0.0086822509765625
1690841768358267000,12.085266845703124,-0.980926513671875,0.0353546142578125,-0.0090179443359375
1690841768368307000,12.095306884765625,-0.98126220703125,0.0351715087890625,-0.0086517333984375
1690841768378347800,12.10534765625,-0.981231689453125,0.0355377197265625,-0.008544921875
1690841768388387800,12.115387939453125,-0.981597900390625,0.0360565185546875,-0.0084075927734375
1690841768398428000,12.125427978515624,-0.9808807373046875,0.0357818603515625,-0.009002685546875
1690841768408467700,12.1354677734375,-0.9802398681640625,0.0352020263671875,-0.00946044921875
1690841768418508800,12.1455087890625,-0.9822998046875,0.0357208251953125,-0.00897216796875
1690841768428548900,12.155548828125,-0.9819793701171875,0.03619384765625,-0.0083770751953125
1690841768438589000,12.1655888671875,-0.9806060791015625,0.0358734130859375,-0.00860595703125
1690841768448629800,12.175629638671875,-0.981689453125,0.0360565185546875,-0.00927734375
1690841768458700000,12.185699951171875,-0.98199462890625,0.036102294921875,-0.009124755859375
1690841768468740900,12.195740966796874,-0.98101806640625,0.0355987548828125,-0.0092620849609375
1690841768478781000,12.205781005859375,-0.9816741943359375,0.035919189453125,-0.00775146484375
1690841768488820700,12.21582080078125,-0.980743408203125,0.0361785888671875,-0.008056640625
1690841768498860800,12.22586083984375,-0.9805145263671875,0.0358734130859375,-0.0077362060546875
1690841768508902000,12.23590185546875,-0.981842041015625,0.0357818603515625,-0.0091094970703125
1690841768518942000,12.24594189453125,-0.981109619140625,0.03570556640625,-0.009307861328125
1690841768528982000,12.25598193359375,-0.980682373046875,0.03619384765625,-0.0093841552734375
1690841768539022800,12.26602294921875,-0.9815216064453125,0.036224365234375,-0.0088958740234375
1690841768549063000,12.27606298828125,-0.9814605712890625,0.035675048828125,-0.009124755859375
1690841768559102700,12.286102783203125,-0.9813385009765625,0.0357818603515625,-0.0082550048828125
1690841768569142800,12.296142822265624,-0.981231689453125,0.0357666015625,-0.008026123046875
1690841768579183900,12.306183837890625,-0.9808807373046875,0.0358734130859375,-0.008209228515625
1690841768589224000,12.316223876953124,-0.9810943603515625,0.0353546142578125,-0.00836181640625
1690841768599295000,12.326294921875,-0.9812469482421875,0.034820556640625,-0.009124755859375
1690841768609335000,12.3363349609375,-0.98065185546875,0.0355072021484375,-0.00933837890625
1690841768619375000,12.346375,-0.9808807373046875,0.0355682373046875,-0.0090179443359375
1690841768629416000,12.356416015625,-0.98150634765625,0.035308837890625,-0.008392333984375
1690841768639455700,12.366455810546874,-0.98040771484375,0.0360565185546875,-0.0091400146484375
1690841768649495800,12.376495849609375,-0.9798126220703125,0.0354766845703125,-0.0089263916015625
1690841768659537000,12.386536865234374,-0.9810333251953125,0.03607177734375,-0.009185791015625
1690841768669577000,12.396576904296875,-0.9806060791015625,0.0367279052734375,-0.0084991455078125
1690841768679617000,12.406616943359374,-0.980926513671875,0.03546142578125,-0.0088043212890625
1690841768689657000,12.416656982421875,-0.9814910888671875,0.0357208251953125,-0.0086517333984375
1690841768699698000,12.426697998046874,-0.980804443359375,0.035430908203125,-0.0085296630859375
1690841768709737700,12.43673779296875,-0.980377197265625,0.0363311767578125,-0.00860595703125
1690841768719745500,12.44674560546875,-0.980712890625,0.0359039306640625,-0.0091400146484375
1690841768729816600,12.456816650390625,-0.9814605712890625,0.0366363525390625,-0.0091552734375
1690841768739856600,12.466856689453126,-0.9807281494140625,0.035736083984375,-0.0082855224609375
1690841768749897700,12.476897705078125,-0.9817962646484375,0.035247802734375,-0.007568359375
1690841768759937800,12.486937744140626,-0.98101806640625,0.03546142578125,-0.00872802734375
1690841768769977900,12.496977783203125,-0.981719970703125,0.0366363525390625,-0.0083465576171875
1690841768780018000,12.507017822265626,-0.9815521240234375,0.0361328125,-0.0092010498046875
1690841768790058800,12.517058837890625,-0.981109619140625,0.0362091064453125,-0.0091552734375
1690841768800098600,12.5270986328125,-0.9818572998046875,0.035858154296875,-0.0091094970703125
1690841768810138600,12.537138671875,-0.981170654296875,0.0360565185546875,-0.009063720703125
1690841768820179700,12.5471796875,-0.9802093505859375,0.0354766845703125,-0.0087738037109375
1690841768830219800,12.5572197265625,-0.98114013671875,0.0352935791015625,-0.0081939697265625
1690841768840259800,12.567259765625,-0.980255126953125,0.035797119140625,-0.0076141357421875
1690841768850300000,12.5772998046875,-0.981292724609375,0.0351409912109375,-0.00830078125
1690841768860340700,12.5873408203125,-0.9817047119140625,0.03509521484375,-0.0087890625
1690841768870410800,12.59741064453125,-0.9798736572265625,0.0352020263671875,-0.0089263916015625
1690841768880451600,12.60745166015625,-0.98199462890625,0.0356903076171875,-0.00885009765625
1690841768890491600,12.61749169921875,-0.9813385009765625,0.035400390625,-0.0078887939453125
1690841768900531700,12.62753173828125,-0.9819183349609375,0.0351104736328125,-0.00823974609375
1690841768910572800,12.63757275390625,-0.980804443359375,0.035858154296875,-0.0084075927734375
1690841768920612900,12.64761279296875,-0.9807586669921875,0.0356903076171875,-0.009185791015625
1690841768930653000,12.65765283203125,-0.9800872802734375,0.036041259765625,-0.0082244873046875
1690841768940692700,12.667692626953125,-0.980743408203125,0.0355224609375,-0.0091705322265625
1690841768950733600,12.677733642578126,-0.980560302734375,0.0355377197265625,-0.0084075927734375
1690841768960773600,12.687773681640625,-0.9800567626953125,0.035614013671875,-0.0076751708984375
1690841768970813700,12.697813720703126,-0.9817657470703125,0.0357208251953125,-0.0084381103515625
1690841768980854800,12.707854736328125,-0.9819183349609375,0.035888671875,-0.009552001953125
1690841768990894800,12.717894775390626,-0.9803314208984375,0.03558349609375,-0.0091705322265625
1690841769000935000,12.727934814453125,-0.9818267822265625,0.0357513427734375,-0.008514404296875
1690841769011005700,12.738005615234375,-0.980926513671875,0.036102294921875,-0.0085296630859375
1690841769021045800,12.748045654296876,-0.9817047119140625,0.036163330078125,-0.007781982421875
1690841769031086600,12.758086669921875,-0.981842041015625,0.035247802734375,-0.00872802734375
1690841769041126700,12.768126708984376,-0.9808349609375,0.035888671875,-0.0085601806640625
1690841769051166700,12.778166748046875,-0.9812774658203125,0.0355377197265625,-0.008056640625
1690841769061206800,12.788206787109376,-0.9808502197265625,0.0352325439453125,-0.0082244873046875
1690841769071248000,12.798247802734375,-0.980987548828125,0.0350494384765625,-0.008026123046875
1690841769081288000,12.808287841796876,-0.9818267822265625,0.0353851318359375,-0.008331298828125
1690841769091327700,12.81832763671875,-0.981170654296875,0.035491943359375,-0.00921630859375
1690841769101368600,12.82836865234375,-0.98028564453125,0.03564453125,-0.007843017578125
1690841769111408600,12.83840869140625,-0.980682373046875,0.0347137451171875,-0.008087158203125
1690841769121448700,12.84844873046875,-0.981109619140625,0.0351104736328125,-0.0077972412109375
1690841769131488800,12.85848876953125,-0.981170654296875,0.0354766845703125,-0.00885009765625
1690841769141529900,12.86852978515625,-0.981842041015625,0.035064697265625,-0.0086212158203125
1690841769151599600,12.878599609375,-0.9822998046875,0.03558349609375,-0.00811767578125
1690841769161640700,12.888640625,-0.9812469482421875,0.03546142578125,-0.0089263916015625
1690841769171680800,12.8986806640625,-0.981414794921875,0.035675048828125,-0.008941650390625
1690841769181720800,12.908720947265625,-0.9814910888671875,0.0363922119140625,-0.0086669921875
1690841769191761700,12.91876171875,-0.9813079833984375,0.03643798828125,-0.0082244873046875
1690841769201801700,12.9288017578125,-0.981475830078125,0.0356597900390625,-0.008575439453125
1690841769211841800,12.938841796875,-0.9815826416015625,0.03607177734375,-0.008270263671875
1690841769221881900,12.9488818359375,-0.9813232421875,0.03594970703125,-0.008697509765625
