time,seconds_elapsed,z,y,x
1690841756388700000,0.115699951171875,-0.0041558630764484406,-0.03490232303738594,0.028965072706341743
1690841756398740000,0.125739990234375,-0.004479703027755022,-0.03949228301644325,0.00024501082953065634
1690841756408780000,0.135780029296875,-0.003166232258081436,-0.04007711261510849,-0.03656600043177605
1690841756418851000,0.14585107421875,-0.0051990230567753315,-0.032037027180194855,-0.06902993470430374
1690841756428892200,0.15589208984375,-0.005032042972743511,-0.022851519286632538,-0.10043232887983322
1690841756438932000,0.165931884765625,-0.006397712044417858,-0.01575312949717045,-0.1184006780385971
1690841756448972000,0.175971923828125,-0.007240069564431906,-0.006392118986696005,-0.13231250643730164
1690841756459012000,0.18601220703125,-0.00734366662800312,-0.006638994440436363,-0.14135366678237915
1690841756469053000,0.196052978515625,-0.00806325301527977,-0.007753793615847826,-0.13739114999771118
1690841756479093000,0.206093017578125,-0.005900499876588583,-0.010172742418944836,-0.128365159034729
1690841756489133000,0.216133056640625,-0.006196643225848675,-0.017284447327256203,-0.11080428212881088
1690841756499174100,0.226174072265625,-0.004749215207993984,-0.019478093832731247,-0.09023908525705338
1690841756509214000,0.2362138671875,-0.004178766161203384,-0.024214791133999825,-0.0672333687543869
1690841756519254000,0.24625390625,-0.0038871499709784985,-0.026439595967531204,-0.040282707661390305
1690841756529294000,0.256294189453125,-0.004444282967597246,-0.025549301877617836,-0.015247396193444729
1690841756539335000,0.2663349609375,-0.0038370825350284576,-0.018501779064536095,0.008564193733036518
1690841756549375000,0.276375,-0.005885319784283638,-0.012793825939297676,0.027664383873343468
1690841756559415000,0.2864150390625,-0.005312739871442318,-0.002225603675469756,0.04386758804321289
1690841756569486000,0.296486083984375,-0.006080795545130968,0.009875534102320671,0.054544467478990555
1690841756579526000,0.30652587890625,-0.00612154183909297,0.021025124937295914,0.06009609252214432
1690841756589567000,0.31656689453125,-0.0059779975563287735,0.02996588870882988,0.058456119149923325
1690841756599607000,0.32660693359375,-0.004808870144188404,0.03912902623414993,0.053166281431913376
1690841756609647000,0.336647216796875,-0.002840261207893491,0.04122094064950943,0.04614565894007683
1690841756619687200,0.346687255859375,-0.0032117723021656275,0.04003769904375076,0.03244901821017265
1690841756629728000,0.35672802734375,-0.002621349412947893,0.03322906047105789,0.018553445115685463
1690841756639768000,0.36676806640625,-0.002008556155487895,0.02256895788013935,0.0029108349699527025
1690841756649808000,0.376807861328125,-0.0025534387677907944,0.00999324582517147,-0.013698235154151917
1690841756659849000,0.386848876953125,-0.0035308189690113068,-0.004963333252817392,-0.025770077481865883
1690841756669889000,0.396888916015625,-0.0051683965139091015,-0.017653029412031174,-0.04048484191298485
1690841756679929000,0.40692919921875,-0.006696518510580063,-0.029470806941390038,-0.05252206325531006
1690841756689969200,0.41696923828125,-0.008536496199667454,-0.03151797875761986,-0.06308416277170181
1690841756700010000,0.427010009765625,-0.006977215874940157,-0.0367223285138607,-0.07283372431993484
1690841756710080300,0.437080322265625,-0.009512278251349926,-0.033609893172979355,-0.07812702655792236
1690841756720120000,0.4471201171875,-0.009505088441073895,-0.0296724084764719,-0.07658559083938599
1690841756730159900,0.457159912109375,-0.007410511840134859,-0.024342890828847885,-0.0765078216791153
1690841756740200000,0.467199951171875,-0.005941778887063265,-0.017584586516022682,-0.07103928923606873
1690841756750241000,0.477240966796875,-0.00606508320197463,-0.008852614089846611,-0.06151129677891731
1690841756760281000,0.487281005859375,-0.003715642262250185,-0.0012359730899333954,-0.05019712448120117
1690841756770321200,0.497321044921875,-0.0033936661202460527,0.00180855265352875,-0.03854819014668465
1690841756780361000,0.50736083984375,-0.0036099147982895374,0.005591306835412979,-0.024321051314473152
1690841756790402000,0.517402099609375,-0.0026666230987757444,0.008439823985099792,-0.011038003489375114
1690841756800441900,0.52744189453125,-0.004758536349982023,0.00983505416661501,-0.00040799626731313765
1690841756810482000,0.53748193359375,-0.00526720006018877,0.009259810671210289,0.011058510281145573
1690841756820523000,0.54752294921875,-0.004849882796406746,0.010333864018321037,0.0188439954072237
1690841756830563000,0.55756298828125,-0.004938565660268068,0.005065864883363247,0.023391874507069588
1690841756840603100,0.56760302734375,-0.006223008502274752,0.006167348474264145,0.023262444883584976
1690841756850674200,0.577674072265625,-0.002767024328932166,0.006711165886372328,0.02106880024075508
1690841756860714000,0.5877138671875,-0.005317800212651491,0.005133242812007666,0.016675915569067
1690841756870755000,0.597755126953125,-0.003489273600280285,0.005005677696317434,0.01031442265957594
1690841756880795000,0.607794921875,-0.004313255660235882,0.004369182046502829,0.0028666264843195677
1690841756890835000,0.6178349609375,-0.003011236200109124,0.0034139060880988836,-0.007003048434853554
1690841756900875000,0.627875,-0.004524177871644497,0.0018583538476377726,-0.018312694504857063
1690841756910916000,0.637916015625,-0.0033984598703682423,0.0024048343766480684,-0.02888970449566841
1690841756920956200,0.6479560546875,-0.004031493328511715,-0.0008820389630272985,-0.036133769899606705
1690841756930996000,0.657995849609375,-0.004733236040920019,-0.0022948458790779114,-0.04267475754022598
1690841756941037000,0.668037109375,-0.0033007217571139336,-0.00672235107049346,-0.04890655726194382
1690841756951076900,0.678076904296875,-0.005555087700486183,-0.011412710882723331,-0.0515926219522953
1690841756961117000,0.688116943359375,-0.006578007712960243,-0.014706241898238659,-0.05239289999008179
1690841756971157000,0.698156982421875,-0.005839246790856123,-0.015392538160085678,-0.04980217665433884
1690841756981198000,0.708197998046875,-0.0046908920630812645,-0.015563246794044971,-0.049548376351594925
1690841756991268000,0.71826806640625,-0.0046879625879228115,-0.012166384607553482,-0.04126434773206711
1690841757001309200,0.72830908203125,-0.0038224351592361927,-0.009397762827575207,-0.038844335824251175
1690841757011349000,0.738348876953125,-0.002758768619969487,-0.009796970523893833,-0.028540298342704773
1690841757021389000,0.74838916015625,-0.004168645944446325,-0.0046666571870446205,-0.020966799929738045
1690841757031430000,0.758429931640625,-0.004723649006336927,-0.0004319647268857807,-0.016865266487002373
1690841757041470000,0.768469970703125,-0.004536428488790989,0.0018423747969791293,-0.011284878477454185
1690841757051510000,0.778510009765625,-0.004878644831478596,0.006155097857117653,-0.006618754006922245
1690841757061550000,0.788550048828125,-0.005826996639370918,0.006299707572907209,0.00009480853623244911
1690841757071591200,0.798591064453125,-0.004262921866029501,0.006975351367145777,-0.0003677825443446636
1690841757081631000,0.808630859375,-0.004899683874100447,0.008944226428866386,0.0018695390317589045
1690841757091671000,0.818671142578125,-0.004285558592528105,0.01004970446228981,-0.0011938951211050153
1690841757101712000,0.8287119140625,-0.00410526292398572,0.004603806417435408,-0.0008215851848945022
1690841757111752000,0.838751953125,-0.0028389296494424343,0.004189152270555496,-0.004391818773001432
1690841757121792000,0.8487919921875,-0.0037681066896766424,0.001148355077020824,-0.008710134774446487
1690841757131863000,0.858863037109375,-0.005006476305425167,-0.0012575446162372828,-0.01261113304644823
1690841757141902800,0.86890283203125,-0.004220045171678066,-0.0038506644777953625,-0.017680726945400238
1690841757151944200,0.878944091796875,-0.003001915058121085,-0.004791559185832739,-0.023244069889187813
1690841757161984000,0.88898388671875,-0.005352421198040247,-0.007447530049830675,-0.02864469401538372
1690841757172024000,0.899024169921875,-0.0067718857899308205,-0.008058193139731884,-0.03208017349243164
1690841757182064000,0.909064208984375,-0.004997687879949808,-0.005495699122548103,-0.03606133162975311
1690841757192105000,0.91910498046875,-0.005321528296917677,-0.008467520587146282,-0.039513055235147476
1690841757202145000,0.92914501953125,-0.005450425669550896,-0.008073372766375542,-0.037154026329517365
1690841757212185000,0.93918505859375,-0.005554288625717163,-0.007503456436097622,-0.037042438983917236
1690841757222225000,0.949224853515625,-0.005542304366827011,-0.0034056503791362047,-0.03782833740115166
1690841757232266000,0.959265869140625,-0.003780889790505171,-0.005571066867560148,-0.03274942561984062
1690841757242306000,0.96930615234375,-0.005256281234323978,-0.005110606085509062,-0.028361333534121513
1690841757252346000,0.97934619140625,-0.0038807583041489124,-0.0029489181470125914,-0.025610288605093956
1690841757262387000,0.989386962890625,-0.004089283756911755,-0.0022775353863835335,-0.022052038460969925
1690841757272457200,0.999457275390625,-0.005315935704857111,-0.0024506407789885998,-0.017192302271723747
1690841757282498000,1.009498046875,-0.003948935307562351,-0.0026703516487032175,-0.013884922489523888
1690841757292537900,1.019537841796875,-0.005102616734802723,0.0002692455891519785,-0.010600446723401546
1690841757302578000,1.029577880859375,-0.005524461157619953,0.001151018193922937,-0.009530121460556984
1690841757312619000,1.039618896484375,-0.003952663857489824,0.001734250457957387,-0.010852381587028503
1690841757322659000,1.0496591796875,-0.003838147735223174,0.003693005535751581,-0.008333297446370125
1690841757332699100,1.05969921875,-0.007041131611913443,0.0011456918437033892,-0.008743157610297203
1690841757342739200,1.0697392578125,-0.004537227563560009,0.004685565363615751,-0.011540542356669903
1690841757352780000,1.079780029296875,-0.005264803301542997,0.0010985539993271232,-0.011871573515236378
1690841757362820000,1.089820068359375,-0.004286091309040785,0.0022913836874067783,-0.014542457647621632
1690841757372860000,1.09985986328125,-0.0057532270438969135,-0.0015939018921926618,-0.02039874903857708
1690841757382901000,1.10990087890625,-0.005405684467405081,0.0006402239087037742,-0.02052631415426731
1690841757392941000,1.119941162109375,-0.004340686369687319,-0.002918291836977005,-0.02467445284128189
1690841757402981000,1.129981201171875,-0.0063124909065663815,-0.003233610186725855,-0.02684706076979637
1690841757413052200,1.14005224609375,-0.003858387703076005,-0.004220843780785799,-0.02911367639899254
1690841757423092200,1.15009228515625,-0.005050418432801962,-0.005164402071386576,-0.029799440875649452
1690841757433132000,1.160132080078125,-0.006422745529562235,-0.007892544381320477,-0.03027108684182167
1690841757443172900,1.1701728515625,-0.004352936986833811,-0.009245163761079311,-0.03074406459927559
1690841757453213000,1.180212890625,-0.006044310517609119,-0.004011785611510277,-0.02738448604941368
1690841757463253000,1.1902529296875,-0.0052264537662267685,-0.003492735791951418,-0.026512034237384796
1690841757473294000,1.200294189453125,-0.005362274590879679,-0.0024016385432332754,-0.026191657409071922
1690841757483334100,1.210334228515625,-0.005598230753093958,-0.0011073424248024821,-0.02329360507428646
1690841757493374200,1.220374267578125,-0.0044168527238070965,-0.0017470336752012372,-0.022702915593981743
1690841757503414300,1.230414306640625,-0.005319397896528244,-0.004061853047460318,-0.02034308761358261
1690841757513455000,1.240455078125,-0.005286640953272581,-0.0005382248782552779,-0.016828248277306557
1690841757523495000,1.250494873046875,-0.0036727653350681067,0.0008490157779306173,-0.01565486006438732
1690841757533535000,1.260534912109375,-0.0043838294222950935,0.003500725142657757,-0.014931012876331806
1690841757543576000,1.270576171875,-0.004122839774936438,0.0002162486780434847,-0.013463344424962997
1690841757553646000,1.28064599609375,-0.004322310443967581,0.0013305152533575892,-0.012826582416892052
1690841757563687200,1.290687255859375,-0.005705023650079966,0.001156877144239843,-0.01654142513871193
1690841757573727200,1.300727294921875,-0.005730323493480682,0.00012863067968282849,-0.014418087899684906
1690841757583767000,1.31076708984375,-0.004194744862616062,-0.001933987601660192,-0.017258349806070328
1690841757593808000,1.320807861328125,-0.004151601810008287,-0.0033891387283802032,-0.017014136537909508
1690841757603848000,1.330847900390625,-0.005047755315899849,-0.002243180526420474,-0.017715880647301674
1690841757613888000,1.340887939453125,-0.005678392015397549,-0.0017800568602979183,-0.019593674689531326
1690841757623928000,1.350927978515625,-0.0037414750549942255,-0.0046882289461791515,-0.0246648658066988
1690841757633969200,1.36096923828125,-0.0038690404035151005,0.00007270430069183931,-0.02467498555779457
1690841757644009200,1.37100927734375,-0.004800613969564438,-0.0013568805297836661,-0.02544304169714451
1690841757654049300,1.38104931640625,-0.0049734534695744514,-0.003919906914234161,-0.026157833635807037
1690841757664090000,1.391090087890625,-0.00497984467074275,-0.0030024477746337652,-0.027091538533568382
1690841757674130000,1.4011298828125,-0.004320446401834488,-0.0057471017353236675,-0.027530428022146225
1690841757684170000,1.411169921875,-0.004485296085476875,-0.0023257385473698378,-0.024892034009099007
1690841757694241000,1.421240966796875,-0.0040914141573011875,-0.0018631474813446403,-0.025010544806718826
1690841757704281000,1.431281005859375,-0.00564164062961936,-0.005671733990311623,-0.024570856243371964
1690841757714312200,1.441312255859375,-0.005032042972743511,-0.002766757970675826,-0.021312212571501732
1690841757724353000,1.45135302734375,-0.004523379262536764,-0.0018365158466622233,-0.021572403609752655
1690841757734393000,1.46139306640625,-0.004210724029690027,-0.00018908442871179432,-0.017557155340909958
1690841757744433200,1.47143310546875,-0.0049532135017216206,-0.0006024070316925645,-0.019349996000528336
1690841757754474200,1.48147412109375,-0.004351871553808451,-0.0023347933311015368,-0.017764883115887642
1690841757764514300,1.491514404296875,-0.004177967086434364,-0.002679938916116953,-0.018505508080124855
1690841757774554000,1.50155419921875,-0.004024835303425789,0.00002370213405811228,-0.01606844924390316
1690841757784594200,1.51159423828125,-0.00538491178303957,-0.0021853898651897907,-0.016356335952878
1690841757794635000,1.521635009765625,-0.005467736162245274,-0.0034788872580975294,-0.015798671171069145
1690841757804675000,1.531675048828125,-0.0036818201187998056,-0.0022975089959800243,-0.019688483327627182
1690841757814715100,1.541715087890625,-0.004748948849737644,-0.002460228279232979,-0.018881546333432198
1690841757824756200,1.551756103515625,-0.004357996862381697,-0.0007432882557623088,-0.019467974081635475
1690841757834826200,1.561826171875,-0.005367068573832512,-0.003338006092235446,-0.018753182142972946
1690841757844867300,1.571867431640625,-0.0052264537662267685,-0.00020346550445538014,-0.022343387827277184
1690841757854907100,1.5819072265625,-0.004581702407449484,0.0003336940717417747,-0.021448833867907524
1690841757864947200,1.591947265625,-0.0041555967181921005,-0.0027680895291268826,-0.024059530347585678
1690841757874987000,1.601987060546875,-0.0046421559527516365,-0.0031198931392282248,-0.024113059043884277
1690841757885028000,1.612028076171875,-0.005429386626929045,-0.0025545042008161545,-0.022999325767159462
1690841757895068200,1.622068115234375,-0.00663366774097085,-0.003233343828469515,-0.02395087294280529
1690841757905108200,1.632108154296875,-0.004010720644146204,-0.003483414649963379,-0.026027604937553406
1690841757915149300,1.6421494140625,-0.003887682454660535,-0.0018218684708699584,-0.021376661956310272
1690841757925189000,1.652189208984375,-0.005696767941117287,-0.003644003299996257,-0.02311836928129196
1690841757935229200,1.662229248046875,-0.004083158448338509,-0.003168362658470869,-0.02353435382246971
1690841757945269000,1.67226904296875,-0.00549303600564599,-0.0023403859231621027,-0.021524200215935707
1690841757955310000,1.68231005859375,-0.004761199466884136,-0.0005648564547300339,-0.019833359867334366
1690841757965350100,1.69235009765625,-0.00276169809512794,-0.0020535634830594063,-0.019520703703165054
1690841757975421200,1.702421142578125,-0.004251203965395689,-0.00042583944741636515,-0.018255436792969704
1690841757985461200,1.712461181640625,-0.0034876756835728884,0.0000655137628200464,-0.019692212343215942
1690841757995501000,1.7225009765625,-0.0036876790691167116,-0.0003043993201572448,-0.01895158737897873
1690841758005542100,1.732542236328125,-0.0043308325111866,-0.002353435382246971,-0.016620522364974022
1690841758015582200,1.742582275390625,-0.004800613969564438,-0.0007342335302382708,-0.018027203157544136
1690841758025622000,1.7526220703125,-0.004831240512430668,-0.0010551444720476866,-0.019219767302274704
1690841758035663000,1.7626630859375,-0.0033875408116728067,-0.002570216776803136,-0.020773721858859062
1690841758045703200,1.772703125,-0.004823251161724329,-0.00041039311327040195,-0.01841709017753601
1690841758055743200,1.7827431640625,-0.005123123060911894,-0.001579787116497755,-0.02106001228094101
1690841758065783000,1.792782958984375,-0.005602225661277771,-0.0022767363116145134,-0.020925788208842278
1690841758075824000,1.80282421875,-0.004421912599354982,-0.0031260184478014708,-0.02214604802429676
1690841758085864200,1.8128642578125,-0.003940679598599672,-0.0009174589649774134,-0.022420354187488556
1690841758095904000,1.822904052734375,-0.00432976707816124,-0.002401106059551239,-0.022716498002409935
1690841758105945000,1.832945068359375,-0.005708485841751099,-0.002159557305276394,-0.02219265326857567
1690841758116015000,1.84301513671875,-0.005305549595504999,-0.002058889716863632,-0.020560402423143387
1690841758126056200,1.85305615234375,-0.004838697146624327,-0.002171807922422886,-0.022609172388911247
1690841758136096300,1.86309619140625,-0.0051870387978851795,-0.002906840294599533,-0.023513847962021828
1690841758146136000,1.873135986328125,-0.004356665071099997,-0.0025904567446559668,-0.022108230739831924
1690841758156176100,1.883176025390625,-0.0038546593859791756,-0.0008351673022843897,-0.019352925941348076
1690841758166217200,1.89321728515625,-0.0052144695073366165,-0.0034767568577080965,-0.021923141553997993
1690841758176257000,1.903257080078125,-0.004821919370442629,-0.003593403147533536,-0.02118890918791294
1690841758186297000,1.913297119140625,-0.0048858351074159145,-0.0016969662392511964,-0.02112952060997486
1690841758196338200,1.923338134765625,-0.003984089009463787,-0.001627191435545683,-0.021933261305093765
1690841758206378200,1.933378173828125,-0.003808586625382304,-0.0015899071004241705,-0.019897274672985077
1690841758216418000,1.94341796875,-0.004306331276893616,-0.0023244069889187813,-0.02038995921611786
1690841758226458000,1.9534580078125,-0.003963849041610956,-0.0006852313526906073,-0.0177017655223608
1690841758236499000,1.9634990234375,-0.004714061506092548,-0.002590989461168647,-0.01816488988697529
1690841758246539000,1.9735390625,-0.003876497270539403,-0.0014863101532682776,-0.021219801157712936
1690841758256610000,1.983610107421875,-0.004959604702889919,-0.002359827049076557,-0.020776119083166122
1690841758266650000,1.993650146484375,-0.005600095260888338,-0.002213353058323264,-0.019534019753336906
1690841758276690200,2.003690185546875,-0.0038546593859791756,0.00010972223390126601,-0.019391274079680443
1690841758286731300,2.013731201171875,-0.0052112736739218235,-0.00227939966134727,-0.01924879476428032
1690841758296771000,2.02377099609375,-0.004435494542121887,-0.001520665013231337,-0.020656276494264603
1690841758306811100,2.03381103515625,-0.005543103441596031,-0.0009155947482213378,-0.01890391670167446
1690841758316852000,2.04385205078125,-0.002951315138489008,-0.00138058268930763,-0.021878667175769806
1690841758326892000,2.05389208984375,-0.0029198897536844015,-0.0024975123815238476,-0.023441942408680916
1690841758336932000,2.06393212890625,-0.006788930390030146,-0.00007297061529243365,-0.021709555760025978
1690841758346972200,2.07397216796875,-0.005313006229698658,-0.0018080200534313917,-0.02045760490000248
1690841758357013200,2.08401318359375,-0.004126567859202623,-0.003126284806057811,-0.021749503910541534
1690841758367053000,2.094052978515625,-0.006041381042450666,-0.002156361471861601,-0.022551381960511208
1690841758377093000,2.104093017578125,-0.004396346397697926,-0.004522580187767744,-0.022097045555710793
1690841758387133200,2.11413330078125,-0.004536162130534649,-0.0019710054621100426,-0.020897291600704193
1690841758397204200,2.124204345703125,-0.004572114907205105,-0.0013933659065514803,-0.01876782812178135
1690841758407245000,2.1342451171875,-0.0029379993211477995,-0.0011888351291418076,-0.02111167646944523
1690841758417285000,2.14428515625,-0.004887433256953955,-0.0025044367648661137,-0.018244517967104912
1690841758427325000,2.154324951171875,-0.004994226153939962,-0.003394465195015073,-0.019084211438894272
1690841758437365000,2.164364990234375,-0.004890096373856068,-0.0004924184759147465,-0.01937582902610302
1690841758447406000,2.174406005859375,-0.004145210143178701,-0.0028045750223100185,-0.020425911992788315
1690841758457446100,2.184446044921875,-0.0036674391012638807,-0.001306280493736267,-0.020137492567300797
1690841758467486200,2.194486328125,-0.0038541266694664955,-0.0001150485550169833,-0.019392605870962143
1690841758477527000,2.204527099609375,-0.005677326582372189,-0.002626942005008459,-0.021036576479673386
1690841758487567000,2.214567138671875,-0.0046637277118861675,-0.002579271560534835,-0.02106880024075508
1690841758497607200,2.224607177734375,-0.006356698926538229,-0.0007153250626288354,-0.019406987354159355
1690841758507647000,2.23464697265625,-0.004287955816835165,-0.0019110844004899263,-0.0224432572722435
1690841758517688000,2.24468798828125,-0.004559065215289593,-0.0002508697798475623,-0.02028157003223896
1690841758527728000,2.25472802734375,-0.003977164626121521,-0.000773381965700537,-0.022583339363336563
1690841758537799200,2.264799072265625,-0.0043896883726119995,-0.00034115093876607716,-0.020662134513258934
1690841758547839200,2.274839111328125,-0.004344947170466185,-0.0007544735562987626,-0.021771341562271118
1690841758557879300,2.28487939453125,-0.004206196404993534,-0.002971288748085499,-0.02155003324151039
1690841758567920000,2.294920166015625,-0.005431517027318478,-0.0023723437916487455,-0.0213625468313694
1690841758577960000,2.3049599609375,-0.00561021501198411,-0.0013544837711378932,-0.02116999961435795
1690841758588000000,2.315,-0.004817658569663763,-0.002614957746118307,-0.02171648107469082
1690841758598040000,2.3250400390625,-0.0057473680935800076,-0.0006966829532757401,-0.020192353054881096
1690841758608081200,2.3350810546875,-0.00515747768804431,-0.0005526058957912028,-0.0203928891569376
1690841758618121200,2.345121337890625,-0.004691690672188997,-0.0006042712484486401,-0.02172819897532463
1690841758628161300,2.355161376953125,-0.004701810888946056,-0.002214152133092284,-0.021434452384710312
1690841758638202000,2.3652021484375,-0.005373726598918438,-0.0010452907299622893,-0.021274395287036896
1690841758648242200,2.3752421875,-0.005618737079203129,-0.001942509668879211,-0.021251225844025612
1690841758658282000,2.385281982421875,-0.005297826137393713,-0.001785116852261126,-0.019405122846364975
1690841758668322000,2.395322021484375,-0.005146825220435858,-0.003881557146087289,-0.020445087924599648
1690841758678393000,2.40539306640625,-0.005143895745277405,-0.0010748518398031592,-0.020386764779686928
1690841758688434200,2.41543408203125,-0.005742840468883514,-0.0019435749854892492,-0.016597086563706398
1690841758698474200,2.42547412109375,-0.0049319081008434296,-0.00205223192460835,-0.020673852413892746
1690841758708514300,2.435514404296875,-0.004805940669029951,-0.003310841741040349,-0.021997977048158646
1690841758718531600,2.445531494140625,-0.005465338937938213,-0.0020005665719509125,-0.02063310705125332
1690841758728572700,2.45557275390625,-0.003721234854310751,-0.0027254789602011442,-0.02081792987883091
1690841758738612700,2.46561279296875,-0.004095142707228661,-0.0025720810517668724,-0.018993398174643517
1690841758748652800,2.47565283203125,-0.0036852823104709387,-0.004794222768396139,-0.01996918022632599
1690841758758693600,2.485693603515625,-0.0052048820070922375,-0.0018082864116877317,-0.020319119095802307
1690841758768733700,2.495733642578125,-0.004216849338263273,0.0006085322820581496,-0.020180368795990944
1690841758778773800,2.505773681640625,-0.00446878420189023,-0.002621349412947893,-0.02208958938717842
1690841758788813600,2.5158134765625,-0.005459479987621307,-0.002171541564166546,-0.021649101749062538
1690841758798854700,2.525854736328125,-0.004590757191181183,0.00013156015484128147,-0.020352676510810852
1690841758808894700,2.535894775390625,-0.0065505774691700935,-0.002835201332345605,-0.022245917469263077
1690841758818965800,2.5459658203125,-0.004924451000988483,-0.0018016285030171275,-0.022826218977570534
1690841758829005800,2.556005859375,-0.004771851934492588,-0.0027470507193356752,-0.021277058869600296
1690841758839046000,2.5660458984375,-0.004838431254029274,-0.004653607495129108,-0.021444305777549744
1690841758849086700,2.576086669921875,-0.004163053352385759,-0.004985969979315996,-0.021144965663552284
1690841758859126500,2.58612646484375,-0.005392634775489569,-0.0041007352992892265,-0.020803015679121017
1690841758869166600,2.59616650390625,-0.005489840172231197,-0.00321922916918993,-0.01901417039334774
1690841758879206700,2.60620654296875,-0.004505536053329706,-0.001517469179816544,-0.019626963883638382
1690841758889247700,2.616247802734375,-0.003325489116832614,0.0011358382180333138,-0.02154950052499771
1690841758899287800,2.626287841796875,-0.004093545023351908,0.0000066579027588886674,-0.02129383757710457
1690841758909328000,2.636327880859375,-0.004267183132469654,-0.0002407497668173164,-0.022410767152905464
1690841758919368700,2.64636865234375,-0.005643238313496113,0.0002436792419757694,-0.021032048389315605
1690841758929408500,2.656408447265625,-0.004314853344112635,-0.0015425028977915645,-0.02171941101551056
1690841758939448600,2.666448486328125,-0.005742307752370834,0.00033902039285749197,-0.020682109519839287
1690841758949519600,2.67651953125,-0.004532699938863516,-0.003260508179664612,-0.018619757145643234
1690841758959559700,2.6865595703125,-0.005394499283283949,-0.004207528196275234,-0.019375029951334
1690841758969600800,2.696600830078125,-0.004877313040196896,-0.003257844829931855,-0.01798965223133564
1690841758979640800,2.706640869140625,-0.005514341406524181,-0.0031411985401064157,-0.020734306424856186
1690841758989680600,2.7166806640625,-0.0065801385790109634,-0.0027254789602011442,-0.02009461633861065
1690841758999720400,2.726720458984375,-0.006089317612349987,-0.0013195963110774755,-0.020808342844247818
1690841759009761500,2.736761474609375,-0.0059961071237921715,-0.0016338493442162871,-0.022697588428854942
1690841759019801600,2.746801513671875,-0.004189951345324516,-0.00014540860138367862,-0.022849654778838158
1690841759029841700,2.756841552734375,-0.004117247182875872,-0.0015805860748514533,-0.021923940628767014
1690841759039881700,2.7668818359375,-0.004257861990481615,-0.00039601203752681613,-0.02274126559495926
1690841759049922800,2.7769228515625,-0.003370230318978429,-0.002770752878859639,-0.021871211007237434
1690841759059962600,2.786962646484375,-0.0046362970024347305,-0.0021113541442900896,-0.02069436013698578
1690841759070002400,2.79700244140625,-0.004188087303191423,-0.002109489869326353,-0.01846183091402054
1690841759080043500,2.80704345703125,-0.004094077739864588,-0.003552656853571534,-0.01906743459403515
1690841759090113500,2.817113525390625,-0.004090082831680775,-0.0020245350897312164,-0.02178625576198101
1690841759100154600,2.827154541015625,-0.00532605592161417,-0.0033633061684668064,-0.02111833542585373
1690841759110194700,2.837194580078125,-0.004805940669029951,-0.0017694041598588228,-0.021227790042757988
1690841759120234800,2.84723486328125,-0.004021639470010996,-0.0025952504947781563,-0.021558288484811783
1690841759130275800,2.85727587890625,-0.003270095447078347,-0.0018458369886502624,-0.02057238668203354
1690841759140315600,2.867315673828125,-0.005538309924304485,-0.002596848411485553,-0.02232767641544342
1690841759150355500,2.87735546875,-0.0043859598226845264,-0.0003046656202059239,-0.020311929285526276
1690841759160395500,2.8873955078125,-0.0049252500757575035,-0.0020634171087294817,-0.02237987332046032
1690841759170436600,2.8974365234375,-0.004682902246713638,-0.0008772452711127698,-0.01768844947218895
1690841759180476700,2.9074765625,-0.003070624778047204,-0.002080195117741823,-0.01888420805335045
1690841759190516700,2.917516845703125,-0.005169195588678122,-0.00045087316539138556,-0.021822208538651466
1690841759200557800,2.927557861328125,-0.0051955608651041985,-0.0029909962322562933,-0.02172793261706829
1690841759210597600,2.93759765625,-0.005020857788622379,-0.0033811493776738644,-0.02202913537621498
1690841759220637400,2.947637451171875,-0.005622998345643282,-0.0026575683150440454,-0.020413395017385483
1690841759230708500,2.95770849609375,-0.004489290527999401,-0.002813629573211074,-0.020187826827168465
1690841759240748500,2.96774853515625,-0.005036037415266037,-0.0030450583435595036,-0.021458953619003296
1690841759250788600,2.97778857421875,-0.005835785064846277,-0.0025651566684246063,-0.021272266283631325
1690841759260829700,2.98782958984375,-0.004991030320525169,-0.0012905678013339639,-0.01932096667587757
1690841759270869800,2.997869873046875,-0.0049042110331356525,-0.0033430662006139755,-0.020673053339123726
1690841759280909800,3.007909912109375,-0.0052442969754338264,0.00008788431296125054,-0.021792646497488022
1690841759290950700,3.01795068359375,-0.0026197514962404966,0.0001203748834086582,-0.02237934060394764
1690841759300990500,3.027990478515625,-0.0035657063126564026,-0.0007856325246393681,-0.02094975672662258
1690841759311030500,3.038030517578125,-0.0046394928358495235,-0.001511610229499638,-0.020734572783112526
1690841759321070600,3.048070556640625,-0.003501790575683117,-0.0012394351651892066,-0.0236456748098135
1690841759331111700,3.058111572265625,-0.004834702704101801,-0.004833370912820101,-0.02233060635626316
1690841759341151700,3.06815185546875,-0.00526586826890707,-0.0008189220097847283,-0.021260546520352364
1690841759351191800,3.07819189453125,-0.0043777041137218475,-0.003492469433695078,-0.02190476655960083
1690841759361232600,3.088232666015625,-0.003483148291707039,-0.00441019469872117,-0.020809940993785858
1690841759371302700,3.098302734375,-0.004572381265461445,-0.0012343751732259989,-0.021142303943634033
1690841759381343500,3.108343505859375,-0.006602242588996887,-0.003067162586376071,-0.0193135105073452
1690841759391383600,3.118383544921875,-0.005579855293035507,-0.0020477045327425003,-0.019156649708747864
1690841759401423600,3.128423583984375,-0.004710865672677755,-0.002615490462630987,-0.022541794925928116
1690841759411464700,3.138464599609375,-0.004274639766663313,-0.0004820321628358215,-0.021378524601459503
1690841759421504800,3.1485048828125,-0.005100485868752003,-0.001592037733644247,-0.02010553516447544
1690841759431544800,3.158544921875,-0.004763862583786249,-0.002299373270943761,-0.020656010136008263
1690841759441584600,3.168584716796875,-0.004534564446657896,-0.002226136391982436,-0.021375330165028572
1690841759451625500,3.17862548828125,-0.00461632339283824,-0.002129996195435524,-0.02245284430682659
1690841759461665500,3.18866552734375,-0.005921804811805487,-0.003970772959291935,-0.019703663885593414
1690841759471705600,3.19870556640625,-0.004597681108862162,-0.003063966752961278,-0.02057451754808426
1690841759481745700,3.20874560546875,-0.005387841258198023,-0.0017960357945412397,-0.019210180267691612
1690841759491786800,3.218786865234375,-0.004458930809050798,-0.004307130351662636,-0.01979980431497097
1690841759501826800,3.228826904296875,-0.004716724622994661,-0.002704440150409937,-0.019094865769147873
1690841759511897600,3.238897705078125,-0.006593986880034208,-0.00009933590627042577,-0.02082432247698307
1690841759521937700,3.248937744140625,-0.004975051153451204,0.0012245214311406016,-0.019350528717041016
1690841759531977700,3.258977783203125,-0.005065598525106907,-0.002519882982596755,-0.023514114320278168
1690841759542018600,3.2690185546875,-0.004449076950550079,-0.001353684812784195,-0.0199782345443964
1690841759552058600,3.27905859375,-0.005754025653004646,0.0004391552647575736,-0.02040567249059677
1690841759562098700,3.2890986328125,-0.004129763692617416,-0.002561161993071437,-0.02166241779923439
1690841759572139800,3.299139892578125,-0.00495081627741456,-0.00040772996726445854,-0.01907355897128582
1690841759582179800,3.309179931640625,-0.004443484358489513,-0.0026823359075933695,-0.022237926721572876
1690841759592219600,3.3192197265625,-0.004523645620793104,-0.002386458683758974,-0.018667960539460182
1690841759602259700,3.329259765625,-0.00461632339283824,-0.0025742114521563053,-0.019933493807911873
1690841759612300500,3.339300537109375,-0.005063468124717474,-0.0012452941155061126,-0.020003002136945724
1690841759622340600,3.349340576171875,-0.004275172483175993,-0.002252235310152173,-0.02136707305908203
1690841759632380700,3.359380615234375,-0.0038959383964538574,-0.0008444883860647678,-0.02225656993687153
1690841759642421800,3.369421875,-0.004307396709918976,-0.002400306984782219,-0.02142646163702011
1690841759652491500,3.379491455078125,-0.002989664673805237,-0.0028519791085273027,-0.021616345271468163
1690841759662532600,3.38953271484375,-0.0038658445701003075,-0.0025073662400245667,-0.022839268669486046
1690841759672572700,3.39957275390625,-0.004378769546747208,-0.0038780951872467995,-0.019585685804486275
1690841759682612700,3.40961279296875,-0.0038490667939186096,-0.00016458335448987782,-0.021027253940701485
1690841759692652800,3.41965283203125,-0.00427357479929924,-0.0027334685437381268,-0.01883547380566597
1690841759702693600,3.429693603515625,-0.0035137746017426252,0.00018216021999251097,-0.021821675822138786
1690841759712740900,3.439740966796875,-0.004536694847047329,-0.000303334032651037,-0.01834332011640072
1690841759722781000,3.449781005859375,-0.0036525253672152758,0.001437041675671935,-0.020326843485236168
1690841759732822000,3.459822021484375,-0.006490123458206654,-0.0012189288390800357,-0.02135801874101162
1690841759742862000,3.469862060546875,-0.005656820256263018,-0.002885801251977682,-0.021947110071778297
1690841759752902100,3.479902099609375,-0.004667988512665033,-0.0029289445374161005,-0.020229371264576912
1690841759762942000,3.48994189453125,-0.0046757119707763195,-0.0013712616637349129,-0.021682925522327423
1690841759772983000,3.499983154296875,-0.005959089379757643,-0.0032802154310047626,-0.022661369293928146
1690841759783023000,3.510023193359375,-0.0037859496660530567,-0.0016343819443136454,-0.02040247619152069
1690841759793094000,3.520093994140625,-0.005598497111350298,0.0001680454588495195,-0.019721239805221558
1690841759803134000,3.530134033203125,-0.005549761466681957,-0.0034011229872703552,-0.020122578367590904
1690841759813174000,3.540174072265625,-0.0026783409994095564,-0.000803209375590086,-0.01882481947541237
1690841759823215000,3.550215087890625,-0.005724730901420116,-0.0038695731200277805,-0.021528195589780807
1690841759833255200,3.560255126953125,-0.005377721041440964,-0.0016650082543492317,-0.021525798365473747
1690841759843295000,3.570294921875,-0.00640916358679533,-0.000070307454734575,-0.020868530496954918
1690841759853336000,3.580336181640625,-0.003695668652653694,-0.003087402554228902,-0.02208266593515873
1690841759863376000,3.5903759765625,-0.005629390012472868,-0.003861050819978118,-0.019586484879255295
1690841759873416000,3.600416015625,-0.003704457078129053,-0.0016639430541545153,-0.0182916559278965
1690841759883456000,3.6104560546875,-0.004085022956132889,-0.002222674200311303,-0.022340193390846252
1690841759893497000,3.6204970703125,-0.005152417812496424,-0.006209426559507847,-0.020265324041247368
1690841759903537200,3.630537109375,-0.0054427022114396095,0.0012855078093707561,-0.02010686695575714
1690841759913577000,3.640576904296875,-0.005515406373888254,-0.0037790255155414343,-0.019515911117196083
1690841759923618000,3.6506181640625,-0.005687180440872908,-0.0011323761427775025,-0.020805945619940758
1690841759933687800,3.660687744140625,-0.00544323492795229,-0.003897536313161254,-0.02195962704718113
1690841759943729000,3.67072900390625,-0.005416603293269873,-0.0015081481542438269,-0.01968076080083847
1690841759953769000,3.68076904296875,-0.004244812298566103,0.0009339706157334149,-0.02118784375488758
1690841759963809000,3.69080908203125,-0.004845088813453913,-0.0012801815755665302,-0.02069702185690403
1690841759973849000,3.70084912109375,-0.005143363028764725,-0.0020932445768266916,-0.02106027863919735
1690841759983890200,3.71089013671875,-0.0031973912846297026,-0.0033662356436252594,-0.022172147408127785
1690841759993930000,3.720929931640625,-0.005274656694382429,-0.000657534459605813,-0.01997370831668377
1690841760003969800,3.7309697265625,-0.0046725161373615265,-0.0015701997326686978,-0.020839767530560493
1690841760014011000,3.741010986328125,-0.003992078360170126,-0.002670884132385254,-0.020493824034929276
1690841760024051000,3.751051025390625,-0.004758269991725683,-0.0013369068037718534,-0.021036043763160706
1690841760034091000,3.761091064453125,-0.005468534771353006,-0.002567820018157363,-0.021865617483854294
1690841760044131000,3.771131103515625,-0.004003796260803938,-0.004673315212130547,-0.023122629150748253
1690841760054172200,3.781172119140625,-0.003876763628795743,-0.0009001484140753746,-0.02353781647980213
1690841760064212000,3.7912119140625,-0.00583871454000473,-0.0016205335268750787,-0.02148798108100891
1690841760074283000,3.801282958984375,-0.006476807873696089,-0.0026519757229834795,-0.019949739798903465
1690841760084322800,3.81132275390625,-0.0030929953791201115,-0.0022535668686032295,-0.020371317863464355
1690841760094363000,3.82136279296875,-0.004495682194828987,-0.001955292886123061,-0.02076360210776329
1690841760104404000,3.831404052734375,-0.004292482975870371,-0.0019891150295734406,-0.022249378263950348
1690841760114444000,3.841444091796875,-0.0041494714096188545,-0.0003009371866937727,-0.01990925893187523
1690841760124484000,3.851484130859375,-0.0041550640016794205,-0.0026466494891792536,-0.020297015085816383
1690841760134524200,3.861524169921875,-0.004543352872133255,0.00023702133330516517,-0.020895695313811302
1690841760144565000,3.87156494140625,-0.006388124544173479,-0.0002985403698403388,-0.02058517001569271
1690841760154604800,3.881604736328125,-0.0041670482605695724,-0.0011574097443372011,-0.02099289931356907
1690841760164644900,3.891644775390625,-0.004238420631736517,-0.00177952426020056,-0.020254138857126236
1690841760174686000,3.90168603515625,-0.004244545940309763,-0.004258661065250635,-0.02046452835202217
1690841760184726000,3.91172607421875,-0.005560147576034069,-0.0013670006301254034,-0.020054135471582413
1690841760194766000,3.92176611328125,-0.004274906124919653,-0.002150502521544695,-0.01811428926885128
1690841760204806100,3.93180615234375,-0.0046911584213376045,-0.0032405343372374773,-0.019588882103562355
1690841760214877000,3.941876953125,-0.005263471510261297,-0.003984089009463787,-0.019267970696091652
1690841760224918000,3.95191796875,-0.004591555800288916,-0.0012623383663594723,-0.02003149874508381
1690841760234957800,3.961957763671875,-0.006637129932641983,-0.002001631772145629,-0.020959610119462013
1690841760244998000,3.971997802734375,-0.004744421225041151,-0.002855974016711116,-0.02263021096587181
1690841760255038000,3.982037841796875,-0.003916444722563028,0.0002894856152124703,-0.020308466628193855
1690841760265079000,3.9920791015625,-0.003980626817792654,-0.0014615427935495973,-0.019840016961097717
1690841760275119000,4.002119140625,-0.004890362732112408,-0.002543052425608039,-0.021881863474845886
1690841760285159200,4.0121591796875,-0.005137770436704159,-0.0022218753583729267,-0.02052524872124195
1690841760295200000,4.022199951171875,-0.005162005312740803,-0.003876497270539403,-0.01919473335146904
1690841760305239800,4.03223974609375,-0.0041276332922279835,-0.004869856406003237,-0.022890402004122734
1690841760315280000,4.04227978515625,-0.0036796897184103727,-0.0006708502769470215,-0.01985732838511467
1690841760325320000,4.05231982421875,-0.004474909510463476,-0.0005550027708522975,-0.020195815712213516
1690841760335361000,4.062361083984375,-0.005016330163925886,-0.00336197461001575,-0.020555341616272926
1690841760345401000,4.072401123046875,-0.005114867351949215,-0.0026080335956066847,-0.02172207273542881
1690841760355472100,4.08247216796875,-0.004803011193871498,-0.001141963410191238,-0.02160329557955265
1690841760365512000,4.092511962890625,-0.005447496194392443,-0.0019283948931843042,-0.02275378257036209
1690841760375552000,4.102552001953125,-0.0027172232512384653,-0.0018106831703335047,-0.020328707993030548
1690841760385592800,4.1125927734375,-0.004820853937417269,-0.0016682040877640247,-0.01900644786655903
1690841760395633000,4.1226328125,-0.005058141890913248,0.0011166634503751993,-0.021636852994561195
1690841760405673000,4.1326728515625,-0.003971305675804615,-0.002086320426315069,-0.02094869129359722
1690841760415713000,4.142713134765625,-0.003754524514079094,0.0007736482657492161,-0.019721239805221558
1690841760425754000,4.152754150390625,-0.0038040592335164547,-0.0008303736103698611,-0.021072527393698692
1690841760435794200,4.162794189453125,-0.003855724586173892,-0.0006641923682764173,-0.01980193331837654
1690841760445834000,4.172833984375,-0.003783819265663624,-0.002310824813321233,-0.02063976414501667
1690841760455874800,4.182874755859375,-0.0031672974582761526,0.00009960222087102011,-0.020320184528827667
1690841760465915000,4.192914794921875,-0.0038746329955756664,-0.0038871499709784985,-0.023571105673909187
1690841760475955000,4.202954833984375,-0.005881324876099825,-0.0026165556628257036,-0.021888254210352898
1690841760486026000,4.21302587890625,-0.005633650813251734,-0.0022413162514567375,-0.02245231159031391
1690841760496066000,4.223066162109375,-0.004058657679706812,-2.6631610694494157e-7,-0.018819227814674377
1690841760506107100,4.233107177734375,-0.0037465349305421114,-0.0023222763556987047,-0.019844278693199158
1690841760516147000,4.24314697265625,-0.0037707698065787554,-0.003469033632427454,-0.02130715362727642
1690841760526187000,4.25318701171875,-0.0037297571543604136,-0.0025369273498654366,-0.018390191718935966
1690841760536227000,4.26322705078125,-0.004904743749648333,-0.003625627374276519,-0.019055983051657677
1690841760546268000,4.273267822265625,-0.004542553797364235,-0.0031214910559356213,-0.02076653018593788
1690841760556308000,4.283307861328125,-0.005052282940596342,-0.002721750643104315,-0.021597970277071
1690841760566348000,4.29334814453125,-0.0044469465501606464,-0.0011456918437033892,-0.020072510465979576
1690841760576389000,4.30338916015625,-0.003742806613445282,-0.0012423646403476596,-0.0217116866260767
1690841760586429200,4.31342919921875,-0.0037377465050667524,-0.0026993800420314074,-0.021340442821383476
1690841760596469000,4.323468994140625,-0.005057609174400568,-0.0036370791494846344,-0.0211833156645298
1690841760606509000,4.333509033203125,-0.005584648810327053,-0.0008801747462712228,-0.021106883883476257
1690841760616550000,4.3435498046875,-0.0037145770620554686,-0.0007190534961409867,-0.020560136064887047
1690841760626620200,4.3536201171875,-0.005393966566771269,-0.0026900589000433683,-0.021350296214222908
1690841760636661000,4.363660888671875,-0.004235757514834404,-0.0017779263434931636,-0.021685054525732994
1690841760646701000,4.373701171875,-0.005674929823726416,-0.0029116340447217226,-0.020497018471360207
1690841760656740900,4.383740966796875,-0.004629373084753752,-0.0019185412675142288,-0.021497568115592003
1690841760666782000,4.393781982421875,-0.004730040207505226,-0.0008407599525526166,-0.020192353054881096
1690841760676822000,4.403822021484375,-0.003748399205505848,-0.00199310970492661,-0.020486632362008095
1690841760686862000,4.413862060546875,-0.00395665830001235,-0.0009006810723803937,-0.020354539155960083
1690841760696902100,4.423902099609375,-0.005312473513185978,-0.0018825886072590947,-0.020059995353221893
1690841760706943000,4.43394287109375,-0.0041302964091300964,-0.0013456953456625342,-0.019588882103562355
1690841760716976600,4.4439765625,-0.005138303153216839,-0.0008178567513823509,-0.018756642937660217
1690841760727016400,4.454016357421875,-0.00563897704705596,-0.002573678968474269,-0.01973881758749485
1690841760737057500,4.4640576171875,-0.005810218397527933,-0.0020575581584125757,-0.02033429965376854
1690841760747097600,4.47409765625,-0.004234958905726671,-0.0010077401529997587,-0.02190529927611351
1690841760757137700,4.4841376953125,-0.004132959526032209,-0.0013068130938336253,-0.021198229864239693
1690841760767208700,4.494208740234375,-0.005687180440872908,-0.0018098842119798064,-0.020728714764118195
1690841760777248500,4.50424853515625,-0.004056793171912432,-0.002496180823072791,-0.021335382014513016
1690841760787288300,4.514288330078125,-0.005367334932088852,-0.0033068470656871796,-0.022911174222826958
1690841760797329400,4.524329345703125,-0.004905542824417353,0.0002764361270237714,-0.02257321961224079
1690841760807369500,4.534369384765625,0.0017358483746647835,0.028084099292755127,-0.027586886659264565
1690841760817409500,4.544409423828125,0.026164758950471878,-0.014828214421868324,-0.0858781561255455
1690841760827450600,4.55445068359375,-0.0021781993564218283,-0.07487291097640991,-0.008844091556966305
1690841760837490400,4.564490478515625,0.00974290817975998,-0.011535748839378357,-0.0356631875038147
1690841760847530500,4.574530517578125,-0.006539658177644014,-0.00899855513125658,-0.07188138365745544
1690841760857570600,4.584570556640625,-0.020792629569768906,-0.03790770098567009,-0.07546626031398773
1690841760867611600,4.594611572265625,-0.02901380881667137,-0.05921299010515213,-0.08264587819576263
1690841760877651500,4.6046513671875,-0.025916285812854767,-0.04879150912165642,-0.08215825259685516
1690841760887691500,4.61469140625,-0.021433120593428612,-0.02720285952091217,-0.08174173533916473
1690841760897732600,4.624732666015625,-0.011931493878364563,-0.011649997904896736,-0.07346542924642563
1690841760907802600,4.634802734375,-0.0011267834343016148,0.0013108078856021166,-0.06782671809196472
1690841760917843500,4.644843505859375,0.00589490681886673,0.013273194432258606,-0.05607711896300316
1690841760927883500,4.654883544921875,0.009689911268651485,0.02316603995859623,-0.04408756643533707
1690841760937923300,4.66492333984375,0.011680358089506626,0.02684253267943859,-0.031572841107845306
1690841760947964400,4.67496435546875,0.008530637249350548,0.027364512905478477,-0.015139005146920681
1690841760958004500,4.68500439453125,0.003026682650670409,0.026748789474368095,-0.0008322378271259367
1690841760968044500,4.69504443359375,-0.002793922321870923,0.016408002004027367,0.00890800729393959
1690841760978084600,4.705084716796875,-0.007191600278019905,0.013508085161447525,0.02160542644560337
1690841760988125400,4.71512548828125,-0.01329902745783329,0.00421232171356678,0.02977653779089451
1690841760998165500,4.72516552734375,-0.01563754864037037,-0.005076784174889326,0.03291187807917595
1690841761008205600,4.73520556640625,-0.01417494099587202,-0.008023039437830448,0.03347327187657356
1690841761018246700,4.74524658203125,-0.010933607816696167,-0.0067841364070773125,0.02810993231832981
1690841761028286500,4.755286376953125,-0.009161007590591908,-0.00959670078009367,0.02015719935297966
1690841761038326500,4.765326416015625,-0.0031321437563747168,-0.003871171036735177,0.011158645153045654
1690841761048397600,4.7753974609375,0.0010990865994244814,-0.001484445994719863,-0.002659166231751442
1690841761058437600,4.785437744140625,0.0017659420846030116,0.0020034960471093655,-0.0171480942517519
1690841761068477700,4.795477783203125,0.0018727348651736975,0.006013950332999229,-0.02942180447280407
1690841761078518500,4.8055185546875,-0.000014913702216290403,0.00914343073964119,-0.040590837597846985
1690841761088558300,4.815558349609375,-0.0034043188206851482,0.0034141724463552237,-0.05043494328856468
1690841761098598400,4.825598388671875,-0.005047755315899849,0.005224322900176048,-0.05558709427714348
1690841761108639500,4.835639404296875,-0.008266984485089779,0.0012458267156034708,-0.05868168920278549
1690841761118679600,4.845679443359375,-0.010202303528785706,-0.0039145806804299355,-0.05943216755986214
1690841761128719600,4.8557197265625,-0.007880027405917645,-0.013772271573543549,-0.058217767626047134
1690841761138759700,4.865759765625,-0.0076001291163265705,-0.017236776649951935,-0.053636062890291214
1690841761148800500,4.875800537109375,-0.005112470127642155,-0.021766548976302147,-0.047496944665908813
1690841761158840600,4.885840576171875,-0.005317533854395151,-0.020255204290151596,-0.038962844759225845
1690841761168880400,4.89588037109375,-0.000818123109638691,-0.0215913113206625,-0.03460405021905899
1690841761178921500,4.90592138671875,-0.0008815063047222793,-0.01828952506184578,-0.025721075013279915
1690841761188991500,4.915991455078125,-0.0016567525453865528,-0.010712831281125546,-0.01930978149175644
1690841761199032600,4.926032470703125,-0.002400573343038559,-0.005831790156662464,-0.011957326903939247
1690841761209072600,4.93607275390625,-0.003940413240343332,0.0015342470724135637,-0.007396929897367954
1690841761219112700,4.94611279296875,-0.004190484061837196,0.007865379564464092,-0.0025190841406583786
1690841761229153500,4.956153564453125,-0.00637933611869812,0.013130716048181057,-0.0003046656202059239
1690841761239193300,4.966193359375,-0.006957241799682379,0.01577416993677616,0.0008130630594678223
1690841761249233400,4.9762333984375,-0.0056922403164207935,0.01836356148123741,0.0034964641090482473
1690841761259273500,4.9862734375,-0.0049188584089279175,0.018329473212361336,-0.0003664509567897767
1690841761269314600,4.996314453125,-0.005661614239215851,0.012830311432480812,0.0012905678013339639
1690841761279354600,5.006354736328125,-0.004537227563560009,0.008678176440298557,-0.0023904533591121435
1690841761289394700,5.016394775390625,-0.003677559085190296,0.0031433289404958487,-0.007646201644092798
1690841761299434500,5.0264345703125,-0.0036392095498740673,-0.00018508969515096396,-0.010211625136435032
1690841761309475600,5.0364755859375,-0.0023390543647110462,-0.006259227637201548,-0.015900669619441032
1690841761319515400,5.046515380859375,-0.005530586466193199,-0.007500260602682829,-0.022244585677981377
1690841761329586400,5.05658642578125,-0.0037702370900660753,-0.013095295988023281,-0.025608690455555916
1690841761339626500,5.06662646484375,-0.0046996804885566235,-0.014288924634456635,-0.032236497849226
1690841761349666600,5.07666650390625,-0.006044842768460512,-0.01110564824193716,-0.034139860421419144
1690841761359707600,5.086707763671875,-0.006521282717585564,-0.012562663294374943,-0.03894739970564842
1690841761369747700,5.096747802734375,-0.007254184223711491,-0.009634784422814846,-0.04108831286430359
1690841761379787500,5.10678759765625,-0.006148706190288067,-0.0049100699834525585,-0.0402507483959198
1690841761389828400,5.116828369140625,-0.004622981417924166,-0.004822185728698969,-0.04194531962275505
1690841761399868400,5.126868408203125,-0.004295412451028824,-0.003242132253944874,-0.03753512352705002
1690841761409908500,5.136908447265625,-0.004521514754742384,-0.0001310275256400928,-0.034627217799425125
1690841761419948500,5.146948486328125,-0.003237072378396988,-0.00026498452643863857,-0.030417826026678085
1690841761429989600,5.15698974609375,-0.004598480183631182,-0.0019981698133051395,-0.026679547503590584
1690841761440029700,5.16702978515625,-0.004634166602045298,-0.0008202536264434457,-0.020713534206151962
1690841761450069500,5.177069580078125,-0.003952397499233484,-0.002375007141381502,-0.017412545159459114
1690841761460110300,5.1871103515625,-0.005335110705345869,-0.0009952232940122485,-0.0113975303247571
1690841761470180600,5.1971806640625,-0.006646983791142702,-0.0029579729307442904,-0.009438775479793549
1690841761480221400,5.207221435546875,-0.0054485611617565155,-0.002061286708340049,-0.004841094370931387
1690841761490261500,5.217261474609375,-0.005405684467405081,-0.0009859022684395313,-0.004048803821206093
1690841761500301600,5.227301513671875,-0.004828311037272215,-0.0006524744676426053,-0.0060262009501457214
1690841761510341600,5.237341552734375,-0.004464257042855024,-0.00028575718170031905,-0.007096791639924049
1690841761520382700,5.2473828125,-0.005814213305711746,0.000526506919413805,-0.009108809754252434
1690841761530422500,5.257422607421875,-0.0025505092926323414,0.0010657970560714602,-0.010309096425771713
1690841761540462600,5.267462646484375,-0.0030162963084876537,0.0006197175825946033,-0.016199743375182152
1690841761550503400,5.27750341796875,-0.004536961205303669,0.0031260184478014708,-0.017484184354543686
1690841761560543500,5.28754345703125,-0.00444002216681838,0.0018988338997587562,-0.02353595197200775
1690841761570583600,5.29758349609375,-0.004144677426666021,0.0022237394005060196,-0.023779897019267082
1690841761580623600,5.30762353515625,-0.004652009811252356,-0.0017438378417864442,-0.02665264904499054
1690841761590664700,5.317664794921875,-0.0033369408920407295,-0.005279717035591602,-0.02871047332882881
1690841761600704500,5.32770458984375,-0.00523604080080986,-0.0067545752972364426,-0.029509156942367554
1690841761610775600,5.337775634765625,-0.002948652021586895,-0.006184126250445843,-0.030887607485055923
1690841761620815600,5.347815673828125,-0.004935370292514563,-0.006695719435811043,-0.030715301632881165
1690841761630855700,5.357855712890625,-0.0037436054553836584,-0.007041397970169783,-0.028685441240668297
1690841761640896500,5.367896484375,-0.005014998838305473,-0.009149822406470776,-0.02815999835729599
1690841761650936600,5.3779365234375,-0.003707120195031166,-0.00752156600356102,-0.027666248381137848
1690841761660976600,5.3879765625,-0.0052293832413852215,-0.006698382552713156,-0.026585271582007408
1690841761671017700,5.398017822265625,-0.005274656694382429,-0.004957207944244146,-0.02480068802833557
1690841761681057500,5.4080576171875,-0.005606486462056637,-0.0015579492319375277,-0.01997583918273449
1690841761691097600,5.41809765625,-0.004593153949826956,-0.003376089269295335,-0.017254620790481567
1690841761701137700,5.4281376953125,-0.005298092495650053,0.0012492889072746038,-0.016741961240768433
1690841761711178500,5.438178466796875,-0.0032021848019212484,0.002385659608989954,-0.01679868809878826
1690841761721205000,5.448205078125,-0.0046815709210932255,0.0032024511601775885,-0.013263607397675514
1690841761731245000,5.4582451171875,-0.004882107023149729,0.002383262850344181,-0.013925403356552124
1690841761741286100,5.4682861328125,-0.004708468914031982,0.0034442662727087736,-0.014445251785218716
1690841761751356000,5.47835595703125,-0.0057380469515919685,0.00033875409280881286,-0.01341487467288971
1690841761761397000,5.48839697265625,-0.004294613376259804,-0.0005933523061685264,-0.013500096276402473
1690841761771437000,5.49843701171875,-0.003993410151451826,-0.0009009473724290729,-0.016921458765864372
1690841761781476900,5.508476806640625,-0.003816842334344983,-0.003769438248127699,-0.016151273623108864
1690841761791517000,5.518516845703125,-0.00498037738725543,-0.0019137475173920393,-0.017779795452952385
1690841761801558000,5.52855810546875,-0.005250155925750732,-0.004787298385053873,-0.02161181904375553
1690841761811598000,5.53859814453125,-0.00387330143712461,-0.005594768561422825,-0.02414102293550968
1690841761821638100,5.54863818359375,-0.005456550512462854,-0.000895621080417186,-0.02220117673277855
1690841761831679200,5.55867919921875,-0.004512459971010685,-0.004771585576236248,-0.025227325037121773
1690841761841719000,5.568718994140625,-0.005143895745277405,-0.003641073824837804,-0.025416143238544464
1690841761851758800,5.5787587890625,-0.0031936627347022295,-0.002237587934359908,-0.027780763804912567
1690841761861799000,5.588798828125,-0.004732171073555946,-0.0031438616570085287,-0.026487533003091812
1690841761871840000,5.598840087890625,-0.00558092026039958,-0.004382497631013393,-0.027509920299053192
1690841761881911000,5.6089111328125,-0.00461632339283824,-0.0027395938523113728,-0.028263328596949577
1690841761891951000,5.618951171875,-0.005057076457887888,-0.0009339706157334149,-0.0234102513641119
1690841761901991000,5.628990966796875,-0.004716990981251001,-0.003430151380598545,-0.0249069482088089
1690841761912031000,5.639031005859375,-0.004312190227210522,-0.003935885615646839,-0.021043233573436737
1690841761922071800,5.64907177734375,-0.005312473513185978,-0.0034756914246827364,-0.02189810760319233
1690841761932112000,5.65911181640625,-0.004984105937182903,0.00036511936923488975,-0.01925438828766346
1690841761942152000,5.66915185546875,-0.005543369799852371,-0.0008412926108576357,-0.016746222972869873
1690841761952192000,5.67919189453125,-0.006140450481325388,-0.002817624481394887,-0.016881778836250305
1690841761962233000,5.689233154296875,-0.005592904519289732,-0.0017243968322873116,-0.017726000398397446
1690841761972273200,5.699273193359375,-0.00378994457423687,-0.0003904194163624197,-0.018511898815631866
1690841761982313000,5.70931298828125,-0.005002481862902641,0.00015472965606022626,-0.015750734135508537
1690841761992353800,5.719353759765625,-0.0049311090260744095,-0.0025273398496210575,-0.01587909832596779
1690841762002393900,5.729393798828125,-0.004990763962268829,0.002145176287740469,-0.015994679182767868
1690841762012434000,5.739433837890625,-0.005004612263292074,0.00012783173588104546,-0.019704462960362434
1690841762022505000,5.7495048828125,-0.00427250936627388,0.00022423815971706063,-0.020388096570968628
1690841762032545000,5.759544921875,-0.0044077979400753975,-0.0027169568929821253,-0.021159879863262177
1690841762042586000,5.769586181640625,-0.004573180340230465,-0.0008583368035033345,-0.019837087020277977
1690841762052626000,5.7796259765625,-0.004191016778349876,-0.0026575683150440454,-0.021952969953417778
1690841762062666000,5.789666015625,-0.004403536673635244,-0.003945206757634878,-0.023994015529751778
1690841762072706000,5.7997060546875,-0.004649879410862923,-0.006560697220265865,-0.0231133084744215
1690841762082747000,5.809746826171875,-0.006717823911458254,-0.001782453735359013,-0.02388269640505314
1690841762092787000,5.819786865234375,-0.00452684098854661,-0.00444055488333106,-0.024711737409234047
1690841762102827000,5.829826904296875,-0.004930576309561729,-0.007453655358403921,-0.024340759962797165
1690841762112868000,5.8398681640625,-0.0038077877834439278,-0.003448260948061943,-0.023989755660295486
1690841762122908200,5.849908203125,-0.005079713650047779,-0.001487375469878316,-0.025912556797266006
1690841762132948000,5.859947998046875,-0.005618204362690449,-0.0023241406306624413,-0.0232283566147089
1690841762142988000,5.869988037109375,-0.005431517027318478,-0.0029198897536844015,-0.02208772487938404
1690841762153028900,5.88002880859375,-0.004101534374058247,-0.004664526786655188,-0.02287122793495655
1690841762163099100,5.89009912109375,-0.0038772961124777794,-0.0015227955300360918,-0.01992150954902172
1690841762173140000,5.900139892578125,-0.005742307752370834,0.0020208065398037434,-0.02008635923266411
1690841762183180000,5.910179931640625,-0.0031968585681170225,-0.0012839100090786815,-0.01998808979988098
1690841762193219800,5.9202197265625,-0.0038860845379531384,0.00025007082149386406,-0.016980580985546112
1690841762203261000,5.930260986328125,-0.005143363028764725,-0.00035260253935121,-0.01847514696419239
1690841762213301000,5.940301025390625,-0.00367143377661705,-0.0024261397775262594,-0.015741411596536636
1690841762223341000,5.950341064453125,-0.0038567897863686085,-0.0013965616235509515,-0.018760904669761658
1690841762233381000,5.960381103515625,-0.0057556238025426865,-0.0008625978953205049,-0.018626147881150246
1690841762243422000,5.970421875,-0.003692206460982561,-0.001773132593370974,-0.019782226532697678
1690841762253462000,5.9804619140625,-0.004466653801500797,-0.0018578211311250925,-0.01974467560648918
1690841762263501800,5.990501708984375,-0.00666482700034976,-0.0023369237314909697,-0.020426977425813675
1690841762273543200,6.000543212890625,-0.004257329273968935,-0.0010538127971813083,-0.020908743143081665
1690841762283583000,6.0105830078125,-0.004079962614923716,0.0014476943761110306,-0.019598735496401787
1690841762293623000,6.020623046875,-0.005160939879715443,-0.001264202524907887,-0.022889602929353714
1690841762303694000,6.030694091796875,-0.004569185432046652,-0.0012460930738598108,-0.021438445895910263
1690841762313734100,6.040734130859375,-0.003967577591538429,-0.0018844527658075094,-0.02377830073237419
1690841762323775000,6.05077490234375,-0.004836833104491234,-0.002681004349142313,-0.02099130116403103
1690841762333815000,6.06081494140625,-0.004249073565006256,-0.003727360162883997,-0.022004101425409317
1690841762343854800,6.070854736328125,-0.004208060912787914,-0.0033425334841012955,-0.023448867723345757
1690841762353895000,6.08089501953125,-0.0060118199326097965,-0.002901247702538967,-0.022337529808282852
1690841762363936000,6.09093603515625,-0.006794256623834372,-0.003225354477763176,-0.02263207547366619
1690841762373976000,6.10097607421875,-0.0057561565190553665,0.0008391620358452201,-0.02129570208489895
1690841762384016100,6.11101611328125,-0.0038157771341502666,-0.0023422501981258392,-0.02377377264201641
1690841762394056200,6.12105615234375,-0.004314853344112635,-0.0015110776294022799,-0.021136444061994553
1690841762404097000,6.131096923828125,-0.003710049670189619,-0.0010013486025854945,-0.020849620923399925
1690841762414136800,6.14113671875,-0.0037555897142738104,-0.0001257012045243755,-0.019352659583091736
1690841762424177000,6.151177001953125,-0.003462641965597868,-0.0011347729014232755,-0.01900511607527733
1690841762434218000,6.161218017578125,-0.0036075180396437645,-0.004644286818802357,-0.020659739151597023
1690841762444288000,6.1712880859375,-0.004290618933737278,-0.003855724586173892,-0.02015240676701069
1690841762454329000,6.1813291015625,-0.0028338697738945484,-0.004393683280795813,-0.017675399780273438
1690841762464369200,6.191369140625,-0.004591822158545256,-0.0027806065045297146,-0.01901310496032238
1690841762474409200,6.2014091796875,-0.0032653016969561577,-0.0008665926288813353,-0.021164141595363617
1690841762484450000,6.211449951171875,-0.003879160387441516,-0.001597630325704813,-0.020860275253653526
1690841762494489900,6.22148974609375,-0.005604888778179884,-0.0024674187880009413,-0.020534036681056023
1690841762504530000,6.231530029296875,-0.004195277579128742,-0.003631486324593425,-0.018725484609603882
1690841762514570000,6.241570068359375,-0.004137753508985043,-0.0016679377295076847,-0.021829664707183838
1690841762524611000,6.251611083984375,-0.005437109619379044,-0.0006908240029588342,-0.02256016992032528
1690841762534651100,6.261651123046875,-0.0044048684649169445,-0.0039087217301130295,-0.01919926144182682
1690841762544691200,6.271691162109375,-0.004631769843399525,-0.001228516222909093,-0.02328135445713997
1690841762554732000,6.28173193359375,-0.003766775131225586,-0.0023899206425994635,-0.02244165912270546
1690841762564771800,6.291771728515625,-0.0038061898667365313,-0.0024823325220495462,-0.023388946428894997
1690841762574812000,6.30181201171875,-0.0038192393258213997,-0.0018021611031144857,-0.020891699939966202
1690841762584883000,6.311883056640625,-0.005362540949136019,-0.0036693033762276173,-0.020244551822543144
1690841762594923000,6.321923095703125,-0.0051446943543851376,-0.0030421288684010506,-0.02298148162662983
1690841762604963000,6.331963134765625,-0.004321511369198561,-0.000969923275988549,-0.021951371803879738
1690841762615004200,6.342004150390625,-0.004387824330478907,-0.0011443602852523327,-0.019878633320331573
1690841762625044200,6.352044189453125,-0.004023769870400429,-0.00018349179299548268,-0.02052471600472927
1690841762635084000,6.362083984375,-0.00315930787473917,-0.0001459412305848673,-0.022494923323392868
1690841762645124900,6.372124755859375,-0.004318049177527428,-0.001716673607006669,-0.021938588470220566
1690841762655165000,6.3821650390625,-0.003958788700401783,-0.001529453438706696,-0.02063443884253502
1690841762665205000,6.392205078125,-0.004451740067452192,-0.0015227955300360918,-0.02069862000644207
1690841762675245000,6.4022451171875,-0.005535380449146032,0.00016538229829166085,-0.02010367065668106
1690841762685286100,6.4122861328125,-0.003870904678478837,-0.002989931032061577,-0.018988605588674545
1690841762695326200,6.422326171875,-0.003998736385256052,-0.0032916669733822346,-0.021914087235927582
1690841762705366000,6.432365966796875,-0.004248540848493576,-0.003239469137042761,-0.02021019719541073
1690841762715403300,6.4424033203125,-0.005201419815421104,0.0003757720405701548,-0.019964920356869698
1690841762725473300,6.452473388671875,-0.0037529265973716974,-0.002287389012053609,-0.01798485964536667
1690841762735514400,6.462514404296875,-0.005410211626440287,-0.004339620936661959,-0.02190316841006279
1690841762745554400,6.472554443359375,-0.005108475685119629,0.00004926848123432137,-0.01895717903971672
1690841762755594500,6.482594482421875,-0.004823783412575722,-0.0008178567513823509,-0.020728981122374535
1690841762765635600,6.492635498046875,-0.0044054011814296246,-0.0020967067684978247,-0.020907146856188774
1690841762775675400,6.50267529296875,-0.002959570847451687,-0.0018309232546016574,-0.01780962385237217
1690841762785715500,6.512715576171875,-0.0021465078461915255,0.00040799626731313765,-0.02058783359825611
1690841762795755300,6.52275537109375,-0.005573729984462261,-0.0026202842127531767,-0.022110627964138985
1690841762805796400,6.53279638671875,-0.0029824741650372744,-0.002689260058104992,-0.021877069026231766
1690841762815836400,6.54283642578125,-0.005647765472531319,-0.0024527714122086763,-0.022274944931268692
1690841762825876500,6.55287646484375,-0.003771835006773472,-0.0019571571610867977,-0.020749220624566078
1690841762835917600,6.56291748046875,-0.004999286029487848,-0.0031670311000198126,-0.021081849932670593
1690841762845957400,6.572957275390625,-0.00472418125718832,-0.003591006388887763,-0.020301543176174164
1690841762855997400,6.58299755859375,-0.00560941593721509,-0.002698314841836691,-0.020851485431194305
1690841762866068500,6.593068359375,-0.006453105714172125,-0.0034938009921461344,-0.021433120593428612
1690841762876108300,6.6031083984375,-0.0047116647474467754,-0.00173771264962852,-0.020550282672047615
1690841762886148400,6.6131484375,-0.0031156321056187153,-0.002171275205910206,-0.020489295944571495
1690841762896189400,6.623189453125,-0.00401737866923213,-0.0036858150269836187,-0.020208066329360008
1690841762906229200,6.633229248046875,-0.005498362239450216,-0.003856523660942912,-0.02064429223537445
1690841762916269300,6.643269287109375,-0.005357747431844473,0.0003406183095648885,-0.02135402522981167
1690841762926310400,6.653310302734375,-0.005399825517088175,-0.001615473534911871,-0.020617393776774406
1690841762936350500,6.6633505859375,-0.0027561055030673742,-0.0025502429343760014,-0.019641079008579254
1690841762946390300,6.673390380859375,-0.004123372491449118,-0.0025331987999379635,-0.01878220960497856
1690841762956430300,6.683430419921875,-0.0037856835406273603,-0.0025566346012055874,-0.02008662559092045
1690841762966471400,6.693471435546875,-0.004969458561390638,-0.0021523667965084314,-0.019893014803528786
1690841762976511500,6.703511474609375,-0.00330231967382133,-0.0018069547368213534,-0.021316474303603172
1690841762986551300,6.71355126953125,-0.004549211822450161,-0.0030306773260235786,-0.02388429455459118
1690841762996592400,6.72359228515625,-0.004886900540441275,-0.00006178533658385277,-0.02142300084233284
1690841763006662400,6.733662353515625,-0.005298092495650053,-0.0017443705582991242,-0.02087651938199997
1690841763016703500,6.743703369140625,-0.004009655211120844,-0.0023318638559430838,-0.022111160680651665
1690841763026743300,6.753743408203125,-0.005692773032933474,-0.00330311874859035,-0.022396385669708252
1690841763036783400,6.763783447265625,-0.002659166231751442,-0.002989931032061577,-0.020003268495202065
1690841763046823200,6.7738232421875,-0.004778776317834854,-0.0008711199625395238,-0.020680777728557587
1690841763056864300,6.7838642578125,-0.0054759918712079525,0.00023995080846361816,-0.01998249627649784
1690841763066904300,6.793904296875,-0.005095159634947777,-0.0034943337086588144,-0.021563882008194923
1690841763076944400,6.8039443359375,-0.005757754202932119,-0.001035436987876892,-0.021340442821383476
1690841763086985500,6.8139853515625,-0.003085272153839469,-0.004319913685321808,-0.021761754527688026
1690841763097025300,6.824025390625,-0.005425924435257912,-0.0036828855518251657,-0.020111126825213432
1690841763107065300,6.8340654296875,-0.004833637271076441,-0.0026554379146546125,-0.022128205746412277
1690841763117105400,6.84410546875,-0.005102350376546383,-0.0033153691329061985,-0.02118811011314392
1690841763127146500,6.854146484375,-0.004575577098876238,-0.0021856562234461308,-0.01944613642990589
1690841763137186300,6.864186279296875,-0.005559614859521389,-0.004464257042855024,-0.020914869382977486
1690841763147257300,6.87425732421875,-0.003992877434939146,-0.00005273058923194185,-0.019875969737768173
1690841763157297400,6.88429736328125,-0.004185423720628023,-0.0012146678054705262,-0.01889406330883503
1690841763167337500,6.89433740234375,-0.005352421198040247,-0.0017201356822624803,-0.018987806513905525
1690841763177378300,6.90437841796875,-0.004689293913543224,-0.0022098910994827747,-0.020776651799678802
1690841763187418400,6.91441845703125,-0.0049372343346476555,-0.0010697918478399515,-0.022936740890145302
1690841763197458200,6.924458251953125,-0.004310592543333769,-0.0008543420699425042,-0.021866949275135994
1690841763207499300,6.934499267578125,-0.003983556292951107,-0.0008317052270285785,-0.01990979164838791
1690841763217539300,6.944539306640625,-0.004922853317111731,-0.003132410114631057,-0.02033882774412632
1690841763227579400,6.954579345703125,-0.0030575753189623356,-0.0025947177782654762,-0.021701833233237267
1690841763237619500,6.964619384765625,-0.004435494542121887,-0.0007286408799700439,-0.01889379695057869
1690841763247660300,6.974660400390625,-0.0033808830194175243,-0.004436826333403587,-0.022717030718922615
1690841763257700400,6.984700439453125,-0.0036911412607878447,0.0002210423699580133,-0.02022191509604454
1690841763267740400,6.994740478515625,-0.004780640359967947,-0.00037923414492979646,-0.021448567509651184
1690841763277781500,7.004781494140625,-0.005449892953038216,-0.0018695390317589045,-0.020498616620898247
1690841763287851300,7.014851318359375,-0.002957174088805914,-0.002173938322812319,-0.020970262587070465
1690841763297892400,7.024892333984375,-0.0036567864008247852,-0.001540904981084168,-0.020119648426771164
1690841763307932400,7.034932373046875,-0.005613943561911583,-0.0002740392810665071,-0.020866133272647858
1690841763317972500,7.044972412109375,-0.0025936525780707598,-0.001282045734114945,-0.020743893459439278
1690841763328012500,7.055012451171875,-0.002868224401026964,-0.003966245800256729,-0.02214072272181511
1690841763338053400,7.065053466796875,-0.005322593729943037,-0.002734001260250807,-0.021878134459257126
1690841763348093200,7.07509326171875,-0.004436027258634567,-0.003867708845064044,-0.02251116745173931
1690841763358133200,7.08513330078125,-0.003695668652653694,0.0014900385867804289,-0.022846993058919907
1690841763368174300,7.09517431640625,-0.004503671545535326,-0.0015022892039269209,-0.021704496815800667
1690841763378214400,7.10521435546875,-0.004722583573311567,-0.002888997085392475,-0.021685320883989334
1690841763388254500,7.11525439453125,-0.0027830032631754875,-0.0015635418239980936,-0.02160649187862873
1690841763398294500,7.12529443359375,-0.0037462685722857714,-0.002133192028850317,-0.021265873685479164
1690841763408335400,7.13533544921875,-0.0056861150078475475,-0.0027174896094948053,-0.020137492567300797
1690841763418406400,7.145406494140625,-0.003829359309747815,0.000050333743274677545,-0.022361231967806816
1690841763428446200,7.1554462890625,-0.004180097486823797,-0.0014684670604765415,-0.021381987258791924
1690841763438486300,7.165486328125,-0.005201419815421104,-0.003849599277600646,-0.019939886406064034
1690841763448526300,7.1755263671875,-0.004126834217458963,-0.0007041397620923817,-0.018813900649547577
1690841763458567400,7.1855673828125,-0.0041060615330934525,-0.003924167715013027,-0.02063843235373497
1690841763468607500,7.195607421875,-0.004239219706505537,-0.0010516822803765535,-0.018994996324181557
1690841763478647600,7.2056474609375,-0.0054427022114396095,0.0013869742397218943,-0.01895531453192234
1690841763488688400,7.2156884765625,-0.0049348375760018826,-0.0017571536591276526,-0.02389441430568695
1690841763498728200,7.225728271484375,-0.005585980135947466,0.0003299656673334539,-0.019153986126184464
1690841763508768300,7.235768310546875,-0.004482632502913475,-0.0006996124284341931,-0.021748172119259834
1690841763518808300,7.245808349609375,-0.003912716172635555,-0.0010021475609391928,-0.02050900273025036
1690841763528849400,7.255849365234375,-0.004667189903557301,-0.003689543344080448,-0.020657075569033623
1690841763538889500,7.265889404296875,-0.004595817066729069,-0.0025270734913647175,-0.021767346188426018
1690841763548929500,7.275929443359375,-0.004119643941521645,-0.003828826593235135,-0.021199295297265053
1690841763559000600,7.28600048828125,-0.00583764910697937,-0.0024559672456234694,-0.02058357186615467
1690841763569040400,7.296040283203125,-0.005181446205824614,-0.0012191950809210539,-0.020002469420433044
1690841763579081200,7.306081298828125,-0.004601942375302315,-0.0030692932195961475,-0.02208000235259533
1690841763589121300,7.316121337890625,-0.0057319216430187225,-0.0027654264122247696,-0.022542061284184456
1690841763599161300,7.326161376953125,-0.0041705104522407055,-0.0020732709672302008,-0.020781710743904114
1690841763609201400,7.336201416015625,-0.0033214944414794445,-0.002255431143566966,-0.0223308727145195
1690841763619242500,7.346242431640625,-0.004225637763738632,-0.0017686053179204464,-0.021144166588783264
1690841763629282600,7.356282470703125,-0.004505802411586046,-0.0029033781029284,-0.021986525505781174
1690841763639322400,7.366322265625,-0.005476790945976973,-0.001877262257039547,-0.021467741578817368
1690841763649363200,7.37636328125,-0.005695702508091927,-0.002395513467490673,-0.019895145669579506
1690841763659403300,7.3864033203125,-0.004700212739408016,-0.0021696772892028093,-0.022036060690879822
1690841763669443300,7.396443359375,-0.0026019082870334387,-0.00038695731200277805,-0.019719108939170837
1690841763679483400,7.4064833984375,-0.006225138902664185,-0.0007898935582488775,-0.021266406401991844
1690841763689524500,7.4165244140625,-0.004102333448827267,-0.0002993392990902066,-0.021216604858636856
1690841763699594200,7.42659423828125,-0.00407570181414485,-0.0009496832499280572,-0.019903667271137238
1690841763709635300,7.43663525390625,-0.004051200579851866,-0.0020785972010344267,-0.021865883842110634
1690841763719683800,7.446683837890625,-0.004861600697040558,-0.0030839405953884125,-0.019285546615719795
1690841763729724000,7.456723876953125,-0.006029130425304174,-0.003972104750573635,-0.0201548021286726
1690841763739765000,7.466764892578125,-0.004336957819759846,-0.00003488740912871435,-0.02142699435353279
1690841763749805000,7.47680517578125,-0.0037207023706287146,-0.002280997345224023,-0.020070115104317665
1690841763759845000,7.48684521484375,-0.003961718175560236,-0.004044010303914547,-0.02189890667796135
1690841763769885200,7.49688525390625,-0.005340969655662775,-0.0027377295773476362,-0.020233632996678352
1690841763779926000,7.506926025390625,-0.0021995047573000193,-0.002122006844729185,-0.021919148042798042
1690841763789966000,7.516966064453125,-0.006610231939703226,-0.0007595335482619703,-0.02004028670489788
1690841763800006000,7.527005859375,-0.004583566449582577,-0.0017054883064702153,-0.018990734592080116
1690841763810047000,7.537046875,-0.004550543148070574,-0.002376604825258255,-0.021377461031079292
1690841763820087000,7.547087158203125,-0.006134591531008482,0.0001968075957847759,-0.021690914407372475
1690841763830127000,7.557127197265625,-0.0037641117814928293,-0.00029401297797448933,-0.02124190516769886
1690841763840198100,7.5671982421875,-0.004777710884809494,-0.00213612150400877,-0.02111114375293255
1690841763850238200,7.57723828125,-0.006446714047342539,-0.0014860439114272594,-0.018016017973423004
1690841763860279000,7.587279052734375,-0.004720719531178474,-0.0005209143273532391,-0.020656542852520943
1690841763870318800,7.59731884765625,-0.00484349112957716,-0.003168629016727209,-0.021760689094662666
1690841763880359000,7.60735888671875,-0.005181712564080954,-0.00040000680019147694,-0.02165256440639496
1690841763890399000,7.61739892578125,-0.005264803301542997,-0.0034826158080250025,-0.020744159817695618
1690841763900440000,7.627440185546875,-0.006460828706622124,-0.002377670258283615,-0.02179104834794998
1690841763910480100,7.637480224609375,-0.0044176517985761166,-0.002773149637505412,-0.020906880497932434
1690841763920520200,7.647520263671875,-0.005685849115252495,-0.0008964200387708843,-0.021434452384710312
1690841763930561000,7.65756103515625,-0.00427224300801754,-0.002749447477981448,-0.021646972745656967
1690841763940601000,7.66760107421875,-0.004305532667785883,-0.00373135507106781,-0.020183565095067024
1690841763950641000,7.677640869140625,-0.0046695866622030735,-0.0025126924738287926,-0.01931883580982685
1690841763960681000,7.687680908203125,-0.0037822213489562273,-0.0022397185675799847,-0.019573435187339783
1690841763970722000,7.69772216796875,-0.005367068573832512,-0.0009289105655625463,-0.022517293691635132
1690841763980792000,7.7077919921875,-0.004276504274457693,-0.0021430456545203924,-0.020190222188830376
1690841763990833200,7.717833251953125,-0.005247758701443672,-0.001425057533197105,-0.020063988864421844
1690841764000873200,7.727873291015625,-0.005763346794992685,-0.002516420790925622,-0.02070554532110691
1690841764010912800,7.737912841796875,-0.005066397599875927,-0.0019534286111593246,-0.020266655832529068
1690841764020953900,7.747953857421875,-0.005488774739205837,-0.000333161442540586,-0.020237626507878304
1690841764030994000,7.757993896484375,-0.004683434963226318,-0.004068777430802584,-0.022215556353330612
1690841764041034000,7.768033935546875,-0.004089017398655415,-0.0008785768295638263,-0.021709023043513298
1690841764051074000,7.778073974609375,-0.003260241821408272,0.00004740426811622456,-0.018867697566747665
1690841764061115100,7.788115234375,-0.0034285534638911486,-0.0031473238486796618,-0.02298973873257637
1690841764071155000,7.798155029296875,-0.004597414750605822,-0.002326537622138858,-0.020168384537100792
1690841764081195000,7.808195068359375,-0.0034048515371978283,-0.0032959282398223877,-0.020973991602659225
1690841764091236000,7.818236083984375,-0.005330316722393036,-0.0027630296535789967,-0.01811215840280056
1690841764101276000,7.82827587890625,-0.003997937310487032,-0.0033401367254555225,-0.021766016259789467
1690841764111316000,7.83831591796875,-0.002906307578086853,-0.0011028150329366326,-0.021811023354530334
1690841764121387000,7.848386962890625,-0.004259992390871048,-0.0017172062071040273,-0.01907888613641262
1690841764131427000,7.858427001953125,-0.005546565633267164,-0.0024253407027572393,-0.02179024927318096
1690841764141468200,7.86846826171875,-0.003081543603911996,-0.0018969696247950196,-0.019832028076052666
1690841764151508000,7.878508056640625,-0.005240834783762693,-0.0021614215802401304,-0.020076772198081017
1690841764161547800,7.8885478515625,-0.005534048657864332,-0.0036573191173374653,-0.020352410152554512
1690841764171587800,7.898587890625,-0.004611529875546694,-0.0013459615875035524,-0.020075973123311996
1690841764181629000,7.90862890625,-0.0037822213489562273,-0.0008370315190404654,-0.01955532468855381
1690841764191669000,7.9186689453125,-0.006324474699795246,-0.004912200383841991,-0.021820610389113426
1690841764201709000,7.928708984375,-0.003698065411299467,-0.0031883365008980036,-0.022913305088877678
1690841764211749000,7.9387490234375,-0.0038005972746759653,0.00018668759730644524,-0.019631225615739822
1690841764221790000,7.9487900390625,-0.003775563556700945,-0.004757204558700323,-0.021045897156000137
1690841764231829800,7.958829833984375,-0.005200354848057032,0.0010239854454994202,-0.020978251472115517
1690841764241869800,7.968869873046875,-0.006418218370527029,-0.003232811111956835,-0.021758824586868286
1690841764251911000,7.978910888671875,-0.00401498144492507,-0.00015046859334688634,-0.021640313789248466
1690841764261981000,7.98898095703125,-0.004456001333892345,-0.001967010786756873,-0.01984880492091179
1690841764272022000,7.99902197265625,-0.005596366710960865,-0.0017334514996036887,-0.0189603753387928
1690841764282062000,8.00906201171875,-0.005597432143986225,-0.0027513117529451847,-0.021805429831147194
1690841764292102100,8.01910205078125,-0.0021022993605583906,-0.0016578177455812693,-0.02191035822033882
1690841764302143000,8.02914306640625,-0.005020058713853359,0.00036724991514347494,-0.02046133205294609
1690841764312182800,8.039182861328126,-0.004250404890626669,-0.0037918086163699627,-0.0205734521150589
1690841764322222800,8.049222900390625,-0.005733785685151815,-0.0008349010022357106,-0.019450662657618523
1690841764332263000,8.059262939453125,-0.00538464542478323,-0.0029172266367822886,-0.020604610443115234
1690841764342304000,8.069303955078125,-0.004979046061635017,-0.0018402442801743746,-0.021323397755622864
1690841764352344000,8.079343994140626,-0.0068358019925653934,-0.0022325278259813786,-0.01890338398516178
1690841764362384100,8.089384033203125,-0.004773982334882021,-0.002257561543956399,-0.019035210832953453
1690841764372425000,8.099425048828126,-0.0038248319178819656,-0.0015302523970603943,-0.022219285368919373
1690841764382464800,8.10946484375,-0.0033835461363196373,-0.002094576135277748,-0.02033776231110096
1690841764392504800,8.1195048828125,-0.005565207917243242,-0.0021523667965084314,-0.020602213218808174
1690841764402576000,8.129575927734376,-0.0041398839093744755,-0.003299922915175557,-0.0205159280449152
1690841764412616000,8.139615966796875,-0.0040765004232525826,-0.0015667376574128866,-0.022732742130756378
1690841764422656000,8.149656005859375,-0.00555162550881505,-0.0009041432058438659,-0.021576132625341415
1690841764432697000,8.159697021484375,-0.0043686493299901485,-0.0014346449170261621,-0.018801117315888405
1690841764442737200,8.169737060546876,-0.005204082932323217,-0.0011856392957270145,-0.018989669159054756
1690841764452777000,8.17977685546875,-0.004697549622505903,-0.003805657150223851,-0.021764418110251427
1690841764462817800,8.18981787109375,-0.004680771846324205,-0.0010719223646447062,-0.02050767093896866
1690841764472857900,8.19985791015625,-0.00541447289288044,-0.002654372714459896,-0.021075723692774773
1690841764482898000,8.20989794921875,-0.00555322365835309,-0.0017784589435905218,-0.022425679489970207
1690841764492938000,8.21993798828125,-0.003697799053043127,-0.001323857344686985,-0.019036807119846344
1690841764502979000,8.22997900390625,-0.003847468877211213,-0.002683933824300766,-0.02142166905105114
1690841764513019100,8.24001904296875,-0.0057015614584088326,-0.0016881778137758374,-0.02104935795068741
1690841764523059000,8.250058837890625,-0.005631254054605961,-0.003087668912485242,-0.0211284551769495
1690841764533099800,8.260099853515625,-0.0036719664931297302,-0.0008649947121739388,-0.020060792565345764
1690841764543170000,8.270170166015625,-0.0049707903526723385,-0.0011379687348380685,-0.021803831681609154
1690841764553211000,8.2802109375,-0.004777977243065834,-0.0027017768006771803,-0.021259749308228493
1690841764563251000,8.2902509765625,-0.003733751829713583,-0.0020213392563164234,-0.019638948142528534
1690841764573291000,8.300291015625,-0.00472551304847002,-0.0023068301379680634,-0.021346833556890488
1690841764583332000,8.31033203125,-0.005649363622069359,-0.000934236915782094,-0.020657075569033623
1690841764593372200,8.3203720703125,-0.005769738461822271,-0.0013028184184804559,-0.022351378574967384
1690841764603412000,8.330411865234375,-0.004176901653409004,0.000322775129461661,-0.018794992938637733
1690841764613452000,8.3404521484375,-0.004042145796120167,-0.0019084211671724916,-0.018974490463733673
1690841764623492900,8.350492919921875,-0.006461627781391144,-0.0037230991292744875,-0.019840016961097717
1690841764633533000,8.360532958984376,-0.004956408869475126,-0.0007017429452389479,-0.021150292828679085
1690841764643573000,8.370572998046875,-0.0049372343346476555,-0.0010181264951825142,-0.019405389204621315
1690841764653613000,8.380613037109375,-0.007321828510612249,-0.002918025478720665,-0.019466375932097435
1690841764663654100,8.390654052734375,-0.0057526943273842335,-0.0008700547041371465,-0.018970495089888573
1690841764673694000,8.40069384765625,-0.0034117756877094507,-0.001044491771608591,-0.019835490733385086
1690841764683765000,8.410764892578126,-0.0051742554642260075,-0.0017528926255181432,-0.020127639174461365
1690841764693805000,8.42080517578125,-0.004175303969532251,-0.003400590270757675,-0.02184298075735569
1690841764703845000,8.43084521484375,-0.005594768561422825,-0.0024562333710491657,-0.021339377388358116
1690841764713886000,8.440885986328125,-0.004614725708961487,-0.00155288923997432,-0.021733524277806282
1690841764723899000,8.45089892578125,-0.004209392238408327,-0.002603506203740835,-0.020110860466957092
1690841764733938700,8.460938720703124,-0.006360427476465702,-0.001136104459874332,-0.019895410165190697
1690841764743979800,8.470979736328125,-0.005432316102087498,-0.0024708807468414307,-0.018793927505612373
1690841764754019800,8.481019775390624,-0.003719370812177658,0.0013699301052838564,-0.02002883516252041
1690841764764060000,8.491059814453125,-0.003977164626121521,-0.002746518002822995,-0.021212078630924225
1690841764774099700,8.501099609375,-0.004012051969766617,-0.00236275652423501,-0.02148132398724556
1690841764784140800,8.511140869140625,-0.0054941014386713505,-0.0010159959783777595,-0.020482372492551804
1690841764794180900,8.521180908203124,-0.004465588368475437,-0.0026578346733003855,-0.02117665857076645
1690841764804220700,8.531220703125,-0.0054243262857198715,-0.002769421087577939,-0.020919661968946457
1690841764814261800,8.54126171875,-0.0052264537662267685,-0.000618918624240905,-0.019405122846364975
1690841764824331800,8.551331787109374,-0.00526586826890707,-0.0007025419035926461,-0.020072244107723236
1690841764834372900,8.561372802734375,-0.004917260725051165,-0.0008998821140266955,-0.02002830244600773
1690841764844413000,8.571412841796874,-0.004988633096218109,-0.0007115966291166842,-0.02045547403395176
1690841764854452700,8.58145263671875,-0.00401711231097579,-0.0013941648649051785,-0.021074924618005753
1690841764864492800,8.591492919921874,-0.006345247384160757,-0.0023734092246741056,-0.022066153585910797
1690841764874534000,8.601533935546875,-0.003837881376966834,-0.0008639294537715614,-0.021079452708363533
1690841764884573700,8.61157373046875,-0.0043992758728563786,-0.0037055222783237696,-0.020352676510810852
1690841764894613800,8.62161376953125,-0.002879942301660776,-0.0035148400347679853,-0.021210746839642525
1690841764904654800,8.63165478515625,-0.004833104554563761,-0.0025001754984259605,-0.020356403663754463
1690841764914695000,8.64169482421875,-0.003706587478518486,-0.002282329136505723,-0.020858144387602806
1690841764924734700,8.651734619140624,-0.004400074947625399,-0.002118278294801712,-0.02123205177485943
1690841764934774800,8.66177490234375,-0.005084773525595665,-0.0008988168556243181,-0.021796375513076782
1690841764944815900,8.67181591796875,-0.005595034919679165,-0.003498861100524664,-0.020416591316461563
1690841764954855700,8.681855712890625,-0.003567570587620139,-0.000937166390940547,-0.021449631080031395
1690841764964926700,8.6919267578125,-0.0036812876351177692,0.00026525085559114814,-0.019769975915551186
1690841764974966800,8.701966796875,-0.003977164626121521,-0.0036946034524589777,-0.01997850090265274
1690841764985006800,8.7120068359375,-0.00430127140134573,-0.0029814087320119143,-0.0204008799046278
1690841764995047700,8.722047607421874,-0.002642654813826084,-0.00031798143754713237,-0.024085361510515213
1690841765005087700,8.732087646484375,-0.004552407655864954,-0.0020929782185703516,-0.022061359137296677
1690841765015127800,8.7421279296875,-0.004040548112243414,-0.0016740630380809307,-0.0207500196993351
1690841765025169000,8.7521689453125,-0.003932689782232046,-0.0027798074297606945,-0.022469889372587204
1690841765035208700,8.762208740234374,-0.003750795964151621,-0.00043276368523947895,-0.02111167646944523
1690841765045248800,8.772248779296875,-0.004055195488035679,-0.002240517409518361,-0.020743360742926598
1690841765055288800,8.782288818359374,-0.005275455769151449,-0.0009765811264514923,-0.020858410745859146
1690841765065329700,8.79232958984375,-0.002603239845484495,-0.003763579297810793,-0.019690880551934242
1690841765075369700,8.80236962890625,-0.00493217445909977,-0.0007307713967747986,-0.02058783359825611
1690841765085409800,8.812409912109375,-0.0036362800747156143,-0.002314553363248706,-0.02051832526922226
1690841765095480600,8.82248046875,-0.004751079250127077,-0.0025513083674013615,-0.022976422682404518
1690841765105520600,8.832520751953124,-0.004087686073035002,-0.0021819279063493013,-0.01967836357653141
1690841765115561700,8.842561767578125,-0.004906075540930033,-0.003064499469473958,-0.02046319656074047
1690841765125601800,8.852601806640624,-0.0032437301706522703,-0.0007534082396887243,-0.019173961132764816
1690841765135641900,8.862641845703125,-0.0031465247739106417,-0.00045353634050115943,-0.021560952067375183
1690841765145682000,8.872681884765624,-0.005084773525595665,-0.001728657865896821,-0.020711403340101242
1690841765155722800,8.88272265625,-0.0036642432678490877,-0.0023787354584783316,-0.02153991349041462
1690841765165762800,8.8927626953125,-0.003940679598599672,-0.0035095135681331158,-0.019630160182714462
1690841765175802600,8.902802734375,-0.004914331249892712,-0.000800279900431633,-0.020355870947241783
1690841765185843700,8.91284375,-0.005615274887531996,-0.0012897689593955874,-0.021931132301688194
1690841765195883800,8.9228837890625,-0.003368099918588996,-0.0010045443195849657,-0.018873821943998337
1690841765205923800,8.932923828125,-0.005273591727018356,-0.003897536313161254,-0.021829931065440178
1690841765215964000,8.9429638671875,-0.006229666527360678,-0.0010902981739491224,-0.021674135699868202
1690841765226004700,8.953004638671874,-0.005257612559944391,-0.0016200009267777205,-0.02135642059147358
1690841765236075800,8.96307568359375,-0.0036759611684828997,-0.0021816615480929613,-0.021816615015268326
1690841765246115600,8.973115478515625,-0.005666407756507397,-0.00130947632715106,-0.019956663250923157
1690841765256155600,8.98315576171875,-0.004279433749616146,-0.0010956244077533484,-0.021393438801169395
1690841765266195700,8.99319580078125,-0.005359877832233906,-0.0034354778472334146,-0.020973192527890205
1690841765276236800,9.00323681640625,-0.004785700235515833,-0.001440237509086728,-0.022349247708916664
1690841765286276900,9.01327685546875,-0.0038567897863686085,-0.00213638786226511,-0.0217116866260767
1690841765296317000,9.02331689453125,-0.004029096569865942,-0.0032919333316385746,-0.021797174587845802
1690841765306357000,9.03335693359375,-0.0038874163292348385,-0.002353968098759651,-0.020059196278452873
1690841765316397800,9.043397705078124,-0.005587311927229166,-0.0020849888678640127,-0.02184777520596981
1690841765326437600,9.053437744140625,-0.003029612125828862,-0.0030008498579263687,-0.023137276992201805
1690841765336477700,9.063477783203124,-0.003981159534305334,-0.00006950850365683436,-0.01986292004585266
1690841765346518800,9.073518798828125,-0.004495415836572647,-0.0013052152935415506,-0.018907643854618073
1690841765356558800,9.083558837890624,-0.0040946099907159805,-0.0015227955300360918,-0.019086875021457672
1690841765366599000,9.093598876953125,-0.005081844050437212,0.00008495483780279756,-0.018809108063578606
1690841765376670000,9.103669921875,-0.006683735176920891,-0.002642122097313404,-0.020115654915571213
1690841765386709800,9.113709716796874,-0.021041635423898697,-0.3723495900630951,-0.21328137814998627
1690841765396750600,9.12375048828125,-0.008478972129523754,-0.028721127659082413,-0.15630491077899933
1690841765406790700,9.133790771484374,-0.016083095222711563,-0.0377710796892643,-0.11682967841625214
1690841765416830700,9.143830810546875,-0.011402057483792305,-0.0551290325820446,-0.07099747657775879
1690841765426870800,9.153870849609374,-0.01044491771608591,-0.05355723574757576,-0.023999076336622238
1690841765436911900,9.163911865234375,-0.001412806916050613,0.0026106967125087976,0.041001494973897934
1690841765446952000,9.173951904296874,0.005350556690245867,-0.02538391947746277,0.037100497633218765
1690841765456992000,9.183991943359375,-0.0002495381922926754,-0.017901236191391945,0.030833812430500984
1690841765467032800,9.19403271484375,-0.004187554586678743,-0.030885478481650352,0.037822213023900986
1690841765477072600,9.20407275390625,-0.005662945564836264,-0.00765818590298295,0.02479775808751583
1690841765487112700,9.21411279296875,-0.005757221486419439,0.014230335131287575,0.014764032326638699
1690841765497152800,9.22415283203125,-0.0038685076870024204,0.036559607833623886,0.007634217385202646
1690841765507193900,9.23419384765625,-0.004788097459822893,0.054003581404685974,-0.000005858954409632133
1690841765517264000,9.244263916015624,-0.00666482700034976,0.06814629584550858,-0.0096273273229599
1690841765527305000,9.254304931640625,-0.005632319487631321,0.06896894425153732,-0.01709802635014057
1690841765537344800,9.2643447265625,-0.003546265186741948,0.06427139788866043,-0.02292502298951149
1690841765547384800,9.274384765625,-0.0010154632618650794,0.05343366414308548,-0.0264262817800045
1690841765557425700,9.28442578125,-0.0016889767721295357,0.03326847404241562,-0.03038427047431469
1690841765567465700,9.2944658203125,-0.0004324973560869694,0.013408483006060123,-0.030006634071469307
1690841765577505800,9.304505859375,-0.0021166803780943155,-0.010133061558008194,-0.031370971351861954
1690841765587545900,9.3145458984375,-0.0036581179592758417,-0.030720628798007965,-0.03111957013607025
1690841765597587000,9.3245869140625,-0.004172374494373798,-0.04639066755771637,-0.030243122950196266
1690841765607626800,9.334626708984375,-0.007764179725199938,-0.0580768845975399,-0.030133135616779327
1690841765617666800,9.344666748046874,-0.00875034835189581,-0.05947451293468475,-0.03051023930311203
1690841765627707600,9.354707763671875,-0.008125037886202335,-0.05383606627583504,-0.03147643432021141
1690841765637747700,9.364747802734374,-0.008756207302212715,-0.046784017235040665,-0.03536837548017502
1690841765647787800,9.374787841796875,-0.00814980547875166,-0.034217093139886856,-0.0359172560274601
1690841765657858800,9.38485888671875,-0.006661098450422287,-0.019591277465224266,-0.0393090546131134
1690841765667899000,9.39489892578125,-0.0035955337807536125,-0.0046331011690199375,-0.03919161111116409
1690841765677940000,9.40493994140625,-0.002763562137261033,0.011516840197145939,-0.03868667408823967
1690841765687979800,9.414979736328124,-0.001442900625988841,0.021693311631679535,-0.037872545421123505
1690841765698019800,9.425019775390625,-0.0024256070610135794,0.028142688795924187,-0.03356754779815674
1690841765708060000,9.435059814453124,-0.004560397006571293,0.034092988818883896,-0.028024710714817047
1690841765718100500,9.4451005859375,-0.0023555660154670477,0.03309110924601555,-0.02153405360877514
1690841765728140500,9.455140625,-0.002671683207154274,0.028238562867045403,-0.016943030059337616
1690841765738180600,9.4651806640625,-0.0054299188777804375,0.018746789544820786,-0.008824650198221207
1690841765748221700,9.4752216796875,-0.004352936986833811,0.012471850030124187,-0.003561711637303233
1690841765758261800,9.48526171875,-0.0057444386184215546,0.0031334753148257732,0.0009773800848051906
1690841765768301800,9.4953017578125,-0.003937483765184879,-0.008852880448102951,0.003055444685742259
1690841765778341600,9.505341552734375,-0.006341519299894571,-0.018216287717223167,0.0032770195975899696
1690841765788382500,9.515382568359374,-0.005046690348535776,-0.02111034467816353,0.0036661075428128242
1690841765798452700,9.52545263671875,-0.005519933998584747,-0.021634988486766815,0.0010149306617677212
1690841765808493600,9.53549365234375,-0.00583844818174839,-0.017716147005558014,-0.002552639925852418
1690841765818533600,9.54553369140625,-0.005637645721435547,-0.01715288870036602,-0.008587096817791462
1690841765828573700,9.55557373046875,-0.0035137746017426252,-0.009845972992479801,-0.017467407509684563
1690841765838614800,9.56561474609375,-0.005881324876099825,-0.003352120751515031,-0.02171355113387108
1690841765848654600,9.575654541015625,-0.00509942090138793,0.00009134642459684983,-0.030526749789714813
1690841765858694700,9.585694580078124,-0.004150536376982927,0.007122890558093786,-0.035778503865003586
1690841765868734700,9.595734619140625,-0.005870938766747713,0.010075803846120834,-0.03955220431089401
1690841765878775600,9.605775634765624,-0.005620867945253849,0.01167316734790802,-0.04284067451953888
1690841765888815600,9.615815673828125,-0.004315918777137995,0.011891280300915241,-0.04243773967027664
1690841765898855700,9.625855712890624,-0.005574262235313654,0.009042763151228428,-0.041905105113983154
1690841765908896800,9.635896728515625,-0.003279150230810046,0.0031824775505810976,-0.039628103375434875
1690841765918936800,9.645936767578124,-0.004689826630055904,-0.0013960290234535933,-0.03395716845989227
1690841765928976600,9.6559765625,-0.004607801325619221,-0.005193963181227446,-0.030886011198163033
1690841765939047700,9.666047607421875,-0.004063717555254698,-0.01146623957902193,-0.026274479925632477
1690841765949087700,9.676087646484374,-0.004077299498021603,-0.013677462935447693,-0.021164940670132637
1690841765959127600,9.68612744140625,-0.007120227441191673,-0.015930762514472008,-0.018606707453727722
1690841765969168600,9.696168701171874,-0.005022455472499132,-0.014694790355861187,-0.015180550515651703
1690841765979208700,9.706208740234375,-0.006607302464544773,-0.014185327105224133,-0.012268383987247944
1690841765989248500,9.71624853515625,-0.0065260762348771095,-0.011244664900004864,-0.009928531013429165
1690841765999289600,9.72628955078125,-0.004789695143699646,-0.005876265000551939,-0.009758621454238892
1690841766009329700,9.73632958984375,-0.005524194799363613,0.0011004181578755379,-0.009268865920603275
1690841766019369700,9.74636962890625,-0.002989931032061577,0.005291967187076807,-0.010361560620367527
1690841766029409500,9.756409423828124,-0.003477822057902813,0.008978048339486122,-0.011778095737099648
1690841766039450600,9.76645068359375,-0.004351072479039431,0.012350942008197308,-0.013008476234972477
1690841766049490700,9.77649072265625,-0.004710599314421415,0.014185060746967793,-0.015490010380744934
1690841766059530800,9.78653076171875,-0.0029790119733661413,0.011868909932672977,-0.01726740412414074
1690841766069571800,9.79657177734375,-0.004097007215023041,0.007494934368878603,-0.01950259506702423
1690841766079641600,9.8066416015625,-0.004025101661682129,0.004501541145145893,-0.01793772168457508
1690841766089682700,9.8166826171875,-0.004619519226253033,0.0004290352517273277,-0.019906064495444298
1690841766099722500,9.826722412109374,-0.005012601613998413,-0.0007305050967261195,-0.023315442726016045
1690841766109762600,9.836762451171875,-0.0041153826750814915,-0.007187871728092432,-0.02220889925956726
1690841766119803600,9.8468037109375,-0.005851497408002615,-0.010537595488131046,-0.023007314652204514
1690841766129843700,9.85684375,-0.005048021674156189,-0.010085124522447586,-0.023444872349500656
1690841766139883500,9.866883544921874,-0.005007009021937847,-0.015323029831051826,-0.025738652795553207
1690841766149923600,9.876923583984375,-0.005577458068728447,-0.012653743848204613,-0.026501648128032684
1690841766159964700,9.886964599609374,-0.0048797097988426685,-0.011751730926334858,-0.025359684601426125
1690841766170004500,9.89700439453125,-0.005416070576757193,-0.008803877979516983,-0.025680063292384148
1690841766180044500,9.90704443359375,-0.005036037415266037,-0.004051999654620886,-0.027754666283726692
1690841766190085600,9.917085693359375,-0.002852511825039983,-0.004575577098876238,-0.028302477672696114
1690841766200125700,9.927125732421874,-0.005382248666137457,0.0011528824688866735,-0.026395387947559357
1690841766210165800,9.937165771484375,-0.0037907434161752462,0.00279072648845613,-0.023813987150788307
1690841766220236500,9.947236572265625,-0.0037286917213350534,0.0028458540327847004,-0.024873923510313034
1690841766230276600,9.957276611328124,-0.006761766038835049,0.0043870252557098866,-0.02227175049483776
1690841766240316700,9.967316650390625,-0.002927080262452364,0.0031726236920803785,-0.01817341148853302
1690841766250357500,9.977357421875,-0.005109008401632309,0.004518052563071251,-0.01829671487212181
1690841766260397600,9.9873974609375,-0.0030687605030834675,0.0002569950302131474,-0.015956062823534012
1690841766270437600,9.997437744140624,-0.0037846181076020002,0.0008247809601016343,-0.014692126773297787
1690841766280478700,10.007478759765625,-0.005792108830064535,-0.000794420950114727,-0.013652695342898369
1690841766290518500,10.0175185546875,-0.004542021080851555,-0.003108175238594413,-0.013972541317343712
1690841766300558600,10.02755859375,-0.0049281795509159565,-0.004795021377503872,-0.012607404962182045
1690841766310598700,10.0375986328125,-0.004049070179462433,-0.0035830168053507805,-0.014080132357776165
1690841766320639500,10.047639404296875,-0.0049063414335250854,-0.003915379289537668,-0.013794375583529472
1690841766330679600,10.057679443359374,-0.004832039587199688,-0.0014985607704147696,-0.017482055351138115
1690841766340719600,10.0677197265625,-0.0057196710258722305,-0.004714594222605228,-0.017788585275411606
1690841766350760700,10.0777607421875,-0.005554022267460823,-0.0036618465092033148,-0.019159846007823944
1690841766360830500,10.08783056640625,-0.004191815387457609,-0.0025843314360827208,-0.02113058604300022
1690841766370871600,10.09787158203125,-0.005254949443042278,-0.002061819192022085,-0.024657409638166428
1690841766380911600,10.10791162109375,-0.003985154442489147,-0.0003914846747647971,-0.02600283920764923
1690841766390951700,10.11795166015625,-0.005316734779626131,-0.0003022687742486596,-0.025912024080753326
1690841766400992500,10.127992431640624,-0.0037942056078463793,0.0009001484140753746,-0.02707342989742756
1690841766411032600,10.138032470703125,-0.004036819562315941,-0.0028453213162720203,-0.02538711577653885
1690841766421072600,10.14807275390625,-0.004156661685556173,-0.00221974472515285,-0.027342675253748894
1690841766431112400,10.158112548828125,-0.005515672732144594,-0.0012093414552509785,-0.02694559656083584
1690841766441153500,10.168153564453124,-0.003739344421774149,-0.0033222935162484646,-0.023267239332199097
1690841766451193600,10.178193603515625,-0.005218197591602802,-0.005575327668339014,-0.023911723867058754
1690841766461233700,10.188233642578124,-0.005334311630576849,-0.004711398389190435,-0.02231782302260399
1690841766471273700,10.198273681640625,-0.005139634478837252,-0.006529538426548243,-0.02010074071586132
1690841766481314600,10.208314453125,-0.005032309330999851,-0.005076251458376646,-0.01937396451830864
1690841766491354600,10.218354736328125,-0.004277302883565426,-0.0055090151727199554,-0.01974121481180191
1690841766501425700,10.22842578125,-0.0041529336012899876,-0.003962783608585596,-0.018920693546533585
1690841766511465500,10.238465576171874,-0.005678658373653889,-0.00013315805699676275,-0.018617626279592514
1690841766521505500,10.248505615234375,-0.004253334365785122,-0.0008647284121252596,-0.018489528447389603
1690841766531546600,10.258546630859374,-0.004779575392603874,0.002522546099498868,-0.01702532172203064
1690841766541586700,10.268586669921875,-0.004833104554563761,0.0010732539230957627,-0.018378473818302155
1690841766551626800,10.278626708984374,-0.004530569538474083,0.0015662050573155284,-0.01949487254023552
1690841766561667600,10.28866748046875,-0.00461658975109458,0.0018271948210895061,-0.018790198490023613
1690841766571707600,10.298707763671874,-0.005343366414308548,0.0018937737913802266,-0.016646355390548706
1690841766581747500,10.30874755859375,-0.0046299053356051445,-0.00046312372433021665,-0.019716447219252586
1690841766591787500,10.31878759765625,-0.004306597635149956,-0.0011598066193982959,-0.02155216410756111
1690841766601828600,10.32882861328125,-0.005367334932088852,-0.000020506340661086142,-0.020596355199813843
1690841766611868700,10.33886865234375,-0.004503138829022646,-0.005992112215608358,-0.019754795357584953
1690841766621908700,10.34890869140625,-0.006506368983536959,-0.005854693241417408,-0.018911106511950493
1690841766631949600,10.358949462890624,-0.005032309330999851,-0.004989964887499809,-0.02070021815598011
1690841766642019600,10.36901953125,-0.005787315312772989,-0.007521831896156073,-0.022290391847491264
1690841766652060400,10.379060302734375,-0.004526308737695217,-0.006841660942882299,-0.02293487638235092
1690841766662100500,10.3891005859375,-0.00475534051656723,-0.002585130510851741,-0.024633441120386124
1690841766672140500,10.399140625,-0.005851763766258955,0.00009347695595351979,-0.024233434349298477
1690841766682180600,10.4091806640625,-0.0057436395436525345,-0.00041199102997779846,-0.022824889048933983
1690841766692221700,10.4192216796875,-0.003689276985824108,0.001064998097717762,-0.024339960888028145
1690841766702261800,10.42926171875,-0.004007524810731411,0.0005933523061685264,-0.022783076390624046
1690841766712301800,10.4393017578125,-0.005248824134469032,-0.0018879148410633206,-0.021556690335273743
1690841766722340900,10.4493408203125,-0.004131894558668137,-0.005497563164681196,-0.021817414090037346
1690841766732381000,10.459380859375,-0.005561213009059429,-0.0062400526367127895,-0.020057331770658493
1690841766742420700,10.469420654296876,-0.00618306128308177,-0.0041071269661188126,-0.018762502819299698
1690841766752460800,10.479460693359375,-0.004969458561390638,-0.0035601137205958366,-0.020014453679323196
1690841766762501600,10.489501708984376,-0.004552141297608614,-0.0025414545089006424,-0.020084228366613388
1690841766772541700,10.499541748046875,-0.005486644338816404,-0.0013078784104436636,-0.02190849371254444
1690841766782612700,10.50961279296875,-0.004868258256465197,-0.000532365869730711,-0.019531089812517166
1690841766792652800,10.51965283203125,-0.0041486723348498344,0.00009454221435589716,-0.018009094521403313
1690841766802692900,10.52969287109375,-0.004485828336328268,0.00024314661277458072,-0.01919020526111126
1690841766812734000,10.53973388671875,-0.005032841581851244,0.0007531419396400452,-0.018274344503879547
1690841766822773800,10.549773681640625,-0.003890878288075328,0.0010671286145225167,-0.01997211016714573
1690841766832813800,10.559813720703126,-0.0037792918737977743,-0.0007576693315058947,-0.01859818585216999
1690841766842854700,10.569854736328125,-0.00446905056014657,-0.002870887517929077,-0.018566492944955826
1690841766852894700,10.579894775390626,-0.00415319949388504,-0.003775563556700945,-0.019894080236554146
1690841766862934800,10.589934814453125,-0.004693022463470697,-0.0049164616502821445,-0.020675184205174446
1690841766872974800,10.599974853515626,-0.005499161314219236,-0.004560663364827633,-0.020429108291864395
1690841766883016000,10.610015869140625,-0.00515880947932601,-0.003234142903238535,-0.023751668632030487
1690841766893055700,10.6200556640625,-0.0052019525319337845,-0.0034264230635017157,-0.020906614139676094
1690841766903095800,10.630095703125,-0.004094077739864588,-0.0011773834703490138,-0.021499166265130043
1690841766913166800,10.640166748046875,-0.005154548212885857,0.0011646003695204854,-0.022847525775432587
1690841766923207000,10.65020703125,-0.005176386330276728,-0.001487375469878316,-0.022898657247424126
1690841766933247700,10.660247802734375,-0.004733768757432699,-0.0003105245705228299,-0.020298346877098083
1690841766943287800,10.670287841796876,-0.003338538808748126,-0.002263686852529645,-0.022179869934916496
1690841766953327900,10.680327880859375,-0.0029622339643538,-0.0024253407027572393,-0.021396901458501816
1690841766963367700,10.69036767578125,-0.005047223065048456,-0.004772118292748928,-0.023983629420399666
1690841766973408800,10.70040869140625,-0.004228300880640745,0.00012729909212794155,-0.021636053919792175
1690841766983448800,10.71044873046875,-0.005182511638849974,-0.0033071134239435196,-0.0211271233856678
1690841766993489000,10.720489013671875,-0.0054759918712079525,-0.003325489116832614,-0.023959660902619362
1690841767003529700,10.73052978515625,-0.004748149774968624,-0.001764077926054597,-0.020650416612625122
1690841767013569800,10.74056982421875,-0.0049468218348920345,-0.0006588660762645304,-0.01840483956038952
1690841767023609900,10.75060986328125,-0.004785700235515833,-0.0017164073651656508,-0.01913800835609436
1690841767033649700,10.760649658203125,-0.005524727515876293,-0.0020809939596801996,-0.01906823366880417
1690841767043690800,10.770690673828126,-0.004081028047949076,0.0007262440049089491,-0.0188373364508152
1690841767053761800,10.78076171875,-0.003418966196477413,0.000218645524000749,-0.019589945673942566
1690841767063801900,10.7908017578125,-0.004492486361414194,0.0015273229219019413,-0.018491126596927643
1690841767073842000,10.800842041015626,-0.0025885924696922302,-0.0044232443906366825,-0.02111487276852131
1690841767083881700,10.8108818359375,-0.002695385366678238,-0.0018905780743807554,-0.020025106146931648
1690841767093922800,10.8209228515625,-0.004133225884288549,-0.0029952572658658028,-0.018756376579403877
1690841767103963000,10.830962890625,-0.006159891374409199,-0.004338289611041546,-0.019529759883880615
1690841767114002700,10.841002685546876,-0.00430047232657671,-0.002231462625786662,-0.02117506042122841
1690841767124042800,10.851042724609375,-0.0039265644736588,-0.000029294771593413316,-0.02070714347064495
1690841767134083800,10.861083740234376,-0.00506932707503438,0.0017630126094445586,-0.01961604505777359
1690841767144124000,10.8711240234375,-0.004523379262536764,-0.0024114924017339945,-0.02130608819425106
1690841767154163700,10.881163818359376,-0.004671717062592506,-0.001680720946751535,-0.02178705483675003
1690841767164204800,10.891204833984375,-0.005758286919444799,-0.00009747169679030776,-0.022219285368919373
1690841767174244900,10.901244873046876,-0.0030368026345968246,-0.0017632789677008986,-0.023676300421357155
1690841767184284700,10.91128466796875,-0.005376389715820551,-0.003856523660942912,-0.02243899554014206
1690841767194355700,10.921355712890625,-0.004821120295673609,-0.004265318624675274,-0.022056832909584045
1690841767204395800,10.931395751953126,-0.005903162993490696,-0.0010775149567052722,-0.022174011915922165
1690841767214436900,10.941436767578125,-0.005381183233112097,-0.0026844663079828024,-0.022060295566916466
1690841767224477000,10.951476806640626,-0.0038519962690770626,-0.003733751829713583,-0.020620856434106827
1690841767234516700,10.961516845703125,-0.003692739177495241,-0.0021403825376182795,-0.022519158199429512
1690841767244556800,10.971556884765626,-0.005275189410895109,-0.0038693067617714405,-0.01998649165034294
1690841767254598000,10.981597900390625,-0.005005411338061094,-0.0019094864837825298,-0.02219771407544613
1690841767264637700,10.9916376953125,-0.0039175101555883884,0.0001651159836910665,-0.020139623433351517
1690841767274677800,11.001677734375,-0.005831790156662464,-0.001701759872958064,-0.021260015666484833
1690841767284718800,11.01171875,-0.005287173669785261,-0.0003294330381322652,-0.02299080230295658
1690841767294759000,11.021759033203125,-0.005592904519289732,-0.0001627191377338022,-0.021159613505005836
1690841767304798700,11.031798828125,-0.004059456288814545,-0.0021438447292894125,-0.021894114091992378
1690841767314838800,11.0418388671875,-0.00541367381811142,-0.0025190841406583786,-0.020363595336675644
1690841767324880000,11.0518798828125,-0.005662146955728531,-0.002740392694249749,-0.020845361053943634
1690841767334949600,11.06194970703125,-0.006305832881480455,-0.0008189220097847283,-0.019121496006846428
1690841767344990700,11.07199072265625,-0.004989698529243469,-0.0017598168924450874,-0.01950659044086933
1690841767355030800,11.08203076171875,-0.0067452541552484035,-0.0026881948579102755,-0.01950126327574253
1690841767365070800,11.09207080078125,-0.0057135457172989845,-0.0025843314360827208,-0.019335614517331123
1690841767375112000,11.10211181640625,-0.005625927820801735,-0.0022660838440060616,-0.020541761070489883
1690841767385151700,11.11215185546875,-0.0040826257318258286,-0.002055427758023143,-0.021098626777529716
1690841767395191800,11.12219189453125,-0.005268265027552843,-0.0003456783015280962,-0.022359633818268776
1690841767405231600,11.132231689453125,-0.004957474302500486,-0.0015904398169368505,-0.02262142300605774
1690841767415272700,11.142272705078126,-0.006770820822566748,-0.002606435678899288,-0.020663732662796974
1690841767425312800,11.152312744140625,-0.00418249424546957,-0.0007613977650180459,-0.02034814842045307
1690841767435352800,11.162352783203126,-0.00384374032728374,-0.001773132593370974,-0.02178732119500637
1690841767445394000,11.172393798828125,-0.004935370292514563,-0.002734001260250807,-0.020139357075095177
1690841767455433700,11.182433837890626,-0.0059692091308534145,-0.003522030543535948,-0.01997770369052887
1690841767465473800,11.192473876953125,-0.003930026665329933,-0.0008050735923461616,-0.020377177745103836
1690841767475544600,11.202544677734375,-0.004194212146103382,-0.0017150756902992725,-0.021148161962628365
1690841767485584600,11.212584716796876,-0.004853078629821539,-0.0049164616502821445,-0.02207467518746853
1690841767495625700,11.222625732421875,-0.0054570832289755344,-0.0030748858116567135,-0.022227540612220764
1690841767505665800,11.232665771484376,-0.005506617948412895,-0.0009853695519268513,-0.021073592826724052
1690841767515705900,11.242705810546875,-0.005260009318590164,0.0007797735743224621,-0.019840283319354057
1690841767525746000,11.252745849609376,-0.005050418432801962,-0.001255680457688868,-0.020477578043937683
1690841767535786800,11.262786865234375,-0.004222708288580179,-0.0023334617726504803,-0.018258100375533104
1690841767545826600,11.27282666015625,-0.0049465554766356945,-0.005545766558498144,-0.020065853372216225
1690841767555866600,11.28286669921875,-0.0057252636179327965,-0.002133458387106657,-0.0199247058480978
1690841767565906700,11.29290673828125,-0.004432831425219774,-0.0007313040550798178,-0.020499415695667267
1690841767575947800,11.30294775390625,-0.004292749334126711,-0.0008530105114914477,-0.019816847518086433
1690841767585987800,11.31298779296875,-0.005290635861456394,-0.0010876349406316876,-0.021449098363518715
1690841767596028000,11.32302783203125,-0.005261607468128204,-0.00221921200864017,-0.02111913450062275
1690841767606068700,11.33306884765625,-0.002919090911746025,0.00012410330236889422,-0.020774254575371742
1690841767616138800,11.343138671875,-0.0038000645581632853,-0.0022325278259813786,-0.022458171471953392
1690841767626179600,11.3531796875,-0.005416869651526213,-0.0026911243330687284,-0.02196548692882061
1690841767636219600,11.3632197265625,-0.006554571911692619,-0.0041010016575455666,-0.020143616944551468
1690841767646259700,11.373259765625,-0.005057076457887888,-0.0031286815647035837,-0.021037373691797256
1690841767656300800,11.38330078125,-0.004740959499031305,-0.0026136261876672506,-0.02034921385347843
1690841767666340900,11.3933408203125,-0.005123123060911894,-0.002174204681068659,-0.02015933021903038
1690841767676381000,11.403380859375,-0.0034996599424630404,-0.002356897573918104,-0.02099742740392685
1690841767686420700,11.413420654296875,-0.002957440447062254,-0.001817873795516789,-0.021386781707406044
1690841767696461600,11.423461669921876,-0.003941211849451065,-0.001466602785512805,-0.02021206170320511
1690841767706501600,11.433501708984375,-0.005017129238694906,-0.0027201527263969183,-0.02238227054476738
1690841767716541700,11.443541748046876,-0.0051745218224823475,-0.002225870033726096,-0.020679978653788567
1690841767726580700,11.453580810546875,-0.005458681378513575,-0.003721501212567091,-0.021347898989915848
1690841767736620800,11.463620849609375,-0.005528189707547426,-0.002627741079777479,-0.020633639767766
1690841767746660900,11.473660888671875,-0.005283178761601448,-0.00035260253935121,-0.019270634278655052
1690841767756732000,11.48373193359375,-0.00512711750343442,-0.0016908409306779504,-0.018505774438381195
1690841767766771700,11.493771728515625,-0.0043910201638937,-0.0007869640830904245,-0.021879466250538826
1690841767776811800,11.503811767578124,-0.004186489153653383,-0.0018245317041873932,-0.021312212571501732
1690841767786852900,11.513852783203125,-0.005371329374611378,-0.0027656927704811096,-0.020057065412402153
1690841767796893000,11.523892822265625,-0.005767341703176498,0.00017789915727917105,-0.019518041983246803
1690841767806933000,11.53393310546875,-0.006049636751413345,-0.004869856406003237,-0.020339360460639
1690841767816973800,11.543973876953125,-0.004630970768630505,-0.000040746363083599135,-0.019055716693401337
1690841767827014000,11.554013916015625,-0.004625378176569939,-0.0049494849517941475,-0.021372400224208832
1690841767837053700,11.5640537109375,-0.003921504598110914,-0.0036946034524589777,-0.02016492374241352
1690841767847093800,11.57409375,-0.0030245520174503326,-0.0019837887957692146,-0.020117519423365593
1690841767857134800,11.584134765625,-0.002796319080516696,-0.0015089471125975251,-0.018642393872141838
1690841767867175000,11.5941748046875,-0.0029827402904629707,-0.0025153555907309055,-0.02094070240855217
1690841767877215000,11.604215087890625,-0.004012851044535637,-0.0013976269401609898,-0.021919945254921913
1690841767887255800,11.614255859375,-0.004706338047981262,-0.0009438242996111512,-0.020374247804284096
1690841767897326000,11.624326171875,-0.004769188817590475,-0.0014255901332944632,-0.022538864985108376
1690841767907367000,11.634366943359375,-0.004895955324172974,-0.0007925567333586514,-0.018986741080880165
1690841767917406700,11.64440673828125,-0.0041731735691428185,-0.00321949552744627,-0.022914104163646698
1690841767927446800,11.65444677734375,-0.005290902219712734,-0.002746518002822995,-0.0194927416741848
1690841767937488000,11.66448779296875,-0.004892493132501841,-0.002919090911746025,-0.018681276589632034
1690841767947528000,11.67452783203125,-0.004299673717468977,-0.0017560884589329362,-0.021442441269755363
1690841767957568000,11.684568115234375,-0.0065465825609862804,-0.0012905678013339639,-0.019833892583847046
1690841767967608000,11.694608154296875,-0.004920190200209618,-0.0025632926262915134,-0.021392639726400375
1690841767977649000,11.70464892578125,-0.004944158717989922,0.00021065604232717305,-0.020783308893442154
1690841767987688700,11.714688720703125,-0.0046450854279100895,-0.0021110877860337496,-0.020265856757760048
1690841767997728800,11.724728759765625,-0.004315652418881655,-0.0008958873804658651,-0.020709006115794182
1690841768007769900,11.734769775390625,-0.0038099181838333607,-0.002570749493315816,-0.020614197477698326
1690841768017810000,11.744809814453125,-0.004207261838018894,-0.003884752979502082,-0.020952686667442322
1690841768027850000,11.75485009765625,-0.004416053649038076,-0.0025933862198144197,-0.021197697147727013
1690841768037921000,11.764921142578125,-0.0065167550928890705,-0.0028248149901628494,-0.02286430262029171
