time,seconds_elapsed,z,y,x
1690841756469053000,0.196052978515625,-0.003396331798285246,-0.005665183067321777,-0.11685401201248169
1690841756479093000,0.206093017578125,-0.001233578659594059,-0.0080841314047575,-0.10782802104949951
1690841756489133000,0.216133056640625,-0.0015297220088541508,-0.015195836313068867,-0.0902671366930008
1690841756499174100,0.226174072265625,-0.00008186744526028633,-0.017380284145474434,-0.069706492125988
1690841756509214000,0.2362138671875,0.0004885816015303135,-0.02211698144674301,-0.04670077562332153
1690841756519254000,0.24625390625,0.0007804930210113525,-0.024335620924830437,-0.019753199070692062
1690841756529294000,0.256294189453125,0.00022336002439260483,-0.02344532683491707,0.005282112397253513
1690841756539335000,0.2663349609375,0.0008303234353661537,-0.01640273816883564,0.029096171259880066
1690841756549375000,0.276375,-0.0012179138138890266,-0.010694785043597221,0.04819636046886444
1690841756559415000,0.2864150390625,-0.0006451266817748547,-0.00012224516831338406,0.0643974095582962
1690841756569486000,0.296486083984375,-0.0014131823554635048,0.011978892609477043,0.07507428526878357
1690841756579526000,0.30652587890625,-0.001454165205359459,0.023123547434806824,0.08062838017940521
1690841756589567000,0.31656689453125,-0.0013106209225952625,0.03206431120634079,0.07898840308189392
1690841756599607000,0.32660693359375,-0.0001416378654539585,0.04122437536716461,0.07370010018348694
1690841756609647000,0.336647216796875,0.0018269710708409548,0.04331628978252411,0.06667947769165039
1690841756619687200,0.346687255859375,0.0014556630048900843,0.042137354612350464,0.0529806911945343
1690841756629728000,0.35672802734375,0.0020460858941078186,0.03532871603965759,0.03908511996269226
1690841756639768000,0.36676806640625,0.0026591469068080187,0.024674169719219208,0.023439718410372734
1690841756649808000,0.376807861328125,0.0021142642945051193,0.012098457664251328,0.006830647587776184
1690841756659849000,0.386848876953125,0.0011367346160113811,-0.002861209912225604,-0.005239641293883324
1690841756669889000,0.396888916015625,-0.0005008429288864136,-0.015550905838608742,-0.01995440572500229
1690841756679929000,0.40692919921875,-0.002028754446655512,-0.027364356443285942,-0.0319938026368618
1690841756689969200,0.41696923828125,-0.0038687321357429028,-0.029411528259515762,-0.042555902153253555
1690841756700010000,0.427010009765625,-0.002309542614966631,-0.03461773321032524,-0.052304528653621674
1690841756710080300,0.437080322265625,-0.0048446049913764,-0.03150529786944389,-0.05759783089160919
1690841756720120000,0.4471201171875,-0.0048371413722634315,-0.02756224200129509,-0.05605921521782875
1690841756730159900,0.457159912109375,-0.002742564771324396,-0.022232724353671074,-0.05598144605755806
1690841756740200000,0.467199951171875,-0.0012743142433464527,-0.015484312549233437,-0.05050792545080185
1690841756750241000,0.477240966796875,-0.0013976185582578182,-0.006752340123057365,-0.040979932993650436
1690841756760281000,0.487281005859375,0.0009525222703814507,0.0008785445243120193,-0.029672961682081223
1690841756770321200,0.497321044921875,0.001274498412385583,0.003923070151358843,-0.018024027347564697
1690841756780361000,0.50736083984375,0.0010579098016023636,0.007698995992541313,-0.0037934165447950363
1690841756790402000,0.517402099609375,0.0020012015011161566,0.010547513142228127,0.009489631280303001
1690841756800441900,0.52744189453125,-0.00009058928117156029,0.011945221573114395,0.020118379965424538
1690841756810482000,0.53748193359375,-0.0005992529913783073,0.011369978077709675,0.031584884971380234
1690841756820523000,0.54752294921875,-0.00018196646124124527,0.012443412095308304,0.03937068581581116
1690841756830563000,0.55756298828125,-0.00027064932510256767,0.0071754129603505135,0.04391856491565704
1690841756840603100,0.56760302734375,-0.0015548751689493656,0.008281245827674866,0.043786924332380295
1690841756850674200,0.577674072265625,0.00190110900439322,0.008825062774121761,0.0415932796895504
1690841756860714000,0.5877138671875,-0.0006497912108898163,0.007244652137160301,0.0372016616165638
1690841756870755000,0.597755126953125,0.00117873540148139,0.00711708702147007,0.03084016963839531
1690841756880795000,0.607794921875,0.000354815274477005,0.006481834687292576,0.023391738533973694
1690841756890835000,0.6178349609375,0.0016568347346037626,0.005526558496057987,0.013522064313292503
1690841756900875000,0.627875,0.00014373846352100372,0.0039679016917943954,0.0022139977663755417
1690841756910916000,0.637916015625,0.0012694564647972584,0.004514382220804691,-0.008363012224435806
1690841756920956200,0.6479560546875,0.0006365776062011719,0.0012306134449318051,-0.015608657151460648
1690841756930996000,0.657995849609375,-0.00006516510620713234,-0.0001821934711188078,-0.022149644792079926
1690841756941037000,0.668037109375,0.0013675694353878498,-0.004605340771377087,-0.02838367223739624
1690841756951076900,0.678076904296875,-0.0008867965079843998,-0.009295700117945671,-0.031069736927747726
1690841756961117000,0.688116943359375,-0.0019096853211522102,-0.012588609009981155,-0.03187033534049988
1690841756971157000,0.698156982421875,-0.00117092439904809,-0.01327490620315075,-0.029279612004756927
1690841756981198000,0.708197998046875,-0.000022473745048046112,-0.013443742878735065,-0.02902676910161972
1690841756991268000,0.71826806640625,-0.000019544269889593124,-0.010046880692243576,-0.020742740482091904
1690841757001309200,0.72830908203125,0.000845729373395443,-0.007283245213329792,-0.018320173025131226
1690841757011349000,0.738348876953125,0.0019093959126621485,-0.007682452909648418,-0.008016135543584824
1690841757021389000,0.74838916015625,0.0004998045042157173,-0.0025465271901339293,-0.00044551678001880646
1690841757031430000,0.758429931640625,-0.000055198557674884796,0.0016881652409210801,0.0036560166627168655
1690841757041470000,0.768469970703125,0.00013208622112870216,0.003963755443692207,0.009235760197043419
1690841757051510000,0.778510009765625,-0.00021013012155890465,0.008276478387415409,0.01390188466757536
1690841757061550000,0.788550048828125,-0.0011588945053517818,0.00841298047453165,0.020619604736566544
1690841757071591200,0.798591064453125,0.00040518026798963547,0.009088624268770218,0.020157013088464737
1690841757081631000,0.808630859375,-0.00023129722103476524,0.011063107289373875,0.022391462698578835
1690841757091671000,0.818671142578125,0.0003828280605375767,0.012168585322797298,0.019328027963638306
1690841757101712000,0.8287119140625,0.0005634794943034649,0.006729569286108017,0.019696788862347603
1690841757111752000,0.838751953125,0.0018298127688467503,0.006314914673566818,0.01612655445933342
1690841757121792000,0.8487919921875,0.0009005700703710318,0.0032728640362620354,0.011808887124061584
1690841757131863000,0.858863037109375,-0.0003377995453774929,0.0008669644594192505,0.007907888852059841
1690841757141902800,0.86890283203125,0.00044837314635515213,-0.0017311607953161001,0.0028408803045749664
1690841757151944200,0.878944091796875,0.0016665032599121332,-0.0026720555033534765,-0.0027224626392126083
1690841757161984000,0.88898388671875,-0.0006838422268629074,-0.005324898287653923,-0.00812469981610775
1690841757172024000,0.899024169921875,-0.002103306818753481,-0.005935561377555132,-0.01156017929315567
1690841757182064000,0.909064208984375,-0.000329076312482357,-0.0033724431414157152,-0.015541661530733109
1690841757192105000,0.91910498046875,-0.0006529167294502258,-0.00634426437318325,-0.018993385136127472
1690841757202145000,0.92914501953125,-0.0007815179415047169,-0.00594447273761034,-0.01663728430867195
1690841757212185000,0.93918505859375,-0.0008853808976709843,-0.00537455640733242,-0.016525696963071823
1690841757222225000,0.949224853515625,-0.0008736276067793369,-0.0012811413034796715,-0.017309315502643585
1690841757232266000,0.959265869140625,0.0008877869695425034,-0.003446557791903615,-0.01223040372133255
1690841757242306000,0.96930615234375,-0.0005877981893718243,-0.002989852800965309,-0.007840370759367943
1690841757252346000,0.97934619140625,0.0007877247408032417,-0.0008281648624688387,-0.0050893258303403854
1690841757262387000,0.989386962890625,0.0005792952142655849,-0.0001549036242067814,-0.0015320442616939545
1690841757272457200,0.999457275390625,-0.0006473567336797714,-0.0003280090168118477,0.003327691927552223
1690841757282498000,1.009498046875,0.0007198071107268333,-0.0005445890128612518,0.006633451208472252
1690841757292537900,1.019537841796875,-0.00043387431651353836,0.002395008224993944,0.009917926974594593
1690841757302578000,1.029577880859375,-0.0008556200191378593,0.003278661984950304,0.01098727248609066
1690841757312619000,1.039618896484375,0.0007161772809922695,0.003861894365400076,0.00966501235961914
1690841757322659000,1.0496591796875,0.0008299343753606081,0.005820649676024914,0.01218409650027752
1690841757332699100,1.05969921875,-0.0023730495013296604,0.003273335751146078,0.011774236336350441
1690841757342739200,1.0697392578125,0.00013006385415792465,0.006818868685513735,0.008973897434771061
1690841757352780000,1.079780029296875,-0.0005975118838250637,0.0032318574376404285,0.008642866276204586
1690841757362820000,1.089820068359375,0.0003793453797698021,0.00441401544958353,0.005977536551654339
1690841757372860000,1.09985986328125,-0.0010877903550863266,0.0005287298699840903,0.00012124516069889069
1690841757382901000,1.10990087890625,-0.0007412964478135109,0.0027616044972091913,-0.000005675479769706726
1690841757392941000,1.119941162109375,0.0003237016499042511,-0.0007969113066792488,-0.0041538141667842865
1690841757402981000,1.129981201171875,-0.0016479850746691227,-0.0010977876372635365,-0.006333943456411362
1690841757413052200,1.14005224609375,0.0008061181288212538,-0.0020850212313234806,-0.008600559085607529
1690841757423092200,1.15009228515625,-0.0003873901441693306,-0.003042397554963827,-0.009279126301407814
1690841757433132000,1.160132080078125,-0.0017597172409296036,-0.005770539864897728,-0.009750772267580032
1690841757443172900,1.1701728515625,0.0003093164414167404,-0.007127531338483095,-0.01022149994969368
1690841757453213000,1.180212890625,-0.0013820570893585682,-0.0018941531889140606,-0.006861921399831772
1690841757463253000,1.1902529296875,-0.0005637244321405888,-0.0013657212257385254,-0.0059943124651908875
1690841757473294000,1.200294189453125,-0.000699545256793499,-0.0002746239770203829,-0.005673935636878014
1690841757483334100,1.210334228515625,-0.0009350492618978024,0.0010203014826402068,-0.002776211127638817
1690841757493374200,1.220374267578125,0.00024632876738905907,0.00038061023224145174,-0.002185521647334099
1690841757503414300,1.230414306640625,-0.000655539333820343,-0.0019354643300175667,0.0001749582588672638
1690841757513455000,1.240455078125,-0.0006227823905646801,0.001588163897395134,0.003689797595143318
1690841757523495000,1.250494873046875,0.000992362154647708,0.0029785428196191788,0.004861554130911827
1690841757533535000,1.260534912109375,0.00028129806742072105,0.005630251951515675,0.005585401318967342
1690841757543576000,1.270576171875,0.0005439729429781437,0.002355861710384488,0.007047776132822037
1690841757553646000,1.28064599609375,0.0003445022739470005,0.0034701284021139145,0.0076845381408929825
1690841757563687200,1.290687255859375,-0.001037714071571827,0.003287662286311388,0.0039743296802043915
1690841757573727200,1.300727294921875,-0.0010630139149725437,0.0022594158072024584,0.006097666919231415
1690841757583767000,1.31076708984375,0.00047333259135484695,0.0001942828530445695,0.0032587163150310516
1690841757593808000,1.320807861328125,0.0005164756439626217,-0.0012608682736754417,0.0035029295831918716
1690841757603848000,1.330847900390625,-0.0003785141743719578,-0.00010798778384923935,0.002797568216919899
1690841757613888000,1.340887939453125,-0.0010091508738696575,0.0003551358822733164,0.0009197741746902466
1690841757623928000,1.350927978515625,0.0009286764543503523,-0.002558071631938219,-0.004148779436945915
1690841757633969200,1.36096923828125,0.0008011111058294773,0.0022028617095202208,-0.004158899188041687
1690841757644009200,1.37100927734375,-0.00012933742254972458,0.0007726465119048953,-0.00492662750184536
1690841757654049300,1.38104931640625,-0.00030217692255973816,-0.0017903798725456,-0.005641419440507889
1690841757664090000,1.391090087890625,-0.00030741095542907715,-0.0008729207329452038,-0.006575124338269234
1690841757674130000,1.4011298828125,0.0003519873134791851,-0.003617574693635106,-0.007014013826847076
1690841757684170000,1.411169921875,0.0001888331025838852,-0.00018612551502883434,-0.0043809134513139725
1690841757694241000,1.421240966796875,0.000582715030759573,0.00027646555099636316,-0.004499424248933792
1690841757704281000,1.431281005859375,-0.0009666969999670982,-0.0035378020256757736,-0.004056748002767563
1690841757714312200,1.441312255859375,-0.00035709934309124947,-0.0006328260060399771,-0.0007981043308973312
1690841757724353000,1.45135302734375,0.000153315719217062,0.0003037279238924384,-0.001061614602804184
1690841757734393000,1.46139306640625,0.0004659709520637989,0.0019511593272909522,0.002953633666038513
1690841757744433200,1.47143310546875,-0.00027542002499103546,0.0015327857108786702,0.0011634528636932373
1690841757754474200,1.48147412109375,0.0003259219229221344,-0.00019960058853030205,0.002748565748333931
1690841757764514300,1.491514404296875,0.0005013346672058105,-0.0005453783087432384,0.002008272334933281
1690841757774554000,1.50155419921875,0.000654466450214386,0.0021582627668976784,0.004445331171154976
1690841757784594200,1.51159423828125,-0.0007045473903417587,-0.00005334638990461826,0.004158763214945793
1690841757794635000,1.521635009765625,-0.0007873717695474625,-0.001346843782812357,0.004716427996754646
1690841757804675000,1.531675048828125,0.0009999608155339956,-0.00015979097224771976,0.00082363560795784
1690841757814715100,1.541715087890625,-0.00006716791540384293,-0.00032251025550067425,0.0016305726021528244
1690841757824756200,1.551756103515625,0.0003247191198170185,0.0013937964104115963,0.0010444801300764084
1690841757834826200,1.561826171875,-0.0006843525916337967,-0.00120092136785388,0.0017592720687389374
1690841757844867300,1.571867431640625,-0.000542731024324894,0.00193109514657408,-0.0018296074122190475
1690841757854907100,1.5819072265625,0.00010202033445239067,0.0024682546500116587,-0.0009350534528493881
1690841757864947200,1.591947265625,0.0005293386057019234,-0.000634786207228899,-0.0035450905561447144
1690841757874987000,1.601987060546875,0.00004277937114238739,-0.0009865898173302412,-0.0035986192524433136
1690841757885028000,1.612028076171875,-0.0007431977428495884,-0.0004205722361803055,-0.0024852175265550613
1690841757895068200,1.622068115234375,-0.0019474788568913937,-0.0010994118638336658,-0.0034367647022008896
1690841757905108200,1.632108154296875,0.000677142757922411,-0.001344435615465045,-0.00551614910364151
1690841757915149300,1.6421494140625,0.0008001809474080801,0.00031711056362837553,-0.0008652061223983765
1690841757925189000,1.652189208984375,-0.0010075699537992477,-0.0015069185756146908,-0.002605915069580078
1690841757935229200,1.662229248046875,0.0006060395389795303,-0.001031277934089303,-0.0030218996107578278
1690841757945269000,1.67226904296875,-0.0008028009906411171,-0.00020330119878053665,-0.0010117460042238235
1690841757955310000,1.68231005859375,-0.00007096445187926292,0.0015722282696515322,0.0006790943443775177
1690841757965350100,1.69235009765625,0.001929385820403695,0.00008352124132215977,0.0009917505085468292
1690841757975421200,1.702421142578125,0.0004398799501359463,0.001711245276965201,0.00225701741874218
1690841757985461200,1.712461181640625,0.001204098341986537,0.002204492688179016,0.0008192434906959534
1690841757995501000,1.7225009765625,0.0010040949564427137,0.0018345797434449196,0.0015598684549331665
1690841758005542100,1.732542236328125,0.0003613973967730999,-0.0002138223499059677,0.0038905981928110123
1690841758015582200,1.742582275390625,-0.00010838406160473824,0.0014053795021027327,0.002483917400240898
1690841758025622000,1.7526220703125,-0.00013878289610147476,0.0010794161353260279,0.001294013112783432
1690841758035663000,1.7626630859375,0.0013049168046563864,-0.0004356561694294214,-0.0002599414438009262
1690841758045703200,1.772703125,-0.00013034138828516006,0.0017304853536188602,0.0020933635532855988
1690841758055743200,1.7827431640625,-0.0004302132874727249,0.0005610913503915071,-0.0005495585501194
1690841758065783000,1.792782958984375,-0.0009093359112739563,-0.00013395934365689754,-0.00041634030640125275
1690841758075824000,1.80282421875,0.0002709771506488323,-0.000983241479843855,-0.0016366001218557358
1690841758085864200,1.8128642578125,0.0007516886107623577,0.0012215201277285814,-0.0019088983535766602
1690841758095904000,1.822904052734375,0.0003626011312007904,-0.0002621270250529051,-0.0022050421684980392
1690841758105945000,1.832945068359375,-0.0010164957493543625,-0.00002057827077805996,-0.0016811974346637726
1690841758116015000,1.84301513671875,-0.000613559503108263,0.00008008931763470173,-0.00004894658923149109
1690841758126056200,1.85305615234375,-0.0001475042663514614,-0.00004039541818201542,-0.002093745395541191
1690841758136096300,1.86309619140625,-0.0004958459176123142,-0.0007754277903586626,-0.0029984209686517715
1690841758146136000,1.873135986328125,0.0003345804288983345,-0.0004527387209236622,-0.0015961118042469025
1690841758156176100,1.883176025390625,0.0008365861140191555,0.0013025507796555758,0.001159192994236946
1690841758166217200,1.89321728515625,-0.0005235066637396812,-0.0013401119504123926,-0.0014113504439592361
1690841758176257000,1.903257080078125,-0.0001309565268456936,-0.001456758240237832,-0.0006771180778741837
1690841758186297000,1.913297119140625,-0.00019493652507662773,0.0004459345946088433,-0.0006214175373315811
1690841758196338200,1.923338134765625,0.0007068095728754997,0.0005157093983143568,-0.0014251582324504852
1690841758206378200,1.933378173828125,0.0008814304601401091,0.0005453212652355433,0.0006145164370536804
1690841758216418000,1.94341796875,0.00038368580862879753,-0.00018917862325906754,0.00012183189392089844
1690841758226458000,1.9534580078125,0.0007258891128003597,0.0014569265767931938,0.0028059985488653183
1690841758236499000,1.9634990234375,-0.000024323351681232452,-0.0004488315898925066,0.0023428741842508316
1690841758246539000,1.9735390625,0.0008119877893477678,0.0006444629980251193,-0.0007060207426548004
1690841758256610000,1.983610107421875,-0.0002711196430027485,-0.0002290538977831602,-0.00026233866810798645
1690841758266650000,1.993650146484375,-0.0009118844754993916,-0.00007646461017429829,0.0009764339774847031
1690841758276690200,2.003690185546875,0.000833551399409771,0.002246610587462783,0.0011191796511411667
1690841758286731300,2.013731201171875,-0.000523936003446579,-0.0001476667821407318,0.0012636594474315643
1690841758296771000,2.02377099609375,0.0002518431283533573,0.0006110678659752011,-0.00014382228255271912
1690841758306811100,2.03381103515625,-0.000856330618262291,0.0012156498851254582,0.001607874408364296
1690841758316852000,2.04385205078125,0.0017354576848447323,0.000750661944039166,-0.0013668760657310486
1690841758326892000,2.05389208984375,0.0017662316095083952,-0.0003639771603047848,-0.002932494506239891
1690841758336932000,2.06393212890625,-0.002102809026837349,0.002060564700514078,-0.0012001078575849533
1690841758346972200,2.07397216796875,-0.0006275116465985775,0.000323285348713398,0.00005184300243854523
1690841758357013200,2.08401318359375,0.0005589267238974571,-0.000994979403913021,-0.0012400560081005096
1690841758367053000,2.094052978515625,-0.0013565323315560818,-0.000028391368687152863,-0.0020412635058164597
1690841758377093000,2.104093017578125,0.0002885023131966591,-0.002394610084593296,-0.0015869271010160446
1690841758387133200,2.11413330078125,0.00014810636639595032,0.00015455856919288635,-0.00038650259375572205
1690841758397204200,2.124204345703125,0.00011215358972549438,0.0007321981247514486,0.0017429608851671219
1690841758407245000,2.1342451171875,0.0017445387784391642,0.0009342539124190807,-0.0005930252373218536
1690841758417285000,2.14428515625,-0.00020489515736699104,-0.00038134772330522537,0.002274133265018463
1690841758427325000,2.154324951171875,-0.00031310366466641426,-0.0012687784619629383,0.001439576968550682
1690841758437365000,2.164364990234375,-0.00020897388458251953,0.001633268315345049,0.0011479593813419342
1690841758447406000,2.174406005859375,0.0005335146561264992,-0.000693182460963726,0.0001112036406993866
1690841758457446100,2.184446044921875,0.0010112856980413198,0.0008051120676100254,0.0003996230661869049
1690841758467486200,2.194486328125,0.0008224770426750183,0.001993452198803425,0.0011509768664836884
1690841758477527000,2.204527099609375,-0.0010007228702306747,-0.0005184412002563477,-0.0004929937422275543
1690841758487567000,2.214567138671875,0.000011157244443893433,-0.00047235284000635147,-0.0005217157304286957
1690841758497607200,2.224607177734375,-0.001681813970208168,0.001391593599691987,0.0011400971561670303
1690841758507647000,2.23464697265625,0.00038517965003848076,0.00019198632799088955,-0.001895211637020111
1690841758517688000,2.24468798828125,0.00011407025158405304,0.0018522009486332536,0.0002664756029844284
1690841758527728000,2.25472802734375,0.00069422647356987,0.0013200677931308746,-0.0020331572741270065
1690841758537799200,2.264799072265625,0.0002817027270793915,0.001752298790961504,-0.00011195242404937744
1690841758547839200,2.274839111328125,0.00032508745789527893,0.0013312932569533587,-0.0012225080281496048
1690841758557879300,2.28487939453125,0.00046383822336792946,-0.0008855219930410385,-0.0010011997073888779
1690841758567920000,2.294920166015625,-0.0007628654129803181,-0.000292094424366951,-0.000815313309431076
1690841758577960000,2.3049599609375,-0.0009415633976459503,0.0007257655961439013,-0.0006227660924196243
1690841758588000000,2.315,-0.00015005003660917282,-0.0005412898026406765,-0.0011683572083711624
1690841758598040000,2.3250400390625,-0.0010797595605254173,0.0013769849902018905,0.0003557708114385605
1690841758608081200,2.3350810546875,-0.0004899143241345882,0.001518764067441225,0.00015508756041526794
1690841758618121200,2.345121337890625,-0.000024127308279275894,0.0014670987147837877,-0.0011802222579717636
1690841758628161300,2.355161376953125,-0.00003393320366740227,-0.00014177127741277218,-0.0008864346891641617
1690841758638202000,2.3652021484375,-0.0007058489136397839,0.0010270901257172227,-0.0007263775914907455
1690841758648242200,2.3752421875,-0.0009508109651505947,0.00011358910705894232,-0.0006936322897672653
1690841758658282000,2.385281982421875,-0.0006299000233411789,0.0002709819236770272,0.0011524707078933716
1690841758668322000,2.395322021484375,-0.0004779729060828686,-0.0018296316266059875,0.00011510215699672699
1690841758678393000,2.40539306640625,-0.0004750434309244156,0.000977073679678142,0.00017342530190944672
1690841758688434200,2.41543408203125,-0.001072768121957779,0.00010419590398669243,0.003964412957429886
1690841758698474200,2.42547412109375,-0.0002618357539176941,-0.000004461035132408142,-0.0001123528927564621
1690841758708514300,2.435514404296875,-0.00013441918417811394,-0.0012673917226493359,-0.0014362689107656479
1690841758718531600,2.445531494140625,-0.0007938174530863762,0.00004288344644010067,-0.00007139891386032104
1690841758728572700,2.45557275390625,0.0009517176076769829,-0.0006881591398268938,-0.00025532208383083344
1690841758738612700,2.46561279296875,0.0005778097547590733,-0.000534761231392622,0.0015692096203565598
1690841758748652800,2.47565283203125,0.000988819869235158,-0.0027623670175671577,0.0005922131240367889
1690841758758693600,2.485693603515625,-0.0005307798273861408,0.00022356933914124966,0.00024227425456047058
1690841758768733700,2.495733642578125,0.0004586796276271343,0.0026353865396231413,0.0003797132521867752
1690841758778773800,2.505773681640625,0.00020674476400017738,-0.0005944950971752405,-0.001529507339000702
1690841758788813600,2.5158134765625,-0.0007822969928383827,-0.0001447843387722969,-0.0010926313698291779
1690841758798854700,2.525854736328125,0.00008642580360174179,0.002158317482098937,0.00020379386842250824
1690841758808894700,2.535894775390625,-0.0018720878288149834,-0.0008178292773663998,-0.0016888529062271118
1690841758818965800,2.5459658203125,-0.00024596136063337326,0.00021574355196207762,-0.002269154414534569
1690841758829005800,2.556005859375,-0.00009075738489627838,-0.0007191596087068319,-0.0007293187081813812
1690841758839046000,2.5660458984375,-0.00015733670443296432,-0.002625716384500265,-0.0008965656161308289
1690841758849086700,2.576086669921875,0.00051884725689888,-0.002980260644108057,-0.00058743916451931
1690841758859126500,2.58612646484375,-0.0007107341662049294,-0.0020950259640812874,-0.0002454891800880432
1690841758869166600,2.59616650390625,-0.0008057327941060066,-0.001211476745083928,0.001541072502732277
1690841758879206700,2.60620654296875,0.00017857132479548454,0.0004902832442894578,0.0009282790124416351
1690841758889247700,2.616247802734375,0.0013604487758129835,0.0031363668385893106,-0.0009910576045513153
1690841758899287800,2.626287841796875,0.0005923928692936897,0.0020071864128112793,-0.0007353946566581726
1690841758909328000,2.636327880859375,0.0004204181022942066,0.0017505664145573974,-0.001847958192229271
1690841758919368700,2.64636865234375,-0.0009556370787322521,0.0022349953651428223,-0.0004692394286394119
1690841758929408500,2.656408447265625,0.000375447329133749,0.00044606614392250776,-0.0011561252176761627
1690841758939448600,2.666448486328125,-0.0010520070791244507,0.0023275893181562424,-0.00011882372200489044
1690841758949519600,2.67651953125,0.0001603434793651104,-0.0012717577628791332,0.0019419621676206589
1690841758959559700,2.6865595703125,-0.0007014558650553226,-0.0022187777794897556,0.0011866893619298935
1690841758969600800,2.696600830078125,-0.0001811613328754902,-0.0012667365372180939,0.0025686565786600113
1690841758979640800,2.706640869140625,-0.000818189699202776,-0.0011500902473926544,-0.00017599761486053467
1690841758989680600,2.7166806640625,-0.0018816241063177586,-0.0007517088670283556,0.0004699286073446274
1690841758999720400,2.726720458984375,-0.0013908031396567822,0.0006541737820953131,-0.0002437978982925415
1690841759009761500,2.736761474609375,-0.0012940019369125366,0.00033709348645061255,-0.0021340306848287582
1690841759019801600,2.746801513671875,0.0005121538415551186,0.0018255342729389668,-0.0022860970348119736
1690841759029841700,2.756841552734375,0.0005885190330445766,0.00039003684651106596,-0.0013615265488624573
1690841759039881700,2.7668818359375,0.00044790422543883324,0.0015746108256280422,-0.0021788515150547028
1690841759049922800,2.7769228515625,0.0013389342930167913,-0.0008012354373931885,-0.0013082269579172134
1690841759059962600,2.786962646484375,0.00007286760956048965,-0.00014183670282363892,-0.00013137608766555786
1690841759070002400,2.79700244140625,0.0005245096981525421,-0.000142726581543684,0.002103229984641075
1690841759080043500,2.80704345703125,0.0006185192614793777,-0.001585893565788865,0.0014976263046264648
1690841759090113500,2.817113525390625,0.0006251377053558826,-0.00006766989827156067,-0.0012156032025814056
1690841759100154600,2.827154541015625,-0.0006108353845775127,-0.0014064409770071507,-0.0005476828664541245
1690841759110194700,2.837194580078125,-0.00008797505870461464,0.0001879008486866951,-0.0006562434136867523
1690841759120234800,2.84723486328125,0.0006963261403143406,-0.0006379454862326384,-0.0009867418557405472
1690841759130275800,2.85727587890625,0.001450100215151906,0.00010840652976185083,0.0000027921050786972046
1690841759140315600,2.867315673828125,-0.0008181142620742321,-0.0006426048930734396,-0.0017524976283311844
1690841759150355500,2.87735546875,0.00033667730167508125,0.0016480349004268646,0.0002670586109161377
1690841759160395500,2.8873955078125,-0.0002026129513978958,-0.0001107165589928627,-0.0018008854240179062
1690841759170436600,2.8974365234375,0.0000425451435148716,0.0010770773515105247,0.0028929952532052994
1690841759180476700,2.9074765625,0.0016548226121813059,-0.0001258724369108677,0.0016972366720438004
1690841759190516700,2.917516845703125,-0.0004419046454131603,0.001498356694355607,-0.0012352187186479568
1690841759200557800,2.927557861328125,-0.0004682699218392372,-0.0010417663725093007,-0.0011409427970647812
1690841759210597600,2.93759765625,-0.0002917628735303879,-0.0014312841231003404,-0.0014390908181667328
1690841759220637400,2.947637451171875,-0.0008939034305512905,-0.0007077030604705215,0.0001766495406627655
1690841759230708500,2.95770849609375,0.00024154875427484512,-0.0008655557176098228,0.0004065949469804764
1690841759240748500,2.96774853515625,-0.00030519813299179077,-0.0010969844879582524,-0.0008645318448543549
1690841759250788600,2.97778857421875,-0.0011030612513422966,-0.0006143893115222454,-0.0006755683571100235
1690841759260829700,2.98782958984375,-0.00025830650702118874,0.000660199555568397,0.0012757312506437302
1690841759270869800,2.997869873046875,-0.00016988534480333328,-0.0013926959363743663,-0.00007249973714351654
1690841759280909800,3.007909912109375,-0.0005099712871015072,0.0020382546354085207,-0.0011920928955078125
1690841759290950700,3.01795068359375,0.002115913899615407,0.0020657051354646683,-0.001772342249751091
1690841759300990500,3.027990478515625,0.001169959083199501,0.0011596977710723877,-0.000342758372426033
1690841759311030500,3.038030517578125,0.00009751319885253906,0.0004345871275290847,-0.0001243501901626587
1690841759321070600,3.048070556640625,0.0012352154590189457,0.0007067621918395162,-0.003035452216863632
1690841759331111700,3.058111572265625,-0.00009668152779340744,-0.0028822352178394794,-0.001718718558549881
1690841759341151700,3.06815185546875,-0.0005278470925986767,0.001132213743403554,-0.0006486587226390839
1690841759351191800,3.07819189453125,0.00036095548421144485,-0.0015457188710570335,-0.0012858342379331589
1690841759361232600,3.088232666015625,0.0012555113062262535,-0.002463444136083126,-0.00019100867211818695
1690841759371302700,3.098302734375,0.00016744155436754227,0.0007248308975249529,-0.0005247332155704498
1690841759381343500,3.108343505859375,-0.0018624197691679,-0.0011079565156251192,0.0013040602207183838
1690841759391383600,3.118383544921875,-0.0008398150093853474,-0.00009977282024919987,0.001471610739827156
1690841759401423600,3.128423583984375,0.00002917461097240448,-0.0006675587501376867,-0.001913534477353096
1690841759411464700,3.138464599609375,0.0004662065766751766,0.0014636454870924354,-0.0007436983287334442
1690841759421504800,3.1485048828125,-0.0003596395254135132,0.00035363994538784027,0.000529291108250618
1690841759431544800,3.158544921875,-0.000021735671907663345,-0.0003482686588540673,-0.00001923181116580963
1690841759441584600,3.168584716796875,0.00020756246522068977,-0.00027503177989274263,-0.0007385518401861191
1690841759451625500,3.17862548828125,0.00012661423534154892,-0.0001815655268728733,-0.0018103793263435364
1690841759461665500,3.18866552734375,-0.001178867183625698,-0.0020223422907292843,0.0009388010948896408
1690841759471705600,3.19870556640625,0.00014667538926005363,-0.0011089765466749668,0.0000682733952999115
1690841759481745700,3.20874560546875,-0.0006434847600758076,0.0001589544117450714,0.0014326106756925583
1690841759491786800,3.218786865234375,0.0002863719128072262,-0.0023581604473292828,0.0008497200906276703
1690841759501826800,3.228826904296875,0.000028578098863363266,-0.0007554703624919057,0.0015546586364507675
1690841759511897600,3.238897705078125,-0.001847203355282545,0.001850576139986515,-0.00017204508185386658
1690841759521937700,3.248937744140625,-0.0002282676286995411,0.0031744334846735,0.0013017486780881882
1690841759531977700,3.258977783203125,-0.0003173411823809147,-0.0005672124680131674,-0.0028606820851564407
1690841759542018600,3.2690185546875,0.00029918039217591286,0.0005989857017993927,0.0006751976907253265
1690841759552058600,3.27905859375,-0.001004932913929224,0.0023893043398857117,0.0002515297383069992
1690841759562098700,3.2890986328125,0.0006193290464580059,-0.000611012801527977,-0.0010052155703306198
1690841759572139800,3.299139892578125,-0.00020062271505594254,0.001551539171487093,0.001581534743309021
1690841759582179800,3.309179931640625,0.0003067092038691044,-0.0007230667397379875,-0.001582833006978035
1690841759592219600,3.3192197265625,0.00022737542167305946,-0.0004170467145740986,0.001984786242246628
1690841759602259700,3.329259765625,0.00013469764962792397,-0.0006047994829714298,0.0007192529737949371
1690841759612300500,3.339300537109375,-0.0003132098354399204,0.0007136290660127997,0.0006584040820598602
1690841759622340600,3.349340576171875,0.0004750858061015606,-0.0002933121286332607,-0.0007056668400764465
1690841759632380700,3.359380615234375,0.00085433479398489,0.0011203151661902666,-0.0015953313559293747
1690841759642421800,3.369421875,0.0004428764805197716,-0.0004355034325271845,-0.0007652230560779572
1690841759652491500,3.379491455078125,0.0017600860446691513,-0.0008901595138013363,-0.0009506922215223312
1690841759662532600,3.38953271484375,0.0008839061483740807,-0.0005455466452986002,-0.0021736156195402145
1690841759672572700,3.39957275390625,0.00037073902785778046,-0.0019108147826045752,0.0010803844779729843
1690841759682612700,3.40961279296875,0.0009004417806863785,0.001802697079256177,-0.00036118365824222565
1690841759692652800,3.41965283203125,0.0004750755615532398,-0.0007708845660090446,0.001836538314819336
1690841759702693600,3.429693603515625,0.0012348757591098547,0.0021447441540658474,-0.0011496637016534805
1690841759712740900,3.439740966796875,0.0002112281508743763,0.00166361965239048,0.0023295823484659195
1690841759722781000,3.449781005859375,0.0010953976307064295,0.003403995418921113,0.0003460589796304703
1690841759732822000,3.459822021484375,-0.0017431885935366154,0.0007499136263504624,-0.0006837770342826843
1690841759742862000,3.469862060546875,-0.0009098853915929794,-0.000916958786547184,-0.0012728683650493622
1690841759752902100,3.479902099609375,0.00007773004472255707,-0.0009622732177376747,0.0004480406641960144
1690841759762942000,3.48994189453125,0.0000700065866112709,0.0005954096559435129,-0.0010055135935544968
1690841759772983000,3.499983154296875,-0.0012144981883466244,-0.001313413493335247,-0.001982351765036583
1690841759783023000,3.510023193359375,0.0009586415253579617,0.00033241999335587025,0.0002765413373708725
1690841759793094000,3.520093994140625,-0.0008553308434784412,0.0021266641560941935,0.0009639523923397064
1690841759803134000,3.530134033203125,-0.0008065951988101006,-0.0014425043482333422,0.0005626138299703598
1690841759813174000,3.540174072265625,0.0020641826558858156,0.0011592551600188017,0.0018599145114421844
1690841759823215000,3.550215087890625,-0.0009822072461247444,-0.0019071085844188929,-0.0008434616029262543
1690841759833255200,3.560255126953125,-0.0006363242864608765,0.0002915274817496538,-0.0008360650390386581
1690841759843295000,3.570294921875,-0.0016677668318152428,0.0018862283322960138,-0.0001787971705198288
1690841759853336000,3.580336181640625,0.0010456107556819916,-0.0011247792281210423,-0.001394694671034813
1690841759863376000,3.5903759765625,-0.0008881106041371822,-0.0018984274938702583,0.0011014863848686218
1690841759873416000,3.600416015625,0.0010362458415329456,0.00029256963171064854,0.002401234582066536
1690841759883456000,3.6104560546875,0.00065567996352911,-0.00026616151444613934,-0.0016473028808832169
1690841759893497000,3.6204970703125,-0.00041209161281585693,-0.004251439124345779,0.0004289131611585617
1690841759903537200,3.630537109375,-0.0007023760117590427,0.003243495477363467,0.0005873702466487885
1690841759913577000,3.640576904296875,-0.000775512307882309,-0.001827365718781948,0.0011834725737571716
1690841759923618000,3.6506181640625,-0.0009472863748669624,0.0008192836539819837,-0.00010656192898750305
1690841759933687800,3.660687744140625,-0.0007026549428701401,-0.001942231087014079,-0.0012611057609319687
1690841759943729000,3.67072900390625,-0.0006760233081877232,0.00044715707190334797,0.0010177604854106903
1690841759953769000,3.68076904296875,0.0004966114647686481,0.002892391989007592,-0.0004904046654701233
1690841759963809000,3.69080908203125,-0.0001036650501191616,0.000678239855915308,4.172325134277344e-7
1690841759973849000,3.70084912109375,-0.0004011024720966816,-0.0001386585645377636,-0.0003607701510190964
1690841759983890200,3.71089013671875,0.0015448692720383406,-0.0014116496313363314,-0.0014726389199495316
1690841759993930000,3.720929931640625,-0.0005321269854903221,0.0012943947222083807,0.0007277596741914749
1690841760003969800,3.7309697265625,0.00007001357153058052,0.0003817294491454959,-0.00013829953968524933
1690841760014011000,3.741010986328125,0.0007507023401558399,-0.0007187137380242348,0.0002077147364616394
1690841760024051000,3.751051025390625,-0.00001548929139971733,0.0006152635905891657,-0.00033450499176979065
1690841760034091000,3.761091064453125,-0.0007255966775119305,-0.000614905497059226,-0.0011642035096883774
1690841760044131000,3.771131103515625,0.000739141833037138,-0.0027204006910324097,-0.0024212151765823364
1690841760054172200,3.781172119140625,0.0008656976278871298,0.0010452094720676541,-0.0028314515948295593
1690841760064212000,3.7912119140625,-0.0010962532833218575,0.00032482435926795006,-0.0007816161960363388
1690841760074283000,3.801282958984375,-0.001734637189656496,-0.0007100710645318031,0.0007597021758556366
1690841760084322800,3.81132275390625,0.0016491753049194813,-0.00031166221015155315,0.0003381241112947464
1690841760094363000,3.82136279296875,0.00024617603048682213,-0.000008039991371333599,-0.00005535036325454712
1690841760104404000,3.831404052734375,0.0004493752494454384,-0.00004186213482171297,-0.0015411265194416046
1690841760114444000,3.841444091796875,0.000591362826526165,0.0016426796792075038,0.0008032526820898056
1690841760124484000,3.851484130859375,0.0005857702344655991,-0.0007030325941741467,0.0004154965281486511
1690841760134524200,3.861524169921875,0.00019664224237203598,0.002185369376093149,-0.00018253736197948456
1690841760144565000,3.87156494140625,-0.001648129429668188,0.0016498076729476452,0.00012798793613910675
1690841760154604800,3.881604736328125,0.0005717640742659569,0.0007830602116882801,-0.0002721846103668213
1690841760164644900,3.891644775390625,0.0005003917030990124,0.00016094569582492113,0.00046657584607601166
1690841760174686000,3.90168603515625,0.000493666622787714,-0.002318003913387656,0.00025910884141921997
1690841760184726000,3.91172607421875,-0.0008219350129365921,0.0005736565217375755,0.0006695017218589783
1690841760194766000,3.92176611328125,0.0004630167968571186,-0.00020935351494699717,0.0026113633066415787
1690841760204806100,3.93180615234375,0.00004676450043916702,-0.0012993853306397796,0.0011367704719305038
1690841760214877000,3.941876953125,-0.0005257059819996357,-0.002041775966063142,0.0014591123908758163
1690841760224918000,3.95191796875,0.0001462097279727459,0.000679974677041173,0.0006955843418836594
1690841760234957800,3.961957763671875,-0.0018995311111211777,-0.00006024260073900223,-0.00023046694695949554
1690841760244998000,3.971997802734375,-0.000006822403520345688,-0.0009145848453044891,-0.0019010677933692932
1690841760255038000,3.982037841796875,0.000820657704025507,0.0022218357771635056,0.0004272032529115677
1690841760265079000,3.9920791015625,0.0007564756087958813,0.0004708074266090989,0.0008956529200077057
1690841760275119000,4.002119140625,-0.0001531410962343216,-0.0006098285084590316,-0.0011456478387117386
1690841760285159200,4.0121591796875,-0.0004005488008260727,-0.0002886514412239194,0.00021096691489219666
1690841760295200000,4.022199951171875,-0.0004245159216225147,-0.0019445340149104595,0.0015430673956871033
1690841760305239800,4.03223974609375,0.0006098560988903046,-0.0029378931503742933,-0.002152601256966591
1690841760315280000,4.04227978515625,0.00105834542773664,0.0012623027432709932,0.0008815247565507889
1690841760325320000,4.05231982421875,0.00026312563568353653,0.0013781501911580563,0.0005430374294519424
1690841760335361000,4.062361083984375,-0.00027765892446041107,-0.0014293943531811237,0.0001858975738286972
1690841760345401000,4.072401123046875,-0.00037619611248373985,-0.0006754533387720585,-0.0009808335453271866
1690841760355472100,4.08247216796875,-0.0000636884942650795,0.0007914636516943574,-0.0008604023605585098
1690841760365512000,4.092511962890625,-0.0007081734947860241,0.000005032168701291084,-0.0020108893513679504
1690841760375552000,4.102552001953125,0.002022824017331004,0.00012249406427145004,0.0004166997969150543
1690841760385592800,4.1125927734375,-0.0000808066688477993,0.00026497314684093,0.0017389599233865738
1690841760395633000,4.1226328125,-0.0003172527067363262,0.0030471375212073326,-0.0008878707885742188
1690841760405673000,4.1326728515625,0.0007695835083723068,-0.00015584623906761408,-0.00019970908761024475
1690841760415713000,4.142713134765625,0.000986712984740734,0.002696828218176961,0.0010336581617593765
1690841760425754000,4.152754150390625,0.0009371782653033733,0.0010928063420578837,-0.0003176294267177582
1690841760435794200,4.162794189453125,0.0008863175753504038,0.0012685166439041495,0.0009496044367551804
1690841760445834000,4.172833984375,0.000958222895860672,-0.000378115801140666,0.00011177361011505127
1690841760455874800,4.182874755859375,0.0015744578558951616,0.0020345370285212994,0.000431867316365242
1690841760465915000,4.192914794921875,0.0008671223185956478,-0.0019522150978446007,-0.002819053828716278
1690841760475955000,4.202954833984375,-0.0011400687508285046,-0.0006730405148118734,-0.0011382140219211578
1690841760486026000,4.21302587890625,-0.0008923946879804134,-0.00029780110344290733,-0.0017022714018821716
1690841760496066000,4.223066162109375,0.0006812638603150845,0.0019335600081831217,0.0019387416541576385
1690841760506107100,4.233107177734375,0.000993386609479785,-0.000388449989259243,0.0009136907756328583
1690841760516147000,4.24314697265625,0.0009685910772532225,-0.0015245763352140784,-0.0005516298115253448
1690841760526187000,4.25318701171875,0.0010096037294715643,-0.000592470052652061,0.0023653320968151093
1690841760536227000,4.26322705078125,-0.0001672632060945034,-0.0016851960681378841,0.001704605296254158
1690841760546268000,4.273267822265625,0.00019492674618959427,-0.0011810597497969866,-0.000005941838026046753
1690841760556308000,4.283307861328125,-0.0003168839029967785,-0.0007829254027456045,-0.0008332952857017517
1690841760566348000,4.29334814453125,0.00028845248743891716,0.0007931333966553211,0.0006921645253896713
1690841760576389000,4.30338916015625,0.0009905938059091568,0.0006993624847382307,-0.0009453874081373215
1690841760586429200,4.31342919921875,0.0009956539142876863,-0.0007576529169455171,-0.0005741436034440994
1690841760596469000,4.323468994140625,-0.00032581621780991554,-0.0016869319370016456,-0.00041860900819301605
1690841760606509000,4.333509033203125,-0.0008528558537364006,0.001069972524419427,-0.00034217722713947296
1690841760616550000,4.3435498046875,0.0010148051660507917,0.001220453530550003,0.00021292082965373993
1690841760626620200,4.3536201171875,-0.0006645843386650085,-0.0007505518151447177,-0.0005772393196821213
1690841760636661000,4.363660888671875,0.0004926519468426704,0.0001738129649311304,-0.0009155403822660446
1690841760646701000,4.373701171875,-0.0009465203620493412,-0.0009598947362974286,0.00027249567210674286
1690841760656740900,4.383740966796875,0.00009779585525393486,0.00003249186556786299,-0.0007254984229803085
1690841760666782000,4.393781982421875,-0.0000028712674975395203,0.0011102731805294752,0.0005797166377305984
1690841760676822000,4.403822021484375,0.0009777680970728397,-0.00003674905747175217,0.00028422288596630096
1690841760686862000,4.413862060546875,0.0007695090025663376,0.0010556795168668032,0.00041631609201431274
1690841760696902100,4.423902099609375,-0.0005877683870494366,0.00006740761455148458,0.000715501606464386
1690841760706943000,4.43394287109375,0.0005944087170064449,0.0006043008761480451,0.0011866148561239243
1690841760716976600,4.4439765625,-0.00041407905519008636,0.0011431525927037,0.0020135771483182907
1690841760727016400,4.454016357421875,-0.0009147529490292072,-0.0006126696243882179,0.0010314024984836578
1690841760737057500,4.4640576171875,-0.0010867095552384853,-0.00009575136937201023,0.0004357118159532547
1690841760747097600,4.47409765625,0.0004885499365627766,0.0009540666360408068,-0.001135287806391716
1690841760757137700,4.4841376953125,0.0005888990126550198,0.0006452453089877963,-0.0004225894808769226
1690841760767208700,4.494208740234375,-0.0009653219021856785,0.0001421741908416152,0.0000469256192445755
1690841760777248500,4.50424853515625,0.000664690975099802,-0.0005343044176697731,-0.00056428462266922
1690841760787288300,4.514288330078125,-0.0006458507850766182,-0.0013449706602841616,-0.002140076830983162
1690841760797329400,4.524329345703125,-0.00018482282757759094,0.0022409420926123857,-0.0018020179122686386
1690841760807369500,4.534369384765625,0.006456568371504545,0.030048605054616928,-0.006815684959292412
1690841760817409500,4.544409423828125,0.030884722247719765,-0.012864341959357262,-0.06510661542415619
1690841760827450600,4.55445068359375,0.002541763475164771,-0.07290903478860855,0.011927449144423008
1690841760837490400,4.564490478515625,0.014461982995271683,-0.009569338522851467,-0.014892997220158577
1690841760847530500,4.574530517578125,-0.0018205828964710236,-0.0070321448147296906,-0.051111191511154175
1690841760857570600,4.584570556640625,-0.01607479341328144,-0.03594573214650154,-0.054693713784217834
1690841760867611600,4.594611572265625,-0.024295972660183907,-0.05725102126598358,-0.06187333166599274
1690841760877651500,4.6046513671875,-0.021198658272624016,-0.046833336353302,-0.0613836944103241
1690841760887691500,4.61469140625,-0.01671549305319786,-0.025244686752557755,-0.06096717715263367
1690841760897732600,4.624732666015625,-0.007213762030005455,-0.009689928963780403,-0.05269187316298485
1690841760907802600,4.634802734375,0.003590948414057493,0.003270877292379737,-0.04705316200852394
1690841760917843500,4.644843505859375,0.010612953454256058,0.015238970518112183,-0.035306595265865326
1690841760927883500,4.654883544921875,0.014407957904040813,0.025131816044449806,-0.023317040875554085
1690841760937923300,4.66492333984375,0.016398020088672638,0.028801336884498596,-0.010798616334795952
1690841760947964400,4.67496435546875,0.013248300179839134,0.029323317110538483,0.0056352196261286736
1690841760958004500,4.68500439453125,0.007744588889181614,0.02871202677488327,0.019939640536904335
1690841760968044500,4.69504443359375,0.001923983683809638,0.01837123930454254,0.029679885134100914
1690841760978084600,4.705084716796875,-0.0024735890328884125,0.015473224222660065,0.04237629100680351
1690841760988125400,4.71512548828125,-0.008581016212701797,0.00617746077477932,0.05054740235209465
1690841760998165500,4.72516552734375,-0.010919921100139618,-0.003118611639365554,0.053686436265707016
1690841761008205600,4.73520556640625,-0.009457312524318695,-0.006064866669476032,0.05424783006310463
1690841761018246700,4.74524658203125,-0.006216048263013363,-0.004827228374779224,0.04888515919446945
1690841761028286500,4.755286376953125,-0.004443448036909103,-0.007639792747795582,0.04093242436647415
1690841761038326500,4.765326416015625,0.0015860090497881174,-0.0019034896977245808,0.031928159296512604
1690841761048397600,4.7753974609375,0.005817239172756672,0.00048323534429073334,0.01811034604907036
1690841761058437600,4.785437744140625,0.006483953446149826,0.0039686355739831924,0.003622770309448242
1690841761068477700,4.795477783203125,0.006590746343135834,0.007979089394211769,-0.008650939911603928
1690841761078518500,4.8055185546875,0.004702853038907051,0.011104131117463112,-0.019817616790533066
1690841761088558300,4.815558349609375,0.0013134479522705078,0.00537487305700779,-0.029661722481250763
1690841761098598400,4.825598388671875,-0.0003300923854112625,0.007183126173913479,-0.034812867641448975
1690841761108639500,4.835639404296875,-0.0035493215546011925,0.0032046299893409014,-0.03790746629238129
1690841761118679600,4.845679443359375,-0.0054845367558300495,-0.001953879836946726,-0.03865894675254822
1690841761128719600,4.8557197265625,-0.0031622606329619884,-0.011811571195721626,-0.037444546818733215
1690841761138759700,4.865759765625,-0.002882117871195078,-0.015271637588739395,-0.03286519646644592
1690841761148800500,4.875800537109375,-0.0003944588825106621,-0.019801409915089607,-0.02672608010470867
1690841761158840600,4.885840576171875,-0.0005999058485031128,-0.01829703152179718,-0.01818828657269478
1690841761168880400,4.89588037109375,0.0038995048962533474,-0.019633138552308083,-0.013829492032527924
1690841761178921500,4.90592138671875,0.0038358147721737623,-0.016337033361196518,-0.0049435291439294815
1690841761188991500,4.915991455078125,0.0030605685897171497,-0.008760339580476284,0.0014677643775939941
1690841761199032600,4.926032470703125,0.002316815312951803,-0.0038780379109084606,0.008819559589028358
1690841761209072600,4.93607275390625,0.0007769754156470299,0.0034879993181675673,0.013379956595599651
1690841761219112700,4.94611279296875,0.0005274922586977482,0.009829885326325893,0.018252117559313774
1690841761229153500,4.956153564453125,-0.0016613597981631756,0.015095221810042858,0.020466536283493042
1690841761239193300,4.966193359375,-0.002239230554550886,0.0177393089979887,0.021583927795290947
1690841761249233400,4.9762333984375,-0.0009742290712893009,0.02032870054244995,0.024267328903079033
1690841761259273500,4.9862734375,-0.0002007056027650833,0.020297154784202576,0.02040306106209755
1690841761269314600,4.996314453125,-0.0009434614330530167,0.014797993004322052,0.022060079500079155
1690841761279354600,5.006354736328125,0.00018064351752400398,0.010640780441462994,0.01838175766170025
1690841761289394700,5.016394775390625,0.0010403119958937168,0.005105933174490929,0.013126010075211525
1690841761299434500,5.0264345703125,0.0010780775919556618,0.0017667730571702123,0.010566250421106815
1690841761309475600,5.0364755859375,0.002378232777118683,-0.004307365044951439,0.004877205938100815
1690841761319515400,5.046515380859375,-0.0008129235357046127,-0.005541457328945398,-0.001470360904932022
1690841761329586400,5.05658642578125,0.0009474258404225111,-0.01113649271428585,-0.004834465682506561
1690841761339626500,5.06662646484375,0.000018260907381772995,-0.012325052171945572,-0.011464957147836685
1690841761349666600,5.07666650390625,-0.0013269013725221157,-0.009141774848103523,-0.013368319720029831
1690841761359707600,5.086707763671875,-0.0018038256093859673,-0.010607648640871048,-0.018171178176999092
1690841761369747700,5.096747802734375,-0.0025367271155118942,-0.007679769769310951,-0.02031209133565426
1690841761379787500,5.10678759765625,-0.001430974341928959,-0.002950000576674938,-0.01947719231247902
1690841761389828400,5.116828369140625,0.00009475043043494225,-0.0028621163219213486,-0.02117176353931427
1690841761399868400,5.126868408203125,0.0004223193973302841,-0.0012820628471672535,-0.016761567443609238
1690841761409908500,5.136908447265625,0.00019621709361672401,0.0018290418665856123,-0.013853661715984344
1690841761419948500,5.146948486328125,0.0014805211685597897,0.0016925539821386337,-0.009642932564020157
1690841761429989600,5.15698974609375,0.00011911336332559586,-0.00004063127562403679,-0.005904654040932655
1690841761440029700,5.16702978515625,0.00008384464308619499,0.0011448856675997376,0.000057330355048179626
1690841761450069500,5.177069580078125,0.0007656137458980083,-0.0004098678473383188,0.003358319401741028
1690841761460110300,5.1871103515625,-0.0006174477748572826,0.0009635799797251821,0.009376694448292255
1690841761470180600,5.1971806640625,-0.0019293208606541157,-0.0009991696570068598,0.011335449293255806
1690841761480221400,5.207221435546875,-0.0007305499166250229,-0.00009614741429686546,0.015929769724607468
1690841761490261500,5.217261474609375,-0.0006876732222735882,0.000979237025603652,0.01672206073999405
1690841761500301600,5.227301513671875,-0.00011050980538129807,0.0013088620034977794,0.014746684581041336
1690841761510341600,5.237341552734375,0.0002535441890358925,0.0016755792312324047,0.013676093891263008
1690841761520382700,5.2473828125,-0.0010964120738208294,0.0024878433905541897,0.011664075776934624
1690841761530422500,5.257422607421875,0.0021672919392585754,0.0030271336436271667,0.010463789105415344
1690841761540462600,5.267462646484375,0.0017016096971929073,0.002582954242825508,0.004572134464979172
1690841761550503400,5.27750341796875,0.0001809448003768921,0.005089255049824715,0.0032876934856176376
1690841761560543500,5.28754345703125,0.0002777446061372757,0.0038595348596572876,-0.0027627311646938324
1690841761570583600,5.29758349609375,0.0005730893462896347,0.004184440243989229,-0.003006676211953163
1690841761580623600,5.30762353515625,0.00006593158468604088,0.00022003508638590574,-0.005881108343601227
1690841761590664700,5.317664794921875,0.001381000503897667,-0.0033158441074192524,-0.007938932627439499
1690841761600704500,5.32770458984375,-0.0005179238505661488,-0.004787527956068516,-0.008739307522773743
1690841761610775600,5.337775634765625,0.0017694649286568165,-0.004217078909277916,-0.010117758065462112
1690841761620815600,5.347815673828125,-0.00021767336875200272,-0.004736281465739012,-0.009941412135958672
1690841761630855700,5.357855712890625,0.0009740914683789015,-0.005081960000097752,-0.007911551743745804
1690841761640896500,5.367896484375,-0.00029747374355793,-0.007193544879555702,-0.007384441792964935
1690841761650936600,5.3779365234375,0.0010104048997163773,-0.0055652884766459465,-0.006890691816806793
1690841761660976600,5.3879765625,-0.0005117896944284439,-0.004740844015032053,-0.00581037811934948
1690841761671017700,5.398017822265625,-0.0005570631474256516,-0.0029996694065630436,-0.004025794565677643
1690841761681057500,5.4080576171875,-0.0008891653269529343,0.00039454211946576834,0.0008017066866159439
1690841761691097600,5.41809765625,0.00012416718527674675,-0.0014235979178920388,0.003522925078868866
1690841761701137700,5.4281376953125,-0.000580325722694397,0.0032099897507578135,0.0040312595665454865
1690841761711178500,5.438178466796875,0.0015155819710344076,0.004346360452473164,0.003974532708525658
1690841761721205000,5.448205078125,0.00003609200939536095,0.005161254666745663,0.00751061737537384
1690841761731245000,5.4582451171875,-0.00016444409266114235,0.004342066124081612,0.0068488214164972305
1690841761741286100,5.4682861328125,0.000009437091648578644,0.0054075028747320175,0.006326626054942608
1690841761751356000,5.47835595703125,-0.0010201409459114075,0.0023019907530397177,0.007357003167271614
1690841761761397000,5.48839697265625,0.000422606710344553,0.001357250614091754,0.007278440520167351
1690841761771437000,5.49843701171875,0.0007238099351525307,0.0010496554896235466,0.003857078030705452
1690841761781476900,5.508476806640625,0.0008991558570414782,-0.0018118997104465961,0.004623619839549065
1690841761791517000,5.518516845703125,-0.00026437919586896896,0.000043791020289063454,0.0029950980097055435
1690841761801558000,5.52855810546875,-0.0005351859144866467,-0.002829125849530101,-0.0008372608572244644
1690841761811598000,5.53859814453125,0.0008416685741394758,-0.0036365960258990526,-0.003366464748978615
1690841761821638100,5.54863818359375,-0.0007427339442074299,0.0010581312235444784,-0.0014242902398109436
1690841761831679200,5.55867919921875,0.00020135659724473953,-0.0028178333304822445,-0.004450438544154167
1690841761841719000,5.568718994140625,-0.00043090619146823883,-0.0016822705511003733,-0.0046419184654951096
1690841761851758800,5.5787587890625,0.0015193268191069365,-0.00027878466062247753,-0.007006539031863213
1690841761861799000,5.588798828125,-0.00002081366255879402,-0.0011882174294441938,-0.005711643025279045
1690841761871840000,5.598840087890625,-0.0008695628494024277,-0.0024268534034490585,-0.006734030321240425
1690841761881911000,5.6089111328125,0.00009370828047394753,-0.0007795244455337524,-0.007489772513508797
1690841761891951000,5.618951171875,-0.00034704478457570076,0.0010260988492518663,-0.0026366952806711197
1690841761901991000,5.628990966796875,-0.000008274335414171219,-0.0014681827742606401,-0.004134399816393852
1690841761912031000,5.639031005859375,0.00039652641862630844,-0.001973917009308934,-0.00027068518102169037
1690841761922071800,5.64907177734375,-0.0006052600219845772,-0.0015206767711788416,-0.0011218860745429993
1690841761932112000,5.65911181640625,-0.00027689244598150253,0.0023201340809464455,0.0015218332409858704
1690841761942152000,5.66915185546875,-0.0008363500237464905,0.0011263887863606215,0.004023289307951927
1690841761952192000,5.67919189453125,-0.0014334307052195072,-0.0008499431423842907,0.003887733444571495
1690841761962233000,5.689233154296875,-0.0008874502964317799,0.00022935541346669197,0.00305088609457016
1690841761972273200,5.699273193359375,0.0009155096486210823,0.0015633328584954143,0.002264987677335739
1690841761982313000,5.70931298828125,-0.0002978891134262085,0.0021147991064935923,0.005022821947932243
1690841761992353800,5.719353759765625,-0.00022651627659797668,-0.0005672704428434372,0.004894457757472992
1690841762002393900,5.729393798828125,-0.00028727343305945396,0.0041084131225943565,0.0047771986573934555
1690841762012434000,5.739433837890625,-0.0003011217340826988,0.002091068308800459,0.0010674148797988892
1690841762022505000,5.7495048828125,0.00042981933802366257,0.002188744256272912,0.0003831051290035248
1690841762032545000,5.759544921875,0.0002945307642221451,-0.0007524508982896805,-0.0003886781632900238
1690841762042586000,5.769586181640625,0.00012777140364050865,0.0011036318028345704,0.0009354613721370697
1690841762052626000,5.7796259765625,0.0005099349655210972,-0.0006955997087061405,-0.0011804215610027313
1690841762062666000,5.789666015625,0.000296072568744421,-0.001985768787562847,-0.0032201260328292847
1690841762072706000,5.7997060546875,0.000049729831516742706,-0.004601259250193834,-0.002339418977499008
1690841762082747000,5.809746826171875,-0.002019441220909357,0.00018078286666423082,-0.003110818564891815
1690841762092787000,5.819786865234375,0.0001715417020022869,-0.0024773182813078165,-0.003939859569072723
1690841762102827000,5.829826904296875,-0.0002339361235499382,-0.0054929545149207115,-0.003567539155483246
1690841762112868000,5.8398681640625,0.0008888524025678635,-0.0014875601045787334,-0.0032165348529815674
1690841762122908200,5.849908203125,-0.00038459012284874916,0.0004771305248141289,-0.005141355097293854
1690841762132948000,5.859947998046875,-0.0009230808354914188,-0.00035963463596999645,-0.0024571549147367477
1690841762142988000,5.869988037109375,-0.0007381504401564598,-0.0009623512160032988,-0.0013128314167261124
1690841762153028900,5.88002880859375,0.0005918322131037712,-0.002706988248974085,-0.002096334472298622
1690841762163099100,5.89009912109375,0.000814714003354311,0.00043411250226199627,0.0008537173271179199
1690841762173140000,5.900139892578125,-0.001050297636538744,0.0039777145721018314,0.0006888676434755325
1690841762183180000,5.910179931640625,0.0014943212736397982,0.0006780585972592235,0.0007844585925340652
1690841762193219800,5.9202197265625,0.0008050953038036823,0.002212039427831769,0.0037919674068689346
1690841762203261000,5.930260986328125,-0.0004534660838544369,0.001603674958460033,0.0023004096001386642
1690841762213301000,5.940301025390625,0.0010184631682932377,-0.00046986225061118603,0.005034144967794418
1690841762223341000,5.950341064453125,0.0008324030786752701,0.0005622416501864791,0.002013320103287697
1690841762233381000,5.960381103515625,-0.001066430937498808,0.0010962053202092648,0.002148076891899109
1690841762243422000,5.970421875,0.0009965691715478897,0.0001882038777694106,0.0009906589984893799
1690841762253462000,5.9804619140625,0.00022212183102965355,0.00010351534001529217,0.001028209924697876
1690841762263501800,5.990501708984375,-0.0019761850126087666,-0.00037114787846803665,0.00034354813396930695
1690841762273543200,6.000543212890625,0.0004313127137720585,0.0009119630558416247,-0.00013821758329868317
1690841762283583000,6.0105830078125,0.0006081229075789452,0.0034115673042833805,0.001172805204987526
1690841762293623000,6.020623046875,-0.0004728543572127819,0.000699670403264463,-0.0021180622279644012
1690841762303694000,6.030694091796875,0.00011808518320322037,0.0007101844530552626,-0.0006628893315792084
1690841762313734100,6.040734130859375,0.000719693023711443,0.00007182476110756397,-0.0030027441680431366
1690841762323775000,6.05077490234375,-0.00014943722635507584,-0.0007171314209699631,-0.000219760462641716
1690841762333815000,6.06081494140625,0.0004383223131299019,-0.001763487234711647,-0.0012325607240200043
1690841762343854800,6.070854736328125,0.00047868723049759865,-0.0013843609485775232,-0.0026743095368146896
1690841762353895000,6.08089501953125,-0.0013250717893242836,-0.0009430751670151949,-0.0015629716217517853
1690841762363936000,6.09093603515625,-0.0021079229190945625,-0.0012690769508481026,-0.0018565189093351364
1690841762373976000,6.10097607421875,-0.0010698228143155575,0.0027954396791756153,-0.000520145520567894
1690841762384016100,6.11101611328125,0.000870569609105587,-0.000384077662602067,-0.002999214455485344
1690841762394056200,6.12105615234375,0.000371493399143219,0.0004470949061214924,-0.0003618858754634857
1690841762404097000,6.131096923828125,0.0009762248955667019,0.0009574546711519361,-0.00007539615035057068
1690841762414136800,6.14113671875,0.0009306848514825106,0.0018331020837649703,0.0014215651899576187
1690841762424177000,6.151177001953125,0.001223540399223566,0.0008246650686487556,0.0017687734216451645
1690841762434218000,6.161218017578125,0.0010786643251776695,-0.0026848488487303257,0.00011415034532546997
1690841762444288000,6.1712880859375,0.0003954954445362091,-0.0018931205850094557,0.0006198044866323471
1690841762454329000,6.1813291015625,0.0018522446043789387,-0.0024310792796313763,0.0030968114733695984
1690841762464369200,6.191369140625,0.00009359559044241905,-0.0008249622769653797,0.001762785017490387
1690841762474409200,6.2014091796875,0.001420116052031517,0.0010890515986829996,-0.0003882516175508499
1690841762484450000,6.211449951171875,0.0008054033387452364,0.0003536007134243846,-0.00008206814527511597
1690841762494489900,6.22148974609375,-0.0009203250519931316,-0.0005161877488717437,0.0002441704273223877
1690841762504530000,6.231530029296875,0.0004888544790446758,-0.00167647167108953,0.0020507369190454483
1690841762514570000,6.241570068359375,0.0005463785491883755,0.0002870769239962101,-0.0010534431785345078
1690841762524611000,6.251611083984375,-0.000753362663090229,0.0012692454038187861,-0.0017866138368844986
1690841762534651100,6.261651123046875,0.00027887849137187004,-0.0019486523233354092,0.0015742946416139603
1690841762544691200,6.271691162109375,0.000050833914428949356,0.0007239751284942031,-0.0025038085877895355
1690841762554732000,6.28173193359375,0.0009158286266028881,-0.00043742929119616747,-0.0016641132533550262
1690841762564771800,6.291771728515625,0.00087574846111238,-0.0005228945519775152,-0.0026150569319725037
1690841762574812000,6.30181201171875,0.0008626990020275116,0.00015727686695754528,-0.0001178104430437088
1690841762584883000,6.311883056640625,-0.0006815153174102306,-0.0017060667742043734,0.0005273260176181793
1690841762594923000,6.321923095703125,-0.00046366872265934944,-0.0010788922663778067,-0.002209603786468506
1690841762604963000,6.331963134765625,0.00035843532532453537,0.00099394959397614,-0.0011798311024904251
1690841762615004200,6.342004150390625,0.00029212236404418945,0.0008195126429200172,0.0008929073810577393
1690841762625044200,6.352044189453125,0.0006548208184540272,0.0017772091086953878,0.00024850480258464813
1690841762635084000,6.362083984375,0.0015192828141152859,0.0018147595692425966,-0.001721702516078949
1690841762645124900,6.372124755859375,0.00035909004509449005,0.00024212966673076153,-0.0011643636971712112
1690841762655165000,6.3821650390625,0.0007183505222201347,0.00042934983503073454,0.00013978593051433563
1690841762665205000,6.392205078125,0.00022422336041927338,0.0004404410719871521,0.00007325783371925354
1690841762675245000,6.4022451171875,-0.0008594170212745667,0.0021286190021783113,0.0006682071834802628
1690841762685286100,6.4122861328125,0.0008035597857087851,-0.0010298616252839565,0.0017849504947662354
1690841762695326200,6.422326171875,0.00067572807893157,-0.0013315975666046143,-0.0011405311524868011
1690841762705366000,6.432365966796875,0.00042473943904042244,-0.001276232535019517,0.0005616806447505951
1690841762715403300,6.4424033203125,-0.0005281395278871059,0.00233900872990489,0.000806957483291626
1690841762725473300,6.452473388671875,0.0009189869742840528,-0.0003273196052759886,0.002788696438074112
1690841762735514400,6.462514404296875,-0.0007382980547845364,-0.0023795515298843384,-0.0011296123266220093
1690841762745554400,6.472554443359375,-0.0004404960200190544,0.001997120678424835,0.0018206313252449036
1690841762755594500,6.482594482421875,-0.00015580374747514725,0.0011299954494461417,0.00004882924258708954
1690841762765635600,6.492635498046875,0.0002598492428660393,-0.00014776503667235374,-0.00013448111712932587
1690841762775675400,6.50267529296875,0.001705679576843977,0.00011801847722381353,0.0029630418866872787
1690841762785715500,6.512715576171875,0.002514789579436183,0.00235156761482358,0.00018251687288284302
1690841762795755300,6.52275537109375,-0.0009124325588345528,-0.0006767129525542259,-0.0013402774930000305
1690841762805796400,6.53279638671875,0.0016753894742578268,-0.00074781384319067,-0.0011074729263782501
1690841762815836400,6.54283642578125,-0.0009899018332362175,-0.0005113251972943544,-0.0015053488314151764
1690841762825876500,6.55287646484375,0.0008835187181830406,-0.000016005709767341614,0.0000226534903049469
1690841762835917600,6.56291748046875,-0.00034393230453133583,-0.0012258796487003565,-0.0003099758177995682
1690841762845957400,6.572957275390625,-0.0000712275505065918,-0.0016476884484291077,0.0004739556461572647
1690841762855997400,6.58299755859375,-0.0009564622305333614,-0.0007549969013780355,-0.00007598660886287689
1690841762866068500,6.593068359375,-0.0018023904412984848,-0.0015526216011494398,-0.0006505120545625687
1690841762876108300,6.6031083984375,-0.000060949474573135376,0.00020346674136817455,0.00023232586681842804
1690841762886148400,6.6131484375,0.001533797476440668,-0.00021994207054376602,0.0002940613776445389
1690841762896189400,6.623189453125,0.0006320509128272533,-0.001734481891617179,0.0005752909928560257
1690841762906229200,6.633229248046875,-0.0008511790074408054,-0.0019071600399911404,0.00014547817409038544
1690841762916269300,6.643269287109375,-0.000710564199835062,0.002289982046931982,-0.0005642548203468323
1690841762926310400,6.653310302734375,-0.0007540732622146606,0.0003387758042663336,0.00017333589494228363
1690841762936350500,6.6633505859375,0.00188964675180614,-0.0005959935951977968,0.001149650663137436
1690841762946390300,6.673390380859375,0.0005206018686294556,-0.0005754337180405855,0.002008426934480667
1690841762956430300,6.683430419921875,0.0008582908194512129,-0.0005988695193082094,0.0007040109485387802
1690841762966471400,6.693471435546875,-0.0003279796801507473,-0.0001914717722684145,0.0008962620049715042
1690841762976511500,6.703511474609375,0.001339159207418561,0.0001539402874186635,-0.0005271974951028824
1690841762986551300,6.71355126953125,0.00008830800652503967,-0.0010764168109744787,-0.0030910540372133255
1690841762996592400,6.72359228515625,-0.000249380711466074,0.0018924751784652472,-0.0006297603249549866
1690841763006662400,6.733662353515625,-0.0006640562787652016,0.00021178449969738722,-0.00008399598300457001
1690841763016703500,6.743703369140625,0.0006243810057640076,-0.0003757087979465723,-0.0013186372816562653
1690841763026743300,6.753743408203125,-0.0010619866661727428,-0.001342538045719266,-0.0016045477241277695
1690841763036783400,6.763783447265625,0.001971620135009289,-0.0010293503291904926,0.000788569450378418
1690841763046823200,6.7738232421875,-0.00015193084254860878,0.001084054820239544,0.00011535733938217163
1690841763056864300,6.7838642578125,-0.0008491463959217072,0.0021951256785541773,0.0008136387914419174
1690841763066904300,6.793904296875,-0.0004707132466137409,-0.0015319024678319693,-0.00077027827501297
1690841763076944400,6.8039443359375,-0.0011333078145980835,0.0009269942529499531,-0.0005468390882015228
1690841763086985500,6.8139853515625,0.0015372398775070906,-0.002359479432925582,-0.0009657684713602066
1690841763097025300,6.824025390625,-0.0008034124039113522,-0.0017224512994289398,0.0006848592311143875
1690841763107065300,6.8340654296875,-0.000212986022233963,-0.0006997883319854736,-0.0013283174484968185
1690841763117105400,6.84410546875,-0.0004816991277039051,-0.0013597195502370596,-0.0003882218152284622
1690841763127146500,6.854146484375,0.00004394585266709328,-0.00022723409347236156,0.0013537164777517319
1690841763137186300,6.864186279296875,-0.0009400919079780579,-0.002505834912881255,-0.00011501647531986237
1690841763147257300,6.87425732421875,0.0006260508671402931,0.0019106569234281778,0.0009233225136995316
1690841763157297400,6.88429736328125,0.000433504581451416,0.0007487196708098054,0.0019052289426326752
1690841763167337500,6.89433740234375,-0.0007344656623899937,0.0002366210101172328,0.0018158648163080215
1690841763177378300,6.90437841796875,-0.00007133837789297104,-0.0002531344071030617,0.000027019530534744263
1690841763187418400,6.91441845703125,-0.00031928950920701027,0.0008923336863517761,-0.0021353550255298615
1690841763197458200,6.924458251953125,0.0003073522821068764,0.0011077835224568844,-0.0010655634105205536
1690841763207499300,6.934499267578125,0.0006338004022836685,0.0011269340757280588,0.0008931960910558701
1690841763217539300,6.944539306640625,-0.00030549662187695503,-0.0011737707536667585,0.0004641599953174591
1690841763227579400,6.954579345703125,0.0015593734569847584,-0.0006378430407494307,-0.0008979104459285736
1690841763237619500,6.964619384765625,0.00018145423382520676,0.0012282337993383408,0.0019101258367300034
1690841763247660300,6.974660400390625,0.0012362608686089516,-0.0024770330637693405,-0.0019155703485012054
1690841763257700400,6.984700439453125,0.0009260026272386312,0.002180835697799921,0.0005795452743768692
1690841763267740400,6.994740478515625,-0.00016377819702029228,0.0015736420173197985,-0.0006450191140174866
1690841763277781500,7.004781494140625,-0.0008330307900905609,0.00008333707228302956,0.00030493177473545074
1690841763287851300,7.014851318359375,0.001660037785768509,-0.00021557649597525597,-0.0001708678901195526
1690841763297892400,7.024892333984375,0.0009604254737496376,0.0004174568457528949,0.0006797462701797485
1690841763307932400,7.034932373046875,-0.0009972145780920982,0.0016756635159254074,-0.00006415136158466339
1690841763317972500,7.044972412109375,0.002023076405748725,0.0006676571210846305,0.000058088451623916626
1690841763328012500,7.055012451171875,0.001748422160744667,-0.002004799898713827,-0.0013465527445077896
1690841763338053400,7.065053466796875,-0.0007059471681714058,-0.0007725553587079048,-0.0010839644819498062
1690841763348093200,7.07509326171875,0.00017999764531850815,-0.0019012207631021738,-0.001721445471048355
1690841763358133200,7.08513330078125,0.0009203562512993813,0.003456526668742299,-0.0020572710782289505
1690841763368174300,7.09517431640625,0.00011031050235033035,0.0004484390374273062,-0.0009079892188310623
1690841763378214400,7.10521435546875,-0.00010860152542591095,-0.0009382688440382481,-0.0008888132870197296
1690841763388254500,7.11525439453125,0.0018303864635527134,0.0003916725981980562,-0.0008125454187393188
1690841763398294500,7.12529443359375,0.0008671211544424295,-0.00017797760665416718,-0.0004719272255897522
1690841763408335400,7.13533544921875,-0.0010736878030002117,-0.0007585571147501469,0.0006543509662151337
1690841763418406400,7.145406494140625,0.0007830678950995207,0.0020092662889510393,-0.001569388434290886
1690841763428446200,7.1554462890625,0.00043040094897150993,0.00048531568609178066,-0.0005878861993551254
1690841763438486300,7.165486328125,-0.0005909213796257973,-0.0018958165310323238,0.0008542146533727646
1690841763448526300,7.1755263671875,0.0004818304441869259,0.001247674459591508,0.0019804909825325012
1690841763458567400,7.1855673828125,0.0005026031285524368,-0.0019723535515367985,0.00015595927834510803
1690841763468607500,7.195607421875,0.00036681629717350006,0.000890428083948791,0.0018037725239992142
1690841763478647600,7.2056474609375,-0.0008366662077605724,0.0033290847204625607,0.0018434543162584305
1690841763488688400,7.2156884765625,-0.00033053290098905563,0.00018956826534122229,-0.0030995775014162064
1690841763498728200,7.225728271484375,-0.000981675460934639,0.0022766876500099897,0.0016408506780862808
1690841763508768300,7.235768310546875,0.0001202649436891079,0.001248577143996954,-0.0009566713124513626
1690841763518808300,7.245808349609375,0.0006901812739670277,0.0009460420114919543,0.0002824980765581131
1690841763528849400,7.255849365234375,-0.00006607593968510628,-0.0017430047737434506,0.00013243220746517181
1690841763538889500,7.265889404296875,0.000005296897143125534,-0.00058053492102772,-0.0009778384119272232
1690841763548929500,7.275929443359375,0.00047994451597332954,-0.0018864083103835583,-0.00040997564792633057
1690841763559000600,7.28600048828125,-0.001238060649484396,-0.0005135489627718925,0.00020574778318405151
1690841763569040400,7.296040283203125,-0.0005823997780680656,0.0007260267157107592,0.0007832832634449005
1690841763579081200,7.306081298828125,-0.0000028959475457668304,-0.0011240714229643345,-0.0012942496687173843
1690841763589121300,7.316121337890625,-0.001133384183049202,-0.0008252410916611552,-0.0017552543431520462
1690841763599161300,7.326161376953125,0.0004280270077288151,-0.0001330856466665864,0.0000050961971282958984
1690841763609201400,7.336201416015625,0.0012763743288815022,-0.0003221106017008424,-0.0015418007969856262
1690841763619242500,7.346242431640625,0.00037223100662231445,0.00016471522394567728,-0.00035509467124938965
1690841763629282600,7.356282470703125,0.0000919555313885212,-0.0009674307657405734,-0.0012004189193248749
1690841763639322400,7.366322265625,-0.0008790330030024052,0.00005868508014827967,-0.0006816349923610687
1690841763649363200,7.37636328125,-0.0010977652855217457,-0.0004641033010557294,0.0008919499814510345
1690841763659403300,7.3864033203125,-0.00010227551683783531,-0.00023826712276786566,-0.0012489650398492813
1690841763669443300,7.396443359375,0.001996453618630767,0.001544872298836708,0.0010672379285097122
1690841763679483400,7.4064833984375,-0.001626776996999979,0.0011419360525906086,-0.00048005953431129456
1690841763689524500,7.4165244140625,0.0004962179809808731,0.0016267502214759588,-0.0004275515675544739
1690841763699594200,7.42659423828125,0.00052284961566329,0.0009764062706381083,0.0008853860199451447
1690841763709635300,7.43663525390625,0.0005473978817462921,-0.0001563165569677949,-0.0010754875838756561
1690841763719683800,7.446683837890625,-0.0002630022354424,-0.0011616599513217807,0.0015048496425151825
1690841763729724000,7.456723876953125,-0.0014303838834166527,-0.0020494526252150536,0.0006341654807329178
1690841763739765000,7.466764892578125,0.000261788722127676,0.0018877647817134857,-0.0006380267441272736
1690841763749805000,7.47680517578125,0.0008782206568866968,-0.0003528275992721319,0.0007141083478927612
1690841763759845000,7.48684521484375,0.0006372048519551754,-0.002115840557962656,-0.0011146832257509232
1690841763769885200,7.49688525390625,-0.000742525327950716,-0.0008131250506266952,0.0005515795201063156
1690841763779926000,7.506926025390625,0.0023989395704120398,-0.00019740231800824404,-0.0011339355260133743
1690841763789966000,7.516966064453125,-0.0020127552561461926,0.0011635234113782644,0.0007453728467226028
1690841763800006000,7.527005859375,0.000013910233974456787,0.00021756859496235847,0.0017949249595403671
1690841763810047000,7.537046875,0.00004545319825410843,-0.0004623688291758299,-0.0005879160016775131
1690841763820087000,7.547087158203125,-0.0015385951846837997,0.0021110435482114553,-0.0009013693779706955
1690841763830127000,7.557127197265625,0.0008310058619827032,0.0016170518938452005,-0.00045167654752731323
1690841763840198100,7.5671982421875,-0.0001825932413339615,-0.00022505666129291058,-0.0003209151327610016
1690841763850238200,7.57723828125,-0.0018522851169109344,0.00042264489457011223,0.0027751214802265167
1690841763860279000,7.587279052734375,-0.00012629060074687004,0.0013877744786441326,0.00013459660112857819
1690841763870318800,7.59731884765625,-0.0002496093511581421,-0.0012645716778934002,-0.0009670685976743698
1690841763880359000,7.60735888671875,-0.0005878307856619358,0.0015040505677461624,-0.000858943909406662
1690841763890399000,7.61739892578125,-0.0006713429465889931,-0.001581538119353354,0.0000512637197971344
1690841763900440000,7.627440185546875,-0.0018673683516681194,-0.0004765925696119666,-0.0009956248104572296
1690841763910480100,7.637480224609375,0.00017625652253627777,-0.0008705114014446735,-0.00011151470243930817
1690841763920520200,7.647520263671875,-0.0010919407941401005,0.0010062181390821934,-0.000639086589217186
1690841763930561000,7.65756103515625,0.0003225579857826233,-0.0008528275648131967,-0.0008474010974168777
1690841763940601000,7.66760107421875,0.0002892683260142803,-0.0018347351578995585,0.0006160065531730652
1690841763950641000,7.677640869140625,-0.00007367599755525589,-0.0006180505733937025,0.001482602208852768
1690841763960681000,7.687680908203125,0.0008136893156915903,-0.0003450766671448946,0.0012280028313398361
1690841763970722000,7.69772216796875,-0.0007703416049480438,0.000959069118835032,-0.0017118863761425018
1690841763980792000,7.7077919921875,0.000320222694426775,-0.0002550659701228142,0.0006151851266622543
1690841763990833200,7.717833251953125,-0.0006497041322290897,0.0004676798125728965,0.0007388312369585037
1690841764000873200,7.727873291015625,-0.0011652922257781029,-0.0006236834451556206,0.0000972747802734375
1690841764010912800,7.737912841796875,-0.00046715978533029556,-0.00006587314419448376,0.0005385857075452805
1690841764020953900,7.747953857421875,-0.0008895369246602058,0.001554394024424255,0.0005676150321960449
1690841764030994000,7.757993896484375,-0.00008203461766242981,-0.002176837995648384,-0.0014134421944618225
1690841764041034000,7.768033935546875,0.000512382946908474,0.001013362780213356,-0.0009069088846445084
1690841764051074000,7.778073974609375,0.001342475414276123,0.0019299027044326067,0.0019385050982236862
1690841764061115100,7.788115234375,0.0011741637717932463,-0.001264825463294983,-0.0021835360676050186
1690841764071155000,7.798155029296875,0.000007315073162317276,-0.00043745595030486584,0.0006338618695735931
1690841764081195000,7.808195068359375,0.0011998782865703106,-0.0014068465679883957,-0.0001717451959848404
1690841764091236000,7.818236083984375,-0.0007248069159686565,-0.0008796344045549631,0.002693749964237213
1690841764101276000,7.82827587890625,0.0006075724959373474,-0.001456741476431489,-0.0009601078927516937
1690841764111316000,7.83831591796875,0.0016995929181575775,0.00077793188393116,-0.0010017380118370056
1690841764121387000,7.848386962890625,0.00034590810537338257,0.00016354070976376534,0.0017303992062807083
1690841764131427000,7.858427001953125,-0.0009400006383657455,-0.0005404874682426453,-0.0009810235351324081
1690841764141468200,7.86846826171875,0.0015250213909894228,-0.000012116390280425549,0.0009771976619958878
1690841764151508000,7.878508056640625,-0.0006342302076518536,-0.0002775175962597132,0.0007345732301473618
1690841764161547800,7.8885478515625,-0.0009274440817534924,-0.001773415133357048,0.00045893527567386627
1690841764171587800,7.898587890625,-0.000004775356501340866,0.0005422856193035841,0.0007346272468566895
1690841764181629000,7.90862890625,0.0008245331700891256,0.0010512156877666712,0.0012552756816148758
1690841764191669000,7.9186689453125,-0.0017178268171846867,-0.003020692616701126,-0.0010110363364219666
1690841764201709000,7.928708984375,0.0009085824713110924,-0.0012968287337571383,-0.0021037310361862183
1690841764211749000,7.9387490234375,0.000805089483037591,0.0020689992234110832,0.0011842809617519379
1690841764221790000,7.9487900390625,0.0008301232010126114,-0.0028748929034918547,-0.00023039057850837708
1690841764231829800,7.958829833984375,-0.0005949386395514011,0.002912927884608507,-0.0001647714525461197
1690841764241869800,7.968869873046875,-0.0018128021620213985,-0.0013438686728477478,-0.0009453445672988892
1690841764251911000,7.978910888671875,0.0005900193937122822,0.0017398985801264644,-0.000825781375169754
1690841764261981000,7.98898095703125,0.00014899950474500656,-0.00007664365693926811,0.0009657274931669235
1690841764272022000,7.99902197265625,-0.0009922264143824577,0.00015028065536171198,0.001859039068222046
1690841764282062000,8.00906201171875,-0.0009932918474078178,-0.000867579597979784,-0.000986015424132347
1690841764292102100,8.01910205078125,0.0025017394218593836,0.0002360751386731863,-0.0010947175323963165
1690841764302143000,8.02914306640625,-0.000416019931435585,0.002261142712086439,0.0003543086349964142
1690841764312182800,8.039182861328126,0.00035315006971359253,-0.0018980317981913686,0.00024386495351791382
1690841764322222800,8.049222900390625,-0.001130230724811554,0.0010588758159428835,0.00136665441095829
1690841764332263000,8.059262939453125,-0.000781775452196598,-0.001032225787639618,0.00021869689226150513
1690841764342304000,8.069303955078125,-0.0003761760890483856,0.00004475656896829605,-0.0005000904202461243
1690841764352344000,8.079343994140626,-0.0022323941811919212,-0.0003372302744537592,0.0019159968942403793
1690841764362384100,8.089384033203125,-0.00017057452350854874,-0.0003622639924287796,0.0017841700464487076
1690841764372425000,8.099425048828126,0.0007787304930388927,0.00036367285065352917,-0.001398501917719841
1690841764382464800,8.10946484375,0.001220016274601221,-0.00020065088756382465,0.0004830211400985718
1690841764392504800,8.1195048828125,-0.0009607309475541115,-0.00025175849441438913,0.00021514110267162323
1690841764402576000,8.129575927734376,0.0004645930603146553,-0.0013993146130815148,0.0003014262765645981
1690841764412616000,8.139615966796875,0.0005285362713038921,0.00033454212825745344,-0.0019152890890836716
1690841764422656000,8.149656005859375,-0.0009465888142585754,0.0009971365798264742,-0.0007586795836687088
1690841764432697000,8.159697021484375,0.00023685162886977196,0.0004682524595409632,0.0020161252468824387
1690841764442737200,8.169737060546876,-0.0005985819734632969,0.0007172580808401108,0.0018275734037160873
1690841764452777000,8.17977685546875,-0.0000918419100344181,-0.0019069110276177526,-0.0009448546916246414
1690841764462817800,8.18981787109375,-0.00007506413385272026,0.0008268237579613924,0.00031189247965812683
1690841764472857900,8.19985791015625,-0.0008079037070274353,-0.0007477480685338378,-0.0002603065222501755
1690841764482898000,8.20989794921875,-0.0009466544725000858,0.00012816570233553648,-0.00161026231944561
1690841764492938000,8.21993798828125,0.000909019261598587,0.0005783584201708436,0.0017812419682741165
1690841764502979000,8.22997900390625,0.000759349437430501,-0.0007817180594429374,-0.0006036199629306793
1690841764513019100,8.24001904296875,-0.0010945461690425873,0.00021859630942344666,-0.00023337267339229584
1690841764523059000,8.250058837890625,-0.0010242387652397156,-0.0011808947892859578,-0.00031246989965438843
1690841764533099800,8.260099853515625,0.0009348434396088123,0.0010424242354929447,0.0007553771138191223
1690841764543170000,8.270170166015625,-0.00036398041993379593,0.000769450212828815,-0.0009876620024442673
1690841764553211000,8.2802109375,-0.00017103878781199455,-0.0007897485047578812,-0.0004453808069229126
1690841764563251000,8.2902509765625,0.0008731866255402565,-0.00010931096039712429,0.0011754203587770462
1690841764573291000,8.300291015625,-0.00011870404705405235,-0.0003954059211537242,-0.0005315020680427551
1690841764583332000,8.31033203125,-0.0010425546206533909,0.0009771873010322452,0.0001582559198141098
1690841764593372200,8.3203720703125,-0.0011623194441199303,0.0006158435717225075,-0.0015392638742923737
1690841764603412000,8.330411865234375,0.00043051736429333687,0.002241437090560794,0.0020171217620372772
1690841764613452000,8.3404521484375,0.0005649775266647339,0.000004812492989003658,0.0018403604626655579
1690841764623492900,8.350492919921875,-0.0018545044586062431,-0.0018098654691129923,0.0009748339653015137
1690841764633533000,8.360532958984376,-0.0003490690141916275,0.0012135282158851624,-0.00033656321465969086
1690841764643573000,8.370572998046875,-0.0003298944793641567,0.000897144665941596,0.001408340409398079
1690841764653613000,8.380613037109375,-0.0027141268365085125,-0.0010018126340582967,0.001346362754702568
1690841764663654100,8.390654052734375,-0.0011449926532804966,0.0010461581405252218,0.0018422435969114304
1690841764673694000,8.40069384765625,0.001197383040562272,0.0008822588715702295,0.0009699463844299316
1690841764683765000,8.410764892578126,-0.0005650967359542847,0.00017385801766067743,0.000677797943353653
1690841764693805000,8.42080517578125,0.0004348629154264927,-0.0014814159367233515,-0.0010359417647123337
1690841764703845000,8.43084521484375,-0.0009846016764640808,-0.000537059037014842,-0.0005323383957147598
1690841764713886000,8.440885986328125,-0.000003030989319086075,0.0003591213608160615,-0.0009255111217498779
1690841764723899000,8.45089892578125,0.00040230248123407364,-0.0006914956029504538,0.0006971526890993118
1690841764733938700,8.460938720703124,-0.0017462517134845257,0.0007845201762393117,0.0009055342525243759
1690841764743979800,8.470979736328125,-0.0008181403391063213,-0.000550256110727787,0.0020070169121026993
1690841764754019800,8.481019775390624,0.0008972194045782089,0.003288618056103587,0.0007705073803663254
1690841764764060000,8.491059814453125,0.000639425590634346,-0.0008278300520032644,-0.00041273608803749084
1690841764774099700,8.501099609375,0.0006067566573619843,-0.0004461375065147877,-0.0006834398955106735
1690841764784140800,8.511140869140625,-0.0008752928115427494,0.000900623039342463,0.0003155115991830826
1690841764794180900,8.521180908203124,0.00015637045726180077,-0.000731377862393856,-0.0003862474113702774
1690841764804220700,8.531220703125,-0.0008023674599826336,-0.0008429642766714096,-0.00012925080955028534
1690841764814261800,8.54126171875,-0.0006016767583787441,0.0013034148141741753,0.0013848058879375458
1690841764824331800,8.551331787109374,-0.0006410912610590458,0.001219791593030095,0.0007176846265792847
1690841764834372900,8.561372802734375,-0.00028901174664497375,0.001021875999867916,0.0007585212588310242
1690841764844413000,8.571412841796874,-0.00036038411781191826,0.0012101614847779274,0.0003313496708869934
1690841764854452700,8.58145263671875,0.0006143706850707531,0.000525616342201829,-0.00029120780527591705
1690841764864492800,8.591492919921874,-0.001713764388114214,-0.00045362801756709814,-0.0012824367731809616
1690841764874534000,8.601533935546875,0.0007972170133143663,0.0010550047736614943,-0.000299111008644104
1690841764884573700,8.61157373046875,0.00023582251742482185,-0.001786587992683053,0.00042766518890857697
1690841764894613800,8.62161376953125,0.0017584515735507011,-0.0015990857500582933,-0.0004326310008764267
1690841764904654800,8.63165478515625,-0.00019471067935228348,-0.0005844212137162685,0.0004217121750116348
1690841764914695000,8.64169482421875,0.0009350916370749474,-0.00036720046773552895,-0.00008330121636390686
1690841764924734700,8.651734619140624,0.00024160416796803474,-0.00020314962603151798,-0.0004572086036205292
1690841764934774800,8.66177490234375,-0.00043990137055516243,0.001020532799884677,-0.001026734709739685
1690841764944815900,8.67181591796875,-0.0009501627646386623,-0.0015795114450156689,0.00035304948687553406
1690841764954855700,8.681855712890625,0.0010800289455801249,0.000978072639554739,-0.0006806086748838425
1690841764964926700,8.6919267578125,0.0009663118980824947,0.002180489944294095,0.0009990464895963669
1690841764974966800,8.701966796875,0.0006731282919645309,-0.001780068501830101,0.0007880553603172302
1690841764985006800,8.7120068359375,0.0003490215167403221,-0.0010668737813830376,0.0003656763583421707
1690841764995047700,8.722047607421874,0.0020107412710785866,0.0016015635337680578,-0.0033241696655750275
1690841765005087700,8.732087646484375,0.00010098842903971672,-0.00017343321815133095,-0.001300167292356491
1690841765015127800,8.7421279296875,0.000615670345723629,0.0002433259505778551,0.00000982917845249176
1690841765025169000,8.7521689453125,0.0007235286757349968,-0.0008624184411019087,-0.001710040494799614
1690841765035208700,8.762208740234374,0.0009079533629119396,0.0014834410976618528,-0.0003532040864229202
1690841765045248800,8.772248779296875,0.0006035538390278816,-0.00032431259751319885,0.000015111640095710754
1690841765055288800,8.782288818359374,-0.0006143194623291492,0.0009425247553735971,-0.00010284222662448883
1690841765065329700,8.79232958984375,0.002057896461337805,-0.0018444734159857035,0.001064687967300415
1690841765075369700,8.80236962890625,-0.0002692979760468006,0.00118997972458601,0.00016580894589424133
1690841765085409800,8.812409912109375,0.0010265964083373547,-0.00039380230009555817,0.00023531727492809296
1690841765095480600,8.82248046875,-0.00008709589019417763,-0.0006298803491517901,-0.002224436029791832
1690841765105520600,8.832520751953124,0.0005762972868978977,-0.00026049988809973,0.001073623076081276
1690841765115561700,8.842561767578125,-0.00024110078811645508,-0.001142423483543098,0.00028667040169239044
1690841765125601800,8.852601806640624,0.0014212445821613073,0.0011686678044497967,0.001575905829668045
1690841765135641900,8.862641845703125,0.0015189398545771837,0.00146931828930974,-0.0008140634745359421
1690841765145682000,8.872681884765624,-0.0004193088971078396,0.00019419670570641756,0.00003548525273799896
1690841765155722800,8.88272265625,0.0010014434810727835,-0.0004576309584081173,-0.0007950384169816971
1690841765165762800,8.8927626953125,0.0007250071503221989,-0.0015884090680629015,0.00111471489071846
1690841765175802600,8.902802734375,-0.0002482132986187935,0.0011231480166316032,0.00038492120802402496
1690841765185843700,8.91284375,-0.0009491569362580776,0.0006336589576676488,-0.0011903401464223862
1690841765195883800,8.9228837890625,0.0012984408531337976,0.0009213510202243924,0.0018631517887115479
1690841765205923800,8.932923828125,-0.0006070509552955627,-0.0019716410897672176,-0.0010929573327302933
1690841765215964000,8.9429638671875,-0.0015628212131559849,0.0008327064570039511,-0.000936947762966156
1690841765226004700,8.953004638671874,-0.0005907672457396984,0.00030300370417535305,-0.0006192326545715332
1690841765236075800,8.96307568359375,0.000991716282442212,-0.00024854461662471294,-0.0010856352746486664
1690841765246115600,8.973115478515625,-0.000998730305582285,0.0006236406043171883,0.0007743164896965027
1690841765256155600,8.98315576171875,0.00038858503103256226,0.000836873659864068,-0.0006627198308706284
1690841765266195700,8.99319580078125,-0.0006918590515851974,-0.0015029797796159983,-0.0002424735575914383
1690841765276236800,9.00323681640625,-0.00011742860078811646,0.0004915583413094282,-0.0016179736703634262
1690841765286276900,9.01327685546875,0.000811481848359108,-0.0002045920118689537,-0.0009804125875234604
1690841765296317000,9.02331689453125,0.0006395475938916206,-0.0013530836440622807,-0.0010688472539186478
1690841765306357000,9.03335693359375,0.0007812278345227242,-0.00041511841118335724,0.0006691310554742813
1690841765316397800,9.043397705078124,-0.0009193150326609612,-0.00014975061640143394,-0.0011168792843818665
1690841765326437600,9.053437744140625,0.0016383847687393427,-0.00106561160646379,-0.002406381070613861
1690841765336477700,9.063477783203124,0.0006861016154289246,0.0018672570586204529,0.0008684638887643814
1690841765346518800,9.073518798828125,0.00017184531316161156,0.0006315503269433975,0.00182374007999897
1690841765356558800,9.083558837890624,0.0005719601176679134,0.0004215278895571828,0.0016418937593698502
1690841765366599000,9.093598876953125,-0.000415273942053318,0.002029278315603733,0.0019196607172489166
1690841765376670000,9.103669921875,-0.0020180121064186096,-0.0006965933134779334,0.000613044947385788
1690841765386709800,9.113709716796874,-0.016375912353396416,-0.37040406465530396,-0.19255268573760986
1690841765396750600,9.12375048828125,-0.003813419956713915,-0.026778755709528923,-0.1355745494365692
1690841765406790700,9.133790771484374,-0.011417543515563011,-0.03582870587706566,-0.09609931707382202
1690841765416830700,9.143830810546875,-0.006736808456480503,-0.05319232493638992,-0.0502641499042511
1690841765426870800,9.153870849609374,-0.005779668688774109,-0.05162052810192108,-0.0032657478004693985
1690841765436911900,9.163911865234375,0.0032529854215681553,0.004557490348815918,0.06172952800989151
1690841765446952000,9.173951904296874,0.010016349144279957,-0.023437125608325005,0.05782853066921234
1690841765456992000,9.183991943359375,0.004416184965521097,-0.01595570705831051,0.051562510430812836
1690841765467032800,9.19403271484375,0.0004781684838235378,-0.028939949348568916,0.058550912886857986
1690841765477072600,9.20407275390625,-0.0009972224943339825,-0.005712657235562801,0.04552645981311798
1690841765487112700,9.21411279296875,-0.0010914984159171581,0.01617586426436901,0.035492733120918274
1690841765497152800,9.22415283203125,0.00079684192314744,0.038498200476169586,0.028366560116410255
1690841765507193900,9.23419384765625,-0.00012274784967303276,0.055942174047231674,0.020726483315229416
1690841765517264000,9.244263916015624,-0.001998686231672764,0.07009942829608917,0.011097343638539314
1690841765527305000,9.254304931640625,-0.0009661787189543247,0.07092207670211792,0.0036266446113586426
1690841765537344800,9.2643447265625,0.0011196311097592115,0.06622008979320526,-0.0021979957818984985
1690841765547384800,9.274384765625,0.0036504329182207584,0.05538235604763031,-0.00569925457239151
1690841765557425700,9.28442578125,0.0029766778461635113,0.035212740302085876,-0.009654907509684563
1690841765567465700,9.2944658203125,0.004233157262206078,0.01535275112837553,-0.00927727110683918
1690841765577505800,9.304505859375,0.002548736287280917,-0.00819320883601904,-0.010639289394021034
1690841765587545900,9.3145458984375,0.001007298706099391,-0.028780775144696236,-0.010387888178229332
1690841765597587000,9.3245869140625,0.0004930086433887482,-0.04445144534111023,-0.009511109441518784
1690841765607626800,9.334626708984375,-0.0030987965874373913,-0.05613766238093376,-0.009401122108101845
1690841765617666800,9.344666748046874,-0.004084347747266293,-0.05752391740679741,-0.009784221649169922
1690841765627707600,9.354707763671875,-0.0034590372815728188,-0.05188547074794769,-0.010750416666269302
1690841765637747700,9.364747802734374,-0.004090380854904652,-0.04483658820390701,-0.014640679582953453
1690841765647787800,9.374787841796875,-0.003483979031443596,-0.032269664108753204,-0.015189560130238533
1690841765657858800,9.38485888671875,-0.0019949222914874554,-0.01763751171529293,-0.01858472265303135
1690841765667899000,9.39489892578125,0.001070642378181219,-0.0026793351862579584,-0.01846727915108204
1690841765677940000,9.40493994140625,0.001902230316773057,0.013463634066283703,-0.017958642914891243
1690841765687979800,9.414979736328124,0.003222891828045249,0.0236401055008173,-0.017144514247775078
1690841765698019800,9.425019775390625,0.0022400820162147284,0.030087586492300034,-0.012838514521718025
1690841765708060000,9.435059814453124,0.00010529207065701485,0.03603788837790489,-0.007295677438378334
1690841765718100500,9.4451005859375,0.00231012306176126,0.035036008805036545,-0.0008050203323364258
1690841765728140500,9.455140625,0.0019940058700740337,0.03018346056342125,0.003786003217101097
1690841765738180600,9.4651806640625,-0.0007637781091034412,0.020699918270111084,0.011900020763278008
1690841765748221700,9.4752216796875,0.0003132037818431854,0.01442497968673706,0.017162960022687912
1690841765758261800,9.48526171875,-0.001078472938388586,0.005083434283733368,0.02170373499393463
1690841765768301800,9.4953017578125,0.0007284819148480892,-0.006902921479195356,0.023781798779964447
1690841765778341600,9.505341552734375,-0.0016758646816015244,-0.01627201959490776,0.024006381630897522
1690841765788382500,9.515382568359374,-0.0003810357302427292,-0.01916607655584812,0.024395469576120377
1690841765798452700,9.52545263671875,-0.0008543818257749081,-0.019692616537213326,0.021745292469859123
1690841765808493600,9.53549365234375,-0.001172896008938551,-0.015773775056004524,0.01817772164940834
1690841765818533600,9.54553369140625,-0.0009719226509332657,-0.015207359567284584,0.012141603045165539
1690841765828573700,9.55557373046875,0.001151948468759656,-0.007900443859398365,0.003261292353272438
1690841765838614800,9.56561474609375,-0.0012156018055975437,-0.0014065919676795602,-0.0009848512709140778
1690841765848654600,9.575654541015625,-0.00043369783088564873,0.0020368751138448715,-0.009798049926757812
1690841765858694700,9.585694580078124,0.0005150157958269119,0.009065262973308563,-0.015048142522573471
1690841765868734700,9.595734619140625,-0.0012053865939378738,0.012018175795674324,-0.018821842968463898
1690841765878775600,9.605775634765624,-0.0009550065733492374,0.013621226884424686,-0.022113312035799026
1690841765888815600,9.615815673828125,0.0003499425947666168,0.013839339837431908,-0.02171037718653679
1690841765898855700,9.625855712890624,-0.0009085391648113728,0.010988292284309864,-0.021176405251026154
1690841765908896800,9.635896728515625,0.001386572839692235,0.00512800645083189,-0.018899403512477875
1690841765918936800,9.645936767578124,-0.00002400018274784088,0.0005513991927728057,-0.013229472562670708
1690841765928976600,9.6559765625,0.000058025121688842773,-0.0032465350814163685,-0.010158315300941467
1690841765939047700,9.666047607421875,0.0006021088920533657,-0.009518811479210854,-0.0055467840284109116
1690841765949087700,9.676087646484374,0.0005885269492864609,-0.011730034835636616,-0.0004372447729110718
1690841765959127600,9.68612744140625,-0.002454776782542467,-0.013990281149744987,0.0021246448159217834
1690841765969168600,9.696168701171874,-0.000357004813849926,-0.012754308991134167,0.005550801753997803
1690841765979208700,9.706208740234375,-0.001941055990755558,-0.012230290099978447,0.00845527183264494
1690841765989248500,9.71624853515625,-0.0018598297610878944,-0.009289627894759178,0.010795124806463718
1690841765999289600,9.72628955078125,-0.00012424448505043983,-0.0039357831701636314,0.010972730815410614
1690841766009329700,9.73632958984375,-0.000858744140714407,0.0030408999882638454,0.01146248634904623
1690841766019369700,9.74636962890625,0.0016756891272962093,0.007235601544380188,0.010368135757744312
1690841766029409500,9.756409423828124,0.0011877981014549732,0.01092168316245079,0.008951600641012192
1690841766039450600,9.76645068359375,0.00031454768031835556,0.014294576831161976,0.007721220143139362
1690841766049490700,9.77649072265625,-0.00004497915506362915,0.016128694638609886,0.005239685997366905
1690841766059530800,9.78653076171875,0.0016867110971361399,0.013814439065754414,0.0034612957388162613
1690841766069571800,9.79657177734375,0.0005687158554792404,0.009440463036298752,0.0012261047959327698
1690841766079641600,9.8066416015625,0.0006407946348190308,0.006450232118368149,0.0027893055230379105
1690841766089682700,9.8166826171875,0.000046377070248126984,0.0023777263704687357,0.0008209627121686935
1690841766099722500,9.826722412109374,-0.00034691253677010536,0.0012143931817263365,-0.0025864094495773315
1690841766109762600,9.836762451171875,0.0005503064021468163,-0.005242973566055298,-0.0014798659831285477
1690841766119803600,9.8468037109375,-0.0011861477978527546,-0.008599001914262772,-0.002274971455335617
1690841766129843700,9.85684375,-0.0003826720640063286,-0.008146530948579311,-0.0027125291526317596
1690841766139883500,9.866883544921874,-0.00034128595143556595,-0.01337750069797039,-0.005009952932596207
1690841766149923600,9.876923583984375,-0.0009117349982261658,-0.010708214715123177,-0.005772948265075684
1690841766159964700,9.886964599609374,-0.0002139173448085785,-0.009804937057197094,-0.004631653428077698
1690841766170004500,9.89700439453125,-0.0007502781227231026,-0.006857084576040506,-0.004952032119035721
1690841766180044500,9.90704443359375,-0.0003703143447637558,-0.002106470987200737,-0.0070259664207696915
1690841766190085600,9.917085693359375,0.0018132112454622984,-0.002630048431456089,-0.007573777809739113
1690841766200125700,9.927125732421874,-0.0007163872942328453,0.0031009421218186617,-0.005668025463819504
1690841766210165800,9.937165771484375,0.0008751179557293653,0.00473878625780344,-0.0030866246670484543
1690841766220236500,9.947236572265625,0.0009366914164274931,0.004785075318068266,-0.0041419100016355515
1690841766230276600,9.957276611328124,-0.002096382901072502,0.006326246540993452,-0.0015397369861602783
1690841766240316700,9.967316650390625,0.0017383447848260403,0.005116891581565142,0.002555951476097107
1690841766250357500,9.977357421875,-0.0004435833543539047,0.00646232021972537,0.002432648092508316
1690841766260397600,9.9873974609375,0.001596163958311081,0.0022044233046472073,0.004771633073687553
1690841766270437600,9.997437744140624,0.0008803063537925482,0.002772209234535694,0.0060355691239237785
1690841766280478700,10.007478759765625,-0.0011280612088739872,0.0011511078337207437,0.007076004520058632
1690841766290518500,10.0175185546875,0.00012202654033899307,-0.0011626464547589421,0.006756158545613289
1690841766300558600,10.02755859375,-0.00026480061933398247,-0.002853910904377699,0.008123619481921196
1690841766310598700,10.0375986328125,0.0006143087521195412,-0.0016419064486399293,0.006650892086327076
1690841766320639500,10.047639404296875,-0.0002432195469737053,-0.0019717449322342873,0.006935320794582367
1690841766330679600,10.057679443359374,-0.0001689177006483078,0.00044507370330393314,0.0032476410269737244
1690841766340719600,10.0677197265625,-0.0010569081641733646,-0.002775372937321663,0.0029434282332658768
1690841766350760700,10.0777607421875,-0.0008912594057619572,-0.0017226251075044274,0.0015721675008535385
1690841766360830500,10.08783056640625,0.0004714522510766983,-0.0006375379161909223,-0.00040255486965179443
1690841766370871600,10.09787158203125,-0.0005916818045079708,-0.0001150256721302867,-0.003929378464818001
1690841766380911600,10.10791162109375,0.0006781211122870445,0.0015496256528422236,-0.00527181476354599
1690841766390951700,10.11795166015625,-0.0006534592248499393,0.0016388415824621916,-0.0051809996366500854
1690841766400992500,10.127992431640624,0.0008694792632013559,0.0028412588872015476,-0.006342405453324318
1690841766411032600,10.138032470703125,0.0006268653087317944,-0.0009042109595611691,-0.004656091332435608
1690841766421072600,10.14807275390625,0.0005079666152596474,-0.0002653445117175579,-0.006618678569793701
1690841766431112400,10.158112548828125,-0.0008510444313287735,0.0007450587581843138,-0.006221599876880646
1690841766441153500,10.168153564453124,0.0009251297451555729,-0.0013780257431790233,-0.0025378763675689697
1690841766451193600,10.178193603515625,-0.0005537234246730804,-0.0036310600116848946,-0.003182360902428627
1690841766461233700,10.188233642578124,-0.0006695054471492767,-0.002769656013697386,-0.0015871301293373108
1690841766471273700,10.198273681640625,-0.0004748282954096794,-0.004587796051055193,0.0006299521774053574
1690841766481314600,10.208314453125,-0.000366763211786747,-0.0031281919218599796,0.0013533979654312134
1690841766491354600,10.218354736328125,0.0003882432356476784,-0.003560955636203289,0.0009861476719379425
1690841766501425700,10.22842578125,0.0005130521021783352,-0.0020134570077061653,0.0018059983849525452
1690841766511465500,10.238465576171874,-0.001012672670185566,0.0018161686602979898,0.0021090656518936157
1690841766521505500,10.248505615234375,0.00041322875767946243,0.0010833311825990677,0.0022378340363502502
1690841766531546600,10.258546630859374,-0.00011301226913928986,0.004470605868846178,0.0037020407617092133
1690841766541586700,10.268586669921875,-0.00016579730436205864,0.003021313576027751,0.0023488886654376984
1690841766551626800,10.278626708984374,0.00013673771172761917,0.0035142647102475166,0.0012324899435043335
1690841766561667600,10.28866748046875,0.0000513000413775444,0.003770829178392887,0.0019394978880882263
1690841766571707600,10.298707763671874,-0.0006754766218364239,0.0038374082650989294,0.004083340987563133
1690841766581747500,10.30874755859375,0.0000388328917324543,0.0014798811171203852,0.001013580709695816
1690841766591787500,10.31878759765625,0.00036214059218764305,0.0007831982802599669,-0.000822136178612709
1690841766601828600,10.32882861328125,-0.0006978297606110573,0.0019250224577262998,0.00013234466314315796
1690841766611868700,10.33886865234375,0.0001663663424551487,-0.0040465835481882095,0.0009739045053720474
1690841766621908700,10.34890869140625,-0.0018365639261901379,-0.003911688458174467,0.0018189214169979095
1690841766631949600,10.358949462890624,-0.0003625042736530304,-0.0030469601042568684,0.000029809772968292236
1690841766642019600,10.36901953125,-0.001117081381380558,-0.005581350065767765,-0.0015590395778417587
1690841766652060400,10.379060302734375,0.00014392519369721413,-0.004901179112493992,-0.002203524112701416
1690841766662100500,10.3891005859375,-0.0000843266025185585,-0.0006408627377822995,-0.0039040781557559967
1690841766672140500,10.399140625,-0.0011807498522102833,0.0020377447362989187,-0.0035040713846683502
1690841766682180600,10.4091806640625,-0.0010717026889324188,0.001534802489914,-0.002096857875585556
1690841766692221700,10.4192216796875,0.0009826598688960075,0.0030117915011942387,-0.003611929714679718
1690841766702261800,10.42926171875,0.0006650746800005436,0.002538881031796336,-0.0020543765276670456
1690841766712301800,10.4393017578125,-0.0005762246437370777,0.00005761394277215004,-0.0008279904723167419
1690841766722340900,10.4493408203125,0.0005416916683316231,-0.00354950362816453,-0.001090051606297493
1690841766732381000,10.459380859375,-0.0008876267820596695,-0.004291993100196123,0.0006700307130813599
1690841766742420700,10.469420654296876,-0.0015086731873452663,-0.0021615982986986637,0.001966197043657303
1690841766752460800,10.479460693359375,-0.00029507046565413475,-0.001614584936760366,0.0007142461836338043
1690841766762501600,10.489501708984376,0.00012300163507461548,-0.0005984496092423797,0.0006457995623350143
1690841766772541700,10.499541748046875,-0.0008115014061331749,0.0006351264892145991,-0.0011784657835960388
1690841766782612700,10.50961279296875,-0.00019216490909457207,0.0014119019033387303,0.0011982731521129608
1690841766792652800,10.51965283203125,0.0005274210125207901,0.002038809936493635,0.0027202684432268143
1690841766802692900,10.52969287109375,0.00019132951274514198,0.002188044833019376,0.0015388280153274536
1690841766812734000,10.53973388671875,-0.00035568373277783394,0.0026980401016771793,0.002454688772559166
1690841766822773800,10.549773681640625,0.0007877021562308073,0.0030158197041600943,0.0007549170404672623
1690841766832813800,10.559813720703126,0.0008992885705083609,0.0011910217581316829,0.002128841355443001
1690841766842854700,10.569854736328125,0.00021033640950918198,-0.0009240939980372787,0.002161538228392601
1690841766852894700,10.579894775390626,0.0005261874757707119,-0.0018287700368091464,0.000833950936794281
1690841766862934800,10.589934814453125,-0.000012964010238647461,-0.0029702987521886826,0.000053180381655693054
1690841766872974800,10.599974853515626,-0.0008191028609871864,-0.002614500466734171,0.000299256294965744
1690841766883016000,10.610015869140625,-0.00047813961282372475,-0.0012924004113301635,-0.003020975738763809
1690841766893055700,10.6200556640625,-0.0005212826654314995,-0.0014846805715933442,-0.0001759212464094162
1690841766903095800,10.630095703125,0.0005876272916793823,0.0007656214293092489,-0.0007691383361816406
1690841766913166800,10.640166748046875,-0.0004728431813418865,0.003107605269178748,-0.0021174978464841843
1690841766923207000,10.65020703125,-0.0004933490417897701,0.00045941805001348257,-0.002170626074075699
1690841766933247700,10.660247802734375,-0.000050731468945741653,0.0016362689202651381,0.0004296842962503433
1690841766943287800,10.670287841796876,0.0013454502914100885,-0.00032068195287138224,-0.0014498420059680939
1690841766953327900,10.680327880859375,0.0017217551358044147,-0.0004823358030989766,-0.0006668735295534134
1690841766963367700,10.69036767578125,-0.00036214105784893036,-0.002824690192937851,-0.0032559335231781006
1690841766973408800,10.70040869140625,0.00045678112655878067,0.0020747273229062557,-0.00090835802257061
1690841766983448800,10.71044873046875,-0.000496856402605772,-0.0013609506422653794,-0.00039875879883766174
1690841766993489000,10.720489013671875,-0.0007903366349637508,-0.0013793263351544738,-0.0032312963157892227
1690841767003529700,10.73052978515625,-0.00006154971197247505,0.00018841831479221582,0.0000745914876461029
1690841767013569800,10.74056982421875,-0.00026022177189588547,0.0012936301063746214,0.0023201685398817062
1690841767023609900,10.75060986328125,-0.00009875698015093803,0.00022975541651248932,0.0015903562307357788
1690841767033649700,10.760649658203125,-0.0008377842605113983,-0.00013483117800205946,0.0016601309180259705
1690841767043690800,10.770690673828126,0.0006065643392503262,0.002671142341569066,0.0018916968256235123
1690841767053761800,10.78076171875,0.0012686261907219887,0.0021635438315570354,0.0011390876024961472
1690841767063801900,10.7908017578125,0.00019578589126467705,0.0034753824584186077,0.00223623588681221
1690841767073842000,10.800842041015626,0.002099679782986641,-0.002475184854120016,-0.000387510284781456
1690841767083881700,10.8108818359375,0.001992789562791586,0.00005305639933794737,0.000704590231180191
1690841767093922800,10.8209228515625,0.0005549490451812744,-0.0010516227921471,0.001973319798707962
1690841767103963000,10.830962890625,-0.0014719292521476746,-0.0023990683257579803,0.0012022536247968674
1690841767114002700,10.841002685546876,0.00038748979568481445,-0.00029224122408777475,-0.0004430469125509262
1690841767124042800,10.851042724609375,0.0007617678493261337,0.0019200319657102227,0.000019548460841178894
1690841767134083800,10.861083740234376,-0.0003809947520494461,0.0037123393267393112,0.0011106468737125397
1690841767144124000,10.8711240234375,0.00016458192840218544,-0.0004653296200558543,-0.0005777236074209213
1690841767154163700,10.881163818359376,0.000016244128346443176,0.0002654418349266052,-0.0010586902499198914
1690841767164204800,10.891204833984375,-0.0010707168839871883,0.0018449006602168083,-0.0014889240264892578
1690841767174244900,10.901244873046876,0.0016507674008607864,0.00017909333109855652,-0.00294593907892704
1690841767184284700,10.91128466796875,-0.000689071137458086,-0.001910360879264772,-0.0017106309533119202
1690841767194355700,10.921355712890625,-0.00013380171731114388,-0.002319155726581812,-0.0013284683227539062
1690841767204395800,10.931395751953126,-0.0012162122875452042,0.000870544696226716,-0.001446649432182312
1690841767214436900,10.941436767578125,-0.000694232527166605,-0.0007364066550508142,-0.0013329330831766129
1690841767224477000,10.951476806640626,0.0008345851674675941,-0.0017856921767815948,0.00010650604963302612
1690841767234516700,10.961516845703125,0.0009938422590494156,-0.00019232288468629122,-0.0017917957156896591
1690841767244556800,10.971556884765626,-0.0005892440676689148,-0.0019237779779359698,0.0007422082126140594
1690841767254598000,10.981597900390625,-0.0003194659948348999,0.000036042300052940845,-0.0014690142124891281
1690841767264637700,10.9916376953125,0.0007672612555325031,0.00211235205642879,0.0005930941551923752
1690841767274677800,11.001677734375,-0.0011470187455415726,0.0002454762579873204,-0.0005272980779409409
1690841767284718800,11.01171875,-0.0006040683947503567,0.0016097205225378275,-0.0022506583482027054
1690841767294759000,11.021759033203125,-0.0009097992442548275,0.0017764343647286296,-0.00041946955025196075
1690841767304798700,11.031798828125,0.000622753519564867,-0.0002106555039063096,-0.0011495072394609451
1690841767314838800,11.0418388671875,-0.000731464009732008,-0.0005858949152752757,0.0003810115158557892
1690841767324880000,11.0518798828125,-0.0009801019914448261,-0.0008038729429244995,-0.00010211393237113953
1690841767334949600,11.06194970703125,-0.0016237879171967506,0.0011175977997481823,0.0016217511147260666
1690841767344990700,11.07199072265625,-0.0003081648610532284,0.0001652758801355958,0.0012410376220941544
1690841767355030800,11.08203076171875,-0.0020637204870581627,-0.0007631020853295922,0.001246364787220955
1690841767365070800,11.09207080078125,-0.00103088840842247,-0.0006534664425998926,0.0014064684510231018
1690841767375112000,11.10211181640625,-0.0009432705119252205,-0.0003352188505232334,0.00020032189786434174
1690841767385151700,11.11215185546875,0.0006007598713040352,-0.000129790510982275,-0.0003568418323993683
1690841767395191800,11.12219189453125,-0.0005848794244229794,0.0015799589455127716,-0.0016178488731384277
1690841767405231600,11.132231689453125,-0.0002727974206209183,0.0003334955545142293,-0.0018799100071191788
1690841767415272700,11.142272705078126,-0.0020861439406871796,-0.0006825003074482083,0.0000777803361415863
1690841767425312800,11.152312744140625,0.0005037533119320869,0.0011561937863007188,0.0003977920860052109
1690841767435352800,11.162352783203126,0.0008425072301179171,0.00014445895794779062,-0.001041380688548088
1690841767445394000,11.172393798828125,-0.00024712271988391876,-0.0008168204221874475,0.0006099417805671692
1690841767455433700,11.182433837890626,-0.0012809615582227707,-0.0016048497054725885,0.0007715951651334763
1690841767465473800,11.192473876953125,0.000760568305850029,0.0011081332340836525,0.00037779100239276886
1690841767475544600,11.202544677734375,0.00049638282507658,0.00019813119433820248,-0.00039319321513175964
1690841767485584600,11.212584716796876,-0.0001596342772245407,-0.0029939033556729555,-0.0013213343918323517
1690841767495625700,11.222625732421875,-0.0007636388763785362,-0.0011523275170475245,-0.001474199816584587
1690841767505665800,11.232665771484376,-0.0008112601935863495,0.0009298332734033465,-0.00031280145049095154
1690841767515705900,11.242705810546875,-0.0005646515637636185,0.0026949765160679817,0.0009205080568790436
1690841767525746000,11.252745849609376,-0.0003528883680701256,0.0006573362043127418,0.00028688088059425354
1690841767535786800,11.262786865234375,0.0004748217761516571,-0.00042044511064887047,0.0025063585489988327
1690841767545826600,11.27282666015625,-0.00024727731943130493,-0.00363848265260458,0.0007034484297037125
1690841767555866600,11.28286669921875,-0.001025985460728407,-0.0002261744812130928,0.0008445959538221359
1690841767565906700,11.29290673828125,0.00026926351711153984,0.0011773030273616314,0.00027020834386348724
1690841767575947800,11.30294775390625,0.0004093456082046032,0.0010555966291576624,0.0009527765214443207
1690841767585987800,11.31298779296875,-0.0005857609212398529,0.0008189314976334572,-0.0006780717521905899
1690841767596028000,11.32302783203125,-0.0005567325279116631,-0.00031264557037502527,-0.00034810788929462433
1690841767606068700,11.33306884765625,0.0017889486625790596,0.0020365018863230944,-0.000007331371307373047
1690841767616138800,11.343138671875,0.0009079750161617994,-0.00032012921292334795,-0.0016912482678890228
1690841767626179600,11.3531796875,-0.0007068580016493797,-0.0007874681614339352,-0.0011936966329813004
1690841767636219600,11.3632197265625,-0.0018445602618157864,-0.0021973454859107733,0.0006281733512878418
1690841767646259700,11.373259765625,-0.00034427037462592125,-0.0012203914811834693,-0.00026673078536987305
1690841767656300800,11.38330078125,-0.000028153415769338608,-0.0007053361041471362,0.0004214290529489517
1690841767666340900,11.3933408203125,-0.00040750810876488686,-0.0002664470812305808,0.0006138645112514496
1690841767676381000,11.403380859375,0.0012159550096839666,-0.00044913997408002615,-0.00022423267364501953
1690841767686420700,11.413420654296875,0.0017612497322261333,0.00008838134817779064,-0.0006106849759817123
1690841767696461600,11.423461669921876,0.0007774783298373222,0.0004396523581817746,0.000564035028219223
1690841767706501600,11.433501708984375,-0.0002948325127363205,-0.0008059883257374167,-0.001608116552233696
1690841767716541700,11.443541748046876,-0.00045222509652376175,-0.0003117056330665946,0.00009417533874511719
1690841767726580700,11.453580810546875,-0.0007330789230763912,-0.0018084339099004865,-0.000571100041270256
1690841767736620800,11.463620849609375,-0.0008025872521102428,-0.0007146737771108747,0.0001431591808795929
1690841767746660900,11.473660888671875,-0.0005541122518479824,0.0015612880233675241,0.0015087183564901352
1690841767756732000,11.48373193359375,-0.000398050993680954,0.00022304966114461422,0.0022735781967639923
1690841767766771700,11.493771728515625,0.00034117838367819786,0.0011199843138456345,-0.0010942555963993073
1690841767776811800,11.503811767578124,0.0005457093939185143,0.00008241669274866581,-0.0005270019173622131
1690841767786852900,11.513852783203125,-0.0006348434835672379,-0.0008493021596223116,0.0007244497537612915
1690841767796893000,11.523892822265625,-0.0010308558121323586,0.002094289753586054,0.0012634731829166412
1690841767806933000,11.53393310546875,-0.0013087298721075058,-0.002947894623503089,0.0004387758672237396
1690841767816973800,11.543973876953125,0.00010993611067533493,0.0018812153721228242,0.001722419634461403
1690841767827014000,11.554013916015625,0.00011943653225898743,-0.0030293958261609077,-0.00059543177485466
1690841767837053700,11.5640537109375,0.0008233101107180119,-0.0017745144432410598,0.0006120447069406509
1690841767847093800,11.57409375,0.0017240308225154877,-0.00006729247979819775,0.0006583184003829956
1690841767857134800,11.584134765625,0.0019522637594491243,0.00040754920337349176,0.0021334439516067505
1690841767867175000,11.5941748046875,0.001768940594047308,-0.0006037227576598525,-0.00016658566892147064
1690841767877215000,11.604215087890625,0.0007388298399746418,0.0005140058929100633,-0.001145828515291214
1690841767887255800,11.614255859375,0.0000483999028801918,0.0009741431567817926,0.00039210543036460876
1690841767897326000,11.624326171875,-0.000014450866729021072,0.0004923773230984807,-0.001772511750459671
1690841767907367000,11.634366943359375,-0.00013933004811406136,0.0011182473972439766,0.0017795618623495102
1690841767917406700,11.64440673828125,0.0005834517069160938,-0.001308691455051303,-0.0021478012204170227
1690841767927446800,11.65444677734375,-0.0005321493372321129,-0.0008300157496705651,0.0012677423655986786
1690841767937488000,11.66448779296875,-0.00013374025002121925,-0.001002588658593595,0.0020792074501514435
1690841767947528000,11.67452783203125,0.0004601390101015568,0.00015607220120728016,-0.0006819777190685272
1690841767957568000,11.684568115234375,-0.0017867698334157467,0.0006215928588062525,0.0009265709668397903
1690841767967608000,11.694608154296875,-0.00015910668298602104,-0.0006481276359409094,-0.0006360001862049103
1690841767977649000,11.70464892578125,-0.000183075200766325,0.002125821076333523,-0.000026669353246688843
1690841767987688700,11.714688720703125,0.00011717621237039566,-0.00019115186296403408,0.00048578158020973206
1690841767997728800,11.724728759765625,0.0004466092213988304,0.0010240485426038504,0.000042632222175598145
1690841768007769900,11.734769775390625,0.0009527369402348995,-0.0006549182580783963,0.00013675354421138763
1690841768017810000,11.744809814453125,0.000555393286049366,-0.0019689216278493404,-0.00020173564553260803
