time,seconds_elapsed,z,y,x
1690839909229399800,0.20639990234375,0.3162269268423319,0.20886647618934512,-0.009861076075257732
1690839909239441000,0.21644091796875,0.31240999890267845,0.20374849385479463,-0.01787486661628354
1690839909249481000,0.22648095703125,0.2927531122744083,0.1868534366226755,-0.01954025167839136
1690839909259521000,0.23652099609375,0.2901660183906555,0.15962565808240323,-0.013940988632920197
1690839909269562000,0.24656201171875,0.26244097611904144,0.13885775973862036,-0.016844674185174515
1690839909279602000,0.256601806640625,0.23216215771138668,0.10579795057661831,0.004134725184552371
1690839909289642000,0.26664208984375,0.22326573455035686,0.07028147811065427,0.01044475314815063
1690839909299681800,0.276681884765625,0.20910919890403745,0.038866431347839535,0.010343375132908113
1690839909309723000,0.286722900390625,0.1998310829490423,-0.23626414967011658,0.009736728176381439
1690839909319763000,0.296762939453125,0.18404431575238703,-0.27195944016855206,0.006342784022307023
1690839909329803000,0.306802978515625,0.17588614373803138,-0.2836614588022232,-0.0017304816209943964
1690839909339844000,0.316843994140625,0.18902093512117862,-0.27005736940689384,-0.007034035955788567
1690839909349884000,0.3268837890625,0.18753391143381595,-0.23412176734656096,-0.010941692652506753
1690839909359923700,0.336923828125,0.20587796189785001,-0.19210611472018063,-0.008700615177850705
1690839909369963800,0.3469638671875,0.21634674894213676,-0.14302388470843433,-0.0027086561704985795
1690839909380034800,0.357034912109375,0.22833295481204985,-0.08680511734765023,-0.0006909185733413323
1690839909390075000,0.367074951171875,0.22405483910143373,-0.04017088327622041,0.004814355178899132
1690839909400116000,0.377115966796875,0.2537146488279104,0.009609649464301765,0.004255077328323386
1690839909410155800,0.38715576171875,0.25743746874332424,0.0424856995572336,0.007071070897392928
1690839909420195800,0.39719580078125,0.26272446923553944,0.0761682437274605,0.0023878541177604347
1690839909430237000,0.40723681640625,0.2652221312701702,0.0923136881686747,0.010680767560843378
1690839909440276700,0.41727685546875,0.25926702225804327,0.0887782440515235,0.007074655660544522
1690839909450316800,0.42731689453125,0.2605810274660587,0.08349325285330414,0.0024639355782535856
1690839909460356900,0.43735693359375,0.2651350375086069,0.06734726042281836,0.009524151721491944
1690839909470398000,0.44739794921875,0.2445166123718023,0.04590829441705718,0.009650091072544454
1690839909480438000,0.45743798828125,0.22251696200966833,0.019950133953802286,0.014723257017834111
1690839909490477800,0.467477783203125,0.2314724218815565,-0.007465696238167584,0.011181223329692147
1690839909500519000,0.477518798828125,0.22184417731463907,-0.023814335101284084,0.0027442663399968293
1690839909510558700,0.487558837890625,0.2106979294002056,-0.04638917326917871,-0.0027641674837097525
1690839909520598800,0.497598876953125,0.1943026749163866,-0.060636510737799104,-0.008113812282821164
1690839909530669800,0.507669921875,0.19436054258346555,-0.0681590151971206,0.0019261685898760332
1690839909540710000,0.5177099609375,0.19755495471060275,-0.07066409335322678,-0.004542401803145185
1690839909550751000,0.5277509765625,0.19342530755996704,-0.06687493020333349,-0.006837691399781033
1690839909560790800,0.537790771484375,0.21909166373610495,-0.05874392019053921,0.0025629138571443034
1690839909570830800,0.547830810546875,0.2178478011548519,-0.034871333829686046,0.010022408683388493
1690839909580871000,0.557870849609375,0.2335375377178192,-0.01442528785141185,0.012764122306695207
1690839909590911700,0.567911865234375,0.22486381739675998,-0.002406841946020722,0.009499923745822161
1690839909600951800,0.577951904296875,0.2287836211889982,0.005251709983125329,0.009950517057534306
1690839909610991900,0.587991943359375,0.24663258161246776,0.023281543398834762,-0.0019733824322000146
1690839909621033000,0.598032958984375,0.24234862068295476,0.04029217156833038,-0.008479330260120332
1690839909631073000,0.608072998046875,0.2293891858667135,0.039521881315577774,-0.004917103167320602
1690839909641112800,0.61811279296875,0.23109482074081897,0.04547594914808869,0.001828019144758582
1690839909651153000,0.62815283203125,0.23278876517713068,0.039710334826074535,0.002666954186931252
1690839909661193700,0.63819384765625,0.222801039648056,0.03066604589326307,-0.0001244026978034526
1690839909671233800,0.64823388671875,0.23166122245192527,0.015313541928026824,-0.001270714055560529
1690839909681304800,0.658304931640625,0.22720015138983726,0.0038351759823970493,-0.006366548490384593
1690839909691345000,0.668344970703125,0.2156909153819084,-0.009628390697389841,-0.01038651558831334
1690839909701384700,0.678384765625,0.2095522664964199,-0.022546781117189673,-0.0076986099448986345
1690839909711425800,0.68842578125,0.21732114693224427,-0.03080189243368804,-0.004057586561422795
1690839909721465900,0.6984658203125,0.17674129926264284,-0.03707516401689499,0.0006272239536745473
1690839909731506000,0.708505859375,0.21127134537398815,-0.040595045238733286,-0.0010527787222526968
1690839909741546000,0.7185458984375,0.1866869392156601,-0.034434166255127636,-0.0032031982217915356
1690839909751586800,0.7285869140625,0.19293080204129218,-0.027420853426959366,-0.011564573791204019
1690839909761627000,0.738626953125,0.2024678611934185,-0.0211954395734705,-0.009180203971895388
1690839909771667000,0.7486669921875,0.20977321577072142,-0.020464805477671325,-0.011452245123684406
1690839909781708000,0.7587080078125,0.2254728892058134,-0.009035228843521327,-0.012401152479508891
1690839909791747800,0.768747802734375,0.2203828725904226,0.006786390470806509,-0.002394279291969724
1690839909801788000,0.778787841796875,0.23341245003342628,0.010943711079657078,-0.0011718659241218119
1690839909811828000,0.788827880859375,0.22460428967773913,0.014442330317758023,0.009262196866655721
1690839909821868800,0.798868896484375,0.22986674025058745,0.020072755686473102,0.013076133698201738
1690839909831939000,0.80893896484375,0.20714988152980804,0.02950967893237248,0.010892885074717923
1690839909841980000,0.81897998046875,0.2207937914788723,0.01946187551282346,0.0025940259480383247
1690839909852019700,0.829019775390625,0.20974632776379584,0.02091209258744493,0.007410221457574516
1690839909862059800,0.839059814453125,0.21784546306729316,0.009184007930755614,-0.012460449485271237
1690839909872100900,0.849100830078125,0.22204642188847062,0.002099200768955052,-0.011871118989726528
1690839909882141000,0.859140869140625,0.2061918501526117,-0.0057564629011787475,-0.02401012253486551
1690839909892181000,0.869180908203125,0.21636896077394485,-0.01600778953619301,-0.016750721424561923
1690839909902221000,0.879220947265625,0.21217735430300236,-0.030244824806507677,-0.00040241592158563435
1690839909912262000,0.889261962890625,0.20648177300989626,-0.02760304159345105,-0.006017890316341072
1690839909922302000,0.899302001953125,0.1976443865597248,-0.01990810317667201,-0.0006813196279341355
1690839909932341800,0.909341796875,0.20062194106578826,-0.02057588290302083,0.0022233660047408193
1690839909942382800,0.9193828125,0.20224632739722728,-0.014603493962530046,0.008469009795505553
1690839909952423000,0.9294228515625,0.19923194801211355,0.004207406828273088,0.0030684111272916196
1690839909962463000,0.939462890625,0.1932265701174736,0.00003958309171721339,0.0037621746782679107
1690839909972503000,0.9495029296875,0.20099311246573923,-0.012709990099817515,-0.004561238934355788
1690839909982574600,0.95957470703125,0.21250936273634433,-0.00370583224799484,-0.021136471361271104
1690839909992615700,0.96961572265625,0.21460604275465012,0.0017754669736139476,-0.014568650978012009
1690839910002655700,0.97965576171875,0.21865268779695032,-0.003980667134001851,-0.021197887258883566
1690839910012695800,0.98969580078125,0.22106559415757654,0.00007549465531483292,-0.018186115389387122
1690839910022736000,0.99973583984375,0.2116571298211813,0.0005724295930936932,-0.00246269118594937
1690839910032777000,1.00977685546875,0.2133200945973396,0.006041819181200117,0.012037662062514573
1690839910042816800,1.019816650390625,0.20241466970145702,0.014976820786949245,0.015479199084825812
1690839910052856600,1.029856689453125,0.19914017807543277,0.0012255414732731877,0.010218506644223815
1690839910062897700,1.039897705078125,0.19630524691045284,-0.004620499407500029,0.004606553080538287
1690839910072937700,1.049937744140625,0.2063286282747984,-0.002858549502585083,-0.0031723235929151995
1690839910082977800,1.059977783203125,0.19989070418179034,-0.006067775606364011,-0.01754712793268263
1690839910093017900,1.070017822265625,0.19494974064826964,-0.014176318059023469,-0.015204711258690804
1690839910103058700,1.08005859375,0.1941939538449049,-0.01461385095976293,-0.015580787162622437
1690839910113098800,1.0900986328125,0.2043622966378927,-0.017856614006962625,-0.023942336261970922
1690839910123169500,1.10016943359375,0.20704759019911287,-0.019818689593859014,-0.011460108769731596
1690839910133209600,1.110209716796875,0.1991115365028381,-0.008462872315663844,-0.003430431106407195
1690839910143249700,1.120249755859375,0.2001537390321493,-0.0077766801497898995,0.0035118942782049996
1690839910153290800,1.130290771484375,0.19206804773211478,-0.006510897997673601,0.010513767830329016
1690839910163330800,1.140330810546875,0.19280863696634767,0.0011452245123684407,0.013363357708323746
1690839910173371000,1.150370849609375,0.1935533178538084,0.004348477533087134,0.01300115049954038
1690839910183411000,1.160410888671875,0.19893793350160122,0.0028312231042422354,0.008969177869986742
1690839910193451800,1.17045166015625,0.20731997739970684,0.0034566067272797226,-0.003188557775085792
1690839910203491600,1.18049169921875,0.20059271497130393,0.0034398930544964966,-0.00593953698365949
1690839910213531600,1.19053173828125,0.20913141073584554,0.002075217105168849,-0.011836266872053965
1690839910223572700,1.20057275390625,0.20540508368909358,-0.004985843854863196,-0.006847080282634124
1690839910233612800,1.21061279296875,0.20033318725228308,-0.0010434081057086586,-0.007288590672169811
1690839910243652900,1.22065283203125,0.19570669649541378,-0.0037832265994511543,-0.011929699042858555
1690839910253693000,1.23069287109375,0.1916746645003557,-0.0063150283657014365,-0.006653466539829969
1690839910263733800,1.240733642578125,0.1919756932735443,-0.005297704549320042,0.005438802653597668
1690839910273803800,1.2508037109375,0.18284370779097078,-0.002656304928753525,0.005802293070591985
1690839910283844600,1.2608447265625,0.19180968905687332,-0.005509027478750795,0.010103734857868403
1690839910293884700,1.270884765625,0.19897651194632052,-0.007356682905741036,0.0032130163629073647
1690839910303924700,1.2809248046875,0.19417817175388336,-0.0076311341992579395,0.0021236319573130456
1690839910313965800,1.2909658203125,0.19626608394384382,-0.0017294906737282871,-0.005089505158737301
1690839910324006000,1.301005859375,0.2074865661382675,-0.011872936487477273,-0.018167095595085992
1690839910334045700,1.311045654296875,0.22081308070123196,-0.015934413772728293,-0.02124576782148797
1690839910344085800,1.321085693359375,0.21005027914643287,-0.008458762396126985,-0.02139137313752435
1690839910354126600,1.331126708984375,0.21066110452115536,-0.006446143932081759,-0.008375842486182228
1690839910364166700,1.341166748046875,0.20139643256962297,-0.004201689473539591,-0.0046290389069821684
1690839910374206700,1.351206787109375,0.19451836349368093,0.004160919071733951,0.0077727528933435675
1690839910384247800,1.361247802734375,0.2002022543489933,0.0057219030444510275,0.02143789742668159
1690839910394287900,1.371287841796875,0.1864291650623083,-0.0013551957349292932,0.01755975908539258
1690839910404328000,1.381327880859375,0.18567630086839199,-0.005586458362825214,0.006224158044741489
1690839910414367700,1.39136767578125,0.18731763833463191,-0.006337112333346158,0.004432771982788108
1690839910424438800,1.401438720703125,0.20557167242765426,-0.00399321608832106,-0.01604925862431992
1690839910434479600,1.411479736328125,0.19928806211352348,-0.0054618821350857615,-0.020085459904419258
1690839910444519700,1.421519775390625,0.20812427951991558,-0.004009454837068915,-0.020012399234785698
1690839910454559700,1.431559814453125,0.20528467217981813,-0.004471409793011844,-0.021777020587399602
1690839910464599800,1.441599853515625,0.19107085338830948,-0.002431976387277245,-0.01755020580575801
1690839910474641000,1.451640869140625,0.1921148094832897,-0.0064716254332102836,0.006838906109333038
1690839910484680700,1.4616806640625,0.18223580502569675,-0.006242858178634196,0.016887714175879955
1690839910494720800,1.471720703125,0.18252806597054003,-0.0004604936512187123,0.03266426137262024
1690839910504761600,1.48176171875,0.18087153093516825,-0.0028915567230433223,0.031623200487624854
1690839910514801700,1.4918017578125,0.17831775479912756,0.0027315621220506724,0.014356104205874725
1690839910524841700,1.501841796875,0.19252748193740843,0.007811404403299093,-0.004215462270565331
1690839910534881800,1.5118818359375,0.20419863050878045,0.005893916876800358,-0.017768830692232587
1690839910544923000,1.5219228515625,0.21123978119194506,0.0050444787069223816,-0.032229815478110685
1690839910554963000,1.531962890625,0.20421967329680918,-0.004147146274708211,-0.04225675877272151
1690839910565002800,1.542002685546875,0.2033440595060587,-0.011897340276371687,-0.03197580418442376
1690839910575073800,1.55207373046875,0.2009679780244827,-0.007420140063390136,-0.01711939947332721
1690839910585113900,1.56211376953125,0.20068273134231565,-0.003872384453937411,-0.0014685381826013326
1690839910595154700,1.57215478515625,0.18153847041130064,-0.01022361664418131,0.020640157478000035
1690839910605194800,1.58219482421875,0.1848310822159052,-0.01444729875382036,0.02568505631003063
1690839910615234800,1.59223486328125,0.1840717882812023,-0.008195289154350758,0.02393017090014182
1690839910625274600,1.602274658203125,0.1860018795609474,-0.011176040264498442,0.00877848673663102
1690839910635315700,1.612315673828125,0.19376959095299243,-0.010478194193448871,0.0007646048640599474
1690839910645355800,1.622355712890625,0.19794833794236183,-0.001681815607100725,-0.01231135530420579
1690839910655395800,1.632395751953125,0.1924023942530155,-0.00544047402087599,-0.020305098571046256
1690839910665436700,1.642436767578125,0.19822832392752168,-0.0060035877963528035,-0.022614339061221105
1690839910675476700,1.652476806640625,0.19897242029309273,-0.00023061215179041026,-0.023546318115130995
1690839910685516800,1.662516845703125,0.19044366140067576,0.0048875711121596395,-0.01788528754559811
1690839910695556900,1.672556884765625,0.191047472512722,0.0062965793935582035,0.007262752978014759
1690839910705598000,1.682597900390625,0.1880629037439823,0.004445124574285001,0.01345094466023147
1690839910715637800,1.6926376953125,0.1783463963717222,0.004301460053585469,0.01826168767651543
1690839910725708800,1.702708740234375,0.186733700966835,0.01790618876973167,0.01752176516256295
1690839910735748900,1.712748779296875,0.19781272886395454,0.010451598447468131,0.008257695999229327
1690839910745789000,1.722788818359375,0.1898877810835838,-0.0014854710510931908,-0.010858019257313571
1690839910755829800,1.732829833984375,0.19228548987507818,-0.0033475203296169636,-0.01207519476104062
1690839910765869800,1.742869873046875,0.20620412511229513,-0.0030896731110289693,-0.014228157844115049
1690839910775909600,1.75290966796875,0.19857319184243677,0.0011796199723146856,-0.02108042575852014
1690839910785949700,1.76294970703125,0.18256255276203154,-0.0042415100272744895,-0.00827311276406981
1690839910795990800,1.77299072265625,0.1740332093477249,-0.005230210537370294,-0.0025874774762429296
1690839910806030800,1.78303076171875,0.18151158240437507,-0.002510832043457776,0.004249967328365892
1690839910816071000,1.79307080078125,0.18330197295248507,-0.0013869608463719487,0.011279875098308547
1690839910826111700,1.80311181640625,0.1862900488525629,-0.0031294388658367096,0.002049402243900113
1690839910836151800,1.81315185546875,0.18913140975832937,-0.00963723159097135,0.015870399492653085
1690839910846191900,1.82319189453125,0.18569149843752383,-0.0066151255571283395,0.009147352015064097
1690839910856231700,1.833231689453125,0.19661621255576608,-0.005295877918414771,-0.005112826668820344
1690839910866302700,1.843302734375,0.19721885462403296,-0.011443075436539947,0.003551920327916741
1690839910876343800,1.85334375,0.19662147325277327,-0.000042998891510069364,-0.009926935252547264
1690839910886383900,1.8633837890625,0.19347966809570788,0.011804529160074888,-0.017145456363190897
1690839910896424000,1.873423828125,0.19138591068685054,0.007694152965489774,-0.019546247594337908
1690839910906463700,1.883463623046875,0.19078677574992178,-0.005210903048701584,-0.014364794402406551
1690839910916504800,1.8935048828125,0.18314999726116657,-0.00016087138382717966,-0.019072282540192827
1690839910926544600,1.903544677734375,0.19287234985232352,-0.0026705161171965298,-0.020547442259825764
1690839910936584700,1.913584716796875,0.19077508531212806,-0.00586058086277917,-0.007239568465249612
1690839910946625800,1.923625732421875,0.18389234006106853,-0.007246025605499744,0.006304497838532552
1690839910956665900,1.933665771484375,0.18972820660769937,-0.007770268675312399,0.019213024451443926
1690839910966706000,1.943705810546875,0.18673896166384218,-0.010177859540004282,0.023792607326665893
1690839910976740400,1.953740234375,0.18479834899008274,-0.007380155112873763,0.024768420955725012
1690839910986781400,1.963781494140625,0.18480594777464865,-0.010279548082500695,0.01849166964064352
1690839910996821200,1.9738212890625,0.1773316663712263,0.002349595333449542,0.004430657657515258
1690839911006861300,1.983861328125,0.18796002789139746,0.0012133761114440857,-0.02136927547014784
1690839911016932400,1.993932373046875,0.18586743952631948,-0.005572831696271896,-0.04157659448883496
1690839911026972400,2.003972412109375,0.1896101331859827,-0.009472524282243102,-0.044383769997209305
1690839911037013200,2.01401318359375,0.1994827079027891,-0.007364318222925066,-0.04037524674190208
1690839911047053300,2.02405322265625,0.19349077401161194,0.003922653336450458,-0.02073924307145644
1690839911057093400,2.03409326171875,0.18600480217039583,0.0028819486444815992,0.006667006441415287
1690839911067133200,2.04413330078125,0.1921376058369875,0.0005963219253346324,0.023062667350610716
1690839911077174300,2.05417431640625,0.18569851270020007,-0.009380790878180414,0.03561011926589999
1690839911087214300,2.06421435546875,0.173283267763257,-0.016925872495491056,0.030889968009362927
1690839911097254400,2.07425439453125,0.18436638731360436,-0.009934059113077818,0.01421220222315751
1690839911107295200,2.084295166015625,0.182429281771183,-0.014650347045250237,-0.0032084863182622937
1690839911117335300,2.094335205078125,0.19111469253003596,-0.005451853931415826,-0.018057479474460705
1690839911127375400,2.104375244140625,0.1855745940595865,0.00726206342484802,-0.031037984478194263
1690839911137415200,2.114415283203125,0.18645488402545451,0.01359776925239712,-0.027547571379435247
1690839911147456300,2.124456298828125,0.1835807898938656,0.022963125099427998,-0.020272068517701698
1690839911157496300,2.134496337890625,0.1726227580279112,0.029715083577670155,-0.000559743641456589
1690839911167567400,2.1445673828125,0.18232114522159099,0.029107747067976742,0.009995767271635122
1690839911177607400,2.154607421875,0.17975977030098436,0.0355818932518363,0.017846206777379848
1690839911187647200,2.164647216796875,0.203705294033885,0.026777020831778645,0.01798735968058463
1690839911197688300,2.174688232421875,0.19879121850728987,0.008452533584740012,-0.002522915206896141
1690839911207728000,2.18472802734375,0.20631693783700464,-0.00007350362762808799,-0.020309998508449643
1690839911217768200,2.194768310546875,0.20442659404575825,-0.010486468831449746,-0.02945205786046572
1690839911227809300,2.204809326171875,0.1992430539280176,-0.01306128775551915,-0.02326588003882207
1690839911237849300,2.214849365234375,0.18506898262500762,-0.015715218064095825,-0.027081122911465354
1690839911247889400,2.224889404296875,0.17386545156538485,-0.026609993701800703,-0.01110273299969267
1690839911257929200,2.23492919921875,0.15814999603927135,-0.03150746515346691,0.001992027767165564
1690839911267970300,2.24497021484375,0.14361118307709694,-0.019064546758309004,0.01700742243225686
1690839911278010400,2.25501025390625,0.1561392407387495,-0.01847569575337693,0.016505688021774403
1690839911288050200,2.26505029296875,0.16402151842117307,-0.02167904010564089,0.008644854986178688
1690839911298090200,2.27509033203125,0.17505144647955895,-0.01454633868150413,-0.00006205065185204148
1690839911308131300,2.28513134765625,0.19896306794285773,-0.005381254646927118,-0.009235208395030349
1690839911318202400,2.295202392578125,0.20388649581968782,0.0035215434559620917,-0.030265310472110285
1690839911328242200,2.3052421875,0.20254034190773962,-0.00237449231268838,-0.02964074883298017
1690839911338282200,2.3152822265625,0.1989648215085268,0.003647471390571445,-0.008527882109582424
1690839911348322000,2.325322021484375,0.19284955349862573,0.01289433369077742,0.002410458675213158
1690839911358363100,2.335363037109375,0.18149696935713291,0.024780038328282534,0.00817900473983027
1690839911368403200,2.3454033203125,0.18315876508951187,0.02671299741854891,0.01342155873554293
1690839911378443300,2.355443359375,0.1806219400882721,0.03060244260514155,0.01018277317713946
1690839911388484400,2.365484375,0.1768786619067192,0.03240697127645835,0.0023155560665298253
1690839911398524200,2.375524169921875,0.1661000782608986,0.023276830691099166,0.005718971301848069
1690839911408564200,2.385564208984375,0.19168752398192881,0.01562701005768031,-0.009104718449735082
1690839911418604300,2.395604248046875,0.19677987868487834,-0.0005643376181833446,-0.0033485478095011782
1690839911428645400,2.405645263671875,0.19963702168166636,-0.003720737556181848,-0.012544447107450105
1690839911438685200,2.415685302734375,0.1921755997598171,-0.01365023009199649,-0.001535402006888762
1690839911448725200,2.425725341796875,0.1895055037677288,-0.017613051042053848,0.004007961566303856
1690839911458796300,2.43579638671875,0.17979542613625527,-0.02301443516155705,0.0022249825730919835
1690839911468836400,2.44583642578125,0.17441490214169025,-0.012308039969112724,-0.003151015943405218
1690839911478877200,2.455877197265625,0.16527707144021986,-0.009812990016676485,-0.013963725621113553
1690839911488917200,2.465917236328125,0.16824644263982771,-0.011075813026726245,-0.019482356611848807
1690839911498957000,2.47595703125,0.17794424531161784,-0.004329571903217584,-0.01733002828301396
1690839911508997000,2.4859970703125,0.17776479709148407,0.0007432926479727029,-0.018605925403768195
1690839911519038200,2.4960380859375,0.1901630908936262,-0.0024404702209867538,-0.0024844143939903003
1690839911529078300,2.506078369140625,0.18895780675709248,-0.0022996917771175504,0.0054642019563354545
1690839911539118300,2.516118408203125,0.1841764176994562,-0.002149140857905149,0.01587106621293351
1690839911549159200,2.5261591796875,0.1882370912671089,-0.008227949314936995,0.02122728231672663
1690839911559199200,2.53619921875,0.1908078185379505,-0.009130213650595397,0.009631957194232382
1690839911569239300,2.5462392578125,0.18454992718696595,-0.003856072639953345,0.0028511790468823163
1690839911579279000,2.556279052734375,0.1829220337241888,0.005211524103209376,-0.003168610965600237
1690839911589320200,2.5663203125,0.177244572609663,0.009353647142928093,-0.008596522332425229
1690839911599360300,2.5763603515625,0.17170388961732386,0.013489614436496048,-0.0056273794616805385
1690839911609431300,2.586431396484375,0.16360592335760593,0.014213672661036252,-0.018317546049598604
1690839911619471400,2.596471435546875,0.17166414212882516,0.01725546977603808,-0.007704162902850658
1690839911629511400,2.606511474609375,0.1827121903657913,0.01341738945050165,0.004424387746932916
1690839911639552300,2.61655224609375,0.18927754023075102,0.015119535459578037,0.010170443418528885
1690839911649592000,2.626592041015625,0.18552958587408064,0.01674501776956022,0.010421696499548851
1690839911659632000,2.636632080078125,0.20319325285851955,0.011338939208630472,0.005557624993985519
1690839911669673200,2.646673095703125,0.20530629948973655,0.0052821781866252415,0.008254631825885735
1690839911679713300,2.65671337890625,0.19500585474967955,0.0028200989220291376,0.003742173069855198
1690839911689753300,2.66675341796875,0.18351181631088256,0.001981803200673312,-0.007628439918672666
1690839911699793400,2.67679345703125,0.18997136771380901,-0.005419011107739061,-0.01326290214168839
1690839911709834200,2.686834228515625,0.18684534464776514,-0.012250263633579015,-0.021353813039534725
1690839911719874300,2.696874267578125,0.17338263648450375,-0.009120057582762091,-0.03727221639237832
1690839911729914000,2.7069140625,0.1754705486744642,-0.01147394549883902,-0.03892197919366881
1690839911739955200,2.716955078125,0.16872341250181197,-0.015442502069938926,-0.024486932566645553
1690839911749995300,2.726995361328125,0.1734936956435442,-0.008724792921170592,-0.0022741417773300783
1690839911760066300,2.73706640625,0.17062895386219024,-0.019257950438559053,0.009126318360189907
1690839911770106400,2.7471064453125,0.17973814299106597,-0.01821065160902217,0.019505093600042163
1690839911780146400,2.757146484375,0.18256664441525935,-0.013285123106651007,0.025505576123856007
1690839911790186200,2.767186279296875,0.17732056045532227,0.0014859825077466666,0.02273417061518412
1690839911800227000,2.77722705078125,0.17491992905437945,0.010025372392032295,0.01308426220573019
1690839911810267100,2.78726708984375,0.18359598746299743,0.014907883736584335,-0.007196770503139123
1690839911820307200,2.79730712890625,0.1819534809529781,0.019228980072401463,-0.014656192264147102
1690839911830348300,2.807348388671875,0.18779168558716772,0.030591026161983607,-0.018994102737447244
1690839911840388400,2.817388427734375,0.1827086832344532,0.02851230192547664,-0.018065690180379897
1690839911850428400,2.827428466796875,0.1869043813586235,0.021279428062494842,-0.011356872157542965
1690839911860468200,2.83746826171875,0.18721417796015738,0.011501308429799973,-0.0059502547404961656
1690839911870509000,2.847509033203125,0.18722820648550986,0.0014907500144094228,0.0010952661571092903
1690839911880549000,2.857549072265625,0.17991349955797195,-0.0005317505228333174,0.008202038555545733
1690839911890589200,2.867589111328125,0.17768764020204544,-0.014176299792714417,0.004680348969111219
1690839911900660200,2.87766015625,0.1836889264434576,-0.01974748752117157,-0.0004993278242647648
1690839911910700300,2.8877001953125,0.174721191611886,-0.016476649156957863,-0.01119182235551998
1690839911920741400,2.897741455078125,0.16484803237318993,-0.012041169193852692,-0.010276209914521314
1690839911930781400,2.907781494140625,0.17471534639298913,-0.012887885683681814,-0.021953400067612528
1690839911940821200,2.9178212890625,0.17679449075460432,-0.012092040864564477,-0.02036982980375178
1690839911950861300,2.927861328125,0.17991642216742038,-0.013490180692076682,-0.017334617693163454
1690839911960902100,2.937902099609375,0.18063947574496267,-0.0017625344268046318,-0.012234709871420637
1690839911970942200,2.947942138671875,0.17702537690103054,0.0034724984161555767,-0.002895557044725865
1690839911980950000,2.957949951171875,0.18434125287234782,0.005876527350582182,-0.0002842785677872598
1690839911990991000,2.9679912109375,0.19002222111821174,0.005454630410391837,0.01059717179746367
1690839912001031200,2.97803125,0.1880804394006729,0.014416063365340232,-0.0021615482483291998
1690839912011071200,2.9880712890625,0.18794249223470685,0.012661840109154582,0.002644975250563584
1690839912021111300,2.998111328125,0.17897651096880435,0.01261626566806808,-0.007142044641217217
1690839912031152000,3.008152099609375,0.18048340840041635,0.0172535700798966,-0.014387545090331695
1690839912041192000,3.01819189453125,0.1819856296569109,0.018890761093981565,-0.017152904450707135
1690839912051263000,3.028262939453125,0.18962065457999705,0.01954564480613917,-0.010630859437934122
1690839912061303000,3.038302978515625,0.1733101557701826,0.025156159897986797,-0.007603921965346671
1690839912071343000,3.048343017578125,0.17121522931754588,0.016365790927316992,0.0019082630404271184
1690839912081384200,3.05838427734375,0.1863297963410616,0.002097136676032096,0.010896944761904887
1690839912091424300,3.06842431640625,0.17660685922801495,-0.0058223677442409095,0.007804198344377801
1690839912101464000,3.078464111328125,0.183798232036829,-0.0068265580844134085,0.0043693650574889034
1690839912111505200,3.088505126953125,0.18365560869574546,-0.0192774771229364,0.001084050643350929
1690839912121545000,3.098544921875,0.17932488601505756,-0.016355890587810427,-0.01040980513235554
1690839912131585000,3.1085849609375,0.17199673508405686,-0.010649221645109355,-0.022892703911452553
1690839912141625000,3.118625,0.1730406911790371,-0.010049849246162921,-0.023917238353332503
1690839912151666200,3.128666259765625,0.17362988924384115,-0.0029970263915136456,-0.021058976545115002
1690839912161706200,3.138706298828125,0.17795652027130127,-0.0008378755962476134,-0.019599014394613912
1690839912171746300,3.148746337890625,0.17778993153274059,-0.005165639134868979,-0.017980993871879764
1690839912181787100,3.158787109375,0.17044482946693895,-0.002149104325287044,0.001546736251655966
1690839912191827000,3.168826904296875,0.18121113815307616,0.003364380132872611,0.017242217568820342
1690839912201898000,3.17889794921875,0.19063538458049295,0.006940265858266502,0.009403728795773348
1690839912211938000,3.18893798828125,0.18135902219116687,0.006016629941016436,0.010206565044680609
1690839912221978000,3.19897802734375,0.18555881196856497,0.012727726685907692,0.011042737307609058
1690839912232018200,3.20901806640625,0.1834749914318323,0.000773084998037666,0.005774373017204925
1690839912242059300,3.219059326171875,0.18124153329133985,0.002624265822675079,-0.005243855470232665
1690839912252099000,3.22909912109375,0.17810849596261977,0.010389913121797144,-0.007886908191768452
1690839912262139100,3.23913916015625,0.173771928063035,0.011628314076643437,-0.014718242915999144
1690839912272180000,3.249179931640625,0.18050445118844508,0.011486951110884547,-0.010919147460558451
1690839912282220000,3.259219970703125,0.18259587050974369,0.0071741842119954526,-0.003938344095926732
1690839912292260000,3.269260009765625,0.17960136486887932,0.007100826714839786,0.0010311605454888194
1690839912302300200,3.279300048828125,0.17705635656118393,0.0018332798417657612,0.0015754508894868194
1690839912312341200,3.28934130859375,0.16793313890695571,-0.0028601752040907738,-0.0010268085973570123
1690839912322381300,3.29938134765625,0.17452362321317194,-0.010234978288412093,0.00612924630290363
1690839912332421000,3.309421142578125,0.17857085277736187,-0.01023967272983864,0.001830946320784278
1690839912342492200,3.3194921875,0.18246552212834358,-0.009608042029105127,-0.005348553387145512
1690839912352532200,3.3295322265625,0.18680501263737678,-0.001860551441181451,-0.014065327398641966
1690839912362573000,3.339572998046875,0.182311792871356,0.003335099239461124,-0.020101703219744374
1690839912372613000,3.349613037109375,0.1905330932497978,-0.0007962284116074443,-0.011124638870824127
1690839912382653200,3.359653076171875,0.18528584024608133,0.0014628573604859411,-0.008397825989127158
1690839912392694300,3.3696943359375,0.18108546594679353,0.0040809126380831,-0.006449966157251037
1690839912402734000,3.379734130859375,0.18601649260818956,0.006909560192748904,0.004975495990784839
1690839912412774100,3.389774169921875,0.18975684818029404,0.021983886537421494,-0.0018971068921731784
1690839912422814200,3.399814208984375,0.1828781945824623,-0.0005419431232847273,-0.0027603635248495263
1690839912432855000,3.40985498046875,0.18617898969352245,0.00419405415635556,0.005883505080640315
1690839912442895000,3.41989501953125,0.18528993189930915,0.009235865982156246,0.0013475193185498936
1690839912452935200,3.42993505859375,0.18021335928738116,0.006205467044003307,-0.004064984416589141
1690839912462975000,3.43997509765625,0.17573124543726443,0.007412943137623369,-0.003732642623106949
1690839912473016000,3.45001611328125,0.17917524841129778,0.011399327626358717,-0.0024310950378654524
1690839912483056000,3.46005615234375,0.1725906093239784,0.005689352481719106,-0.01169148810650222
1690839912493127200,3.470127197265625,0.1679471674323082,0.0005273666086606681,-0.019901034115068612
1690839912503167200,3.480167236328125,0.1814098755955696,-0.0038919294046238064,-0.013820645622303708
1690839912513207300,3.490207275390625,0.18424714484810828,0.004349427381157875,-0.013509460781281813
1690839912523248000,3.500248046875,0.18050503571033477,-0.008082111103460193,-0.010703449750109575
1690839912533288200,3.5102880859375,0.1793096884459257,0.0010197897681035102,-0.003195393941248767
1690839912543328000,3.520327880859375,0.1812578999042511,-0.005110785408783704,-0.005095350377634167
1690839912553369000,3.530369140625,0.17542437144517897,-0.0034921894973143934,0.00036184188260231166
1690839912563409200,3.5404091796875,0.17796937975287436,0.003572670855000615,0.006803789130179211
1690839912573449200,3.55044921875,0.1832049423187971,0.0028884331841953098,-0.004402061750693247
1690839912583489300,3.5604892578125,0.1833493192255497,0.0027511070727370677,0.0033326789535116402
1690839912593530000,3.570530029296875,0.17585984025299548,0.013323226627334952,-0.003871909529902041
1690839912603570200,3.580570068359375,0.18064415192008018,0.014018296219408512,-0.005312961483956314
1690839912613610000,3.59060986328125,0.1777981148391962,0.002941825605556369,-0.007519134325301274
1690839912623651000,3.600651123046875,0.18618015873730182,0.0009599128070287405,-0.004720301953586749
1690839912633691100,3.610691162109375,0.1849871495604515,0.002404375994298607,-0.005249376462143846
1690839912643762200,3.62076220703125,0.17541852622628212,0.0040269174285233016,0.0000099825378973037
1690839912653802200,3.63080224609375,0.18679799837470054,-0.002754522872529924,0.0011415027518989517
1690839912663842300,3.64084228515625,0.18515899899601934,-0.0011956760579720138,0.0000030093744164332746
1690839912673882400,3.65088232421875,0.17094693377017975,0.002543747932370752,-0.003535352785605937
1690839912683923200,3.660923095703125,0.17693185339868067,0.000551149343047291,0.004925473703444004
1690839912693963000,3.670962890625,0.18051906423568725,-0.006654580784682184,-0.0029433691086713223
1690839912704003000,3.681003173828125,0.17153554731309412,-0.00017922902442514896,-0.012859330876055173
1690839912714044200,3.691044189453125,0.17511983554065227,-0.003977726258244365,-0.013352338557387702
1690839912724084200,3.701084228515625,0.17436580230295656,0.0026485417474061248,-0.00832018047592137
1690839912734124300,3.711124267578125,0.18424013058543204,-0.000839081172645092,-0.01059609408522956
1690839912744164400,3.721164306640625,0.18828034588694573,0.001000299616344273,-0.010984422115958296
1690839912754205200,3.731205078125,0.1828951457172632,-0.005201605497393757,-0.0038049269746057686
1690839912764245000,3.741244873046875,0.18184885153472422,-0.0032991876758635044,-0.00036884244554676114
1690839912774285000,3.75128515625,0.18155191441476343,0.008345894872490316,-0.0016401592893060296
1690839912784326100,3.761326171875,0.17392156566679476,0.003770330585259944,-0.0017724621657747774
1690839912794396200,3.771396240234375,0.17407120327055453,0.002560991328116506,-0.0054779793199384585
1690839912804437200,3.781437255859375,0.17945757248401642,0.0052162916098721325,-0.0018160547123290598
1690839912814477300,3.791477294921875,0.1784077711701393,-0.0004772803892381489,-0.015191860910272225
1690839912824517400,3.801517333984375,0.18678572341501712,0.0032088973102159797,-0.014350674545508809
1690839912834558200,3.81155810546875,0.17272271127104757,0.0018446780186146497,-0.017192843735450877
1690839912844598000,3.821597900390625,0.179758601257205,0.003802497555501759,-0.019813109236443416
1690839912854638000,3.83163818359375,0.1812578999042511,0.0004823949557729065,-0.004209900179458782
1690839912864678100,3.84167822265625,0.18275895211696624,0.0013409845464862882,-0.007035926518775522
1690839912874719200,3.85171923828125,0.17647651084661484,0.0025305596572346985,-0.002319433090626262
1690839912884759300,3.86175927734375,0.17468319768905638,-0.0009707264619879424,-0.0022264986767433583
1690839912894799400,3.87179931640625,0.17303776856958866,-0.0026330701836384833,-0.007485652180807665
1690839912904839000,3.8818388671875,0.17991876025497913,0.005200071127433329,-0.011973341821762733
1690839912914880000,3.8918798828125,0.17976970717310906,0.008014598825201391,-0.011017680498166009
1690839912924920000,3.901920166015625,0.17168752300441265,0.001021159741282463,-0.010339511808543466
1690839912934991000,3.9119912109375,0.18545184446275234,-0.001742788546718657,-0.007137962121143936
1690839912945031200,3.92203125,0.1874006404429674,0.0026262385840527713,-0.00913240560768172
1690839912955071200,3.9320712890625,0.17827508470118045,-0.006845354116428643,-0.00837889295979403
1690839912965112300,3.9421123046875,0.18202070097029208,0.002062047096341848,-0.010749700044631025
1690839912975152000,3.952152099609375,0.1835188305735588,-0.0002481478084810078,-0.0062287565880455075
1690839912985205800,3.962205810546875,0.1884603786289692,-0.002806106929294765,-0.0009522455238038674
1690839912995246600,3.97224658203125,0.1794838759690523,0.007907905314024537,0.0008483193584484979
1690839913005286700,3.98228662109375,0.17095219446718693,0.002236709543503821,0.0025860801036003975
1690839913015326700,3.99232666015625,0.17858078964948654,0.0029852994211018082,-0.0031521347548346965
1690839913025366800,4.00236669921875,0.17499065620303153,0.004931665982212871,-0.006447509338683448
1690839913035408000,4.012407958984375,0.17633681011497973,0.0026805991197936235,-0.010922695691091939
1690839913045448000,4.022447998046875,0.18935937329530714,0.006590374708361923,-0.012101735708094202
1690839913055487700,4.03248779296875,0.18636895930767058,0.007926792677585035,-0.009314593774173409
1690839913065528800,4.04252880859375,0.16990999193787573,0.002175426076631993,-0.006616285467753186
1690839913075568600,4.052568603515625,0.17365151655375957,0.007484784531127661,-0.005898917278903536
1690839913085639700,4.0626396484375,0.17410042936503886,0.003926690190751105,-0.009179468752956017
1690839913095679700,4.0726796875,0.17065876447856426,0.010344156017620116,-0.0071654985820408905
1690839913105719800,4.0827197265625,0.17873568795025346,-0.005113068697415292,-0.003916543256072327
1690839913115759900,4.092759765625,0.17693652957379816,0.0005237681457772851,-0.005136769233411178
1690839913125801000,4.102801025390625,0.1784299830019474,0.007056987573113292,-0.004710127619444392
1690839913135840800,4.1128408203125,0.1799240209519863,0.009483758062310516,-0.005147733585420065
1690839913145880600,4.122880615234375,0.17783026354312895,0.007442589357215911,-0.008436340501764788
1690839913155921700,4.132921630859375,0.17888123390078545,0.0017635390738025307,-0.007942761998274364
1690839913165961700,4.142961669921875,0.1746948881268501,0.004330850544851273,-0.010749508248385973
1690839913176001800,4.153001708984375,0.179034963157773,0.0009175167037174105,-0.012974636951950377
1690839913186041900,4.163041748046875,0.18682021020650863,-0.0023293379967100915,-0.009284326500073074
1690839913196083000,4.1730830078125,0.1835322745770216,0.004875880674365908,0.0018742420398164539
1690839913206122800,4.183122802734375,0.18413024047017096,0.0021767412508837875,-0.0007735005565686151
1690839913216162600,4.19316259765625,0.18397709573507307,0.006085366061981767,0.0010423395266290754
1690839913226203600,4.20320361328125,0.1755927137494087,0.0007705459810793399,0.0008708645503968
1690839913236273700,4.213273681640625,0.18127777364850042,0.0014373027941212058,-0.009365844470798038
1690839913246314800,4.223314697265625,0.1871136401951313,0.003662997753266245,-0.011490225346782243
1690839913256354800,4.233354736328125,0.18696341806948183,0.0049554121839813885,-0.008724368229485116
1690839913266395000,4.243394775390625,0.1815752952903509,-0.0008923457298427819,-0.008229702880606055
1690839913276436000,4.25343603515625,0.18187457049787042,-0.006709818103257566,0.0018306677595712243
1690839913286475800,4.263475830078125,0.18172551741600035,0.0012485387563705443,-0.00940550062775146
1690839913296515600,4.273515625,0.1887602383583784,-0.0018043277419172226,-0.001584757573949173
1690839913306555600,4.2835556640625,0.18053133919537068,0.004372369865328073,-0.005269798195664771
1690839913316596700,4.2935966796875,0.18187690858542918,-0.0006687113081105053,-0.01053075093117077
1690839913326636800,4.30363671875,0.18800971225202082,0.005360979043878614,0.0012912956192856653
1690839913336676900,4.3136767578125,0.18441548715233802,0.006547211420070379,-0.002394384323246777
1690839913346718000,4.323718017578125,0.18785715203881262,0.0018923530852422118,0.0018605925403768196
1690839913356757800,4.3337578125,0.19025310726463793,0.003925137554481625,-0.004128144746716134
1690839913366797600,4.343797607421875,0.18561843320131302,0.004098119501210749,-0.007120189002435654
1690839913376868600,4.35386865234375,0.1847211921006441,0.005937500290200114,-0.0013389204535633325
1690839913386908700,4.36390869140625,0.17903613220155237,0.009580916560161858,0.0023583951278356836
1690839913396948700,4.37394873046875,0.17319968113303183,0.002236252885777503,-0.010085071256593801
1690839913406989800,4.38398974609375,0.1785866348683834,0.004515066271647811,-0.009607589937956072
1690839913417030000,4.39402978515625,0.17394786915183066,0.0015090163234621286,-0.007085026357509195
1690839913427069700,4.404069580078125,0.18052841658592222,-0.00493955702772364,-0.007483469356875866
1690839913437110800,4.41411083984375,0.18636486765444277,-0.0066967394259758286,-0.002598222632543184
1690839913447150600,4.424150634765625,0.1778372778058052,-0.00214455601433292,-0.0026697078330209477
1690839913457190700,4.434190673828125,0.17963468261659143,0.006448134959768504,-0.00513612534601707
1690839913467230700,4.444230712890625,0.18442250141501426,0.008805822268128394,-0.0066205917501123614
1690839913477271800,4.454271728515625,0.1821767683148384,0.0036620844378136095,-0.007790484912856482
1690839913487312000,4.464311767578125,0.18397300408184528,0.0013137312133796512,-0.012745344540989025
1690839913497352000,4.47435205078125,0.18277648777365682,0.003904058233834803,-0.0024421324551105496
1690839913507392800,4.484392822265625,0.22496143255233764,0.001494768602401018,-0.005106730288174003
1690839913517432600,4.4944326171875,-0.01889700817167759,-0.02791384284198284,-0.15447850445229558
1690839913527503600,4.504503662109375,0.04800093758106232,-0.27650090125678106,-0.016653891720273532
1690839913537543700,4.514543701171875,0.25151275486946106,-0.02281321350103244,0.0382869874920696
1690839913547583700,4.524583740234375,0.07929623955488205,-0.03075584306856617,0.09443971301247366
1690839913557623800,4.534623779296875,0.184982473385334,0.01354835888640955,0.11142341664242557
1690839913567665000,4.544664794921875,0.14764555315971373,0.032516423000302164,0.06846727742869406
1690839913577704700,4.55470458984375,0.22107143937647342,0.05347880273656919,0.005639693237270694
1690839913587744800,4.564744873046875,0.20923545563220977,0.06817523567955941,-0.04964292806785088
1690839913597785600,4.57478564453125,0.250112240421772,0.07521660555843264,-0.06469400140109938
1690839913607825700,4.58482568359375,0.22893092070519921,0.08494063865002244,-0.07026476443787105
1690839913617865700,4.59486572265625,0.2367833877712488,0.07270054935058579,-0.041136339908046646
1690839913627905800,4.60490576171875,0.20500293262898922,0.06506210862770677,0.00146948346409481
1690839913637947000,4.61494677734375,0.17637363499403,0.04990675293607637,0.04614118072432465
1690839913647986700,4.624986572265625,0.19293606273829936,0.01624554381482303,0.06658257336036767
1690839913658026800,4.63502685546875,0.15158347713053225,-0.004753733865730464,0.06744892613242845
1690839913668067600,4.645067626953125,0.14508008658587931,-0.020323369446676225,0.04401977269013878
1690839913678137900,4.655137939453125,0.18523849397301673,-0.0422977209707722,0.009222912885749246
1690839913688178700,4.6651787109375,0.1393301447570324,-0.05327807426638901,-0.020010602286632637
1690839913698218800,4.67521875,0.1873626465201378,-0.06494500332036987,-0.042908007489377634
1690839913708258800,4.6852587890625,0.14692600671350955,-0.06390771442819386,-0.04022950899512507
1690839913718300000,4.6952998046875,0.15899229208230972,-0.06643348831245675,-0.022501279741339385
1690839913728339700,4.705339599609375,0.1638601903796196,-0.05950069337459281,0.00043494365143124014
1690839913738379800,4.7153798828125,0.13101181374490262,-0.050916203973256045,0.027428155384003183
1690839913748419800,4.725419921875,0.1726782876074314,-0.03898801190089434,0.03872985872162971
1690839913758460700,4.735460693359375,0.16721768411397933,-0.012057426208909601,0.019813588727056047
1690839913768500700,4.745500732421875,0.16371464442908762,0.004499960034061223,0.012741458383738063
1690839913778540800,4.755540771484375,0.18985095620453357,0.016997677356377243,0.007405718812393024
1690839913788582000,4.765581787109375,0.20448212362527846,0.027304387440439313,-0.007760190239292569
1690839913798621700,4.77562158203125,0.19160393735170364,0.03551494722915813,-0.014542379459016956
1690839913808661800,4.785661865234375,0.2243833404034376,0.04196686331490054,-0.013203477271762677
1690839913818732800,4.79573291015625,0.19732932926118374,0.04618053548717871,0.004071916480874642
1690839913828772900,4.80577294921875,0.1976706900447607,0.041273510755877936,0.010951250498718581
1690839913838813000,4.81581298828125,0.19009002565741537,0.031434527781419454,0.017084364692564122
1690839913848853800,4.825853759765625,0.16964871065318585,0.032793961300048975,0.026419119905354452
1690839913858893800,4.835893798828125,0.1813788959354162,0.014860573996137827,0.02952560715386644
1690839913868933600,4.84593359375,0.17200550291240213,-0.008761599533911793,0.016657832676451653
1690839913878974700,4.855974609375,0.17294775219857692,-0.012395517323166131,-0.001281477478169836
1690839913889014800,4.866014892578125,0.17746493736207483,-0.024719412448536603,-0.007096552398521453
1690839913899054800,4.876054931640625,0.17403788552284238,-0.032060733388364314,-0.006383453959412873
1690839913909095000,4.886094970703125,0.1571317589074373,-0.03842889844710007,-0.004028415265865623
1690839913919135700,4.8961357421875,0.15771686531901358,-0.03777721133902669,-0.0002503397655673325
1690839913929175800,4.90617578125,0.15110767631232738,-0.03410849623102694,0.009236665133177302
1690839913939215600,4.916215576171875,0.16887831080257892,-0.033338224244583395,0.019403843448963017
1690839913949256700,4.926256591796875,0.1658428886294365,-0.0270123274249956,0.008550751528516412
1690839913959296800,4.936296875,0.16340543234944344,-0.01817481311066076,0.002996496668551117
1690839913969367800,4.946367919921875,0.18730653241872786,-0.0036412425791844723,0.00020772446654736994
1690839913979380700,4.956380615234375,0.17799100706279278,-0.005853548333793878,0.0002437090953812003
1690839913989420500,4.966420654296875,0.1857446899294853,0.003341930839046836,-0.004408541723829693
1690839913999461600,4.976461669921875,0.1824339579463005,0.009201835848391056,-0.0011436947089852765
1690839914009501700,4.986501708984375,0.1905073742866516,0.011069547682721167,0.011077557459240779
1690839914019541800,4.996541748046875,0.19545009138584135,0.0178800679477863,0.01656193912050221
1690839914029581800,5.006581787109375,0.18454115935862064,0.021626962858531624,0.018766856153099795
1690839914039622700,5.01662255859375,0.17828034539818763,0.021534736264124513,0.017392444261047055
1690839914049662700,5.026662841796875,0.18115093239843844,0.015832232039887456,0.013142965556448324
1690839914059702800,5.036702880859375,0.17923720773160456,0.013721085104811936,0.010597783718816936
1690839914069742600,5.04674267578125,0.18106383863687514,0.0038159232926554976,0.0036747155905235557
1690839914079783700,5.05678369140625,0.18049159170687198,-0.0031334026549011467,-0.003346255387715064
1690839914089823700,5.06682373046875,0.17572364665269852,-0.010610497069917619,0.00029688232103362676
1690839914099863800,5.07686376953125,0.17244623241722581,-0.016806684828922152,-0.005309454352618195
1690839914109904600,5.086904541015625,0.1639250723093748,-0.021809772079531102,0.00319821608599741
1690839914119975000,5.096974853515625,0.1658686075925827,-0.021576091187819838,0.012141647593374364
1690839914130015700,5.107015625,0.17229367220401762,-0.020205296024959532,-0.00038315866526681926
1690839914140055600,5.1170556640625,0.16419862855374812,-0.02205475981654599,0.01046841715152841
1690839914150095600,5.127095703125,0.1661246281802654,-0.02392090074829757,0.004830329066165723
1690839914160136700,5.13713671875,0.17867139054238795,-0.01544852995192632,0.006896965572657063
1690839914170176800,5.1471767578125,0.17834990350306032,-0.005624068693164736,0.0017384868309367448
1690839914180216800,5.157216796875,0.18401450513601303,-0.01132449055816978,0.001717448609485291
1690839914190257000,5.1672568359375,0.18174772924780844,0.0006146978322416544,0.004628363053547218
1690839914200297700,5.177297607421875,0.1796364361822605,0.009382380047068,-0.006649315521097742
1690839914210337800,5.187337890625,0.17349135755598544,0.006568911795224994,0.0029114030678290873
1690839914220377600,5.197377685546875,0.17303952213525772,0.004907645785808563,0.007086428296728991
1690839914230418700,5.207418701171875,0.18396657434105873,0.006686656423378736,0.002684339146572165
1690839914240458800,5.217458740234375,0.187418176099658,0.011880389141570776,0.003827421934204176
1690839914250498800,5.227498779296875,0.1842903994679451,0.011014456494618206,0.001714809127827175
1690839914260569900,5.23756982421875,0.1947813983440399,0.005889459897391498,0.002630430701980367
1690839914270610000,5.24760986328125,0.17624504017829895,-0.007371606480237096,0.005165374273387715
1690839914280649700,5.257649658203125,0.18030279113650322,-0.0010914484985172748,0.0031076928249094632
1690839914290690600,5.267690673828125,0.1753805323034525,-0.01404366812268272,-0.0008261394926812499
1690839914300730600,5.277730712890625,0.17554010677933693,-0.008962108808383345,0.005311769607290625
1690839914310770700,5.287770751953125,0.18138181854486465,-0.011716175023186951,-0.00030089177587069567
1690839914320811800,5.297811767578125,0.17525076844394205,-0.011242401765286921,-0.0014377594518475234
1690839914330851800,5.307851806640625,0.17285422869622707,-0.014794742218311875,-0.0014201278970343992
1690839914340892000,5.317891845703125,0.17598901959061622,-0.018092632986232638,-0.009541073173540644
1690839914350932000,5.327931884765625,0.16146014350056648,-0.010411175105534493,-0.005229872610652819
1690839914360972800,5.337972900390625,0.17431085724532602,-0.012057663670927286,0.013433769763144664
1690839914371012600,5.3480126953125,0.18147709561288355,-0.004071341092139482,0.009912819962226786
1690839914381052700,5.358052734375,0.16380466080009937,-0.001600420933961868,0.009080616054940037
1690839914391093800,5.36809375,0.1916226420521736,0.0011962971124798059,0.014474634285317733
1690839914401133800,5.3781337890625,0.18188684545755385,0.005713025618251413,0.010703303619637153
1690839914411204900,5.388204833984375,0.19804303048849103,-0.0005105616043321788,0.0054563520100200545
1690839914421245000,5.398244873046875,0.17679741336405277,0.008556688078958541,0.0008799931383458897
1690839914431284700,5.40828466796875,0.17949615092873572,0.011787943351455032,-0.006224760832940228
1690839914441325600,5.41832568359375,0.19222294603288173,0.006466766595002263,-0.009065427618962712
1690839914451365600,5.42836572265625,0.18250702318251133,-0.0002034136176109314,-0.014311981936357914
1690839914461405700,5.43840576171875,0.18117139066457746,0.0061769716018810865,-0.007646276969462633
1690839914471445800,5.44844580078125,0.18222937528491018,0.003215875040274113,0.0020340037453686816
1690839914481486800,5.45848681640625,0.1747527557939291,0.00047404725253581996,0.01170884110010229
1690839914491527000,5.46852685546875,0.17012041981816292,-0.007937971658725292,0.011609618509327992
1690839914501566700,5.478566650390625,0.18089958798587322,-0.01147853034241125,0.01669572613458149
1690839914511607800,5.48860791015625,0.17312193972170353,-0.0074589559701271355,0.01869552621624898
1690839914521647600,5.498647705078125,0.17806056516766547,-0.014908906649891286,0.006181341816321947
1690839914531687700,5.508687744140625,0.16938158414959906,-0.009090557493641972,-0.003809826912009157
1690839914541727700,5.518727783203125,0.1794049655139446,-0.016040760224033147,-0.007555246818298473
1690839914551768800,5.528768798828125,0.18284020065963266,-0.015382880837190895,-0.005290713119530118
1690839914561838800,5.5388388671875,0.17699381271898745,-0.007709788926038891,0.00032902189181186256
1690839914571880000,5.5488798828125,0.1715975066334009,-0.003129530197381973,-0.0014946864040102808
1690839914581919700,5.558919677734375,0.1682955424785614,-0.005167191771138459,0.0061008558920584615
1690839914591959800,5.568959716796875,0.1714320869386196,-0.0048212826766073705,0.013540376509353517
1690839914602000600,5.579000732421875,0.17232289829850195,-0.005306344513501972,0.01679380251446273
1690839914612040700,5.589040771484375,0.17127017437517641,-0.0025531002826057374,0.012531642424804158
1690839914622080800,5.599080810546875,0.1712678362876177,0.004343618694879115,0.006338751734583638
1690839914632120800,5.609120849609375,0.17695874140560625,0.008392583558429033,0.006807894483138807
1690839914642162000,5.619161865234375,0.18130758426487445,-0.007363825032580643,0.002966864148690365
1690839914652201700,5.62920166015625,0.18715163411796093,-0.000693005499150604,-0.00016783084757626056
1690839914662241800,5.63924169921875,0.17997779696583746,0.006261142753995955,0.0054383140298305075
1690839914672282600,5.64928271484375,0.17684242154955862,0.0031724742899648843,-0.0006179903344484045
1690839914682322700,5.65932275390625,0.1759463494926691,-0.007355038937926292,0.0036188480842858552
1690839914692362800,5.66936279296875,0.18342939872443675,0.0013615158778615296,0.012785635452182031
1690839914702433800,5.679433837890625,0.17594868758022783,-0.0017153342842124403,0.00963027212722227
1690839914712473900,5.689473876953125,0.1689139666378498,0.0008934234420768917,0.010152419138071127
1690839914722513700,5.699513671875,0.17803952237963674,-0.00909033829793334,0.00010660217963159083
1690839914732554800,5.7095546875,0.18013035717904566,-0.00551500056181103,-0.004857532166922465
1690839914742594800,5.7195947265625,0.17010288416147232,-0.009628171501681208,0.0025738188436487688
1690839914752635000,5.729634765625,0.17444120562672613,-0.0043128764967434105,-0.0001896910529350862
1690839914762675700,5.73967578125,0.18162030347585678,-0.005024221370182931,-0.004075373379862867
1690839914772715800,5.7497158203125,0.1781780540674925,0.0014242971820756791,0.00022741554770618676
1690839914782755800,5.759755859375,0.18206863176524637,0.004875570147112012,-0.0025281485044397413
1690839914792795600,5.769795654296875,0.17383973260223864,0.00825222523966804,-0.006205421378230676
1690839914802836700,5.779836669921875,0.1727911003321409,0.0026429887894541025,-0.003550545788160525
1690839914812876800,5.789876708984375,0.17682722398042677,0.004256963324733078,0.006655626530875452
1690839914822916900,5.799916748046875,0.17263503298759458,-0.0031696064794436095,-0.0033678004992427303
1690839914832957700,5.809957763671875,0.17502865012586116,-0.013066292724199593,-0.0005194572968408465
1690839914842997800,5.819997802734375,0.17802257124483584,-0.0043360929755494,-0.0034051825007190926
1690839914853068800,5.83006884765625,0.18116496092379092,-0.0016419767870567738,0.00143125664582476
1690839914863108900,5.84010888671875,0.18086685476005077,-0.011799451126158237,0.0060495229970430955
1690839914873148700,5.850148681640625,0.18012626552581787,-0.006852971167303622,0.010001164965960197
1690839914883189800,5.860189697265625,0.16801263388395307,-0.0048855983507819474,0.0016821398340864106
1690839914893229800,5.870229736328125,0.17729367244839667,-0.005493994306400418,0.00710769028046634
1690839914903270000,5.880269775390625,0.1692144108891487,-0.005751804992370307,0.009719562412449157
1690839914913309700,5.890309814453125,0.16966157013475894,-0.00016333733554929495,0.01205299662896432
1690839914923350800,5.900350830078125,0.17654139277637004,-0.007775547638628632,0.002708542006067
1690839914933390800,5.910390869140625,0.179680275323987,-0.0013680186838842927,-0.012889543351228348
1690839914943430700,5.9204306640625,0.1744388675391674,-0.004068126221746206,-0.014989999928930773
1690839914953471700,5.9304716796875,0.17892448852062223,-0.0038928609863854943,-0.011309813578845933
1690839914963511800,5.94051171875,0.1762292580872774,0.0002538651632145047,-0.005037163050146773
1690839914973551900,5.9505517578125,0.1801210048288107,0.0004731522033922374,0.00443202763069421
1690839914983607300,5.960607177734375,0.17503800247609613,-0.005431505263131111,0.020016445222240872
1690839914993648400,5.9706484375,0.17713877414762974,-0.00594692570567131,0.013773705774615518
1690839915003718400,5.980718505859375,0.18013561787605284,-0.002929203586000949,0.006262138267839327
1690839915013759500,5.990759521484375,0.17325521071255207,-0.0005934358485043048,0.009428182817017659
1690839915023799300,6.00079931640625,0.17295535098314285,-0.004403751384280622,0.004961887590540573
1690839915033839000,6.010839111328125,0.17878829492032527,-0.001570080594625324,-0.0032457861213479188
1690839915043880200,6.020880126953125,0.17579495832324027,-0.0005761011212132871,-0.002241029525594786
1690839915053920300,6.030920166015625,0.17938567629158494,-0.007613032286986708,-0.010241307564498855
1690839915063960300,6.040960205078125,0.18372925845384597,-0.006817461462505161,-0.01847417051657103
1690839915074000400,6.05100048828125,0.18014321666061878,-0.015375336851552127,-0.015260624430701135
1690839915084041500,6.06104150390625,0.16668343110680578,-0.011261873650737107,-0.0029547855518292634
1690839915094081300,6.071081298828125,0.17506781309247016,-0.005806950979400426,-0.0018844985723495483
1690839915104121000,6.08112109375,0.17417057199180125,0.0015662629360333085,-0.003158957221265882
1690839915114162200,6.091162109375,0.168626381868124,-0.0026385683426633478,0.002624941676110029
1690839915124202200,6.1012021484375,0.16308043817877768,0.0018916406991891562,0.004252816872578114
1690839915134242300,6.1112421875,0.17728256653249264,0.00444863170562312,0.01085798729127273
1690839915144313300,6.121313232421875,0.17427520141005515,0.004717639639042317,0.008161067224340512
1690839915154353400,6.131353515625,0.17276830397844314,0.00273019214887172,0.0010475362915545702
1690839915164393500,6.1413935546875,0.1829389848589897,-0.00243349249092862,-0.004070254246750846
1690839915174434300,6.151434326171875,0.17725509400367737,-0.002821815955080092,-0.0024202996492153034
1690839915184474000,6.16147412109375,0.18489654866755006,-0.003002140958048403,-0.0016259070016676558
1690839915194514200,6.17151416015625,0.1829652883440256,-0.0005878646242432296,-0.013543490915047003
1690839915204555300,6.18155517578125,0.18163433200120924,0.0034140644934959707,-0.0035871834375429896
1690839915214595300,6.19159521484375,0.16383797854781149,0.0004991451611742377,-0.0000502414830494672
1690839915224635400,6.201635498046875,0.16848025139570236,0.005369198882952332,0.002549004062800668
1690839915234675500,6.211675537109375,0.16593699665367603,0.012277553499303758,0.012780077927652745
1690839915244716300,6.22171630859375,0.162639708673954,-0.0015816979671828448,0.022595027005975134
1690839915254756000,6.231756103515625,0.1714624820768833,-0.002017422503326088,0.01500405585374683
1690839915264796200,6.241796142578125,0.17475100222826004,-0.0008919621373526752,0.004951786321634426
1690839915274837200,6.251837158203125,0.18253157310187815,-0.017298559999093414,-0.00640778924964834
1690839915284877300,6.261877197265625,0.1796943038493395,-0.01619584118789062,-0.008688744360255077
1690839915294948400,6.2719482421875,0.1879325553625822,-0.013441080853343008,-0.01400511251084972
1690839915304988400,6.281988525390625,0.18629121789634226,-0.009598397417925298,-0.021592480633617378
1690839915315028200,6.2920283203125,0.17761340592205524,-0.004537442500237375,-0.0138121517885942
1690839915325069300,6.3020693359375,0.16922668584883213,0.008840911847818642,-0.0017658634616294876
1690839915335109000,6.312109130859375,0.16173019261360166,0.0037743674395605917,0.01064181009021122
1690839915345149200,6.322149169921875,0.16037117922008037,0.007867226243764161,0.00866439537028782
1690839915355189200,6.332189208984375,0.15975918480157852,0.004379037068132311,0.01782457490088418
1690839915365230300,6.342230224609375,0.1706733775258064,-0.004919500620383769,0.010654167248285376
1690839915375270400,6.3522705078125,0.18039982177019118,-0.0038109000576660034,-0.0014679125615162773
1690839915385310500,6.362310546875,0.1848959641456604,-0.006976944606844336,-0.009159540209779516
1690839915395351300,6.372351318359375,0.18879764775931834,-0.0014031630625016987,-0.015786981825786642
1690839915405391000,6.38239111328125,0.17699089010953903,-0.0015056187899783252,-0.01867536934420932
1690839915415431200,6.39243115234375,0.1855319239616394,0.00012989172367379069,-0.006028891200968064
1690839915425471200,6.40247119140625,0.1804512596964836,0.003815704096946865,0.0013363266376778483
1690839915435512300,6.41251220703125,0.17536884186565874,-0.007579805870819837,0.011873000419558957
1690839915445582300,6.422582275390625,0.16638883207440375,-0.00329659385997802,0.019396628256887195
1690839915455623400,6.43262353515625,0.1627916843652725,-0.008401223522610963,0.020596943957358598
1690839915465663200,6.442663330078125,0.17236147674322128,-0.012948292367719112,0.019241611225111407
1690839915475703300,6.452703369140625,0.17893851704597472,-0.007485058525763452,0.012195286609907634
1690839915485744000,6.462744140625,0.1699555846452713,-0.012795421627257018,-0.007221841012313961
1690839915495784200,6.4727841796875,0.16756021394133566,-0.015578567806072531,-0.00695586071962025
1690839915505824300,6.48282421875,0.18970365668833256,-0.007151570521388203,-0.005045446821302175
1690839915515864300,6.4928642578125,0.1888070001095533,0.00014729951620101928,-0.0043952301511075344
1690839915525905400,6.502905517578125,0.1750403405636549,0.001995192405208945,0.003105331904464401
1690839915535945500,6.512945556640625,0.17204758848845958,-0.005145765390619636,0.006041732416232116
1690839915545985300,6.5229853515625,0.16426409500539302,-0.0016825279931537806,0.010504844738356769
1690839915556026000,6.533026123046875,0.17653145590424538,0.008055917216278612,0.012144218576373532
1690839915566066200,6.543066162109375,0.17967384558320043,0.002452544251270592,0.008662591572268865
1690839915576106200,6.553106201171875,0.17743103509247302,-0.006034786652214825,0.0013836637775879353
1690839915586177300,6.56317724609375,0.18072715402841566,0.0017415281713940203,-0.006239510877500288
1690839915596217300,6.57321728515625,0.1808826368510723,-0.012204506529401988,-0.011121382901235483
1690839915606258400,6.583258544921875,0.18193828338384627,-0.01288792221629992,-0.002495611641439609
1690839915616298200,6.59329833984375,0.17595862445235252,-0.0076711556823924176,-0.007707852697279304
1690839915626338300,6.60333837890625,0.1855406917899847,0.0011103541283868253,-0.00006661266253795475
1690839915636378400,6.61337841796875,0.17416940294802188,-0.0070486398698762056,0.0013972493449458852
1690839915646419200,6.623419189453125,0.1675853483825922,-0.005424564065691083,-0.004224147900519892
1690839915656459300,6.633459228515625,0.16997370482385157,-0.009276234525162725,0.011234812113875522
1690839915666499300,6.643499267578125,0.16861644499599932,-0.0017876506017521024,0.012254629281442612
1690839915676539400,6.653539306640625,0.1850660600155592,-0.0004611512383446097,0.008986960121849552
1690839915686580500,6.66358056640625,0.17338439005017278,0.007057535562384873,0.009439475962589493
1690839915696620300,6.673620361328125,0.17861469191908835,0.0034929201496765017,0.008259463264630175
1690839915706660400,6.683660400390625,0.18354571858048438,0.000948277168162167,-0.0038844584842212494
1690839915716701200,6.693701171875,0.18997487484514713,0.00010727803306654095,-0.0010732415549689904
1690839915726741200,6.7037412109375,0.18788170195817946,0.00927747663417831,-0.0007379680188838392
1690839915736812300,6.713812255859375,0.17591770792007444,0.0044903519554995,0.00006090900753624737
1690839915746852400,6.723852294921875,0.19088789803683756,0.001491535465698689,-0.0037933598343981426
1690839915756892200,6.73389208984375,0.17937398585379122,-0.0026440482353791593,-0.012475870816688984
1690839915766933200,6.743933349609375,0.17654080825448035,-0.003699000648409128,-0.007813390864408574
1690839915776973300,6.753973388671875,0.17924305295050144,-0.006544014815986156,-0.004915217170910909
1690839915787013400,6.764013427734375,0.18209551977217198,-0.008794606754370033,-0.0027618202629964795
1690839915797053400,6.774053466796875,0.17133038012981414,-0.013336908092815429,0.005977485240716487
1690839915807094300,6.78409423828125,0.17058979089558124,-0.010941610454116017,0.007450526068499311
1690839915817134300,6.79413427734375,0.1746305907189846,-0.016611874642875044,0.01534848537724465
1690839915827174400,6.80417431640625,0.17642624196410178,-0.015197934458032249,0.01750416557379067
1690839915837215500,6.814215576171875,0.17043606163859365,-0.00869965847991407,0.004534172830916941
1690839915847255300,6.82425537109375,0.18419103074669838,-0.00742651500524953,-0.002574417065270245
1690839915857295400,6.83429541015625,0.1771440348446369,-0.001898983755428344,-0.007496383637376129
1690839915867335400,6.84433544921875,0.17458324444592,-0.0009681691787205636,-0.010441684408229774
1690839915877376300,6.854376220703125,0.17576514770686624,0.005596669229585677,-0.012331242748186923
1690839915887446500,6.864446533203125,0.17859481817483902,0.0019387495102360843,-0.008228689100453629
1690839915897487400,6.8744873046875,0.1755979744464159,0.003139120009634644,-0.0028129111294168977
1690839915907527200,6.884527099609375,0.17514964615702627,-0.00045024625184014435,0.007060417072637938
1690839915917567200,6.894567138671875,0.17380524581074713,0.00011476721977815032,0.012923285790625958
1690839915927608300,6.9046083984375,0.170073658066988,0.007513279973249882,0.01629466648644302
1690839915937648400,6.9146484375,0.17891045999526978,0.010105324026755989,0.005744471069285646
1690839915947688400,6.9246884765625,0.18445757272839544,0.006476648668199777,-0.0020251263191690665
1690839915957728500,6.934728515625,0.1855149728268385,-0.0018000168929807841,-0.0063676627352368086
1690839915967769300,6.944769287109375,0.1871697542965412,-0.003819192961975932,-0.00860345439671073
1690839915977809200,6.95480908203125,0.18508067306280135,-0.0014445362525060772,-0.008183954909583553
1690839915987820000,6.964820068359375,0.17116846756637094,-0.006780198192037641,-0.008021256894851102
1690839915997860900,6.97486083984375,0.17566168733239174,-0.007485369053017348,-0.0058517673686612395
1690839916007901000,6.98490087890625,0.1641430989742279,-0.016612824490945786,-0.003386304270313121
1690839916017941000,6.99494091796875,0.17266893525719643,-0.013305069916136562,0.002439237245125696
1690839916028011800,7.00501171875,0.17311258737146853,-0.013084559033252298,0.0040732042556628585
1690839916038051800,7.0150517578125,0.1564957990914583,-0.008195015159714967,0.003775449718371965
1690839916048093000,7.025093017578125,0.17249708582162857,-0.003679693159740418,0.008936234581610187
1690839916058133000,7.035133056640625,0.17757248938977718,-0.001095594950672239,0.008022334607085213
1690839916068173000,7.045173095703125,0.17606617648005485,-0.0009328604033216833,0.008494290367234498
1690839916078212900,7.055212890625,0.179200967374444,-0.0002209675406105816,-0.0004634390935534611
1690839916088254000,7.06525390625,0.18218904327452182,0.003470416056923568,0.0010280826724134386
1690839916098293800,7.075293701171875,0.18427987807393073,-0.005520480454526841,0.0002709258958697319
1690839916108333800,7.085333740234375,0.17590367939472198,-0.004052435462269932,-0.007300125846336596
1690839916118375000,7.095375,0.17665829715430736,0.004629650828335434,0.0010248906349064782
1690839916128415000,7.1054150390625,0.17861118478775023,0.0006339139893651009,0.00032984387571923434
1690839916138455000,7.115455078125,0.17741992917656899,0.0025545067884027955,-0.0011206654598470776
1690839916148494800,7.125494873046875,0.18326339450776577,0.0010871376495808361,0.004959202443109825
1690839916158536000,7.135535888671875,0.1732452738404274,-0.00306179872341454,0.0064472399106249205
1690839916168576000,7.145575927734375,0.18088146780729292,-0.011708338776603341,0.01108282272282522
1690839916178646800,7.155646728515625,0.1825298195362091,-0.007991893803048879,0.0001222701062215492
1690839916188686800,7.165686767578125,0.17789280738532542,-0.0015157931241206824,0.004886950057651847
1690839916198727000,7.175726806640625,0.17639643134772776,-0.0018469978398643434,-0.0034732838674448427
1690839916208768000,7.18576806640625,0.17819149807095527,-0.007999675250705331,-0.0057039244297659025
1690839916218807800,7.195807861328125,0.17773966265022753,-0.009919025940727442,-0.00832501191466581
1690839916228847900,7.205847900390625,0.1707037726640701,-0.005989230477437377,-0.015234028684720397
1690839916238887700,7.2158876953125,0.1711485938221216,0.0038475970725528894,-0.006781394635280594
1690839916248928800,7.2259287109375,0.17518647103607654,0.0018102094934321939,0.0005969977787695825
1690839916258968800,7.23596875,0.1739852785527706,0.00015915435077622531,0.003844199539069086
1690839916269009000,7.2460087890625,0.17547697841525076,-0.006325367096625268,0.0027092543921200555
1690839916279050000,7.256050048828125,0.1826554917424917,0.0015887487624771893,0.007621046630083583
1690839916289089800,7.26608984375,0.16768822423517704,0.011021141963731497,-0.000025645897909998893
1690839916299129900,7.2761298828125,0.17023147897720337,0.004395988202933221,0.006351478785416111
1690839916309170000,7.286169921875,0.17921090424656866,0.00020217150859534738,0.005237014737492427
1690839916319211000,7.2962109375,0.1819067192018032,0.0024158837690018116,0.008931257012393326
1690839916329280800,7.30628076171875,0.17518121033906936,0.00920179931577295,-0.005560346674034372
1690839916339321900,7.31632177734375,0.1802759031295776,0.006059537500981241,-0.011816868051839992
1690839916349362000,7.32636181640625,0.1808785451978445,0.0014531944829970598,-0.002729141836101189
1690839916359402000,7.336402099609375,0.17744097196459768,-0.000010448328778147698,-0.004887516313232481
1690839916369442800,7.34644287109375,0.1847778907239437,-0.004748454902414232,-0.0002828309627948329
1690839916379483000,7.35648291015625,0.1716144577682018,-0.0030432766860350965,0.01017026532201562
1690839916389522700,7.366522705078125,0.1725128679126501,-0.0030078765790909527,0.0007192313523730262
1690839916399562800,7.376562744140625,0.17520751382410527,-0.006543795620277524,0.005436825325642712
1690839916409603800,7.386603759765625,0.17804829020798205,-0.006778755153622478,0.0073400468647712835
1690839916419644000,7.396643798828125,0.17909341534674167,-0.0008780249435454607,0.007301514085824601
1690839916429684000,7.40668408203125,0.17745032431483268,-0.002842895275726914,0.005801142293121665
1690839916439724800,7.416724853515625,0.173410109013319,-0.005573160489834844,0.0033415061473613603
1690839916449764900,7.426764892578125,0.17625030087530613,0.000005004968680441379,0.007272972977929748
1690839916459804700,7.4368046875,0.17535072168707846,0.0017402677960693836,-0.006815032043401151
1690839916469844700,7.4468447265625,0.1747515867501497,0.0032271636192686853,-0.0034722381212515755
1690839916479915800,7.456915771484375,0.18522504996955394,-0.0015822642227634786,0.0025757550724083557
1690839916489956900,7.466956787109375,0.17205401822924613,0.003540924009867012,0.005064288519090041
1690839916499997000,7.476996826171875,0.1722042403548956,0.0011726422422565518,0.0005616250712890177
1690839916510037000,7.487037109375,0.183427060636878,-0.006630323126260191,0.008579292636411264
1690839916520077000,7.4970771484375,0.17609540257453918,0.0044591896322555835,0.0014097617666469886
1690839916530118000,7.507117919921875,0.16861644499599932,0.001438965028245002,0.002751636795699596
1690839916540157700,7.51715771484375,0.1753536442965269,-0.0012680654407478868,0.004826863034022972
1690839916550197800,7.52719775390625,0.1805956366032362,0.002814454632531851,0.003159418445569463
1690839916560238800,7.53723876953125,0.17536358116865158,0.0006315941681154072,-0.0018380793144693597
1690839916570279000,7.54727880859375,0.17790858947634697,-0.00873807252785191,0.0010706523056607693
1690839916580319000,7.557319091796875,0.1659381656974554,-0.012313519861828536,0.003206234995671548
1690839916590359000,7.567359130859375,0.1828477994441986,0.001338262866437435,0.001142078140634112
1690839916600400000,7.57739990234375,0.17940321194827555,-0.003717486153170466,-0.0019046554443892091
1690839916610439700,7.587439697265625,0.17237024457156658,-0.0035507695504464207,-0.0056732963960617775
1690839916620510700,7.5975107421875,0.17371639848351478,0.004818305268231779,-0.003205225782096386
1690839916630550800,7.60755078125,0.180002931407094,0.0035345308016985653,0.004648446860350668
1690839916640590800,7.6175908203125,0.17656009747684,-0.002954886016529053,0.001630985035584308
1690839916650632000,7.6276318359375,0.17655775938928125,0.0040120486529544,-0.00012094579881522804
1690839916660672000,7.637672119140625,0.17670798151493072,0.004312712099961936,0.004882561576901935
1690839916670712000,7.647712158203125,0.17356383827030658,0.000220200355630368,-0.0011952102670911699
1690839916680751900,7.657751953125,0.17132161230146883,-0.0020859211622737345,-0.0017570088683161883
1690839916690792700,7.667792724609375,0.1789519610494375,0.0007228161155246197,-0.00014933620966039597
1690839916700832800,7.677832763671875,0.1832920360803604,-0.0023849771740846334,-0.008853214206965639
1690839916710872800,7.687872802734375,0.1792535743445158,-0.003390446155890822,0.0003345428837230429
1690839916720914000,7.697913818359375,0.17252105121910571,0.006403181573189794,0.003580429469770752
1690839916730954000,7.7079541015625,0.17521511260867118,0.004041585274692625,-0.0034030955749098208
1690839916740994000,7.717994140625,0.1753659192562103,0.0028662578850053248,0.004015377687779255
1690839916751033900,7.728033935546875,0.18958441422283648,0.0025237645902670917,0.007874866127525455
1690839916761074700,7.73807470703125,0.19033552485108374,-0.0025861075030639766,-0.0025681151886470612
1690839916771145700,7.748145751953125,0.1770183626383543,0.0010124467118643224,-0.0056371976027963676
1690839916781185800,7.758185791015625,0.1855482905745506,-0.005275182190258056,0.0037212901120306924
1690839916791225900,7.768225830078125,0.1792617576509714,-0.014032105549052357,-0.004058595774997957
1690839916801266000,7.778265869140625,0.1807563801229,-0.0027173326672986146,0.005704454152728431
1690839916811307000,7.78830712890625,0.17850947797894476,0.002710848127584904,0.005664578800066374
1690839916821347000,7.79834716796875,0.1812012012809515,0.002180705039948225,-0.000008895692508667706
1690839916831387000,7.808386962890625,0.18119827867150307,-0.002573722945526242,-0.003007059161760844
1690839916841427000,7.818427001953125,0.18314239847660063,-0.0066457216247916215,-0.0019755104572046545
1690839916851467800,7.8284677734375,0.18942483974695204,-0.006418799267429858,-0.0022499526175670326
1690839916861507800,7.8385078125,0.17445932580530643,0.0000941262905485928,0.008518109634239227
1690839916871548000,7.8485478515625,0.17191490201950071,0.007861910747829824,0.010399877393385396
1690839916881589000,7.858589111328125,0.18837386938929557,0.0024198658243753013,0.008714833216159604
1690839916891629000,7.868629150390625,0.18179098386764525,-0.005612286923825741,0.001973601627908647
1690839916901668900,7.8786689453125,0.1835878041565418,0.0010169036912731826,-0.0005463772698072716
1690839916911709000,7.888708984375,0.18358955772221086,-0.00039183059548959136,-0.0006834430863615125
1690839916921780000,7.898780029296875,0.17820435755252836,0.0007444251591339707,0.001148886907333508
1690839916931820800,7.90882080078125,0.168930333250761,0.0005862937216646969,-0.0013567072720034048
1690839916941860900,7.91886083984375,0.17327216184735297,-0.0025852489865384994,-0.0026010128112509846
1690839916951901000,7.92890087890625,0.1767179183870554,-0.014236158487480133,-0.003457912768376991
1690839916961941000,7.93894091796875,0.17507599639892577,-0.005217606784123927,0.00245774558277335
1690839916971982000,7.948982177734375,0.17926818739175795,0.0005651413357816637,0.007871756288409233
1690839916982032000,7.959031982421875,0.1759761601090431,-0.0022530030911788344,0.002833392228442244
1690839916992072000,7.969072021484375,0.17747312066853047,0.003602645868156105,0.008840720051573589
1690839917002112800,7.97911279296875,0.17283318590819835,-0.0012428579342551528,0.002420605609891936
1690839917012152800,7.98915283203125,0.174926358795166,-0.005632964385673404,0.005922074392205104
1690839917022193000,7.99919287109375,0.18435352783203124,-0.011320946894213556,-0.0010325898841721936
1690839917032233000,8.00923291015625,0.18166122000813484,-0.008411562253534793,-0.003847788868797943
1690839917042274000,8.019274169921875,0.1747778902351856,-0.004087177982088178,0.0026133334367070345
1690839917052313900,8.02931396484375,0.1771703383296728,-0.004292765290476381,-0.005084034399176016
1690839917062385000,8.039385009765626,0.17941548690795897,0.0008278839251957833,-0.0004804587270133197
1690839917072425000,8.049425048828125,0.17118658774495124,-0.0024046499889343975,0.003153258132841438
1690839917082465000,8.059465087890626,0.1788169364929199,-0.006473214602097869,-0.0012322360755410045
1690839917092505900,8.069505859375,0.18181027309000491,0.002083400411624461,-0.004258831054833718
1690839917102546000,8.0795458984375,0.1741816779077053,-0.0027474538109265264,-0.0015154232313623651
1690839917112585700,8.089585693359375,0.18061843295693397,0.0014152370927855372,-0.003791679333965294
1690839917122625800,8.099625732421876,0.178076347258687,0.005654226369410753,-0.005650326512428
1690839917132667000,8.1096669921875,0.17508710231482982,0.0047534233384765685,-0.005756010810029692
1690839917142707000,8.11970703125,0.1837666678547859,0.0010337817608378826,-0.0023461019018432123
1690839917152747000,8.1297470703125,0.172695823264122,0.0008340944702737033,-0.0035076473613502458
1690839917162787800,8.139787841796876,0.17673837665319442,0.0010730908579193055,-0.0018287726300070062
1690839917172828000,8.149827880859375,0.1676110673457384,-0.00036876024715602393,0.003303114932309836
1690839917182868000,8.159867919921876,0.16835808632075785,-0.011327285303454846,-0.0023931376476539297
1690839917192907800,8.16990771484375,0.16805881111323834,-0.008203691656515001,0.007397800367418677
1690839917202948900,8.179948974609376,0.17404548430740832,0.0018330058471299707,0.01201406655779574
1690839917213020000,8.19002001953125,0.17883271858394145,0.005219104621466249,-0.002141806934820488
1690839917223060000,8.20006005859375,0.17808394604325292,-0.004828954526409506,-0.0033237010626122354
1690839917233100000,8.21010009765625,0.17973112872838973,-0.0021096490977331995,0.006615047925314865
1690839917243140000,8.22014013671875,0.1801806260615587,-0.00012539821164682507,-0.001507317556720227
1690839917253181000,8.230180908203126,0.18346973073482511,0.000816540547274053,-0.002453347968868911
1690839917263220700,8.240220703125,0.18272037367224692,0.001684427689295262,-0.003297593940398656
1690839917273260800,8.2502607421875,0.18212357682287691,-0.011562555364053696,0.0021063428957946596
1690839917283302000,8.260302001953125,0.18361819929480552,-0.010285155839379877,0.0026660226051695643
1690839917293342000,8.270342041015626,0.17403963908851144,-0.006905340675357729,0.00003403470034245401
1690839917303382000,8.280382080078125,0.17748071945309637,-0.007964640469942242,0.0002670077725779265
1690839917313422000,8.290422119140626,0.17867723576128483,0.002806198260840028,0.00030052644968964155
1690839917323463000,8.300462890625,0.1821200696915388,0.006120072049181908,0.002470737495087087
1690839917333503000,8.3105029296875,0.1860106473892927,0.0016411182705312966,0.0020519092948175967
1690839917343542800,8.320542724609375,0.18137246619462966,0.004180646685510873,-0.0022863756378181275
1690839917353582800,8.330582763671876,0.18092472242712973,0.0051166306276805695,-0.002073431573458947
1690839917363654000,8.34065380859375,0.1783814676851034,0.005300115702114999,0.003097354093985632
1690839917373695000,8.350695068359375,0.1852653819799423,0.011908811518456786,0.007551214530575089
1690839917383735000,8.360735107421876,0.17987492111325262,0.00099980642599985,0.004335143127478659
1690839917393775000,8.370775146484375,0.1708972494095564,0.004336896693147719,0.000948149303998798
1690839917403815000,8.38081494140625,0.176882753559947,-0.0020950725831091403,-0.003053542351722717
1690839917413855700,8.390855712890625,0.19154723872840404,0.006269216462597251,-0.011277674008067697
1690839917423895800,8.400895751953126,0.1834668081253767,0.003287972162105143,0.0007838210211833939
1690839917433936000,8.410935791015625,0.1794277618676424,0.0004763670737855136,0.000733278144034557
1690839917443977000,8.42097705078125,0.18960194987952708,0.0055167723937891424,0.0016867292442359029
1690839917454017000,8.43101708984375,0.17149638434648512,-0.0025642609974369404,-0.0002258720445912331
1690839917464057000,8.44105712890625,0.1803238339245319,0.0021862762642093003,0.0017469897978007792
1690839917474097000,8.451096923828125,0.17209376571774482,-0.002008362414035946,0.001451934107672423
1690839917484137700,8.4611376953125,0.1758370438992977,-0.005348375290632247,0.004278837229823694
1690839917494177800,8.471177734375,0.17104805605709553,-0.0006127798697911202,-0.009260018609301186
1690839917504248800,8.481248779296875,0.17598434341549873,0.005144048357568681,-0.004394682161835953
1690839917514289000,8.491288818359376,0.1797270370751619,0.0034115985417738554,0.005230945756309666
1690839917524329000,8.501328857421875,0.18062486269772052,-0.00631289120754227,0.006281436623353511
1690839917534370000,8.5113701171875,0.1782283229500055,-0.010015946976561099,-0.0017498484751675277
1690839917544410000,8.52141015625,0.177244572609663,0.0035140908018685877,-0.009072747842315584
1690839917554450000,8.531449951171876,0.3819464764654636,0.005222940546367317,-0.1181014057021588
1690839917564489700,8.54148974609375,-0.11631517987251282,-0.7048964279524982,-0.47635450656488537
1690839917574530800,8.55153076171875,-0.0899602569103241,0.05434274435583502,0.943401963341236
1690839917584571000,8.56157080078125,0.3278793707132339,0.13456705854106693,-0.19367736435858532
1690839917594611000,8.57161083984375,0.22086919480264186,-0.004872391809336841,-0.05353312217311468
1690839917604652000,8.581652099609375,0.27743746972084044,0.11699043051926418,-0.13744703442417083
1690839917614692000,8.591692138671876,0.20333412263393402,0.07395694261984899,0.0035618343671550974
1690839917624732000,8.60173193359375,0.3017471505910158,0.3170711956467479,0.23358745954046026
1690839917634771700,8.611771728515626,0.34206863958537576,0.4273237875446677,-0.11593726820452138
1690839917644812800,8.621812744140625,0.16351766055226324,0.0020597272750921547,-0.09240699247531592
1690839917654883800,8.6318837890625,0.27647943834364413,0.12603460985422132,0.1520933628814295
1690839917664924000,8.641923828125,0.2378250057786703,0.2024275657156482,-0.04037436995906755
1690839917674964000,8.6519638671875,0.1499257730513811,-0.07538357788948341,-0.06038444480602629
1690839917685004000,8.662004150390626,0.18394319346547125,0.05134301455058157,0.03123345681794453
1690839917695045000,8.672045166015625,0.17137655735909937,-0.06648636927716434,-0.04962639249158091
1690839917705085000,8.6820849609375,0.11640636528730391,-0.08303650379544124,-0.013115534126828424
1690839917715124700,8.692124755859375,0.11016951672434806,-0.0926950521690771,0.06585081131998449
1690839917725165800,8.702165771484376,0.12110358319282531,-0.11216125679714604,0.07840351023254916
1690839917735206000,8.712205810546875,0.10025953260660171,-0.12181430701175704,0.04465635812720284
1690839917745246000,8.722245849609376,0.11108780061304568,-0.12057354970304295,0.0032440964877605435
1690839917755286000,8.7322861328125,0.14313012156188487,-0.11002822682382538,-0.034245310885831715
1690839917765327000,8.7423271484375,0.15134323863387106,-0.08980161401620135,-0.06624586591902189
1690839917775366700,8.75236669921875,0.16312953801751137,-0.056690969716105606,-0.05607581065956037
1690839917785406700,8.76240673828125,0.1793973667293787,-0.027849819428753107,-0.03204159486305434
1690839917795446800,8.77244677734375,0.19552491018772125,0.0026298187806271015,-0.009288007161347195
1690839917805517800,8.782517822265625,0.19596271708309648,0.03335689241243526,0.009651324048405513
1690839917815559000,8.792558837890626,0.18984686455130576,0.05568455088622868,0.028956154969148336
1690839917825599000,8.802598876953125,0.20517185945510863,0.062482558729592706,0.04224078945203218
1690839917835639000,8.81263916015625,0.21560440614223478,0.08037751371925696,0.0352594609310152
1690839917845678800,8.822678955078125,0.20528350313603877,0.0979935421696864,0.02399493409888819
1690839917855719700,8.8327197265625,0.21804653859734535,0.09856946062780916,0.0011264832792803644
1690839917865759700,8.842759765625,0.2061585324048996,0.09607925124727189,0.000527156546106562
1690839917875799800,8.8527998046875,0.21420389169454573,0.09357523253709077,-0.009370662209810688
1690839917885841000,8.8628408203125,0.21044483142197132,0.06542129732891917,-0.019165472682402467
1690839917895881000,8.872880859375,0.19786475131213663,0.061218785871472205,-0.012179920077417045
1690839917905921000,8.882921142578125,0.19889993957877158,0.041982188748195766,-0.008916032043797895
1690839917915960800,8.8929609375,0.16760522212684154,0.018996924882195888,-0.005115187589265406
1690839917926001700,8.903001708984375,0.1726525686442852,-0.011644498026464134,0.006395537122851238
1690839917936041700,8.913041748046876,0.16301263363957405,-0.020228384639602155,0.011917387550557032
1690839917946112800,8.92311279296875,0.14960428601205347,-0.02924425119552761,0.005362819374515675
1690839917956152800,8.93315283203125,0.14708967284262178,-0.04509652137644589,0.0006169217553688213
1690839917966193000,8.94319287109375,0.15816227099895477,-0.054626474934350695,-0.0006389783235499635
1690839917976234000,8.95323388671875,0.15408756890594957,-0.05261741840057075,-0.010229160468978806
1690839917986258200,8.963258056640624,0.15806640940904618,-0.06396887003090232,-0.017064751243218778
1690839917996298200,8.97329833984375,0.16277297966480253,-0.05697468202831223,-0.018820335339428857
1690839918006338300,8.98333837890625,0.15564590426385402,-0.03519616360357031,-0.010449639385822228
1690839918016379400,8.99337939453125,0.17365034750998018,-0.02665770530104637,-0.005663601552532054
1690839918026419200,9.003419189453124,0.16711363921761513,-0.006895860460959374,0.004476204699138179
1690839918036459300,9.013459228515625,0.1749485706269741,0.0028613807804882523,0.0036355434907600283
1690839918046500000,9.0235,0.1898310824602842,0.020119736633356658,0.0037196689771022647
1690839918056540200,9.0335400390625,0.19126433013379573,0.039294465767871586,0.006738806735724211
1690839918066580200,9.043580322265624,0.2060363673299551,0.04616480819508433,0.009092543954751453
1690839918076620300,9.053620361328125,0.19374562555551528,0.05256895788265392,0.002329502393491566
1690839918086661400,9.063661376953124,0.19435119023323058,0.06627740270160139,0.004215279607474804
1690839918096732400,9.073732421875,0.2002145293086767,0.05644506866363808,0.0008932407789863646
1690839918106772200,9.083772216796875,0.19337971485257147,0.04683793994998559,-0.005171393022220581
1690839918116812300,9.093812255859374,0.19928104785084724,0.04894950701016933,0.0035190546713536604
1690839918126852400,9.103852294921875,0.1855892071068287,0.03681178210666403,0.01093353674551472
1690839918136893200,9.11389306640625,0.1805816080778837,0.03297355565065518,-0.0004538264484144747
1690839918146933200,9.123933349609375,0.17542144883573055,0.021315832816436887,-0.008347205480164847
1690839918156973300,9.133973388671874,0.16875497668385506,0.00883515796046704,-0.0037698739275336263
1690839918167014400,9.144014404296875,0.17045418181717395,-0.0022735344225540757,-0.008549002529424615
1690839918177054200,9.15405419921875,0.1703425381362438,-0.021281820948980748,-0.008886997745558619
1690839918187094300,9.16409423828125,0.1568932739764452,-0.027350656001269815,-0.005819422301906161
1690839918197134300,9.17413427734375,0.15554712006449697,-0.031616807279456406,-0.0005972626402508467
1690839918207175200,9.184175048828125,0.1552326472878456,-0.029853414336126295,0.0009138999745249747
1690839918217215200,9.19421533203125,0.15804595114290712,-0.026044487039837985,0.0005887185741914435
1690839918227255300,9.20425537109375,0.16294190649092197,-0.030368104126304387,0.003922840566118247
1690839918237296400,9.21429638671875,0.15944880367815495,-0.026294132685661314,-0.004353582966467365
1690839918247366100,9.2243662109375,0.1783949116885662,-0.008943203178513794,-0.002958352048671804
1690839918257407200,9.2344072265625,0.18357611371874807,0.004587711382750421,0.004407843037508428
1690839918267447300,9.244447265625,0.18023498659729956,0.0054328387036919595,-0.004752847949741408
1690839918277487400,9.2544873046875,0.18647358872592448,0.024841961115971208,-0.006188648339943028
1690839918287527400,9.26452734375,0.18688976831138132,0.032518523625843225,-0.002825734078371897
1690839918297568300,9.274568359375,0.19405016146004198,0.03210643569361418,-0.0034250060126185416
1690839918307608300,9.2846083984375,0.19030220710337162,0.042759420198388395,0.0019003171959891913
1690839918317648100,9.294648193359375,0.19015783019661903,0.041178507682494814,0.009407240493688731
1690839918327689200,9.304689208984374,0.19272154320478438,0.03775594935528934,0.008605806184001266
1690839918337729300,9.314729248046875,0.19275310738682747,0.03466512546679005,0.0038015020416583864
1690839918347769300,9.324769287109374,0.18725450997054577,0.030473336332757023,0.007342215988971293
1690839918357809400,9.334809326171875,0.18011282152235508,0.02889839689992368,0.0029315005743643266
1690839918367850200,9.344850341796874,0.1780588116019964,0.011598046802543102,0.0013427837779279798
1690839918377890300,9.354890380859375,0.17420564330518246,0.012831424522399902,-0.0019618472580332307
1690839918387930000,9.36493017578125,0.17483809598982333,0.009444503764156252,0.0034653197566978633
1690839918398001200,9.375001220703124,0.1747182690024376,-0.00025083295591175555,0.0020296837632777166
1690839918408041200,9.385041259765625,0.17084522696137427,-0.009946608067397028,-0.0021476338874083013
1690839918418082300,9.395082275390624,0.16636311311125754,-0.016805844578705726,-0.0039731596809811885
1690839918428122400,9.405122314453125,0.15798048469126225,-0.011222491488419473,0.004186263575544581
1690839918438162400,9.415162353515624,0.17352935147881507,-0.011908281795494257,0.003483668264141306
1690839918448202500,9.425202392578125,0.17380992198586462,-0.00656834553964436,0.0051331251047551625
1690839918458243300,9.435243408203124,0.1661474245339632,-0.008736720820982008,0.007806664296099916
1690839918468283100,9.445283203125,0.16970540927648542,-0.0014205343224108218,0.004527724823821336
1690839918478323200,9.4553232421875,0.1777507685661316,-0.0025730836247093974,-0.003576424581510946
1690839918488364300,9.4653642578125,0.1787654985666275,0.011626615309901535,0.004435950320563279
1690839918498404400,9.475404296875,0.17469781073629856,0.01783964460585266,0.005219638911006041
1690839918508444400,9.4854443359375,0.18200901053249835,0.012950210330169647,0.006784956565545871
1690839918518484500,9.495484375,0.18573475305736065,0.025495237392932173,0.001724257376184687
1690839918528525300,9.505525390625,0.18602759852409362,0.030773853649292138,0.00159425605465658
1690839918538596000,9.51559619140625,0.1842342853665352,0.03177495698323473,0.008439153513358905
1690839918548636200,9.52563623046875,0.18244740194976328,0.022675522063393145,0.011074461319856345
1690839918558676200,9.53567626953125,0.18291151233017444,0.030156598533783108,0.004127756587648764
1690839918568716300,9.54571630859375,0.18352818292379378,0.03495937743932009,0.0007846612713998183
1690839918578757400,9.55575732421875,0.17980887013971805,0.028062694994453338,0.011383691665809601
1690839918588797400,9.56579736328125,0.1828220804810524,0.016741273176204413,0.007475103387329727
1690839918598837200,9.575837158203125,0.1829921763509512,0.012046338559314609,-0.0030969522351864723
1690839918608878300,9.58587841796875,0.17328852846026419,0.004148059590160846,0.00484874150569085
1690839918618918100,9.595918212890625,0.1706084955960512,0.0011063172740861773,0.008730647273221984
1690839918628958200,9.605958251953124,0.16538345442414282,-0.0015694412738084791,0.0009197086608037352
1690839918638998300,9.615998291015625,0.17511691293120382,-0.000980681600421667,-0.004859541460918262
1690839918649039400,9.626039306640624,0.1728735179185867,0.0002560571203008294,-0.002871664712484926
1690839918659079400,9.636079345703125,0.18633447251617907,-0.011243315080739558,0.00030622553811408576
1690839918669119200,9.646119140625,0.168665544834733,-0.007227759296447038,0.003548531927587464
1690839918679160300,9.656160400390625,0.16939502815306184,-0.0009267046571709215,0.0024182675223331897
1690839918689230000,9.66622998046875,0.17431261081099508,0.0027650990654714404,-0.010103712024982087
1690839918699271200,9.676271240234374,0.17234511013031004,-0.003022745354659855,-0.00033534203474409874
1690839918709311200,9.686311279296875,0.18130232356786727,0.007074979887530208,0.00191257845594082
1690839918719351300,9.696351318359374,0.17799276062846184,0.005760116162989288,0.0011576182030607015
1690839918729391400,9.706391357421875,0.17019991479516028,0.011218673829827457,0.003408420203998685
1690839918739432400,9.716432373046874,0.17184008321762084,0.012621435033529997,0.002442940739286132
1690839918749472300,9.72647216796875,0.1921855366319418,0.016271481973677872,0.004051787008298561
1690839918759512000,9.736511962890624,0.16300386581122875,0.01707220389731228,0.000668263783538714
1690839918769553200,9.74655322265625,0.18201017957627771,0.018828746974747627,0.003564725010562688
1690839918779593200,9.75659326171875,0.170495098349452,0.02420307869054377,0.002312236164859496
1690839918789633300,9.76663330078125,0.18232640591859817,0.022398824013862756,0.005190426516253501
1690839918799673300,9.77667333984375,0.1859288143247366,0.015684713327977804,0.009553202002751641
1690839918809714400,9.78671435546875,0.17651508929133414,0.015027655925042927,0.0023145240200683473
1690839918819754200,9.796754150390624,0.19493746568858622,0.008051332372706383,0.004409286075923591
1690839918829794000,9.8067939453125,0.16083645864427087,0.01004917339272797,0.0040904476514086125
1690839918839865000,9.816864990234375,0.18673662357628346,0.008278857518266887,-0.0014495275214547292
1690839918849905200,9.8269052734375,0.16070786382853983,0.010373765704594551,0.004349445647466928
1690839918859946200,9.8369462890625,0.19662556490600108,0.0020565124046988785,-0.0016541649817721918
1690839918869986300,9.846986328125,0.15397475618124007,0.0025024478076025843,-0.0009240606089355424
1690839918880026400,9.8570263671875,0.1948205613106489,0.0008172164007090031,-0.006982205303851514
1690839918890067500,9.8670673828125,0.17131576708257198,0.003035732700396329,-0.003043527847784571
1690839918900107300,9.877107177734375,0.17729074983894824,-0.0006736249452456831,0.0064774752186844125
1690839918910147000,9.88714697265625,0.16425766526460647,0.006952979209367186,0.001128876165766269
1690839918920187100,9.897187255859375,0.17561901723444462,0.0064904214652255175,0.005862731720670126
1690839918930228200,9.907228271484374,0.17860066339373587,-0.0011777385424822568,0.005083258081041276
1690839918940268300,9.917268310546875,0.1854758098602295,0.003981178590655327,-0.0029235455967718733
1690839918950308400,9.927308349609374,0.17649287745952605,0.016792893765587357,-0.007515330366441048
1690839918960348400,9.937348388671875,0.19160335282981394,0.014892302574962376,-0.0003998038393910974
1690839918970389200,9.94738916015625,0.1688572680145502,0.017079382556769995,-0.004879944928130135
1690839918980460300,9.957460205078124,0.20042963336408137,0.00751711589815095,-0.0017110508347395806
1690839918990490400,9.967490478515625,0.16047580863833427,0.011136018781363964,0.007337457615463063
1690839919000530400,9.977530517578124,0.18501871374249457,0.012311218306887894,0.0015932788071222601
1690839919010570200,9.9875703125,0.17470073334574698,0.015167173993587493,0.004501138210995122
1690839919020611300,9.997611328125,0.18443477637469768,0.011574939921591431,0.00919995898513589
1690839919030651400,10.0076513671875,0.17262100446224213,0.012438899807166308,0.004202059366297908
1690839919040691500,10.01769140625,0.17427461688816545,0.010005845707654953,0.00013729871199466288
1690839919050732300,10.027732177734375,0.17188742949068544,0.003477265922818333,0.0027132364474935456
1690839919060772400,10.0377724609375,0.16964754160940645,0.0012405198466964066,-0.001182967273448594
1690839919070812400,10.0478125,0.17578619049489497,-0.002469988576415926,-0.0077163008652161805
1690839919080852500,10.0578525390625,0.16845336338877676,0.011432791504543275,-0.006033352746954187
1690839919090893600,10.0678935546875,0.17638006473481654,0.008186283863987773,-0.01090494083869271
1690839919100933400,10.077933349609374,0.1795177782386541,-0.002006371386349201,0.000916959581291303
1690839919110973400,10.087973388671875,0.1673889490276575,0.0023113274159841236,0.00591489573274739
1690839919121014300,10.09801416015625,0.18249591726660727,0.006105714730266481,0.01032922330996953
1690839919131084500,10.10808447265625,0.17381050650775431,-0.00030786037277430293,0.0069956173412734635
1690839919141125400,10.11812548828125,0.18443302280902862,-0.0029659919324330985,0.007557744736061431
1690839919151165400,10.12816552734375,0.18307985463440418,0.00005123699689283967,-0.0009203890808159485
1690839919161205200,10.138205322265625,0.1830734248936176,0.012828118320461362,0.0018651819505263118
1690839919171245300,10.148245361328126,0.17768237950503826,0.010448511441238224,0.0014671225436497478
1690839919181286400,10.158286376953125,0.17588614373803138,0.005034304372780025,-0.00299921834859997
1690839919191326500,10.168326416015624,0.18127309747338294,0.010700805701874197,-0.012776246569328941
1690839919201366500,10.178366455078125,0.17214345007836818,0.009867332286108284,-0.0010378734140656888
1690839919211407400,10.188407470703124,0.17663433175683022,0.011722696095518768,0.009313771790266037
1690839919221447400,10.198447509765625,0.1751397092849016,0.014338175823539495,0.0016219569123350082
1690839919231487200,10.2084873046875,0.1745434969574213,0.009963486136961727,-0.004223910438502207
1690839919241527300,10.21852734375,0.1829296325087547,0.011545823424961417,0.008276729493262245
1690839919251568400,10.228568359375,0.17276245875954627,0.01515195815814659,0.017919322245940564
1690839919261608400,10.2386083984375,0.1745657087892294,0.0033348435111343858,0.007692052339948714
1690839919271648500,10.2486484375,0.17322481557428837,0.010266378073673695,-0.0015647559655364602
1690839919281719600,10.258719482421874,0.17651918094456195,0.0036130576643161475,0.005134622942097484
1690839919291759600,10.268759521484375,0.17981179274916648,0.001682381862681359,0.0031665057734819126
1690839919301800400,10.278800537109374,0.17412264119684695,-0.0018668533178046345,0.0008600143628194927
1690839919311840300,10.28884033203125,0.1682820984750986,0.005595701115205884,0.0009121555420104414
1690839919321880300,10.29888037109375,0.17276421232521533,0.002486062928382307,-0.005200724147981964
1690839919331921400,10.30892138671875,0.17948796762228011,0.0058702437402680515,-0.0019391376693034543
1690839919341961500,10.31896142578125,0.1746948881268501,0.005979786795657128,0.011680254326434806
1690839919352001500,10.32900146484375,0.17184885104596614,0.008122205651830881,0.011020927334600127
1690839919362041600,10.33904150390625,0.1764864477187395,-0.0018056246498599647,0.004893073837761767
1690839919372082400,10.34908251953125,0.17828268348574638,-0.0015290909971110522,0.006882781783677637
1690839919382122200,10.359122314453124,0.17843173656761646,0.008604308346658944,0.0038788918265374376
1690839919392162300,10.369162353515625,0.17259353193342686,0.0043054055763408535,-0.0014182738666655495
1690839919402203400,10.379203369140624,0.16660627421736715,0.012284293767344205,-0.0008866557745728642
1690839919412243500,10.389243408203125,0.16989654793441294,0.01658127857521176,-0.010719610867043957
1690839919422314500,10.399314453125,0.17708149100244044,0.01071298933001235,-0.004260433923453093
1690839919432354600,10.4093544921875,0.17887714224755763,0.012066979488544165,0.0003028097383212298
1690839919442394400,10.419394287109375,0.1827694735109806,0.006167107794992625,0.009846385396202095
1690839919452434200,10.42943408203125,0.1806774696677923,0.007194003157317638,0.005200390787841752
1690839919462475300,10.439475341796875,0.17813538396954534,0.010973996620066463,0.003477654081885703
1690839919472515300,10.449515380859374,0.18143091838359832,0.0054269204195588824,0.0049240580644924195
1690839919482555400,10.459555419921875,0.17739304116964338,0.003564030890818685,0.005520448488485999
1690839919492596500,10.469596435546874,0.17529928376078605,0.008972849398106336,0.005024413166427984
1690839919502636500,10.479636474609375,0.1794885521441698,0.009534045211132615,0.007175275623961351
1690839919512676400,10.48967626953125,0.18502397443950175,0.00140283426893875,0.00047461350811645384
1690839919522716200,10.499716064453125,0.17993571138978004,0.010980335029307751,-0.0009350660601397976
1690839919532757200,10.50975732421875,0.17245324667990206,0.003930215588398278,-0.001641565795103088
1690839919542797300,10.51979736328125,0.1752916849762201,0.007059745785780251,-0.008114880861900747
1690839919552837400,10.52983740234375,0.18411796551048754,0.0098400972193107,-0.0013855771734612062
1690839919562878500,10.53987841796875,0.17663257819116115,0.004334394208807498,-0.0062872179101686925
1690839919572948500,10.549948486328125,0.16959551916122437,0.0070231218361295755,-0.000700280056730844
1690839919582989600,10.559989501953124,0.17797347140610217,0.008882449434604495,-0.0006166523273102939
1690839919593029400,10.570029296875,0.18276129020452497,0.010510141967982053,0.004576614600000903
1690839919603069200,10.580069091796876,0.17108897258937358,0.014541808636859058,0.009303542657196521
1690839919613109200,10.590109130859375,0.17408347823023795,0.01594405838390812,0.0034976465571438893
1690839919623150300,10.600150390625,0.1874012249648571,0.009206402425654231,-0.0020305194469168782
1690839919633190400,10.6101904296875,0.1835088937014341,0.0020890447011217474,-0.0034413178266026077
1690839919643230500,10.62023046875,0.17303367691636085,0.009845010856445879,-0.0026956322921440003
1690839919653271600,10.630271484375,0.1862017860472202,0.0026718312914483246,-0.0007623900740873068
1690839919663311400,10.640311279296874,0.1865028148204088,0.0031438875162974,-0.00387396448967047
1690839919673351200,10.65035107421875,0.19054478368759153,0.006360602806787938,-0.0053728247452992945
1690839919683391200,10.66039111328125,0.17723054408431052,0.0002621580675244331,-0.005822614339413121
1690839919693432300,10.670432373046875,0.17888006485700605,0.01204986395696178,-0.003944335445296019
1690839919703472400,10.680472412109374,0.18561667963564396,0.007980550425127148,-0.000673076955974102
1690839919713512400,10.690512451171875,0.17319909661114216,0.01165089123463258,-0.0011790171841159463
1690839919723583500,10.70058349609375,0.16706570842266083,0.0063366556756198405,0.005086778912111185
1690839919733623600,10.71062353515625,0.17424597531557082,0.001302570498548448,-0.0008425152387470006
1690839919743664400,10.720664306640625,0.18127835817039012,0.0036321824898943303,0.007540624637901783
1690839919753704200,10.7307041015625,0.1808259382277727,0.006171546508092433,0.0054296968985348935
1690839919763744300,10.740744140625,0.1847124242722988,0.004659735439345241,-0.004617111007170751
1690839919773785300,10.750785400390624,0.17513327954411506,0.011148001480102539,-0.006422032404132187
1690839919783825400,10.760825439453125,0.1646568937152624,0.012017477791011333,-0.006035850664717145
1690839919793865500,10.770865478515624,0.1754319702297449,0.005211816364154219,-0.0005578622116241604
1690839919803905500,10.780905517578125,0.17976853812932966,0.008445044398028402,0.00042086489372886713
1690839919813946400,10.7909462890625,0.1785690992116928,0.012218461989518254,0.007624348265444859
1690839919823986200,10.800986083984375,0.17512743432521818,0.005509484136477113,0.005347809035051614
1690839919834026200,10.811026123046876,0.16989187175929546,0.007637216880172491,0.00126312440414913
1690839919844067300,10.8210673828125,0.18021745094060898,0.0031545915734022853,0.005331054263073019
1690839919854107400,10.831107421875,0.18740180948674678,0.010833857497014104,0.006137639671913348
1690839919864147500,10.8411474609375,0.17812661614120007,0.011661741422209888,0.01014634102373384
1690839919874218500,10.851218505859375,0.17797756305932996,0.007933934804424643,0.002672794839250855
1690839919884258600,10.861258544921874,0.17648177154362202,0.018733433374110608,-0.0011177108843578025
1690839919894298400,10.87129833984375,0.17274200049340724,0.014180665440578014,-0.002098269187193364
1690839919904339200,10.881339111328124,0.17199322795271874,0.007317446873895824,0.0014031356630381196
1690839919914379300,10.891379150390625,0.17348785042464732,0.0026323212649673224,-0.0009901115824701263
1690839919924419300,10.90141943359375,0.18111819917261598,0.006341660644300281,0.0008417389206122607
1690839919934460400,10.91146044921875,0.18081892396509647,0.014273440024256706,0.012815341037278993
1690839919944500500,10.92150048828125,0.17677987770736217,0.007268200904689729,0.008151751406723633
1690839919954540500,10.93154052734375,0.1808212620526552,-0.0009257548091001808,0.00263607042490039
1690839919964580400,10.941580322265626,0.18441022645533084,0.011546353147923946,0.005243476444319822
1690839919974621200,10.95162109375,0.1850081923484802,0.011504614631738514,0.0075283770776819435
1690839919984649700,10.961649658203125,0.18186521814763545,0.008938837530650197,0.001276632339693606
1690839919994689800,10.971689697265624,0.18321078753769396,0.011000245306175202,0.006102956517599523
1690839920004730600,10.981730712890625,0.1838058308213949,0.00862412729198113,-0.005804242999083362
1690839920014801000,10.99180078125,0.17916706510484218,0.006852057851850986,-0.007329703567270189
1690839920024841700,11.001841796875,0.18575228871405122,0.009305405820719898,0.009799874806776642
1690839920034881800,11.0118818359375,0.1809609627842903,0.005320884495507925,0.009820707532251253
1690839920044921900,11.021921875,0.17288053218126295,0.0021750242178328336,0.0038455055801663546
1690839920054961700,11.031961669921875,0.1793137800991535,-0.0019073314586654305,-0.0035031127501279112
1690839920065002800,11.042002685546874,0.17736498411893845,0.01022246586671099,-0.0003725094070890918
1690839920075042800,11.052042724609375,0.1858931584894657,0.006274166632350534,0.0072130092518869785
1690839920085083000,11.062082763671874,0.1818541122317314,0.0061259903333149845,-0.0034179095515515655
1690839920095123700,11.072123779296875,0.17227905915677547,0.013382318137120455,-0.0013166218567872419
1690839920105163800,11.082163818359374,0.1857446899294853,0.006905304142739623,0.00038711788775399323
1690839920115203800,11.092203857421875,0.18544658376574516,0.002143953226134181,-0.00933090102158021
1690839920125243600,11.10224365234375,0.18080723352730274,0.0033222762905061242,0.0004323087363503873
1690839920135284700,11.11228466796875,0.18320201970934866,0.011891659454256295,-0.0008258472317364066
1690839920145324800,11.12232470703125,0.18305179758369922,0.0027372429441660643,0.00888251336668618
1690839920155364900,11.13236474609375,0.17556816383004187,0.009413597169239073,0.009085232864553108
1690839920165436000,11.142435791015625,0.18215163387358188,0.01103575501097366,0.0032578099192818624
1690839920175475700,11.152475830078124,0.16658873856067657,0.011921031679213046,0.008502281877445056
1690839920185516800,11.162516845703125,0.17152502591907978,0.0016571926224976778,0.0031965447187190872
1690839920195556900,11.172556884765624,0.18394436250925064,0.008648257086239754,0.003966766472812742
1690839920205596700,11.1825966796875,0.17182313208281993,0.011190872507449238,-0.00040702359804417935
1690839920215637800,11.1926376953125,0.17616203806996344,0.0020455708855763076,-0.002756399735785089
1690839920225677800,11.202677734375,0.17840543308258056,0.011703425139468163,0.001362744287145324
1690839920235718000,11.2127177734375,0.1698719980150461,0.010509721842873842,0.008061150513822212
1690839920245757700,11.2227578125,0.17211305494010448,0.007198533201962709,0.0023202779074199494
1690839920255798800,11.232798828125,0.17046353416740892,0.009923793447390198,0.0013860520974965766
1690839920265838800,11.2428388671875,0.17525193748772144,0.00839088479168713,-0.0006019342487910762
1690839920275878700,11.252878662109374,0.17255787609815595,0.005817691569123417,0.012269452391238882
1690839920285919700,11.262919677734375,0.17899053949415683,0.004269092153944075,-0.003037285336665809
1690839920295959800,11.272959716796874,0.1894657562792301,0.003386537165753543,-0.003856200504116714
1690839920306000000,11.282999755859375,0.17674714448153972,-0.0009410437097772956,0.0030021226917393506
1690839920316071000,11.29307080078125,0.18273147958815097,0.003504939381033182,0.004039690145128406
1690839920326110700,11.30311083984375,0.18243337342441082,0.0008794679819606245,0.006985516072367318
1690839920336150800,11.31315087890625,0.1704611960798502,0.0012918116425164044,0.005842835143534467
1690839920346192000,11.32319189453125,0.17345102554559708,0.006578885199967771,-0.0041132303053746
1690839920356231700,11.333231689453125,0.17614391789138317,0.003991005864925682,-0.005234841046715155
1690839920366271700,11.343271728515624,0.17958558277785777,0.007871664956863969,-0.006523894476564601
1690839920376312800,11.353312744140625,0.18138181854486465,-0.00037449586819857355,0.004151301860017702
1690839920386353000,11.363352783203124,0.18362638260126113,-0.003944627706240863,0.0032065226900391277
1690839920396392700,11.373392822265625,0.17509820823073385,0.004624024805147201,-0.0016178378596436232
1690839920406432800,11.383432861328124,0.17629297097325325,0.005146258580964058,0.0013614976115524768
1690839920416473900,11.393473876953125,0.1786865881115198,0.006590520838834345,-0.0010579754871781915
1690839920426513700,11.403513671875,0.18137655784785747,0.006176021753810346,-0.005513082599360495
1690839920436553700,11.4135537109375,0.18825988762080667,0.0075362041911110275,-0.0033242992842337114
1690839920446594800,11.4235947265625,0.1786789893269539,0.009858436593599617,0.002733324820874259
1690839920456664800,11.433664794921874,0.17733341993689536,0.009920578576996922,0.00490958201456815
1690839920466706000,11.443705810546875,0.17149872243404388,0.002334032438136637,0.004436169516271912
1690839920476745700,11.453745849609374,0.17374445553421974,0.0019092494211159646,0.012165763687901197
1690839920486785500,11.46378564453125,0.1801771189302206,0.007388630680274218,0.007713894278998486
1690839920496826600,11.47382666015625,0.17074702728390692,0.005633128782454878,0.001526086189271882
1690839920506866700,11.48386669921875,0.1755365996479988,0.005075093040894717,-0.0036753823108039794
1690839920516906800,11.49390673828125,0.17748598015010356,0.0046184535808861255,0.0007178842120803892
1690839920526946800,11.50394677734375,0.18361995286047458,0.0045811903104186055,0.005170548205426894
1690839920536988000,11.51398779296875,0.17987901276648044,0.002180869436729699,0.00043160548345185813
1690839920547027700,11.52402783203125,0.17673779213130472,0.00851091270847246,0.0059737315142061554
1690839920557067800,11.53406787109375,0.18242402107417582,0.00953894058195874,0.003998120592301711
1690839920567107600,11.544107666015625,0.18108020524978638,-0.0017291618801653385,-0.0013886641796911135
1690839920577148700,11.554148681640624,0.1819762773066759,0.005820248852390795,0.00842360431777779
1690839920587188700,11.564188720703125,0.1797328822940588,0.002559438691847026,0.00809834071905352
1690839920597228800,11.574228759765624,0.17718670494258404,0.005888290853612125,0.0052602266497211525
1690839920607299800,11.5842998046875,0.16895546769201755,0.007515161403082311,0.0026222108629066496
1690839920617340000,11.59433984375,0.1785334433764219,0.006945325625874102,0.0003306475933175534
1690839920627380700,11.604380615234374,0.1816793401867151,0.009644647712446748,-0.0015315889148740096
1690839920637420500,11.614420654296875,0.1767436373502016,0.014660265651065856,-0.0029643296983093022
1690839920647460600,11.624460693359374,0.18108429690301417,0.00796173612680286,0.0017531729434151202
1690839920657501700,11.634501708984375,0.17973931203484533,0.009082757779676466,0.004422853376972489
1690839920667541800,11.644541748046874,0.18617489804029463,0.0032992424747906625,0.00682884593962226
1690839920677581800,11.654581787109375,0.1830313393175602,0.008167451299354433,0.0031211596612585706
1690839920687622000,11.664621826171874,0.18093349025547503,0.011654982887860387,0.002844055186351761
1690839920697662700,11.674662841796875,0.1762941400170326,0.008743022697605192,0.007931610416597686
1690839920707702800,11.684702880859374,0.17390110740065573,0.0008603796890005469,0.010079682695423252
1690839920717742600,11.69474267578125,0.18616963734328745,0.004381959677580744,0.004486753492616117
1690839920727783700,11.70478369140625,0.18227847512364387,0.0018172968213446437,0.0013526384516619144
1690839920737823700,11.71482373046875,0.1827256343692541,-0.00217696044659242,0.0001422762812115252
1690839920747863800,11.72486376953125,0.18377368211746214,0.015813180279545484,0.0009154891434125602
1690839920757934800,11.734934814453124,0.18960721057653426,0.011968560615368187,-0.001649128047050908
1690839920767975000,11.744974853515625,0.17943009995520115,0.009845778041426091,-0.00029364918433129783
1690839920778014700,11.7550146484375,0.17209785737097263,0.004901471773348748,0.005953780138143338
1690839920788055600,11.7650556640625,0.1836187838166952,-0.0002523125269450247,0.0033454927693121134
1690839920798095600,11.775095703125,0.17853052076697348,0.0030157858909107744,0.005919549074978567
1690839920808135700,11.7851357421875,0.17194880428910253,0.007281389179825782,0.009402486686757765
1690839920818176800,11.7951767578125,0.17554010677933693,0.0050361675363034,0.005757449281867593
1690839920828216800,11.805216796875,0.17628946384191513,0.007021350004151463,0.008438833852950483
1690839920838257000,11.8152568359375,0.18182488613724707,0.0074271360597573215,-0.001737719645956531
1690839920848297000,11.825296875,0.1818243016153574,0.005443670624960213,0.00021637356388382612
1690839920858337800,11.835337890625,0.17942893091142176,0.0045255146004259585,0.0010194838074268772
1690839920868377600,11.845377685546875,0.18571371026933192,0.005576832017954439,0.004266840831353329
1690839920878417700,11.855417724609374,0.18047580961585044,-0.0011770809553563594,-0.0034052829654188824
1690839920888458800,11.865458740234375,0.1725438475728035,0.010921316584758459,0.002405956030031666
1690839920898528800,11.87552880859375,0.17643091813921927,0.010454466257989407,0.0001118446103297174
1690839920908569900,11.88556982421875,0.17897651096880435,-0.0010214885348454117,0.0007833004313753917
1690839920918610000,11.89560986328125,0.1800251432389021,0.0027430516304448246,0.008102491737785749
1690839920928649700,11.905649658203124,0.1677548597306013,0.009498754702042788,0.001857003210647963
1690839920938690600,11.915690673828125,0.16730477787554263,0.00497040882371366,0.009741938641038722
1690839920948730600,11.925730712890624,0.18047405605018138,0.014746080770995467,0.010246714391978457
1690839920958770700,11.935770751953125,0.1819680940002203,0.010628836444206535,0.0013288191846571862
1690839920968810800,11.945810791015624,0.17882395075559615,0.0033885829923674463,0.010963073367252945
1690839920978851800,11.955851806640625,0.1839116292834282,0.00906186112212017,0.011922319454001263
1690839920988888600,11.965888671875,0.18600363312661647,0.007453129017539322,0.006173793264105915
1690839920998928600,11.9759287109375,0.18331190982460974,0.007052256599068641,0.002996135908947326
1690839921008969500,11.985969482421876,0.17104162631630895,0.010618168919719754,0.0048883245974080634
1690839921019009500,11.996009521484375,0.18076631699502468,0.010115206099953502,0.012061321499315089
1690839921029049600,12.006049560546876,0.1818149492651224,0.0058306423822417856,0.002123768954630941
1690839921039089400,12.01608935546875,0.17777765657305716,0.006845920372009277,0.003033819304523058
1690839921049160400,12.026160400390625,0.1701478923469782,0.008278510458394884,0.0005883532480103895
1690839921059200500,12.036200439453125,0.17149696886837482,-0.0007618694842793047,-0.0028705961334053423
1690839921069241600,12.04624169921875,0.17015315304398534,0.0033919257269240913,0.003575520399212837
1690839921079281700,12.05628173828125,0.17419570643305776,0.009173833596613258,0.006412250795634463
1690839921089321700,12.06632177734375,0.17329788081049918,0.009924999023787677,0.0027073866620194167
1690839921099362600,12.076362548828126,0.18078151456415653,0.01372590741040185,-0.005075522299157456
1690839921109402400,12.08640234375,0.1716553743004799,0.005134458545316011,0.0052362612522440025
1690839921119442400,12.0964423828125,0.17135434552729129,0.005352558275405317,0.0034759690148755905
1690839921129482500,12.106482421875,0.17763912488520145,0.00023559885416179894,0.0060189040964934975
1690839921139523600,12.116523681640626,0.1774924098908901,0.006915971667226403,-0.006509838551748544
1690839921149563600,12.126563720703125,0.17360124767124652,0.005093962138146162,-0.0010391337893903255
1690839921159603700,12.136603759765626,0.18497545912265775,0.005056059546861797,0.006712987307878211
1690839921169644500,12.14664453125,0.1845253772675991,0.012502247366961091,0.008882266771513969
1690839921179684400,12.156684326171876,0.178986447840929,0.005831135572586208,0.011968240954959764
1690839921189724400,12.166724365234375,0.19230185648798942,-0.006223861217219382,0.000742543729301542
1690839921199795500,12.17679541015625,0.1833230157405138,0.008723934404645115,0.004731887360103428
1690839921209835500,12.18683544921875,0.16925474289953707,0.0063876004115678365,0.007530541635304689
1690839921219875600,12.19687548828125,0.1801771189302206,0.004709547664131969,0.0092465243734885
1690839921229916700,12.206916748046876,0.17044833659827707,0.012094671213068068,0.00926460801945068
1690839921239956700,12.216956787109375,0.1858633478730917,0.012353194285091011,0.006207659001089632
1690839921249996500,12.22699658203125,0.1869131491869688,-0.002839863068424165,0.005668391892081126
1690839921260037400,12.237037353515625,0.1806307079166174,0.010002338576316832,0.00517047057361342
