time,seconds_elapsed,z,y,x
1690839909229399800,0.20639990234375,-0.0003860834985971451,-0.0023075665812939405,0.03733471781015396
1690839909239441000,0.21644091796875,0.0005167284980416298,0.0005750389536842704,0.05681414157152176
1690839909249481000,0.22648095703125,0.0016624466516077518,0.002743224846199155,0.07347223907709122
1690839909259521000,0.23652099609375,0.0012906694319099188,0.0015333507908508182,0.08190407603979111
1690839909269562000,0.24656201171875,0.0013502819929271936,-0.0008643788751214743,0.0822034478187561
1690839909279602000,0.256601806640625,0.0006251032464206219,-0.0013629226014018059,0.07583263516426086
1690839909289642000,0.26664208984375,0.0009388849139213562,-0.003216407960280776,0.06199287250638008
1690839909299681800,0.276681884765625,0.00022782105952501297,-0.006997297517955303,0.03974030166864395
1690839909309723000,0.286722900390625,0.002821735106408596,-0.003692380618304014,0.017128685489296913
1690839909319763000,0.296762939453125,0.0009455382823944092,-0.0015559925232082605,-0.005539076402783394
1690839909329803000,0.306802978515625,0.0011463880073279142,0.0011908442247658968,-0.028243454173207283
1690839909339844000,0.316843994140625,-0.0009548459202051163,0.005063612945377827,-0.04408766329288483
1690839909349884000,0.3268837890625,0.0002070339396595955,0.007341237273067236,-0.05333945155143738
1690839909359923700,0.336923828125,-0.0009224126115441322,0.006082361098378897,-0.05756349116563797
1690839909369963800,0.3469638671875,-0.0014102938584983349,0.006159984041005373,-0.05733595788478851
1690839909380034800,0.357034912109375,0.0012038648128509521,0.0037186641711741686,-0.05016912519931793
1690839909390075000,0.367074951171875,0.000264050904661417,0.0005861825775355101,-0.04012914001941681
1690839909400116000,0.377115966796875,0.0007548714056611061,-0.0006109084933996201,-0.027302557602524757
1690839909410155800,0.38715576171875,0.000011869706213474274,0.00020747329108417034,-0.010934857651591301
1690839909420195800,0.39719580078125,-0.0005503236316144466,-0.0005432718899101019,0.0025338120758533478
1690839909430237000,0.40723681640625,0.0006345012225210667,0.0009079560404643416,0.016867877915501595
1690839909440276700,0.41727685546875,-0.0003159809857606888,0.0014970472548156977,0.02761533111333847
1690839909450316800,0.42731689453125,0.0002973554655909538,-0.0010938115883618593,0.03773915767669678
1690839909460356900,0.43735693359375,-0.0001601753756403923,-0.0014245761558413506,0.04465485364198685
1690839909470398000,0.44739794921875,0.0018897303380072117,-0.00028846971690654755,0.046085208654403687
1690839909480438000,0.45743798828125,0.0009094206616282463,-0.000809383811429143,0.04182069003582001
1690839909490477800,0.467477783203125,-0.00011861324310302734,-0.0014696535654366016,0.03683328256011009
1690839909500519000,0.477518798828125,0.0004489063285291195,-0.0025527612306177616,0.023413613438606262
1690839909510558700,0.487558837890625,0.0017879435326904058,0.001269141212105751,0.01181501429527998
1690839909520598800,0.497598876953125,0.0006755413487553596,0.0005527508910745382,-0.0022808313369750977
1690839909530669800,0.507669921875,0.0007358221337199211,0.0017330155242234468,-0.01229185052216053
1690839909540710000,0.5177099609375,0.0022341166622936726,0.005261437501758337,-0.02529100887477398
1690839909550751000,0.5277509765625,-0.000602716114372015,0.0013648881576955318,-0.030176233500242233
1690839909560790800,0.537790771484375,0.00018557952716946602,0.0014029713347554207,-0.03287801146507263
1690839909570830800,0.547830810546875,-0.00042835064232349396,0.0006082790205255151,-0.028043536469340324
1690839909580871000,0.557870849609375,-0.0013617887161672115,0.0005030841566622257,-0.025626985356211662
1690839909590911700,0.567911865234375,-0.00042701326310634613,-0.00004066620022058487,-0.01871044747531414
1690839909600951800,0.577951904296875,0.0001953677274286747,-0.00036370777525007725,-0.013131922110915184
1690839909610991900,0.587991943359375,0.0014590846840292215,-0.0006313547492027283,-0.004255805164575577
1690839909621033000,0.598032958984375,-0.0000024582259356975555,0.0018933218671008945,0.0021126121282577515
1690839909631073000,0.608072998046875,-0.0019561531953513622,-0.0008582561276853085,0.009591300040483475
1690839909641112800,0.61811279296875,-0.00013907812535762787,0.0004173980560153723,0.015176216140389442
1690839909651153000,0.62815283203125,0.00012328149750828743,0.000454828143119812,0.01874694786965847
1690839909661193700,0.63819384765625,0.0017059983219951391,-0.0011409379076212645,0.020337121561169624
1690839909671233800,0.64823388671875,-0.00002668052911758423,-0.0006147068925201893,0.022897332906723022
1690839909681304800,0.658304931640625,0.00037439167499542236,-0.0007904754020273685,0.020260537043213844
1690839909691345000,0.668344970703125,0.0002870936878025532,-0.0006541020702570677,0.01622614823281765
1690839909701384700,0.678384765625,0.00037444522604346275,0.0009461914887651801,0.011211683042347431
1690839909711425800,0.68842578125,0.0007698973640799522,0.001358971232548356,0.004734726622700691
1690839909721465900,0.6984658203125,0.0006702947430312634,-0.000044248299673199654,-0.0008288845419883728
1690839909731506000,0.708505859375,-0.000984573271125555,-0.00017453543841838837,-0.011134406551718712
1690839909741546000,0.7185458984375,-0.0004567345604300499,-0.0016983961686491966,-0.01473180390894413
1690839909751586800,0.7285869140625,-0.0008601485751569271,-0.0008507121820002794,-0.017841843888163567
1690839909761627000,0.738626953125,0.0008687758818268776,0.003357082372531295,-0.017778193578124046
1690839909771667000,0.7486669921875,-0.00029491307213902473,0.0033397080842405558,-0.014667676761746407
1690839909781708000,0.7587080078125,0.0003783339634537697,0.0035048238933086395,-0.01065962202847004
1690839909791747800,0.768747802734375,0.000006348360329866409,0.0030642752535641193,-0.006618145853281021
1690839909801788000,0.778787841796875,-0.000380875077098608,0.0015449419151991606,-0.0021799877285957336
1690839909811828000,0.788827880859375,-0.0018779686652123928,-0.0003839856944978237,0.0003854352980852127
1690839909821868800,0.798868896484375,-0.001014571636915207,-0.0023411426227539778,0.006778353825211525
1690839909831939000,0.80893896484375,-0.0003726985305547714,-0.0032131695188581944,0.008449697867035866
1690839909841980000,0.81897998046875,0.0005327765829861164,-0.0009825057350099087,0.008607623167335987
1690839909852019700,0.829019775390625,0.0009907044004648924,0.0030571541283279657,0.011210157535970211
1690839909862059800,0.839059814453125,0.0011744624935090542,0.00022275187075138092,0.006770401261746883
1690839909872100900,0.849100830078125,-0.0018818690441548824,0.00157022918574512,0.00891298521310091
1690839909882141000,0.859140869140625,0.0004838169552385807,0.0007542367093265057,0.008180349133908749
1690839909892181000,0.869180908203125,-0.0001353132538497448,-0.00019963295198976994,0.004206143319606781
1690839909902221000,0.879220947265625,-0.0007110890001058578,0.0023990795016288757,0.005761163309216499
1690839909912262000,0.889261962890625,-0.000044296495616436005,0.001584372017532587,0.0012495070695877075
1690839909922302000,0.899302001953125,0.0009770256001502275,0.0010450818808749318,0.002018360421061516
1690839909932341800,0.909341796875,0.00009378697723150253,0.0014314092695713043,-0.005196200683712959
1690839909942382800,0.9193828125,-0.0019054482690989971,-0.0012218980118632317,-0.009394675493240356
1690839909952423000,0.9294228515625,0.00015652040019631386,-0.0003369722981005907,-0.01093878410756588
1690839909962463000,0.939462890625,-0.0004394953139126301,-0.0015953159891068935,-0.012254917994141579
1690839909972503000,0.9495029296875,-0.0005464330315589905,-0.0012887164484709501,-0.009095577523112297
1690839909982574600,0.95957470703125,0.0003790152259171009,-0.0005001544486731291,-0.006326157599687576
1690839909992615700,0.96961572265625,0.0006654933094978333,0.0016305879689753056,-0.0008758939802646637
1690839910002655700,0.97965576171875,-0.0006825989112257957,0.00367349898442626,0.0030930154025554657
1690839910012695800,0.98969580078125,-0.00031109247356653214,0.0017360243946313858,0.007405697368085384
1690839910022736000,0.99973583984375,0.000459892675280571,0.001278493320569396,0.008568965829908848
1690839910032777000,1.00977685546875,0.00045250728726387024,0.0016001311596482992,0.01105792447924614
1690839910042816800,1.019816650390625,-0.000526470597833395,-0.002668915782123804,0.009027796797454357
1690839910052856600,1.029856689453125,0.00094269635155797,-0.0024521087761968374,0.005335713736712933
1690839910062897700,1.039897705078125,-0.0009438870474696159,-0.0018555608112365007,0.0035716351121664047
1690839910072937700,1.049937744140625,0.0016805201303213835,-0.001624471042305231,-0.002174433320760727
1690839910082977800,1.059977783203125,0.00034574372693896294,0.0010317659471184015,-0.0004910491406917572
1690839910093017900,1.070017822265625,0.000024196691811084747,0.0017400059150531888,-0.0014459136873483658
1690839910103058700,1.08005859375,0.0007461798377335072,0.0019173724576830864,-0.0014555007219314575
1690839910113098800,1.0900986328125,-0.000709868036210537,0.0004991585155948997,-0.0008004643023014069
1690839910123169500,1.10016943359375,-0.0007170583121478558,0.002480816561728716,-0.00046437233686447144
1690839910133209600,1.110209716796875,-0.00047405483201146126,0.0020241064485162497,-0.002159344032406807
1690839910143249700,1.120249755859375,0.0016112001612782478,0.0010001210030168295,-0.001900218427181244
1690839910153290800,1.130290771484375,0.0006473972462117672,-0.00041181501001119614,-0.0025715697556734085
1690839910163330800,1.140330810546875,0.0007262267172336578,-0.002755396766588092,-0.006274960935115814
1690839910173371000,1.150370849609375,-0.0009425301104784012,-0.0013851402327418327,-0.0030784010887145996
1690839910183411000,1.160410888671875,-0.0006876657716929913,-0.001847198698669672,-0.0035955868661403656
1690839910193451800,1.17045166015625,-0.0002948516048491001,0.00026031211018562317,-0.0006239768117666245
1690839910203491600,1.18049169921875,-0.00042374851182103157,0.000164438271895051,0.0016357135027647018
1690839910213531600,1.19053173828125,-0.0002609621733427048,0.00048546411562711,0.005979808978736401
1690839910223572700,1.20057275390625,0.000007750466465950012,0.0015312875621020794,0.007303399965167046
1690839910233612800,1.21061279296875,0.0009620275814086199,0.0010928247356787324,0.00790832657366991
1690839910243652900,1.22065283203125,-0.0004209517501294613,0.003420960158109665,0.008133097551763058
1690839910253693000,1.23069287109375,-0.0007051867432892323,0.0021387243177741766,0.0031476877629756927
1690839910263733800,1.240733642578125,0.00041680317372083664,0.0010119408834725618,0.0019103828817605972
1690839910273803800,1.2508037109375,0.0007264530286192894,-0.00013666227459907532,-0.0036297403275966644
1690839910283844600,1.2608447265625,0.0007770531810820103,-0.0009169685654342175,-0.006472663953900337
1690839910293884700,1.270884765625,0.001637233654037118,-0.001959183719009161,-0.007522150874137878
1690839910303924700,1.2809248046875,0.00204789312556386,-0.0030907606706023216,-0.0047516655176877975
1690839910313965800,1.2909658203125,-0.000692285131663084,-0.0016129158902913332,-0.0032758470624685287
1690839910324006000,1.301005859375,0.001998040359467268,0.0002547588665038347,0.0017697773873806
1690839910334045700,1.311045654296875,0.0006274348124861717,0.0018904008902609348,0.00564978551119566
1690839910344085800,1.321085693359375,-0.000015452038496732712,0.0035695238038897514,0.006332620047032833
1690839910354126600,1.331126708984375,-0.00044445646926760674,0.00472605274990201,0.007839602418243885
1690839910364166700,1.341166748046875,0.001637070206925273,0.003252791939303279,0.005194550380110741
1690839910374206700,1.351206787109375,-0.0003624614328145981,0.0007971732411533594,0.0009807310998439789
1690839910384247800,1.361247802734375,-0.00022184662520885468,0.0019324787426739931,-0.0020890943706035614
1690839910394287900,1.371287841796875,-0.000843120738863945,-0.0021933498792350292,-0.002359643578529358
1690839910404328000,1.381327880859375,-0.0016037197783589363,-0.0011523202992975712,-0.006457183510065079
1690839910414367700,1.39136767578125,-0.0009182165376842022,-0.0030316603370010853,-0.0027919746935367584
1690839910424438800,1.401438720703125,-0.00040342751890420914,-0.0037501812912523746,-0.0006606467068195343
1690839910434479600,1.411479736328125,-0.0006231041625142097,0.0008005585987120867,0.002230258658528328
1690839910444519700,1.421519775390625,-0.0005807597190141678,0.0035374893341213465,0.0036665014922618866
1690839910454559700,1.431559814453125,-0.00042696157470345497,0.005210481584072113,0.004458986222743988
1690839910464599800,1.441599853515625,-0.0021644076332449913,0.006708243396133184,0.00028954073786735535
1690839910474641000,1.451640869140625,-0.0009707598946988583,0.004692725837230682,0.000794900581240654
1690839910484680700,1.4616806640625,0.00005935085937380791,0.0012564492644742131,-0.0020946282893419266
1690839910494720800,1.471720703125,0.00045313267037272453,-0.0017375887837260962,-0.005558634176850319
1690839910504761600,1.48176171875,-0.0009953607805073261,-0.004338698461651802,-0.007704077288508415
1690839910514801700,1.4918017578125,-0.0002689780667424202,-0.005370826926082373,-0.007563963532447815
1690839910524841700,1.501841796875,-0.0014178655110299587,-0.006646481342613697,-0.0035830698907375336
1690839910534881800,1.5118818359375,0.000750634353607893,-0.001878431998193264,0.0022689681500196457
1690839910544923000,1.5219228515625,0.0003546224907040596,0.0013282799627631903,0.0048144180327653885
1690839910554963000,1.531962890625,-0.00036077387630939484,0.006287504453212023,0.010423319414258003
1690839910565002800,1.542002685546875,0.0003686659038066864,0.006220658775418997,0.011293640360236168
1690839910575073800,1.55207373046875,-0.00027533015236258507,0.005734788253903389,0.009737787768244743
1690839910585113900,1.56211376953125,0.00021762074902653694,0.0025816052220761776,0.006882079876959324
1690839910595154700,1.57215478515625,0.00048373546451330185,-0.000773679232224822,0.003986353054642677
1690839910605194800,1.58219482421875,-0.001101111527532339,-0.003332444466650486,-0.003085404634475708
1690839910615234800,1.59223486328125,0.0007483060471713543,-0.0032800163608044386,-0.0074344538152217865
1690839910625274600,1.602274658203125,0.00028464989736676216,-0.004446481354534626,-0.008865369483828545
1690839910635315700,1.612315673828125,-0.0008794195018708706,-0.0037726969458162785,-0.007867038249969482
1690839910645355800,1.622355712890625,0.0007496364414691925,-0.002836329862475395,-0.0059085506945848465
1690839910655395800,1.632395751953125,-0.0007687248289585114,0.0007595405913889408,-0.005242111161351204
1690839910665436700,1.642436767578125,0.0002888161689043045,0.003532956587150693,-0.0002880990505218506
1690839910675476700,1.652476806640625,0.0002495497465133667,0.005036733113229275,-0.00023018009960651398
1690839910685516800,1.662516845703125,0.00010147783905267715,0.00422366987913847,0.0024937018752098083
1690839910695556900,1.672556884765625,-0.0009351861663162708,0.0015669857384636998,0.004166791215538979
1690839910705598000,1.682597900390625,-0.0014798026531934738,-0.0007209358736872673,0.0043758489191532135
1690839910715637800,1.6926376953125,0.0000056480057537555695,-0.002083221450448036,0.004156405106186867
1690839910725708800,1.702708740234375,0.0000650365836918354,-0.0027562021277844906,0.0012540929019451141
1690839910735748900,1.712748779296875,-0.0006839609704911709,-0.002114502713084221,0.0034061558544635773
1690839910745789000,1.722788818359375,-0.0010501458309590816,-0.0021866741590201855,0.0004966519773006439
1690839910755829800,1.732829833984375,0.0006936122663319111,-0.00045976508408784866,0.0023232586681842804
1690839910765869800,1.742869873046875,-0.0004986850544810295,0.0013338738353922963,0.0022979583591222763
1690839910775909600,1.75290966796875,0.0009839858394116163,0.0019382177852094173,0.0015849806368350983
1690839910785949700,1.76294970703125,-0.0007028602994978428,0.0015201014466583729,0.0030704904347658157
1690839910795990800,1.77299072265625,-0.00047105085104703903,-0.0005653407424688339,0.0015783458948135376
1690839910806030800,1.78303076171875,0.001144422683864832,0.002383311279118061,-0.0003146287053823471
1690839910816071000,1.79307080078125,-0.0007143495604395866,0.00039933156222105026,-0.0004823841154575348
1690839910826111700,1.80311181640625,0.00013253558427095413,0.0011503429850563407,-0.0032017379999160767
1690839910836151800,1.81315185546875,0.0003752610646188259,-0.00008458457887172699,-0.00029699504375457764
1690839910846191900,1.82319189453125,-0.00045750942081213,-0.002412986010313034,-0.0018072742968797684
1690839910856231700,1.833231689453125,-0.00011604651808738708,-0.0029960861429572105,0.0011280626058578491
1690839910866302700,1.843302734375,0.00023682229220867157,-0.0003379853442311287,0.0012734699994325638
1690839910876343800,1.85334375,0.0009575693402439356,-0.0003019131254404783,0.0003414042294025421
1690839910886383900,1.8633837890625,-0.00024697836488485336,-0.0007080452051013708,-0.0003877691924571991
1690839910896424000,1.873423828125,0.0000029690563678741455,0.00028010131791234016,0.0013685375452041626
1690839910906463700,1.883463623046875,0.00022667460143566132,0.000016448553651571274,-0.0018389727920293808
1690839910916504800,1.8935048828125,0.000869222916662693,0.0031238950323313475,-0.002143522724509239
1690839910926544600,1.903544677734375,0.002948618959635496,0.0038458779454231262,-0.0009301882237195969
1690839910936584700,1.913584716796875,0.0001232260838150978,0.0025780636351555586,-0.0010509677231311798
1690839910946625800,1.923625732421875,-0.00027038902044296265,0.002659023739397526,-0.0004972964525222778
1690839910956665900,1.933665771484375,-0.0002824980765581131,0.002449848921969533,0.0016333721578121185
1690839910966706000,1.943705810546875,-0.0020337929017841816,-0.002158218529075384,0.002441640943288803
1690839910976740400,1.953740234375,-0.0007253377698361874,-0.005065208300948143,0.0025861114263534546
1690839910986781400,1.963781494140625,-0.0002979002892971039,-0.006155240349471569,0.0010444074869155884
1690839910996821200,1.9738212890625,0.0004532318562269211,-0.006567081902176142,0.0021492261439561844
1690839911006861300,1.983861328125,0.0004841247573494911,-0.002755565568804741,0.0008650496602058411
1690839911016932400,1.993932373046875,0.0008923530112951994,0.0001255720853805542,0.001530596986413002
1690839911026972400,2.003972412109375,0.0019078163895756006,0.004253205377608538,-0.000025754794478416443
1690839911037013200,2.01401318359375,0.0010237153619527817,0.008828461170196533,-0.00006862729787826538
1690839911047053300,2.02405322265625,0.0002370174042880535,0.00827079452574253,-0.0015333648771047592
1690839911057093400,2.03409326171875,0.00038153398782014847,0.005376550368964672,-0.0005024317651987076
1690839911067133200,2.04413330078125,0.000890996539965272,0.00013331882655620575,-0.0021040569990873337
1690839911077174300,2.05417431640625,0.0005846046842634678,-0.0028524636290967464,-0.0020912233740091324
1690839911087214300,2.06421435546875,0.0003758128732442856,-0.007983842864632607,0.004137910902500153
1690839911097254400,2.07425439453125,0.0008337567560374737,-0.006282581016421318,0.0015063658356666565
1690839911107295200,2.084295166015625,-0.000577984843403101,-0.004661248531192541,0.0024826806038618088
1690839911117335300,2.094335205078125,0.0009610981214791536,0.001304423320107162,0.0024573542177677155
1690839911127375400,2.104375244140625,-0.0007236176170408726,0.0061433869414031506,-0.0027744267135858536
1690839911137415200,2.114415283203125,0.0004241247661411762,0.007822052575647831,-0.009110324084758759
1690839911147456300,2.124456298828125,0.0004227929748594761,0.0065698339603841305,-0.015066219493746758
1690839911157496300,2.134496337890625,0.000947651918977499,0.004196322523057461,-0.014592491090297699
1690839911167567400,2.1445673828125,0.00016681291162967682,-0.00012625404633581638,-0.011241704225540161
1690839911177607400,2.154607421875,0.0001604580320417881,-0.005826416425406933,-0.004991322755813599
1690839911187647200,2.164647216796875,0.000889898044988513,-0.0053699505515396595,0.00330389104783535
1690839911197688300,2.174688232421875,-0.0007171742618083954,-0.006464354228228331,0.01483561098575592
1690839911207728000,2.18472802734375,0.0016181517858058214,-0.0015814481303095818,0.025572143495082855
1690839911217768200,2.194768310546875,0.0002885698340833187,0.002686645369976759,0.029548194259405136
1690839911227809300,2.204809326171875,0.001587127335369587,0.004467501305043697,0.027738578617572784
1690839911237849300,2.214849365234375,-0.0003886227495968342,0.004914985038340092,0.01895611546933651
1690839911247889400,2.224889404296875,0.00008435454219579697,0.0036055087111890316,0.008884572423994541
1690839911257929200,2.23492919921875,-0.0010639070533216,-0.0011434722691774368,-0.004399653524160385
1690839911267970300,2.24497021484375,-0.00043460214510560036,-0.0012798260431736708,-0.015232592821121216
1690839911278010400,2.25501025390625,-0.00011044321581721306,-0.003679873887449503,-0.022994713857769966
1690839911288050200,2.26505029296875,-0.00024306867271661758,-0.002617272548377514,-0.026644578203558922
1690839911298090200,2.27509033203125,-0.0009419657289981842,-0.0023339339531958103,-0.020117996260523796
1690839911308131300,2.28513134765625,0.0006569963879883289,0.0008133896626532078,-0.012162601575255394
1690839911318202400,2.295202392578125,-0.0010042060166597366,0.0026318728923797607,-0.0026361849159002304
1690839911328242200,2.3052421875,-0.000688089057803154,0.001630258047953248,0.002795599400997162
1690839911338282200,2.3152822265625,0.001485380344092846,0.0026147044263780117,0.00785122811794281
1690839911348322000,2.325322021484375,0.00034341681748628616,0.001107088872231543,0.01016551535576582
1690839911358363100,2.335363037109375,-0.0008642924949526787,-0.0005413375329226255,0.007383816875517368
1690839911368403200,2.3454033203125,-0.0016981279477477074,-0.0024862440768629313,0.004629310220479965
1690839911378443300,2.355443359375,-0.0003492538817226887,-0.002606189576908946,0.00046768225729465485
1690839911388484400,2.365484375,-0.0010965368710458279,-0.0017294769641011953,-0.0018306244164705276
1690839911398524200,2.375524169921875,-0.0006784764118492603,0.0009020420257002115,-0.0008869767189025879
1690839911408564200,2.385564208984375,0.0007724137976765633,0.0013726225588470697,0.0018190611153841019
1690839911418604300,2.395604248046875,0.0002715964801609516,0.0036700349301099777,0.004677869379520416
1690839911428645400,2.405645263671875,-0.00012441538274288177,0.0006076660938560963,0.010320042259991169
1690839911438685200,2.415685302734375,0.0006956523284316063,0.0005350360879674554,0.013428778387606144
1690839911448725200,2.425725341796875,-0.002164316363632679,-0.0017909687012434006,0.011220218613743782
1690839911458796300,2.43579638671875,-0.0022360552102327347,-0.0020190393552184105,0.009281924925744534
1690839911468836400,2.44583642578125,-0.0006802366115152836,-0.0021996013820171356,0.0004687253385782242
1690839911478877200,2.455877197265625,-0.0008948547765612602,-0.00013192323967814445,-0.007513565942645073
1690839911488917200,2.465917236328125,-0.000451438594609499,0.0024617293383926153,-0.011899793520569801
1690839911498957000,2.47595703125,0.0005900030955672264,0.002866420429199934,-0.01502922736108303
1690839911508997000,2.4859970703125,-0.00009149964898824692,0.005203877110034227,-0.013342650607228279
1690839911519038200,2.4960380859375,0.0017766228411346674,0.004796256311237812,-0.006865885108709335
1690839911529078300,2.506078369140625,-0.0003080996684730053,0.0008438589284196496,-0.0015491507947444916
1690839911539118300,2.516118408203125,-0.00022430624812841415,-0.0022458636667579412,0.006164983846247196
1690839911549159200,2.5261591796875,-0.0005569350905716419,-0.002069562440738082,0.01162952370941639
1690839911559199200,2.53619921875,-0.000932606402784586,-0.004299192223697901,0.011445035226643085
1690839911569239300,2.5462392578125,0.0018456033430993557,-0.0008983355946838856,0.011503358371555805
1690839911579279000,2.556279052734375,-0.00001351209357380867,-0.0004109127912670374,0.005420294590294361
1690839911589320200,2.5663203125,0.000013918615877628326,0.00021200045011937618,0.002923049032688141
1690839911599360300,2.5763603515625,0.000023243483155965805,0.002296178601682186,-0.004669934511184692
1690839911609431300,2.586431396484375,-0.000520041212439537,0.003134808037430048,-0.009041514247655869
1690839911619471400,2.596471435546875,0.0003569037653505802,0.002298337407410145,-0.012647762894630432
1690839911629511400,2.606511474609375,-0.0020801550708711147,0.0013949931599199772,-0.010756917297840118
1690839911639552300,2.61655224609375,0.0006938762962818146,0.0025939198676496744,-0.007205264642834663
1690839911649592000,2.626592041015625,0.0002459324896335602,-0.0010990856681019068,-0.0003998223692178726
1690839911659632000,2.636632080078125,-0.0011556283570826054,-0.0008771631401032209,0.00555943138897419
1690839911669673200,2.646673095703125,0.00033228006213903427,-0.0024548196233808994,0.010786684229969978
1690839911679713300,2.65671337890625,-0.0011679939925670624,-0.0029992719646543264,0.011101951822638512
1690839911689753300,2.66675341796875,-0.0010622665286064148,-0.003985706716775894,0.01421625167131424
1690839911699793400,2.67679345703125,0.0007948344573378563,-0.0021282904781401157,0.010488469153642654
1690839911709834200,2.686834228515625,0.00033410731703042984,0.0013364818878471851,0.00868257973343134
1690839911719874300,2.696874267578125,-0.00016238680109381676,0.001129506854340434,0.0013923551887273788
1690839911729914000,2.7069140625,0.0009180577471852303,0.005065925419330597,-0.004278579726815224
1690839911739955200,2.716955078125,0.00018620025366544724,0.0059589603915810585,-0.006439445540308952
1690839911749995300,2.726995361328125,0.0004077753983438015,0.004351476207375526,-0.008717512711882591
1690839911760066300,2.73706640625,-0.0009221038781106472,0.0003754425561055541,-0.009998632594943047
1690839911770106400,2.7471064453125,0.00012025749310851097,0.00015013921074569225,-0.010841257870197296
1690839911780146400,2.757146484375,-0.0002603856846690178,-0.0014473677147179842,-0.007583828642964363
1690839911790186200,2.767186279296875,0.000619789119809866,-0.0034247650764882565,-0.005202963948249817
1690839911800227000,2.77722705078125,-0.0001353141851723194,-0.0036817598156630993,-0.004109736531972885
1690839911810267100,2.78726708984375,0.0011938693933188915,-0.0006601372733712196,-0.0006252564489841461
1690839911820307200,2.79730712890625,0.0019037937745451927,-0.0003355455119162798,0.0014495216310024261
1690839911830348300,2.807348388671875,0.000883536646142602,0.004677056334912777,0.0023656487464904785
1690839911840388400,2.817388427734375,-0.0015162271447479725,0.005732461344450712,0.0027042292058467865
1690839911850428400,2.827428466796875,0.00009312108159065247,0.0019992419984191656,0.0035218186676502228
1690839911860468200,2.83746826171875,0.00043239304795861244,0.0024486989714205265,0.006554733961820602
1690839911870509000,2.847509033203125,0.0007956484332680702,0.001561067532747984,0.008549441583454609
1690839911880549000,2.857549072265625,0.0010756775736808777,-0.0012211562134325504,0.00908138882368803
1690839911890589200,2.867589111328125,0.001614967593923211,-0.0009388611651957035,0.009983401745557785
1690839911900660200,2.87766015625,-0.0005212179385125637,-0.0016096658073365688,0.007977067492902279
1690839911910700300,2.8877001953125,-0.00008312799036502838,-0.001579838339239359,0.003278452903032303
1690839911920741400,2.897741455078125,-0.001982052344828844,-0.0004573159385472536,0.00040783174335956573
1690839911930781400,2.907781494140625,-0.0008150548674166203,0.0043813809752464294,-0.004005558788776398
1690839911940821200,2.9178212890625,0.0002727760002017021,0.001978144748136401,-0.009348658844828606
1690839911950861300,2.927861328125,0.00011591566726565361,0.0016995781334117055,-0.010503940284252167
1690839911960902100,2.937902099609375,-0.0008327378891408443,0.0031672462355345488,-0.013074953109025955
1690839911970942200,2.947942138671875,-0.0008678915910422802,0.0029097185470163822,-0.011196359992027283
1690839911980950000,2.957949951171875,0.0006144661456346512,0.001216846751049161,-0.006128842011094093
1690839911990991000,2.9679912109375,0.00024268869310617447,-0.00023351074196398258,-0.0015492700040340424
1690839912001031200,2.97803125,0.0003910115920007229,-0.0019981092773377895,0.0038730893284082413
1690839912011071200,2.9880712890625,-0.0007136678323149681,-0.001934992615133524,0.00470852293074131
1690839912021111300,2.998111328125,0.0017383345402777195,-0.00236639566719532,0.003602711483836174
1690839912031152000,3.008152099609375,-0.000002307351678609848,0.0003620128845795989,0.004192069172859192
1690839912041192000,3.01819189453125,0.00037352927029132843,0.001583186094649136,0.0029906686395406723
1690839912051263000,3.028262939453125,-0.0004861392080783844,0.0017546936869621277,0.001298230141401291
1690839912061303000,3.038302978515625,-0.0003094011917710304,0.001797347329556942,0.002341482788324356
1690839912071343000,3.048343017578125,0.0004493333399295807,0.0016058660112321377,0.0008349325507879257
1690839912081384200,3.05838427734375,-0.0020705871284008026,0.0015342764090746641,0.002608686685562134
1690839912091424300,3.06842431640625,-0.0005557811819016933,-0.001786685548722744,0.0036976542323827744
1690839912101464000,3.078464111328125,0.0017626651097089052,-0.002916505094617605,0.0020752977579832077
1690839912111505200,3.088505126953125,0.0009698420763015747,-0.002441663760691881,0.0033259186893701553
1690839912121545000,3.098544921875,0.0013803362380713224,-0.0023188816849142313,0.00439983606338501
1690839912131585000,3.1085849609375,0.0009691440500319004,0.00036478578113019466,0.0019214972853660583
1690839912141625000,3.118625,-0.00011835340410470963,0.0008965092711150646,-0.003119640052318573
1690839912151666200,3.128666259765625,-0.00013992469757795334,0.003976188600063324,-0.0027670376002788544
1690839912161706200,3.138706298828125,-0.000063261017203331,0.004031472839415073,-0.008083727210760117
1690839912171746300,3.148746337890625,0.00023687724024057388,0.001850344124250114,-0.00653669610619545
1690839912181787100,3.158787109375,0.0006186021491885185,0.002442854456603527,-0.004568448290228844
1690839912191827000,3.168826904296875,0.00028916914016008377,0.0008313757134601474,-0.004156988114118576
1690839912201898000,3.17889794921875,-0.00024486053735017776,-0.0026098378002643585,-0.0030689723789691925
1690839912211938000,3.18893798828125,0.0001061437651515007,-0.001500098267570138,0.002524465322494507
1690839912221978000,3.19897802734375,0.00027558207511901855,-0.0022824257612228394,0.00447598472237587
1690839912232018200,3.20901806640625,-0.0018650670535862446,-0.0016280871350318193,0.0056184809654951096
1690839912242059300,3.219059326171875,-0.0011259154416620731,-0.0009123159106820822,0.004918528720736504
1690839912252099000,3.22909912109375,-0.000028959475457668304,0.0014429837465286255,0.00206734798848629
1690839912262139100,3.23913916015625,0.0008597492706030607,0.003105194540694356,0.0010688267648220062
1690839912272180000,3.249179931640625,-0.00012375600636005402,0.0021038460545241833,0.0003220774233341217
1690839912282220000,3.259219970703125,0.0006788088940083981,0.0013766956981271505,-0.000241938978433609
1690839912292260000,3.269260009765625,-0.0003142841160297394,-0.00015595345757901669,0.0003476850688457489
1690839912302300200,3.279300048828125,-0.0005542240105569363,-0.0001238570548593998,0.0010882001370191574
1690839912312341200,3.28934130859375,0.00014645326882600784,-0.00040029315277934074,0.0024197809398174286
1690839912322381300,3.29938134765625,0.0006416821852326393,-0.0009674434550106525,0.00375206395983696
1690839912332421000,3.309421142578125,-0.00047205202281475067,-0.00255468743853271,0.004135293886065483
1690839912342492200,3.3194921875,0.0005489201284945011,-0.001009544124826789,0.0006948728114366531
1690839912352532200,3.3295322265625,0.00030470825731754303,-0.0016598880756646395,-0.0011871829628944397
1690839912362573000,3.339572998046875,0.00029260339215397835,0.0029387727845460176,-0.0015803445130586624
1690839912372613000,3.349613037109375,-0.00043657002970576286,0.0009872083319351077,-0.0026426780968904495
1690839912382653200,3.359653076171875,-0.0003198077902197838,0.0008058735402300954,-0.004630785435438156
1690839912392694300,3.3696943359375,-0.0002130148932337761,0.00032091187313199043,-0.003979111090302467
1690839912402734000,3.379734130859375,0.0007629417814314365,0.00008063064888119698,-0.0018978286534547806
1690839912412774100,3.389774169921875,0.0001474851742386818,-0.0012216551695019007,0.0012787897139787674
1690839912422814200,3.399814208984375,0.0006630746647715569,-0.0012615099549293518,0.0034811384975910187
1690839912432855000,3.40985498046875,0.0008135433308780193,0.0000016272533684968948,0.003998856991529465
1690839912442895000,3.41989501953125,-0.0009156055748462677,0.0005525804590433836,0.006018719635903835
1690839912452935200,3.42993505859375,0.0008098562248051167,-0.0007869894616305828,0.005074895918369293
1690839912462975000,3.43997509765625,-0.00010136794298887253,-0.0012905385810881853,0.0020398367196321487
1690839912473016000,3.45001611328125,-0.0002800659276545048,0.0007808682275936007,0.0002959985285997391
1690839912483056000,3.46005615234375,-0.0019258088432252407,-0.0003536110743880272,-0.0008639376610517502
1690839912493127200,3.470127197265625,0.0006907470524311066,-0.0011360477656126022,-0.0032336171716451645
1690839912503167200,3.480167236328125,0.0003444836474955082,0.0007900147465988994,-0.0012175962328910828
1690839912513207300,3.490207275390625,0.0008286463562399149,0.0012645900715142488,-0.0011440925300121307
1690839912523248000,3.500248046875,-0.0003587002865970135,0.0007769677322357893,0.0022761188447475433
1690839912533288200,3.5102880859375,0.0013222871348261833,0.001267255749553442,0.002948833629488945
1690839912543328000,3.520327880859375,-0.0006909319199621677,0.0002488764002919197,0.0018051695078611374
1690839912553369000,3.530369140625,-0.0008027846924960613,0.00023103319108486176,0.0024555139243602753
1690839912563409200,3.5404091796875,-0.0005872286856174469,-0.00017102621495723724,-0.0005921870470046997
1690839912573449200,3.55044921875,-0.00037311064079403877,0.0002628026995807886,-0.0017354805022478104
1690839912583489300,3.5604892578125,0.0006593260914087296,0.0006301860557869077,-0.0029738694429397583
1690839912593530000,3.570530029296875,0.0009482791647315025,-0.0004350785166025162,-0.0026902426034212112
1690839912603570200,3.580570068359375,-0.00020429585129022598,-0.00030479487031698227,-0.002101421356201172
1690839912613610000,3.59060986328125,0.00006415043026208878,0.0004496787441894412,0.000310603529214859
1690839912623651000,3.600651123046875,-0.00036983005702495575,0.0012859629932790995,0.002255592495203018
1690839912633691100,3.610691162109375,0.000037633348256349564,0.0014878305373713374,0.0034042149782180786
1690839912643762200,3.62076220703125,-0.0006412318907678127,0.002704952610656619,0.0062621887773275375
1690839912653802200,3.63080224609375,0.00007808767259120941,0.0013187772128731012,0.0029947571456432343
1690839912663842300,3.64084228515625,0.001059587812051177,-0.0008644550107419491,0.0032813362777233124
1690839912673882400,3.65088232421875,-0.0007598837837576866,0.0004964203108102083,0.0021809171885252
1690839912683923200,3.660923095703125,0.0007314756512641907,0.000856676371768117,-0.00019793584942817688
1690839912693963000,3.670962890625,0.001684088259935379,-0.00019900058396160603,-0.000531097874045372
1690839912704003000,3.681003173828125,0.00030792178586125374,-0.0006211905274540186,-0.005312711000442505
1690839912714044200,3.691044189453125,0.0007936821784824133,-0.0020640911534428596,-0.003927599638700485
1690839912724084200,3.701084228515625,-0.00029312772676348686,0.002394822658970952,-0.0021222978830337524
1690839912734124300,3.711124267578125,0.0012613593135029078,0.0019298348342999816,0.00047668255865573883
1690839912744164400,3.721164306640625,0.0003568679094314575,0.002188407815992832,0.0023862458765506744
1690839912754205200,3.731205078125,0.00005593104287981987,0.0013228803873062134,0.0006490666419267654
1690839912764245000,3.741244873046875,-0.0005334913730621338,-0.00004100194200873375,0.0007499102503061295
1690839912774285000,3.75128515625,0.0006540119647979736,0.0014466398861259222,0.0003829263150691986
1690839912784326100,3.761326171875,-0.00106783676892519,-0.0003319191746413708,0.0003943052142858505
1690839912794396200,3.771396240234375,0.00015508662909269333,0.0013565251138061285,0.0006949752569198608
1690839912804437200,3.781437255859375,0.000834430567920208,-0.0006684707477688789,-0.0005464479327201843
1690839912814477300,3.791477294921875,-0.00052218372002244,0.0009078542934730649,-0.002291085198521614
1690839912824517400,3.801517333984375,0.0009184989612549543,0.0011806519469246268,-0.00010058470070362091
1690839912834558200,3.81155810546875,0.00045883748680353165,0.0007588071748614311,0.002951132133603096
1690839912844598000,3.821597900390625,-0.0003237449564039707,0.000004323665052652359,0.0030116233974695206
1690839912854638000,3.83163818359375,0.0004368540830910206,0.0013875694712623954,0.0006571225821971893
1690839912864678100,3.84167822265625,0.0017411056905984879,0.0016105466056615114,0.00314205139875412
1690839912874719200,3.85171923828125,-0.0010592080652713776,-0.0010989534202963114,0.0012565329670906067
1690839912884759300,3.86175927734375,0.0002209036611020565,-0.0013091962318867445,0.0003744494169950485
1690839912894799400,3.87179931640625,-0.0008166637271642685,0.00012917700223624706,-0.00039733387529850006
1690839912904839000,3.8818388671875,0.0006708805449306965,0.0005202442407608032,-0.001658337190747261
1690839912914880000,3.8918798828125,-0.00046096276491880417,-0.001414275960996747,-0.0004753619432449341
1690839912924920000,3.901920166015625,0.0008994005620479584,0.0007438655011355877,-0.0011664330959320068
1690839912934991000,3.9119912109375,-0.0010817251168191433,0.0008027213625609875,0.000430133193731308
1690839912945031200,3.92203125,-0.0003762603737413883,0.0019061772618442774,0.002280252054333687
1690839912955071200,3.9320712890625,0.00017394870519638062,0.0006403768202289939,0.0029415152966976166
1690839912965112300,3.9421123046875,-0.0003536297008395195,-0.0014000781811773777,0.0015027858316898346
1690839912975152000,3.952152099609375,0.0006708884611725807,0.00036320078652352095,0.0010870657861232758
1690839912985205800,3.962205810546875,0.0007081707008183002,0.00003488105721771717,0.0027986112982034683
1690839912995246600,3.97224658203125,-0.00017653126269578934,-0.0012820521369576454,0.0006409194320440292
1690839913005286700,3.98228662109375,-0.0009578238241374493,-0.0002752447035163641,-0.0010316763073205948
1690839913015326700,3.99232666015625,-0.0008438406512141228,-0.00009281816892325878,-0.00028093159198760986
1690839913025366800,4.00236669921875,-0.00115194171667099,-0.0016380089800804853,0.0013799052685499191
1690839913035408000,4.012407958984375,-0.0012970841489732265,-0.0005807338748127222,0.00022569112479686737
1690839913045448000,4.022447998046875,-0.0016237720847129822,-0.00041902903467416763,0.0038680583238601685
1690839913055487700,4.03248779296875,0.0009222098160535097,0.0011154842795804143,0.0006006266921758652
1690839913065528800,4.04252880859375,0.00009309034794569016,0.0035408157855272293,0.0013619009405374527
1690839913075568600,4.052568603515625,0.0005556810647249222,0.0013032277347519994,0.0018138382583856583
1690839913085639700,4.0626396484375,-0.000576813705265522,0.0012121995678171515,0.0005925353616476059
1690839913095679700,4.0726796875,0.0013457222376018763,-0.0004458844196051359,-0.0010836590081453323
1690839913105719800,4.0827197265625,-0.00024670595303177834,-0.00037827668711543083,-0.000317499041557312
1690839913115759900,4.092759765625,-0.0005745408125221729,-0.0038465112447738647,-0.002250421792268753
1690839913125801000,4.102801025390625,0.0003453637473285198,-0.0008731745183467865,-0.0019974615424871445
1690839913135840800,4.1128408203125,0.0004447000101208687,0.0003004806349053979,-0.00021980144083499908
1690839913145880600,4.122880615234375,0.00022919150069355965,0.00021245551761239767,0.0025269947946071625
1690839913155921700,4.132921630859375,0.00011387653648853302,-0.0016304519958794117,0.002396499738097191
1690839913165961700,4.142961669921875,0.0018680780194699764,-0.00024685333482921124,0.0016948506236076355
1690839913176001800,4.153001708984375,-0.00015619071200489998,0.0009369218023493886,0.001382727175951004
1690839913186041900,4.163041748046875,-0.0010208678431808949,-0.0003656093031167984,0.0027656033635139465
1690839913196083000,4.1730830078125,0.0012145894579589367,0.0008890059543773532,0.001610325649380684
1690839913206122800,4.183122802734375,0.0005259346216917038,-0.0006998451426625252,0.0011264793574810028
1690839913216162600,4.19316259765625,-0.00012494204565882683,0.0020898161455988884,-0.002494353801012039
1690839913226203600,4.20320361328125,0.0007418871391564608,-0.0006897521670907736,-0.000770125538110733
1690839913236273700,4.213273681640625,0.0003557289019227028,0.0007891012355685234,-0.00026732124388217926
1690839913246314800,4.223314697265625,0.0005380311049520969,0.00021247414406388998,-0.0006787776947021484
1690839913256354800,4.233354736328125,-0.00019513722509145737,0.001018346636556089,-0.00020979531109333038
1690839913266395000,4.243394775390625,0.000776863656938076,-0.0004212444182485342,0.0005513634532690048
1690839913276436000,4.25343603515625,-0.0006085126660764217,0.0023210125509649515,0.0006557591259479523
1690839913286475800,4.263475830078125,0.00011792732402682304,-0.000610157148912549,0.0012172535061836243
1690839913296515600,4.273515625,0.0005450979806482792,-0.0013401296455413103,0.0007975399494171143
1690839913306555600,4.2835556640625,0.0009439780842512846,0.00024219602346420288,-0.0006224382668733597
1690839913316596700,4.2935966796875,-0.0001785443164408207,0.0012134509161114693,-0.0007177796214818954
1690839913326636800,4.30363671875,-0.0006653806194663048,-0.0006773094646632671,-0.001440657302737236
1690839913336676900,4.3136767578125,-0.0005109170451760292,-0.0003295005299150944,-0.0009929798543453217
1690839913346718000,4.323718017578125,-0.0016233348287642002,-0.0018345883581787348,0.00035139545798301697
1690839913356757800,4.3337578125,0.0017093450296670198,-0.00012297485955059528,0.0014251824468374252
1690839913366797600,4.343797607421875,-0.0011032125912606716,-0.0018090405501425266,0.0009626112878322601
1690839913376868600,4.35386865234375,0.00047577591612935066,0.000025611137971282005,0.0007626079022884369
1690839913386908700,4.36390869140625,0.0004386655054986477,0.0002203987678512931,-0.0001593455672264099
1690839913396948700,4.37394873046875,0.00003919145092368126,-0.0005790821742266417,0.000667298212647438
1690839913406989800,4.38398974609375,-0.0005201310850679874,0.0016601099632680416,-0.0002872105687856674
1690839913417030000,4.39402978515625,0.000658317469060421,-0.001269100932404399,-0.0008672457188367844
1690839913427069700,4.404069580078125,0.00007463106885552406,0.001200271537527442,-0.00045763514935970306
1690839913437110800,4.41411083984375,-0.0006308406591415405,-0.000686311861500144,0.0010473169386386871
1690839913447150600,4.424150634765625,0.00004983460530638695,-0.0022383499890565872,0.0017405282706022263
1690839913457190700,4.434190673828125,0.0006618290208280087,0.0005286741070449352,0.001382598653435707
1690839913467230700,4.444230712890625,0.0005588820204138756,-0.0012945067137479782,-0.0008375849574804306
1690839913477271800,4.454271728515625,-0.000612376257777214,-0.00005480530671775341,-0.0014533083885908127
1690839913487312000,4.464311767578125,-0.0004163919948041439,0.0008886579889804125,0.0010913051664829254
1690839913497352000,4.47435205078125,0.0007556653581559658,0.0019208992598578334,-0.0013705193996429443
1690839913507392800,4.484392822265625,0.012415578588843346,-0.1960153877735138,0.010076884180307388
1690839913517432600,4.4944326171875,0.00331848650239408,0.02471911534667015,-0.04080760106444359
1690839913527503600,4.504503662109375,-0.002909890841692686,0.01834695413708687,-0.05944444611668587
1690839913537543700,4.514543701171875,-0.0034041735343635082,0.0006811422063037753,-0.06779079139232635
1690839913547583700,4.524583740234375,-0.006425921805202961,-0.015658244490623474,-0.061426278203725815
1690839913557623800,4.534623779296875,-0.003222937695682049,-0.02634577639400959,-0.04760793223977089
1690839913567665000,4.544664794921875,-0.0007339972071349621,-0.027659254148602486,-0.033639296889305115
1690839913577704700,4.55470458984375,0.002846090355888009,-0.017225787043571472,-0.01621822826564312
1690839913587744800,4.564744873046875,0.003549654968082905,-0.0015324612613767385,0.0012964420020580292
1690839913597785600,4.57478564453125,0.003918769303709269,0.012337015010416508,0.015417054295539856
1690839913607825700,4.58482568359375,0.0007031096611171961,0.022328676655888557,0.029315190389752388
1690839913617865700,4.59486572265625,0.0003425176255404949,0.0200671199709177,0.0383417084813118
1690839913627905800,4.60490576171875,-0.0034552966244518757,0.010091503150761127,0.04505828395485878
1690839913637947000,4.61494677734375,-0.0020550061017274857,-0.000475121196359396,0.04681757092475891
1690839913647986700,4.624986572265625,0.0005176877602934837,-0.012381048873066902,0.04465454816818237
1690839913658026800,4.63502685546875,-0.0013009849935770035,-0.017626676708459854,0.039491742849349976
1690839913668067600,4.645067626953125,0.0009472209494560957,-0.015912262722849846,0.03256449103355408
1690839913678137900,4.655137939453125,0.0018758652731776237,-0.009887393563985825,0.02138746902346611
1690839913688178700,4.6651787109375,0.001287827966734767,0.000840665539726615,0.009193740785121918
1690839913698218800,4.67521875,-0.0005657323636114597,0.00834279041737318,-0.004056017845869064
1690839913708258800,4.6852587890625,-0.002012533601373434,0.015019256621599197,-0.016188867390155792
1690839913718300000,4.6952998046875,-0.0007954691536724567,0.012855438515543938,-0.02514827623963356
1690839913728339700,4.705339599609375,0.00009351922199130058,0.006574542727321386,-0.03258790820837021
1690839913738379800,4.7153798828125,-0.00041514448821544647,-0.0009933621622622013,-0.03646627068519592
1690839913748419800,4.725419921875,-0.0001697484403848648,-0.0049775131046772,-0.03600176423788071
1690839913758460700,4.735460693359375,0.0011892628390341997,-0.009123255498707294,-0.0334901362657547
1690839913768500700,4.745500732421875,0.0005743289366364479,-0.004992503672838211,-0.026131847873330116
1690839913778540800,4.755540771484375,0.0009327905718237162,-0.00045687402598559856,-0.021654276177287102
1690839913788582000,4.765581787109375,0.00024330802261829376,0.005481519736349583,-0.010464712977409363
1690839913798621700,4.77562158203125,-0.000036057550460100174,0.006461296230554581,-0.0015103667974472046
1690839913808661800,4.785661865234375,-0.0019979681819677353,0.005100472830235958,0.008632632903754711
1690839913818732800,4.79573291015625,-0.000055192504078149796,0.002979265060275793,0.01610972359776497
1690839913828772900,4.80577294921875,0.001229732995852828,0.0010637909872457385,0.01885640062391758
1690839913838813000,4.81581298828125,-0.0002107708714902401,-0.003733094548806548,0.023767802864313126
1690839913848853800,4.825853759765625,0.00005284370854496956,-0.006327860057353973,0.02525242418050766
1690839913858893800,4.835893798828125,-0.0006531602703034878,-0.005296683870255947,0.02476373314857483
1690839913868933600,4.84593359375,-0.0012198230251669884,-0.0030732748564332724,0.02306956797838211
1690839913878974700,4.855974609375,-0.0011599017307162285,-0.00041890237480401993,0.017562417313456535
1690839913889014800,4.866014892578125,0.00018440373241901398,0.004409206565469503,0.011703324504196644
1690839913899054800,4.876054931640625,-0.0008315923623740673,0.005951975472271442,0.006142644211649895
1690839913909095000,4.886094970703125,0.0008488819003105164,0.002428770298138261,0.0005151648074388504
1690839913919135700,4.8961357421875,0.00132931605912745,0.0016889441758394241,-0.00880935974419117
1690839913929175800,4.90617578125,-0.00024403026327490807,-0.0011642405297607183,-0.012292131781578064
1690839913939215600,4.916215576171875,-0.00018757116049528122,-0.0021517404820770025,-0.017589956521987915
1690839913949256700,4.926256591796875,-0.0003070048987865448,-0.0032382577192038298,-0.01971413381397724
1690839913959296800,4.936296875,-0.000816734042018652,-0.001544753322377801,-0.020583389326930046
1690839913969367800,4.946367919921875,0.0014581568539142609,-0.0008042412810027599,-0.01911007985472679
1690839913979380700,4.956380615234375,0.0010221973061561584,0.0016104468377307057,-0.014846891164779663
1690839913989420500,4.966420654296875,0.0009547509253025055,0.004008607007563114,-0.011005116626620293
1690839913999461600,4.976461669921875,-0.00003754300996661186,0.003681570990011096,-0.005169864743947983
1690839914009501700,4.986501708984375,0.0005029565654695034,0.0022092165891081095,-0.0010075848549604416
1690839914019541800,4.996541748046875,0.0013538363855332136,0.002064873231574893,0.003311529755592346
1690839914029581800,5.006581787109375,-0.0007143844850361347,-0.0022210320457816124,0.008016247302293777
1690839914039622700,5.01662255859375,-0.000911724753677845,-0.0010809330269694328,0.011453589424490929
1690839914049662700,5.026662841796875,0.00027175527065992355,0.001695179147645831,0.014349175617098808
1690839914059702800,5.036702880859375,0.000030472874641418457,-0.002363744890317321,0.014376073144376278
1690839914069742600,5.04674267578125,-0.0008965446613729,-0.0006066239438951015,0.013414474204182625
1690839914079783700,5.05678369140625,-9.23406332731247e-7,0.000009098788723349571,0.011557452380657196
1690839914089823700,5.06682373046875,0.00042566750198602676,0.0020697303116321564,0.009111488237977028
1690839914099863800,5.07686376953125,0.0018283543176949024,0.0007701077265664935,0.006080544553697109
1690839914109904600,5.086904541015625,-0.0006725727580487728,0.00023040745873004198,0.0025631580501794815
1690839914119975000,5.096974853515625,-0.0018510213121771812,-0.0007011662237346172,-0.0031775515526533127
1690839914130015700,5.107015625,0.0006974495481699705,-0.00246676173992455,-0.005447873845696449
1690839914140055600,5.1170556640625,-0.0012357388623058796,0.000008912989869713783,-0.006481179967522621
1690839914150095600,5.127095703125,-0.0015591690316796303,0.0010953550226986408,-0.009951839223504066
1690839914160136700,5.13713671875,0.0006901370361447334,0.002172337379306555,-0.010005103424191475
1690839914170176800,5.1471767578125,0.0006514806300401688,0.0020542433485388756,-0.009188134223222733
1690839914180216800,5.157216796875,-0.00023961300030350685,0.0012110865209251642,-0.009143926203250885
1690839914190257000,5.1672568359375,-0.0005288035608828068,0.0015356997027993202,-0.007550502195954323
1690839914200297700,5.177297607421875,0.0006656241603195667,0.0016219860408455133,-0.005656993016600609
1690839914210337800,5.187337890625,0.00004223734140396118,0.00008073786739259958,-0.004206597805023193
1690839914220377600,5.197377685546875,-0.00046110013499855995,-0.00028571300208568573,-0.0012318454682826996
1690839914230418700,5.207418701171875,0.0010832126718014479,-0.0019297671969980001,0.002096230164170265
1690839914240458800,5.217458740234375,0.0008906661532819271,-0.0025454896967858076,0.00452876091003418
1690839914250498800,5.227498779296875,-0.00034110434353351593,0.0006577593740075827,0.007691149599850178
1690839914260569900,5.23756982421875,0.0007137740030884743,-0.00018140277825295925,0.00776412058621645
1690839914270610000,5.24760986328125,-0.00010171718895435333,0.0011404042597860098,0.00912486482411623
1690839914280649700,5.257649658203125,0.0005169352516531944,0.0007854049326851964,0.007756000384688377
1690839914290690600,5.267690673828125,-0.0008250619284808636,-0.0007658125832676888,0.006796111352741718
1690839914300730600,5.277730712890625,0.001418917439877987,0.00027068983763456345,0.003004835918545723
1690839914310770700,5.287770751953125,0.0006062048487365246,-0.0010089506395161152,0.001999594271183014
1690839914320811800,5.297811767578125,-0.00019114557653665543,-0.0012912456877529621,0.00025762058794498444
1690839914330851800,5.307851806640625,0.0007368337828665972,0.0007483068620786071,-0.002079188823699951
1690839914340892000,5.317891845703125,-0.0005313633009791374,0.0022247633896768093,-0.003689602017402649
1690839914350932000,5.327931884765625,-0.0011217170394957066,0.001661547226831317,-0.00790928304195404
1690839914360972800,5.337972900390625,0.00038509955629706383,0.0030253520235419273,-0.008341779932379723
1690839914371012600,5.3480126953125,0.0005834563635289669,-0.0007451658602803946,-0.00632714107632637
1690839914381052700,5.358052734375,0.0008401849772781134,-0.0018133597914129496,-0.005693841725587845
1690839914391093800,5.36809375,0.000474689994007349,-0.0028866135980933905,-0.00578625313937664
1690839914401133800,5.3781337890625,0.0006738947704434395,-0.002536674262955785,-0.0029446613043546677
1690839914411204900,5.388204833984375,0.0012067093048244715,-0.002016626298427582,-0.0019706375896930695
1690839914421245000,5.398244873046875,0.00013185758143663406,0.0007418757304549217,0.0006669573485851288
1690839914431284700,5.40828466796875,0.0008944573346525431,-0.0007431346457451582,0.0031841639429330826
1690839914441325600,5.41832568359375,-0.001932754646986723,0.0017847376875579357,0.004208680242300034
1690839914451365600,5.42836572265625,0.0007004016079008579,0.003622736781835556,0.004907216876745224
1690839914461405700,5.43840576171875,0.0011624600738286972,0.0028648010920733213,0.006486470811069012
1690839914471445800,5.44844580078125,-0.0011891047470271587,0.000696962233632803,0.0029405970126390457
1690839914481486800,5.45848681640625,0.0007281049620360136,0.0007526222616434097,0.003658585250377655
1690839914491527000,5.46852685546875,0.00033347681164741516,-0.0006630830466747284,0.004164516925811768
1690839914501566700,5.478566650390625,-0.0005142074078321457,-0.0009232738520950079,0.0011700596660375595
1690839914511607800,5.48860791015625,0.0006630271673202515,-0.0008145493920892477,0.0026888009160757065
1690839914521647600,5.498647705078125,0.0019240339752286673,-0.0009391854982823133,0.00005200505256652832
1690839914531687700,5.508687744140625,-0.0009263749234378338,0.0004358466248959303,0.000418737530708313
1690839914541727700,5.518727783203125,0.00028962455689907074,0.002767976839095354,-0.0015208441764116287
1690839914551768800,5.528768798828125,-0.0009231772273778915,0.00273236189968884,-0.003506377339363098
1690839914561838800,5.5388388671875,0.00022304710000753403,0.001866834471002221,-0.0033034440129995346
1690839914571880000,5.5488798828125,-0.0004950352013111115,0.0007647398160770535,-0.003740759566426277
1690839914581919700,5.558919677734375,0.0007065830286592245,0.0017319999169558287,-0.0030070580542087555
1690839914591959800,5.568959716796875,-0.0009715422056615353,-0.0004766725469380617,-0.0043636225163936615
1690839914602000600,5.579000732421875,-0.00029722973704338074,-0.0022964102681726217,-0.00411168672144413
1690839914612040700,5.589040771484375,0.0002667647786438465,-0.001281021861359477,-0.0007547996938228607
1690839914622080800,5.599080810546875,0.00045877881348133087,-0.001334817847236991,-0.0012323036789894104
1690839914632120800,5.609120849609375,-0.001342805102467537,-0.0014534820802509785,0.003605009987950325
1690839914642162000,5.619161865234375,-0.0007521160878241062,-0.00016877311281859875,0.0037709251046180725
1690839914652201700,5.62920166015625,0.0001740562729537487,0.0022835957352072,0.003652438521385193
1690839914662241800,5.63924169921875,0.000028381124138832092,0.0007088686106726527,0.0031605511903762817
1690839914672282600,5.64928271484375,-0.0007588397711515427,0.0005463269772008061,0.0032695531845092773
1690839914682322700,5.65932275390625,0.000120535958558321,-0.0001924338284879923,-0.00007857196033000946
1690839914692362800,5.66936279296875,-0.00013821152970194817,-0.0009878792334347963,0.002303721383213997
1690839914702433800,5.679433837890625,0.0009022855665534735,-0.0006600441411137581,-0.0010470673441886902
1690839914712473900,5.689473876953125,0.0015996729489415884,-0.0010249735787510872,-0.0010636039078235626
1690839914722513700,5.699513671875,-0.0004749293439090252,-0.0016753175295889378,-0.0014468319714069366
1690839914732554800,5.7095546875,0.0019247389864176512,0.0012917803833261132,-0.0003166124224662781
1690839914742594800,5.7195947265625,0.0005193888209760189,-0.000559382839128375,-0.0002833232283592224
1690839914752635000,5.729634765625,0.00022349925711750984,0.0009081052849069238,-0.0008188113570213318
1690839914762675700,5.73967578125,0.0000754278153181076,0.0009451232617720962,0.000731147825717926
1690839914772715800,5.7497158203125,-0.001232042908668518,0.0015216358006000519,0.0009967964142560959
1690839914782755800,5.759755859375,-0.0004322957247495651,0.0004696871619671583,-0.0009331963956356049
1690839914792795600,5.769795654296875,0.00013204850256443024,-0.0010524801909923553,0.00029138848185539246
1690839914802836700,5.779836669921875,-0.001136415172368288,-0.0005677847657352686,-0.0027411524206399918
1690839914812876800,5.789876708984375,0.0003263326361775398,0.0002935739466920495,-0.001284753903746605
1690839914822916900,5.799916748046875,-0.000812967773526907,0.0004634836222976446,-0.00035131536424160004
1690839914832957700,5.809957763671875,0.0003153439611196518,0.0013361731544137,0.00007458776235580444
1690839914842997800,5.819997802734375,-0.0009954641573131084,0.0011558771366253495,-0.00031450018286705017
1690839914853068800,5.83006884765625,-0.0001390199176967144,-0.004698962438851595,-0.0013322774320840836
1690839914863108900,5.84010888671875,0.00038082897663116455,0.0004952669842168689,0.0013383403420448303
1690839914873148700,5.850148681640625,0.00012524332851171494,-0.0012012748047709465,0.003671230748295784
1690839914883189800,5.860189697265625,0.0003854339011013508,0.00315618934109807,0.0017580166459083557
1690839914893229800,5.870229736328125,-0.0008869348093867302,-0.0029135632794350386,0.00152670219540596
1690839914903270000,5.880269775390625,0.0002675452269613743,0.00009314576163887978,-0.00037372857332229614
1690839914913309700,5.890309814453125,-0.00012325728312134743,-0.0015005378518253565,-0.0013719722628593445
1690839914923350800,5.900350830078125,0.0002567758783698082,-0.001090943580493331,-0.0034239385277032852
1690839914933390800,5.910390869140625,0.0002772207371890545,-0.0009849788621068,-0.002168724313378334
1690839914943430700,5.9204306640625,0.0009022646117955446,0.00025978265330195427,-0.00310509093105793
1690839914953471700,5.9304716796875,-0.0003933408297598362,0.001878340495750308,-0.0017151404172182083
1690839914963511800,5.94051171875,0.0009110751561820507,0.00037152389995753765,-0.0010046102106571198
1690839914973551900,5.9505517578125,-0.00007227342575788498,0.002082403749227524,0.0007615983486175537
1690839914983607300,5.960607177734375,0.0000955057330429554,0.0006168661639094353,0.0029880013316869736
1690839914993648400,5.9706484375,0.000305012334138155,-0.0017604369204491377,0.0027216169983148575
1690839915003718400,5.980718505859375,-0.0022409697994589806,-0.0008709412068128586,0.0004062652587890625
1690839915013759500,5.990759521484375,-0.00017623277381062508,-0.0014181071892380714,0.001700710505247116
1690839915023799300,6.00079931640625,0.0006584019865840673,-0.0007299461867660284,-0.000750197097659111
1690839915033839000,6.010839111328125,-0.0006186589598655701,-0.0015698897186666727,-0.0013707112520933151
1690839915043880200,6.020880126953125,0.0012862998992204666,-0.0014114317018538713,0.0005291886627674103
1690839915053920300,6.030920166015625,0.00045285001397132874,0.002155620837584138,-0.0006303545087575912
1690839915063960300,6.040960205078125,0.0003649657592177391,0.000009112991392612457,0.0030373502522706985
1690839915074000400,6.05100048828125,-0.0006766286678612232,0.0034634729381650686,0.0023960862308740616
1690839915084041500,6.06104150390625,0.0018088994547724724,0.0006879264255985618,0.003483986482024193
1690839915094081300,6.071081298828125,-0.00009810645133256912,0.001187334768474102,0.0012229382991790771
1690839915104121000,6.08112109375,-0.0003231433220207691,0.0003527001244947314,0.00004182755947113037
1690839915114162200,6.091162109375,0.0007584558334201574,0.00022873631678521633,-0.0033567603677511215
1690839915124202200,6.1012021484375,0.00017788680270314217,0.0020583278965204954,-0.005040410906076431
1690839915134242300,6.1112421875,0.000526962336152792,0.0012657339684665203,-0.007422385737299919
1690839915144313300,6.121313232421875,0.0005783615633845329,-0.0017178053967654705,-0.005880948156118393
1690839915154353400,6.131353515625,0.0013693517539650202,-0.0028494419530034065,-0.004534855484962463
1690839915164393500,6.1413935546875,0.0008343227673321962,-0.0005910815671086311,-0.000258883461356163
1690839915174434300,6.151434326171875,-0.00038672517985105515,-0.001662758644670248,0.0023522041738033295
1690839915184474000,6.16147412109375,-0.00005409633740782738,0.000916246441192925,0.005160508677363396
1690839915194514200,6.17151416015625,0.0008296363521367311,0.0015185689553618431,0.0079110749065876
1690839915204555300,6.18155517578125,0.00025066500529646873,0.0020551958587020636,0.007254072465002537
1690839915214595300,6.19159521484375,-0.0005781408399343491,0.003800972830504179,0.0036525018513202667
1690839915224635400,6.201635498046875,0.0005995091050863266,0.003007883671671152,0.0006362050771713257
1690839915234675500,6.211675537109375,-0.002186544705182314,-0.0006487006321549416,-0.0011825095862150192
1690839915244716300,6.22171630859375,0.000791934784501791,-0.0016119659412652254,-0.0031061097979545593
1690839915254756000,6.231756103515625,0.00016252882778644562,-0.003806367050856352,-0.0034317336976528168
1690839915264796200,6.241796142578125,-0.0008350913412868977,-0.002649489790201187,-0.001772850751876831
1690839915274837200,6.251837158203125,-0.0006140163168311119,-0.0030004563741385937,-0.00020981766283512115
1690839915284877300,6.261877197265625,0.00016149645671248436,0.00007442932110279799,0.004398781806230545
1690839915294948400,6.2719482421875,0.0016026126686483622,0.0008645148482173681,0.0045829229056835175
1690839915304988400,6.281988525390625,-0.0013257991522550583,0.002921540290117264,0.0018832758069038391
1690839915315028200,6.2920283203125,-0.00014334358274936676,0.0014124454464763403,-0.000821208581328392
1690839915325069300,6.3020693359375,0.00017117569223046303,0.004218352027237415,-0.004414612427353859
1690839915335109000,6.312109130859375,0.00005373125895857811,0.0008992879884317517,-0.00621844083070755
1690839915345149200,6.322149169921875,-0.00039581023156642914,-0.0025468424428254366,-0.005810445174574852
1690839915355189200,6.332189208984375,-0.0005695684812963009,-0.0022895049769431353,-0.005789382383227348
1690839915365230300,6.342230224609375,-0.0009972723200917244,-0.002863149857148528,-0.002905178815126419
1690839915375270400,6.3522705078125,-0.0009178454056382179,-0.0044713858515024185,0.0008014999330043793
1690839915385310500,6.362310546875,-0.002271796576678753,0.0016227258602157235,0.0044492315500974655
1690839915395351300,6.372351318359375,0.0005917656235396862,0.0007186115253716707,0.005382770672440529
1690839915405391000,6.38239111328125,-0.00025778310373425484,0.0037791160866618156,0.006272532977163792
1690839915415431200,6.39243115234375,-0.0007320675067603588,0.004028686322271824,0.0061562638729810715
1690839915425471200,6.40247119140625,-0.00026894407346844673,0.003475547768175602,0.0038757994771003723
1690839915435512300,6.41251220703125,-0.00057220458984375,0.0005085066659376025,0.0023454222828149796
1690839915445582300,6.422582275390625,-0.0009072301909327507,-0.0009429161436855793,-0.002067169174551964
1690839915455623400,6.43262353515625,0.0005218535661697388,-0.0019180376548320055,-0.0027603991329669952
1690839915465663200,6.442663330078125,-0.00047842971980571747,-0.0048179542645812035,-0.0041167475283145905
1690839915475703300,6.452703369140625,-0.001174819190055132,-0.0016938657499849796,-0.0035810433328151703
1690839915485744000,6.462744140625,0.00020150234922766685,-0.0008065004367381334,-0.0018843431025743484
1690839915495784200,6.4727841796875,0.00034301169216632843,-0.0001821576151996851,-0.0008615143597126007
1690839915505824300,6.48282421875,0.000993622001260519,0.0026277436409145594,0.0014570336788892746
1690839915515864300,6.4928642578125,-0.0005028136074542999,0.00398555863648653,0.0011764317750930786
1690839915525905400,6.502905517578125,-0.0006982898339629173,0.002334132557734847,-0.00038018636405467987
1690839915535945500,6.512945556640625,-0.0002515292726457119,0.0023864731192588806,-0.0009903665632009506
1690839915545985300,6.5229853515625,-0.0003766976296901703,-0.00021809851750731468,-0.0011261869221925735
1690839915556026000,6.533026123046875,-0.00034924736246466637,-0.0031725147273391485,-0.002314310520887375
1690839915566066200,6.543066162109375,-0.0006459238938987255,-0.002512583276256919,0.0014069229364395142
1690839915576106200,6.553106201171875,0.0005910005420446396,-0.0007558548822999001,0.00034747645258903503
1690839915586177300,6.56317724609375,-0.000342703890055418,0.00007664936129003763,0.001812215894460678
1690839915596217300,6.57321728515625,0.00011345045641064644,0.0015230001881718636,0.0025332383811473846
1690839915606258400,6.583258544921875,-0.00025087036192417145,0.0017909142188727856,0.0029169991612434387
1690839915616298200,6.59329833984375,0.00009034527465701103,0.0014536033850163221,0.002992851659655571
1690839915626338300,6.60333837890625,0.0015777205117046833,0.0006631771102547646,0.0020146723836660385
1690839915636378400,6.61337841796875,0.0009007249027490616,0.0001851515844464302,0.00045928359031677246
1690839915646419200,6.623419189453125,0.0007654363289475441,-0.0010532182641327381,-0.0010957363992929459
1690839915656459300,6.633459228515625,-0.00009328965097665787,0.0011176671832799911,-0.004140909761190414
1690839915666499300,6.643499267578125,-0.000267992727458477,0.00012377544771879911,-0.004816554486751556
1690839915676539400,6.653539306640625,-0.0008090576156973839,-0.000010543502867221832,-0.004501033574342728
1690839915686580500,6.66358056640625,0.000911610433831811,0.0014944089343771338,-0.0038360413163900375
1690839915696620300,6.673620361328125,0.0008653199765831232,0.0012439769925549626,-0.002175739035010338
1690839915706660400,6.683660400390625,0.00011617271229624748,-0.0007672421634197235,-0.0028844065964221954
1690839915716701200,6.693701171875,-0.00041928840801119804,-0.0010730491485446692,-0.0008620265871286392
1690839915726741200,6.7037412109375,-0.00003712484613060951,-0.001649889862164855,0.0013452023267745972
1690839915736812300,6.713812255859375,-0.00015396485105156898,-0.001253008609637618,0.002694474533200264
1690839915746852400,6.723852294921875,0.0007962512318044901,0.00028896157164126635,0.0025266967713832855
1690839915756892200,6.73389208984375,-0.0007795793935656548,0.0010127504356205463,0.004491355270147324
1690839915766933200,6.743933349609375,0.000870781484991312,0.0027299567591398954,0.0038852207362651825
1690839915776973300,6.753973388671875,0.0006986081134527922,0.0023750097025185823,0.005106896162033081
1690839915787013400,6.764013427734375,-0.00009501399472355843,0.0022985769901424646,0.005480803549289703
1690839915797053400,6.774053466796875,-0.001200258731842041,-0.000659082317724824,0.0031710173934698105
1690839915807094300,6.78409423828125,0.00004183966666460037,-0.0014143548905849457,0.0031976476311683655
1690839915817134300,6.79413427734375,-0.0018741609528660774,-0.003194181015715003,-0.00012803450226783752
1690839915827174400,6.80417431640625,-0.00020222831517457962,-0.003173674689605832,-0.000515524297952652
1690839915837215500,6.814215576171875,0.0007591426838189363,-0.0012642978690564632,-0.0051134247332811356
1690839915847255300,6.82425537109375,0.0011833843309432268,-0.00014230795204639435,-0.0072548724710941315
1690839915857295400,6.83429541015625,0.00023018894717097282,0.000758796464651823,-0.007130192592740059
1690839915867335400,6.84433544921875,0.00029889820143580437,0.0007505406392738223,-0.008737677708268166
1690839915877376300,6.854376220703125,0.0009215630125254393,0.0018863313598558307,-0.005762750282883644
1690839915887446500,6.864446533203125,-0.00014742976054549217,0.0018077681306749582,-0.0046221185475587845
1690839915897487400,6.8744873046875,-0.00026467349380254745,0.0003939722664654255,-0.000674854964017868
1690839915907527200,6.884527099609375,0.00046449992805719376,-0.0001969833392649889,-0.0011835191398859024
1690839915917567200,6.894567138671875,0.0023251597303897142,-0.000009957700967788696,0.0037371553480625153
1690839915927608300,6.9046083984375,-0.0007720966823399067,-0.001290671993046999,0.004511868581175804
1690839915937648400,6.9146484375,-0.0012281215749680996,-0.0012343251146376133,0.003119084984064102
1690839915947688400,6.9246884765625,0.0007791030220687389,-0.0021520506124943495,0.004504460841417313
1690839915957728500,6.934728515625,0.00025852350518107414,-0.0001237459946423769,0.002831028774380684
1690839915967769300,6.944769287109375,0.00026757828891277313,0.0006973064737394452,0.003327440470457077
1690839915977809200,6.95480908203125,0.0010191898327320814,-0.000009084120392799377,0.0017422065138816833
1690839915987820000,6.964820068359375,-0.0020913821645081043,0.00196511740796268,0.0021137185394763947
1690839915997860900,6.97486083984375,-0.0002826834097504616,0.0006799359107390046,0.0024753641337156296
1690839916007901000,6.98490087890625,-0.000001719687134027481,0.0012607714161276817,-0.0006003212183713913
1690839916017941000,6.99494091796875,-0.000031833071261644363,0.000181844225153327,-0.0017409734427928925
1690839916028011800,7.00501171875,0.0008597930427640676,-0.0008836865890771151,-0.0035503245890140533
1690839916038051800,7.0150517578125,-0.00020944001153111458,-0.0013070295099169016,-0.003766251727938652
1690839916048093000,7.025093017578125,0.0004054838791489601,-0.0016734804958105087,-0.004617130383849144
1690839916058133000,7.035133056640625,0.001472244504839182,-0.0016035933513194323,-0.004570309072732925
1690839916068173000,7.045173095703125,0.001076765125617385,0.0010467844549566507,-0.004370039328932762
1690839916078212900,7.055212890625,0.00042836694046854973,-0.0007324451580643654,-0.003184080123901367
1690839916088254000,7.06525390625,-0.0007902956567704678,0.0012076676357537508,-0.0019467752426862717
1690839916098293800,7.075293701171875,-0.0009842533618211746,-0.00009019020944833755,-0.00048167817294597626
1690839916108333800,7.085333740234375,-0.000009003560990095139,-0.0005149645730853081,0.001787867397069931
1690839916118375000,7.095375,-0.002221733331680298,0.000906244502402842,0.004243981093168259
1690839916128415000,7.1054150390625,0.0002805725671350956,0.001388276694342494,0.0036016255617141724
1690839916138455000,7.115455078125,-0.0002756621688604355,0.0007081979420036077,0.0020142123103141785
1690839916148494800,7.125494873046875,-0.0009864596650004387,-0.002647385001182556,0.004116777330636978
1690839916158536000,7.135535888671875,0.0007271924987435341,0.00034621020313352346,0.0018867850303649902
1690839916168576000,7.145575927734375,0.0004118741489946842,0.002291116863489151,0.0031933318823575974
1690839916178646800,7.155646728515625,-0.0007767146453261375,-0.000269418116658926,-0.00013595446944236755
1690839916188686800,7.165686767578125,-0.002271280623972416,-0.0016830239910632372,0.0012664645910263062
1690839916198727000,7.175726806640625,-0.0010599493980407715,-0.0015372468624264002,-0.0013074297457933426
1690839916208768000,7.18576806640625,0.0000660349614918232,0.0007821001345291734,-0.0004442986100912094
1690839916218807800,7.195807861328125,0.0008115821983665228,0.0021551267709583044,-0.0007203482091426849
1690839916228847900,7.205847900390625,-0.0005932352505624294,-0.0018638495821505785,-0.0006761401891708374
1690839916238887700,7.2158876953125,0.00007188599556684494,0.00006301817484200001,-0.0018662549555301666
1690839916248928800,7.2259287109375,0.0008471321780234575,0.0007943222299218178,-0.0004526488482952118
1690839916258968800,7.23596875,0.0003810352645814419,0.001269233413040638,-0.0030041560530662537
1690839916269009000,7.2460087890625,0.000899020116776228,0.000052967690862715244,-0.0024470239877700806
1690839916279050000,7.256050048828125,-0.0005697836168110371,0.0011381875956431031,-0.0010591987520456314
1690839916289089800,7.26608984375,0.0008454201743006706,0.00012964848428964615,-0.0006703771650791168
1690839916299129900,7.2761298828125,-0.00035418150946497917,-0.0017981112468987703,0.0007874369621276855
1690839916309170000,7.286169921875,0.000833854777738452,-0.0018050353974103928,-0.00037130340933799744
1690839916319211000,7.2962109375,0.0010851174592971802,-0.0005165892653167248,0.0012661758810281754
1690839916329280800,7.30628076171875,0.0005269190296530724,-0.001905693905428052,0.004029206931591034
1690839916339321900,7.31632177734375,-0.0006520645692944527,0.0018495970871299505,0.0012782290577888489
1690839916349362000,7.32636181640625,-0.000053652096539735794,0.0004085606196895242,0.0010265614837408066
1690839916359402000,7.336402099609375,0.0002730954438447952,-0.0002913316711783409,0.0027491971850395203
1690839916369442800,7.34644287109375,-0.0011168085038661957,-0.0004913350567221642,0.0017204172909259796
1690839916379483000,7.35648291015625,0.0005850065499544144,0.0011761034838855267,0.0001726355403661728
1690839916389522700,7.366522705078125,-0.0002586832270026207,-0.00007291906513273716,0.0015926342457532883
1690839916399562800,7.376562744140625,-0.00015865685418248177,-0.0000697653740644455,-0.0012302473187446594
1690839916409603800,7.386603759765625,0.00011058896780014038,0.001121466513723135,-0.0006659235805273056
1690839916419644000,7.396643798828125,-0.0005367537960410118,0.0010155877098441124,-0.00005811639130115509
1690839916429684000,7.40668408203125,-0.000733294989913702,-0.0015056268312036991,0.000705944374203682
1690839916439724800,7.416724853515625,-0.00026383204385638237,-0.000836638268083334,0.0003733169287443161
1690839916449764900,7.426764892578125,-0.0002182917669415474,0.0006874887039884925,-0.0009329654276371002
1690839916459804700,7.4368046875,0.0007682309951633215,-0.0002383559476584196,-0.0004745014011859894
1690839916469844700,7.4468447265625,-0.0015074401162564754,0.001470860792323947,-0.0007794331759214401
1690839916479915800,7.456915771484375,0.0016791988164186478,-0.0006828154437243938,-0.001203831285238266
1690839916489956900,7.466956787109375,-0.0003160415217280388,0.0015688871499150991,-0.001475473865866661
1690839916499997000,7.476996826171875,0.0014843258541077375,-0.0006489609368145466,0.00007184036076068878
1690839916510037000,7.487037109375,0.00094982935115695,-0.000009003328159451485,0.0012976936995983124
1690839916520077000,7.4970771484375,0.00019334768876433372,0.0005360222421586514,0.0024117976427078247
1690839916530118000,7.507117919921875,0.0008684589993208647,-0.0006115338765084743,0.0013446696102619171
1690839916540157700,7.51715771484375,-0.001114982645958662,0.00005819322541356087,0.0029816720634698868
1690839916550197800,7.52719775390625,0.00015960633754730225,-0.0005876233335584402,0.0017611440271139145
1690839916560238800,7.53723876953125,-0.00011529633775353432,-0.0005413154140114784,0.0005186498165130615
1690839916570279000,7.54727880859375,0.0016173564363270998,-0.001052642473950982,-0.00042384304106235504
1690839916580319000,7.557319091796875,-0.0005503133870661259,0.0007283937884494662,0.00023644417524337769
1690839916590359000,7.567359130859375,-0.0006041093729436398,0.0018578404560685158,-0.0012338869273662567
1690839916600400000,7.57739990234375,0.00020704371854662895,0.00006370502524077892,0.00038771703839302063
1690839916610439700,7.587439697265625,-0.001153831835836172,0.0006951404502615333,-0.0005928575992584229
1690839916620510700,7.5975107421875,-0.000979867298156023,-0.00048813712783157825,0.0008370466530323029
1690839916630550800,7.60755078125,-0.0000988934189081192,0.0008988372283056378,-0.00032142922282218933
1690839916640590800,7.6175908203125,0.000710546737536788,-0.00006472645327448845,-0.0009863711893558502
1690839916650632000,7.6276318359375,0.00000321120023727417,0.0011110592167824507,0.00014547258615493774
1690839916660672000,7.637672119140625,0.0007219612598419189,-0.0009420432616025209,0.00006305240094661713
1690839916670712000,7.647712158203125,0.0007749581709504128,0.0009722368558868766,-0.0014581456780433655
1690839916680751900,7.657751953125,0.0006358143873512745,0.00015762390103191137,-0.00012512318789958954
1690839916690792700,7.667792724609375,0.00031650159507989883,0.00043725583236664534,-0.0006393790245056152
1690839916700832800,7.677832763671875,0.0014745222870260477,0.0026179689448326826,0.0025701038539409637
1690839916710872800,7.687872802734375,-0.0011660018935799599,-0.000820172019302845,-0.00019532255828380585
1690839916720914000,7.697913818359375,-0.00025793490931391716,0.0003199708880856633,0.0010048002004623413
1690839916730954000,7.7079541015625,-0.000517592765390873,-0.0004973532631993294,0.0005262307822704315
1690839916740994000,7.717994140625,0.0007918402552604675,-0.0015722434036433697,-0.0002889838069677353
1690839916751033900,7.728033935546875,0.0007359138689935207,-0.0010254962835460901,0.0023182500153779984
1690839916761074700,7.73807470703125,-0.0000056158751249313354,0.00068531499709934,0.0020560994744300842
1690839916771145700,7.748145751953125,-0.0007861885242164135,0.00014469330199062824,0.0010752584785223007
1690839916781185800,7.758185791015625,-0.0006904546171426773,-0.0014499863609671593,-0.0015167780220508575
1690839916791225900,7.768225830078125,0.00035403715446591377,-0.00026168394833803177,-0.0012035910040140152
1690839916801266000,7.778265869140625,-0.00204998767003417,0.001056891167536378,0.0001785624772310257
1690839916811307000,7.78830712890625,-0.0011365232057869434,-0.0014462138060480356,-0.0005322359502315521
1690839916821347000,7.79834716796875,0.0003378246910870075,-0.0017959123943001032,-0.00024965405464172363
1690839916831387000,7.808386962890625,-0.00036152172833681107,0.0021295868791639805,-0.00009492598474025726
1690839916841427000,7.818427001953125,-0.0021330765448510647,0.0021794403437525034,-0.0008203480392694473
1690839916851467800,7.8284677734375,-0.00020707817748188972,0.0016494713490828872,0.0010361410677433014
1690839916861507800,7.8385078125,0.0006293379701673985,0.001295027555897832,-0.0024338196963071823
1690839916871548000,7.8485478515625,-0.0006031729280948639,0.0016074164304882288,-0.0012207496911287308
1690839916881589000,7.858589111328125,-0.000602849293500185,0.00031593465246260166,-0.0010758526623249054
1690839916891629000,7.868629150390625,0.0007289974018931389,-0.0009988679084926844,0.0009225830435752869
1690839916901668900,7.8786689453125,-0.00007125828415155411,0.00013207097072154284,0.0011833198368549347
1690839916911709000,7.888708984375,-0.0010534320026636124,-0.0006969710811972618,0.0018477775156497955
1690839916921780000,7.898780029296875,-0.0005007344298064709,-0.0010133672039955854,0.0004939604550600052
1690839916931820800,7.90882080078125,-0.0005135177634656429,0.00027080904692411423,0.0013360511511564255
1690839916941860900,7.91886083984375,-0.00023376615718007088,-0.0009063077159225941,-0.00011015310883522034
1690839916951901000,7.92890087890625,-0.0008795829489827156,-0.00044318404980003834,0.0025186538696289062
1690839916961941000,7.93894091796875,0.0001940377987921238,0.0006111353868618608,0.0016576927155256271
1690839916971982000,7.948982177734375,0.001506709959357977,0.0016439092578366399,0.0007516853511333466
1690839916982032000,7.959031982421875,0.00009741820394992828,0.0002941923448815942,0.0005009863525629044
1690839916992072000,7.969072021484375,-0.0008812937885522842,-0.0007758657447993755,0.0015329625457525253
1690839917002112800,7.97911279296875,0.0000497535802423954,0.0010682125575840473,-0.0006779134273529053
1690839917012152800,7.98915283203125,0.0013680185656994581,0.0000069427769631147385,-0.0005191881209611893
1690839917022193000,7.99919287109375,0.000182304996997118,0.0010150152957066894,0.0009958241134881973
1690839917032233000,8.00923291015625,-0.00003341119736433029,-0.0007344151381403208,-0.0020668115466833115
1690839917042274000,8.019274169921875,-0.0002619614824652672,-0.00038103386759757996,-0.00048697367310523987
1690839917052313900,8.02931396484375,0.0006315293721854687,0.0010807752842083573,0.0003745574504137039
1690839917062385000,8.039385009765626,0.0004481556825339794,0.0006289466982707381,0.0003226734697818756
1690839917072425000,8.049425048828125,-0.0010605249553918839,0.0009155028965324163,0.0013123024255037308
1690839917082465000,8.059465087890626,0.00036393385380506516,-6.249174475669861e-7,0.0004156772047281265
1690839917092505900,8.069505859375,-0.0014044051058590412,-0.0007052973378449678,-0.0004698224365711212
1690839917102546000,8.0795458984375,0.0013703880831599236,0.0015937727876007557,0.00193791463971138
1690839917112585700,8.089585693359375,-0.0013455036096274853,-0.0017381079960614443,-0.0006562713533639908
1690839917122625800,8.099625732421876,-0.0021225111559033394,-0.001294852001592517,0.0011904276907444
1690839917132667000,8.1096669921875,-0.00033126911148428917,0.0008370084688067436,-0.0002649892121553421
1690839917142707000,8.11970703125,-0.00017771683633327484,0.0011346822138875723,0.0004359055310487747
1690839917152747000,8.1297470703125,0.001732568722218275,-0.0006349883042275906,0.0004944950342178345
1690839917162787800,8.139787841796876,0.00006111245602369308,0.000987128703854978,0.0005102455615997314
1690839917172828000,8.149827880859375,0.000717048766091466,0.0009565022774040699,0.00016909465193748474
1690839917182868000,8.159867919921876,-0.000025180634111166,-0.0007097648922353983,-0.0012388750910758972
1690839917192907800,8.16990771484375,-0.0007998938672244549,-0.00146397203207016,0.0011140275746583939
1690839917202948900,8.179948974609376,0.00018776720389723778,-0.0007943848613649607,0.00017711706459522247
1690839917213020000,8.19002001953125,-0.0004985295236110687,-0.0003632190637290478,0.00037339329719543457
1690839917223060000,8.20006005859375,-0.0003055143170058727,0.0009743301197886467,0.0014176778495311737
1690839917233100000,8.21010009765625,0.0015741446986794472,0.0020686229690909386,0.0003343038260936737
1690839917243140000,8.22014013671875,0.00028267642483115196,-0.0006266033742576838,-0.0011907145380973816
1690839917253181000,8.230180908203126,0.0002352721057832241,0.002151606371626258,-0.001440785825252533
1690839917263220700,8.240220703125,-0.00002247421070933342,0.00038135203067213297,0.0010207165032625198
1690839917273260800,8.2502607421875,-0.0008030463941395283,-0.00005061272531747818,-0.0003918241709470749
1690839917283302000,8.260302001953125,0.00037949392572045326,0.0016956760082393885,0.00014099664986133575
1690839917293342000,8.270342041015626,0.00013821152970194817,0.0011404070537537336,-0.0012545008212327957
1690839917303382000,8.280382080078125,0.0007832667324692011,0.00224135210737586,0.001020653173327446
1690839917313422000,8.290422119140626,-0.000662563368678093,-0.00044764159247279167,-0.0016020294278860092
1690839917323463000,8.300462890625,0.0007182103581726551,-0.0012186490930616856,-0.00031976960599422455
1690839917333503000,8.3105029296875,-0.0008916705846786499,-0.0017566077876836061,0.0013034269213676453
1690839917343542800,8.320542724609375,-0.0011483696289360523,-0.0006387645844370127,-0.0007882211357355118
1690839917353582800,8.330582763671876,0.0004958659410476685,0.0010467502288520336,0.00035693682730197906
1690839917363654000,8.34065380859375,0.0011111146304756403,0.0018080148147419095,0.0013148486614227295
1690839917373695000,8.350695068359375,-0.00042046932503581047,-0.0003068014048039913,-0.0026106517761945724
1690839917383735000,8.360735107421876,-0.0005371975712478161,0.0008662233594805002,-0.0005464237183332443
1690839917393775000,8.370775146484375,0.0003371182829141617,-0.0004469814011827111,0.0010802354663610458
1690839917403815000,8.38081494140625,-0.0010248064063489437,0.0005249336827546358,0.0013372283428907394
1690839917413855700,8.390855712890625,-0.00020348746329545975,0.0005624842597171664,-0.0002952888607978821
1690839917423895800,8.400895751953126,-0.0004104697145521641,-0.0002461867406964302,0.001377258449792862
1690839917433936000,8.410935791015625,-0.0005675964057445526,-0.00008080434054136276,-0.0011652614921331406
1690839917443977000,8.42097705078125,-0.00039573293179273605,-0.00033011799678206444,-0.0013591647148132324
1690839917454017000,8.43101708984375,-0.0005248961970210075,-0.0006478331051766872,-0.000859823077917099
1690839917464057000,8.44105712890625,-0.0022199274972081184,-0.000520569970831275,0.00042632780969142914
1690839917474097000,8.451096923828125,-0.0007256274111568928,0.00025201309472322464,0.0005664099007844925
1690839917484137700,8.4611376953125,-0.0006799264810979366,0.0008101206040009856,-0.00029328837990760803
1690839917494177800,8.471177734375,-0.00107540562748909,0.000009574461728334427,0.0002396106719970703
1690839917504248800,8.481248779296875,0.0003798329271376133,-0.0018668938428163528,-0.0006333552300930023
1690839917514289000,8.491288818359376,0.0008906270377337933,0.0008987990440800786,0.001034315675497055
1690839917524329000,8.501328857421875,-0.0008607031777501106,0.00017774547450244427,-0.0006287209689617157
1690839917534370000,8.5113701171875,0.0004450445994734764,0.0009708348661661148,-0.0012894496321678162
1690839917544410000,8.52141015625,0.0031737503595650196,0.12593066692352295,-0.11993222683668137
1690839917554450000,8.531449951171876,-0.011987891048192978,0.05284899100661278,-0.07024402916431427
1690839917564489700,8.54148974609375,-0.03565533831715584,0.030890444293618202,-0.12954288721084595
1690839917574530800,8.55153076171875,0.0023064257111400366,-0.01112518273293972,-0.09991627931594849
1690839917584571000,8.56157080078125,0.020791132003068924,-0.009656418114900589,-0.08527667820453644
1690839917594611000,8.57161083984375,0.030536703765392303,-0.05173036828637123,-0.0506470687687397
1690839917604652000,8.581652099609375,0.021069185808300972,-0.018403947353363037,-0.07250518351793289
1690839917614692000,8.591692138671876,0.012703130021691322,-0.09636106342077255,0.021831970661878586
1690839917624732000,8.60173193359375,0.0021631682757288218,0.02892811968922615,0.06738647073507309
1690839917634771700,8.611771728515626,-0.007322479039430618,0.01321333833038807,0.06822137534618378
1690839917644812800,8.621812744140625,-0.01409873180091381,0.07261055707931519,0.11205435544252396
1690839917654883800,8.6318837890625,-0.014865988865494728,-0.03987843543291092,0.09781869500875473
1690839917664924000,8.641923828125,-0.0054777273908257484,0.0067254528403282166,0.09639491140842438
1690839917674964000,8.6519638671875,0.005794367752969265,0.001008711289614439,0.09696856141090393
1690839917685004000,8.662004150390626,0.010587209835648537,0.009452671743929386,0.0865219309926033
1690839917695045000,8.672045166015625,0.007336555980145931,0.010568536818027496,0.06574501097202301
1690839917705085000,8.6820849609375,0.0011607049964368343,-0.0018661387730389833,0.04202614352107048
1690839917715124700,8.692124755859375,-0.005132610909640789,-0.012315317988395691,0.015464840456843376
1690839917725165800,8.702165771484376,-0.006694299168884754,-0.014162300154566765,-0.01164829172194004
1690839917735206000,8.712205810546875,-0.006238898262381554,-0.016012398526072502,-0.03385532647371292
1690839917745246000,8.722245849609376,-0.0014989650808274746,-0.008032454177737236,-0.0568351186811924
1690839917755286000,8.7322861328125,0.003635343164205551,0.0015051244990900159,-0.06813597679138184
1690839917765327000,8.7423271484375,0.0027748660650104284,0.009665772318840027,-0.07742910087108612
1690839917775366700,8.75236669921875,0.004879828542470932,0.014477305114269257,-0.08093035966157913
1690839917785406700,8.76240673828125,0.0024198475293815136,0.0178923849016428,-0.07690183818340302
1690839917795446800,8.77244677734375,-0.0012494558468461037,0.013176992535591125,-0.06831634044647217
1690839917805517800,8.782517822265625,-0.0037640035152435303,0.009097905829548836,-0.060443215072155
1690839917815559000,8.792558837890626,-0.0014880658127367496,0.0040349699556827545,-0.04502883553504944
1690839917825599000,8.802598876953125,-0.0013823951594531536,-0.003513691481202841,-0.027726424857974052
1690839917835639000,8.81263916015625,-0.0002731885761022568,-0.00806956086307764,-0.010990852490067482
1690839917845678800,8.822678955078125,0.0017891915049403906,-0.00950770266354084,0.00634746253490448
1690839917855719700,8.8327197265625,0.0013532319571822882,-0.007534567732363939,0.020928269252181053
1690839917865759700,8.842759765625,0.00025944365188479424,-0.002888381015509367,0.037731945514678955
1690839917875799800,8.8527998046875,-0.000053211115300655365,0.0026909413281828165,0.04924958199262619
1690839917885841000,8.8628408203125,-0.0035504833795130253,0.0044067371636629105,0.057283252477645874
1690839917895881000,8.872880859375,-0.003294020425528288,0.005758291110396385,0.06103164702653885
1690839917905921000,8.882921142578125,-0.0007062181830406189,0.0021564450580626726,0.05829154700040817
1690839917915960800,8.8929609375,-0.0011003660038113594,-0.0008433395996689796,0.05449334532022476
1690839917926001700,8.903001708984375,0.0005299490876495838,-0.003598724491894245,0.044903092086315155
1690839917936041700,8.913041748046876,0.0011009310837835073,-0.005277048796415329,0.034555114805698395
1690839917946112800,8.92311279296875,0.0025532813742756844,-0.00483761727809906,0.019526716321706772
1690839917956152800,8.93315283203125,-0.00009123748168349266,-0.0037798096891492605,0.007294817827641964
1690839917966193000,8.94319287109375,-0.0008040857501327991,-0.005150169134140015,-0.006344923749566078
1690839917976234000,8.95323388671875,-0.00022538099437952042,0.0015090651577338576,-0.021363554522395134
1690839917986258200,8.963258056640624,-0.0007212194614112377,0.003862554207444191,-0.0298142209649086
1690839917996298200,8.97329833984375,-0.0005270750261843204,0.0037688107695430517,-0.03837788105010986
1690839918006338300,8.98333837890625,0.00036016805097460747,0.004764409735798836,-0.04233638197183609
1690839918016379400,8.99337939453125,0.00012447824701666832,0.003118576481938362,-0.043331071734428406
1690839918026419200,9.003419189453124,0.0015244267415255308,0.0026492420583963394,-0.042367205023765564
1690839918036459300,9.013459228515625,-0.0004239417612552643,0.0014979575062170625,-0.03591063618659973
1690839918046500000,9.0235,-0.0004138033837080002,0.0005905062425881624,-0.03158188611268997
1690839918056540200,9.0335400390625,-0.0009408430196344852,0.0009172761347144842,-0.022558560594916344
1690839918066580200,9.043580322265624,-0.0009527411311864853,0.0010857544839382172,-0.013687891885638237
1690839918076620300,9.053620361328125,-0.001835046336054802,-0.00006552995182573795,-0.003244839608669281
1690839918086661400,9.063661376953124,-0.00043392693623900414,0.000002088025212287903,0.005455502308905125
1690839918096732400,9.073732421875,0.001003381097689271,0.0019347440684214234,0.015532104298472404
1690839918106772200,9.083772216796875,0.0002267151139676571,-0.0017118321266025305,0.023953087627887726
1690839918116812300,9.093812255859374,0.00044003408402204514,-0.00305539695546031,0.02969060093164444
1690839918126852400,9.103852294921875,0.0002740039490163326,-0.003787109861150384,0.033216677606105804
1690839918136893200,9.11389306640625,-0.0010392009280622005,-0.0025135863106697798,0.033587656915187836
1690839918146933200,9.123933349609375,0.0004057483747601509,0.00009833509102463722,0.03117334097623825
1690839918156973300,9.133973388671874,-0.0010717734694480896,-0.001967745367437601,0.02713652141392231
1690839918167014400,9.144014404296875,0.0013548019342124462,-0.0017253786791116,0.02049330249428749
1690839918177054200,9.15405419921875,0.00020937621593475342,0.002240600762888789,0.013040445744991302
1690839918187094300,9.16409423828125,0.0014861624222248793,0.0032965559512376785,0.004992004483938217
1690839918197134300,9.17413427734375,0.001431301236152649,0.002007319824770093,-0.0021569859236478806
1690839918207175200,9.184175048828125,0.0009055179543793201,0.0003848309861496091,-0.009528536349534988
1690839918217215200,9.19421533203125,-0.0005120825953781605,0.00019228446763008833,-0.014878826215863228
1690839918227255300,9.20425537109375,0.0005517294630408287,-0.0026598472613841295,-0.021368881687521935
1690839918237296400,9.21429638671875,-0.0015665488317608833,-0.0015525047201663256,-0.02235185168683529
1690839918247366100,9.2243662109375,0.0008821575902402401,0.0018501932499930263,-0.02513234317302704
1690839918257407200,9.2344072265625,-0.0008097486570477486,-0.0009698278736323118,-0.021149318665266037
1690839918267447300,9.244447265625,0.0018394605722278357,0.0020328329410403967,-0.02093067392706871
1690839918277487400,9.2544873046875,-0.0003733602352440357,0.0016874209977686405,-0.018135685473680496
1690839918287527400,9.26452734375,-0.0008274195715785027,-0.002796734683215618,-0.013416003435850143
1690839918297568300,9.274568359375,-0.0009539197199046612,0.0025490284897387028,-0.007170623168349266
1690839918307608300,9.2846083984375,-0.0004190327599644661,-0.0011826453264802694,-0.00011960044503211975
1690839918317648100,9.294648193359375,-0.00028614094480872154,-0.0007173912599682808,0.004236798733472824
1690839918327689200,9.304689208984374,-0.0003714864142239094,-0.0018310723826289177,0.010451513342559338
1690839918337729300,9.314729248046875,-0.0005264822393655777,-0.003272108733654022,0.012371918186545372
1690839918347769300,9.324769287109374,-0.000851520337164402,-0.0018234825693070889,0.017629282549023628
1690839918357809400,9.334809326171875,0.00011121248826384544,-0.00369435315951705,0.018381625413894653
1690839918367850200,9.344850341796874,0.0017339871264994144,0.0011106552556157112,0.016617529094219208
1690839918377890300,9.354890380859375,0.000256997998803854,-0.0004110748413950205,0.016003672033548355
1690839918387930000,9.36493017578125,-0.0004004710353910923,-0.00032543414272367954,0.013973327353596687
1690839918398001200,9.375001220703124,-0.00010752305388450623,0.0005704533541575074,0.010068334639072418
1690839918408041200,9.385041259765625,0.0002182386815547943,0.0016001443145796657,0.006961973384022713
1690839918418082300,9.395082275390624,0.0001356806606054306,0.0009593877475708723,0.0015403088182210922
1690839918428122400,9.405122314453125,0.0019398676231503487,-0.00007110228762030602,-0.001938261091709137
1690839918438162400,9.415162353515624,0.0014903261326253414,0.0012250582221895456,-0.006785213947296143
1690839918448202500,9.425202392578125,0.00006140395998954773,0.0008929620962589979,-0.010571962222456932
1690839918458243300,9.435243408203124,0.0003849780187010765,0.001690046163275838,-0.01441916637122631
1690839918468283100,9.445283203125,-0.0007231999188661575,0.0005219944287091494,-0.014862949028611183
1690839918478323200,9.4553232421875,-0.000017195940017700195,-0.00039413291960954666,-0.015048572793602943
1690839918488364300,9.4653642578125,-0.000858865212649107,-0.0016850437968969345,-0.012449614703655243
1690839918498404400,9.475404296875,0.0005848342552781105,-0.0009060692973434925,-0.010250376537442207
1690839918508444400,9.4854443359375,0.0020101680420339108,0.00029362307395786047,-0.0072765592485666275
1690839918518484500,9.495484375,-0.000005578622221946716,0.00002384488470852375,-0.005633920431137085
1690839918528525300,9.505525390625,-0.0010526659898459911,-0.00014004018157720566,-0.0010158196091651917
1690839918538596000,9.51559619140625,0.00020061759278178215,-0.000712087145075202,0.002427913248538971
1690839918548636200,9.52563623046875,-0.0010605668649077415,0.0003170884447172284,0.004935037344694138
1690839918558676200,9.53567626953125,0.0007360016461461782,-0.00025815446861088276,0.008226703852415085
1690839918568716300,9.54571630859375,0.0015701483935117722,0.0021375701762735844,0.009448566474020481
1690839918578757400,9.55575732421875,0.0017315361183136702,-0.0008957702666521072,0.009747639298439026
1690839918588797400,9.56579736328125,0.000153237022459507,0.000475836219266057,0.008651772513985634
1690839918598837200,9.575837158203125,0.0005503143183887005,0.00042523618321865797,0.010118908248841763
1690839918608878300,9.58587841796875,-0.0008593099191784859,0.0002370692091062665,0.007730442099273205
1690839918618918100,9.595918212890625,-0.0011605131439864635,-0.0008716047741472721,0.006148790940642357
1690839918628958200,9.605958251953124,0.00017562508583068848,-0.0021641128696501255,0.003704516217112541
1690839918638998300,9.615998291015625,0.0007223717402666807,0.00004577822983264923,0.001791568472981453
1690839918649039400,9.626039306640624,-0.0002750908024609089,0.0004726405022665858,-0.002340158447623253
1690839918659079400,9.636079345703125,-0.0007499326020479202,-0.001111940247938037,-0.0027199257165193558
1690839918669119200,9.646119140625,0.0019523273222148418,0.003185421694070101,-0.005798347294330597
1690839918679160300,9.656160400390625,-0.0009643668308854103,0.0024088439531624317,-0.00780370831489563
1690839918689230000,9.66622998046875,-0.0006181634962558746,0.00233031390234828,-0.007955310866236687
1690839918699271200,9.676271240234374,0.0002606799826025963,0.0016157877398654819,-0.008943876251578331
1690839918709311200,9.686311279296875,0.0002706320956349373,0.00007557193748652935,-0.007574964314699173
1690839918719351300,9.696351318359374,0.000026420224457979202,-0.0002658453304320574,-0.007749933749437332
1690839918729391400,9.706391357421875,-0.0007417635060846806,-0.001818548422306776,-0.00514591857790947
1690839918739432400,9.716432373046874,-0.00012657372280955315,-0.0021618297323584557,-0.001803118735551834
1690839918749472300,9.72647216796875,0.0016633677296340466,-0.001850205473601818,-0.002505466341972351
1690839918759512000,9.736511962890624,0.0008931816555559635,0.0007594259222969413,-0.0009275432676076889
1690839918769553200,9.74655322265625,-0.00053067272529006,0.0007115803891792893,0.0011781379580497742
1690839918779593200,9.75659326171875,0.0012821408454328775,0.0008474015630781651,0.003945428878068924
1690839918789633300,9.76663330078125,-0.000011279713362455368,-0.00006459048017859459,0.005187147296965122
1690839918799673300,9.77667333984375,0.0002419869415462017,0.0009551339317113161,0.003589250147342682
1690839918809714400,9.78671435546875,-0.0020362138748168945,-0.002612593350932002,0.0064234258607029915
1690839918819754200,9.796754150390624,-0.00014829915016889572,-0.00030363257974386215,0.006873234175145626
1690839918829794000,9.8067939453125,0.00043917493894696236,-0.0029669441282749176,0.00526721216738224
1690839918839865000,9.816864990234375,0.0005257274024188519,-0.0010622513946145773,0.003845084458589554
1690839918849905200,9.8269052734375,0.00032890262082219124,-0.000506408978253603,0.004043852910399437
1690839918859946200,9.8369462890625,0.0003049341030418873,-0.00039934972301125526,0.0011961348354816437
1690839918869986300,9.846986328125,-0.00015924638137221336,0.002151159569621086,-0.0010033715516328812
1690839918880026400,9.8570263671875,-0.00107297720387578,0.0019703309517353773,-0.0030649229884147644
1690839918890067500,9.8670673828125,0.0011837976053357124,0.001065156888216734,-0.003406679257750511
1690839918900107300,9.877107177734375,0.0015984517522156239,0.0006350562907755375,-0.006775578483939171
1690839918910147000,9.88714697265625,-0.0009664190001785755,-0.0013323028106242418,-0.005629062652587891
1690839918920187100,9.897187255859375,0.0016972748562693596,-0.00010644970461726189,-0.004658341407775879
1690839918930228200,9.907228271484374,0.0003097439184784889,-0.0011837407946586609,-0.0037030167877674103
1690839918940268300,9.917268310546875,-0.0008692373521625996,-0.0020743017084896564,-0.002529894933104515
1690839918950308400,9.927308349609374,0.0010015207808464766,0.0009320547105744481,0.00021655112504959106
1690839918960348400,9.937348388671875,0.00007553957402706146,-0.000853594858199358,-0.0019571203738451004
1690839918970389200,9.94738916015625,0.0017377897165715694,0.00304430047981441,-0.00012116134166717529
1690839918980460300,9.957460205078124,0.00008503207936882973,0.002453877590596676,-0.0004447363317012787
1690839918990490400,9.967490478515625,0.0004522223025560379,0.0012925764312967658,0.00018590129911899567
1690839919000530400,9.977530517578124,-0.0009853518567979336,0.003256923984736204,0.0015401169657707214
1690839919010570200,9.9875703125,0.0015482015442103148,0.0007074830355122685,0.00423930399119854
1690839919020611300,9.997611328125,-0.0003141472116112709,-0.001361793139949441,0.0030826926231384277
1690839919030651400,10.0076513671875,0.0008192602545022964,-0.0029535184148699045,0.0028402581810951233
1690839919040691500,10.01769140625,0.001605691621080041,-0.0035380821209400892,0.002691652625799179
1690839919050732300,10.027732177734375,-0.0010051317512989044,-0.00374660175293684,0.0027320701628923416
1690839919060772400,10.0377724609375,-0.0005968688055872917,-0.0001657154643908143,0.0015288535505533218
1690839919070812400,10.0478125,-0.0002836594358086586,0.0010885237716138363,0.0005123019218444824
1690839919080852500,10.0578525390625,0.0007267438340932131,0.002021429128944874,0.00044971704483032227
1690839919090893600,10.0678935546875,0.0012313274201005697,0.0010547225829213858,-0.0007001329213380814
1690839919100933400,10.077933349609374,0.0007554206531494856,0.0014906820142641664,-0.0030365251004695892
1690839919110973400,10.087973388671875,-0.0003634244203567505,0.0006636367179453373,-0.002101754769682884
1690839919121014300,10.09801416015625,-0.0010814126580953598,0.0006404672749340534,-0.003109227865934372
1690839919131084500,10.10808447265625,0.0001476719044148922,-0.0015974942361935973,-0.0008152835071086884
1690839919141125400,10.11812548828125,0.0004214448854327202,0.0002805669791996479,-0.0022954698652029037
1690839919151165400,10.12816552734375,0.00046755746006965637,-0.00026814162265509367,-0.002691619098186493
1690839919161205200,10.138205322265625,0.0017099222168326378,0.001033611362800002,-0.00183195061981678
1690839919171245300,10.148245361328126,0.000009011942893266678,0.00107876630499959,-0.0007371511310338974
1690839919181286400,10.158286376953125,-0.0004253499209880829,-0.0005156681872904301,0.0003371685743331909
1690839919191326500,10.168326416015624,-0.0005739727057516575,-0.00041875126771628857,0.0005665849894285202
1690839919201366500,10.178366455078125,0.000401543453335762,0.0001330558443441987,-0.00141933374106884
1690839919211407400,10.188407470703124,0.0004209643229842186,-0.0011222460307180882,0.0013462640345096588
1690839919221447400,10.198447509765625,0.000570367556065321,-0.00012063118629157543,0.0000754036009311676
1690839919231487200,10.2084873046875,0.00016928790137171745,-0.0003324210410937667,0.0022363699972629547
1690839919241527300,10.21852734375,0.0010297554545104504,-0.0002698368625715375,0.0036475788801908493
1690839919251568400,10.228568359375,0.00014511821791529655,0.0002822240348905325,0.0015080291777849197
1690839919261608400,10.2386083984375,-0.00046900659799575806,-0.002281334949657321,0.0036872942000627518
1690839919271648500,10.2486484375,0.00003561703488230705,-0.0005566717591136694,0.0033125877380371094
1690839919281719600,10.258719482421874,-0.0009604054503142834,-0.0015188716351985931,0.0007935035973787308
1690839919291759600,10.268759521484375,-0.00002945074811577797,0.0004827972734346986,0.0001249704509973526
1690839919301800400,10.278800537109374,0.0005535148084163666,-0.00011721299961209297,-0.0007727816700935364
1690839919311840300,10.28884033203125,0.00022143777459859848,0.00017059920355677605,-0.0005961507558822632
1690839919321880300,10.29888037109375,-0.000012653879821300507,0.0014212196692824364,-0.003745339810848236
1690839919331921400,10.30892138671875,0.000497997272759676,0.0005460592219606042,-0.0018516592681407928
1690839919341961500,10.31896142578125,-0.0010655447840690613,-0.000546369468793273,-0.0018937382847070694
1690839919352001500,10.32900146484375,-0.0003562704659998417,-0.0012413389049470425,0.00022550299763679504
1690839919362041600,10.33904150390625,-0.0003626621328294277,-0.00038886116817593575,-0.0015308521687984467
1690839919372082400,10.34908251953125,0.00038790469989180565,-0.001628644298762083,0.00008116289973258972
1690839919382122200,10.359122314453124,-0.00027096131816506386,-0.00024193618446588516,0.00022524036467075348
1690839919392162300,10.369162353515625,0.0008027595467865467,-0.0012268507853150368,-0.00021807663142681122
1690839919402203400,10.379203369140624,0.00017318828031420708,-0.00021538231521844864,-0.001348854973912239
1690839919412243500,10.389243408203125,0.0005183257162570953,0.0009116559522226453,0.0001851748675107956
1690839919422314500,10.399314453125,-0.001773590687662363,0.0011159204877912998,-0.00011549703776836395
1690839919432354600,10.4093544921875,-0.0007730615325272083,-0.000992905581369996,0.0006729364395141602
1690839919442394400,10.419394287109375,0.0008908817544579506,0.0004068518755957484,0.0005901120603084564
1690839919452434200,10.42943408203125,0.00001559033989906311,-0.0010218174429610372,0.0006601344794034958
1690839919462475300,10.439475341796875,-0.0003532571718096733,-0.0011315398151054978,-0.00004480406641960144
1690839919472515300,10.449515380859374,0.0007647296879440546,-0.00002013507764786482,0.0008624531328678131
1690839919482555400,10.459555419921875,-0.00006351340562105179,-0.00020309421233832836,0.0008043963462114334
1690839919492596500,10.469596435546874,0.000796126201748848,-0.000620152335613966,0.0006064139306545258
1690839919502636500,10.479636474609375,-0.00005342205986380577,-0.0013930017594248056,0.0001100003719329834
1690839919512676400,10.48967626953125,0.0003407648764550686,0.001414323109202087,-0.000692807137966156
1690839919522716200,10.499716064453125,0.001577270682901144,0.0005922053242102265,0.0011943094432353973
1690839919532757200,10.50975732421875,-0.00009902659803628922,0.000733699300326407,-0.0015268530696630478
1690839919542797300,10.51979736328125,-0.00038345204666256905,0.00027297239284962416,-0.0006517376750707626
1690839919552837400,10.52983740234375,-0.0010906234383583069,0.0015948007348924875,-0.0006744693964719772
1690839919562878500,10.53987841796875,0.0003927573561668396,0.00038998667150735855,-0.0007226727902889252
1690839919572948500,10.549948486328125,-0.0016347062774002552,-0.0004899401683360338,-0.0008237287402153015
1690839919582989600,10.559989501953124,0.0006284480914473534,0.000244826078414917,0.0002596452832221985
1690839919593029400,10.570029296875,-0.0004898589104413986,0.0018706870032474399,-0.0005563721060752869
1690839919603069200,10.580069091796876,0.0002963063307106495,0.001106626121327281,0.0011075697839260101
1690839919613109200,10.590109130859375,-0.00043681031093001366,0.0007581987883895636,0.00007133372128009796
1690839919623150300,10.600150390625,0.00002817763015627861,0.0008665894856676459,-0.0004378613084554672
1690839919633190400,10.6101904296875,0.0003463556058704853,0.0005628739017993212,-0.0012551750987768173
1690839919643230500,10.62023046875,0.0005141347646713257,0.0008827195269986987,0.0011904053390026093
1690839919653271600,10.630271484375,0.0007140273228287697,-0.00019283988513052464,0.0012743212282657623
1690839919663311400,10.640311279296874,0.0007923243101686239,0.00015789829194545746,0.002270342782139778
1690839919673351200,10.65035107421875,0.00017126277089118958,0.0009306296706199646,0.002080213278532028
1690839919683391200,10.66039111328125,0.0012844640295952559,0.001157797290943563,0.002818707376718521
1690839919693432300,10.670432373046875,-0.00038267672061920166,0.00031512032728642225,0.0006690192967653275
1690839919703472400,10.680472412109374,-0.001076962798833847,-0.0008588011842221022,0.0002144165337085724
1690839919713512400,10.690512451171875,0.00043020909652113914,0.0003022107994183898,0.0014491826295852661
1690839919723583500,10.70058349609375,0.0005569756031036377,0.000916069489903748,-0.0005937293171882629
1690839919733623600,10.71062353515625,0.0004391339607536793,-0.00035045924596488476,0.00029405951499938965
1690839919743664400,10.720664306640625,-0.0005904440768063068,0.00006845593452453613,-0.001882275566458702
1690839919753704200,10.7307041015625,-0.0009902962483465672,-0.0005258286837488413,-0.0009558983147144318
1690839919763744300,10.740744140625,-0.0008688564412295818,-0.00038574659265577793,-0.0008911844342947006
1690839919773785300,10.750785400390624,0.0008831440936774015,0.003166133537888527,-0.0007645338773727417
1690839919783825400,10.760825439453125,0.0018208432011306286,0.001458514598198235,-0.00034481845796108246
1690839919793865500,10.770865478515624,0.000760404858738184,0.00333423656411469,0.0013086982071399689
1690839919803905500,10.780905517578125,0.0007689269259572029,0.0011648256331682205,-0.00023407116532325745
1690839919813946400,10.7909462890625,0.0005207601934671402,0.0010490680579096079,-0.001109464094042778
1690839919823986200,10.800986083984375,0.0007617762312293053,-0.0001786493230611086,0.0011973660439252853
1690839919834026200,10.811026123046876,-0.0008447482250630856,-0.0010617945808917284,0.00021502375602722168
1690839919844067300,10.8210673828125,-0.0008727116510272026,-0.0026136182714253664,0.0011039860546588898
1690839919854107400,10.831107421875,-0.0000707767903804779,-0.00033101101871579885,0.0008744131773710251
1690839919864147500,10.8411474609375,-0.000591691117733717,-0.00026203517336398363,0.0012214239686727524
1690839919874218500,10.851218505859375,0.00021569570526480675,0.0012346921721473336,-0.0013812314718961716
1690839919884258600,10.861258544921874,0.0005331444554030895,0.0010884846560657024,0.0011290647089481354
1690839919894298400,10.87129833984375,-0.00005443207919597626,0.002048748079687357,-0.0011787395924329758
1690839919904339200,10.881339111328124,-0.001174024771898985,0.0022223861888051033,-0.00003650970757007599
1690839919914379300,10.891379150390625,0.0024022432044148445,0.00015653343871235847,-0.0017432961612939835
1690839919924419300,10.90141943359375,0.000811803387477994,0.0002441514516249299,0.0003406275063753128
1690839919934460400,10.91146044921875,0.0006379559636116028,-0.0007597100920975208,0.00008976645767688751
1690839919944500500,10.92150048828125,0.0008691186085343361,-0.0007791509851813316,0.000022122636437416077
1690839919954540500,10.93154052734375,-0.0009984727948904037,-0.00031866971403360367,-0.0004112757742404938
1690839919964580400,10.941580322265626,-0.0002722288481891155,-0.00027526007033884525,-0.0019130315631628036
1690839919974621200,10.95162109375,-0.0000643865205347538,-0.0013279179111123085,0.0003894437104463577
1690839919984649700,10.961649658203125,0.001735377823933959,0.0005072663770988584,-0.0010265596210956573
1690839919994689800,10.971689697265624,-0.0021087084896862507,0.0030487789772450924,-0.001000240445137024
1690839920004730600,10.981730712890625,0.00000956980511546135,-0.0003922914620488882,-0.0008689463138580322
1690839920014801000,10.99180078125,0.00048758741468191147,-0.00009855581447482109,0.0008149314671754837
1690839920024841700,11.001841796875,-0.0004490460269153118,0.0012015993706882,0.00041838735342025757
1690839920034881800,11.0118818359375,-0.0009016008116304874,0.0019539217464625835,-0.001140981912612915
1690839920044921900,11.021921875,-0.0005737659521400928,-0.0007401320617645979,0.0007179044187068939
1690839920054961700,11.031961669921875,-0.0004233666695654392,-0.0007211589254438877,0.00025297142565250397
1690839920065002800,11.042002685546874,-0.0006870194338262081,-0.0003363322466611862,-0.0005046967417001724
1690839920075042800,11.052042724609375,-0.001131138764321804,-0.0012822928838431835,-0.000878484919667244
1690839920085083000,11.062082763671874,-0.0005276664160192013,-0.0013217076193541288,0.0018278192728757858
1690839920095123700,11.072123779296875,0.0007744859904050827,0.0009921679738909006,0.0002762172371149063
1690839920105163800,11.082163818359374,-0.001215161755681038,0.00013702688738703728,-0.00054163858294487
1690839920115203800,11.092203857421875,-0.0003709769807755947,0.00035272096283733845,0.0007743574678897858
1690839920125243600,11.10224365234375,-0.00036431942135095596,-0.000663275015540421,-0.0010488424450159073
1690839920135284700,11.11228466796875,-0.0003488399088382721,0.0016967185074463487,0.0022613219916820526
1690839920145324800,11.12232470703125,-0.00012220488861203194,-0.00004658673424273729,-0.0009999852627515793
1690839920155364900,11.13236474609375,0.00021566031500697136,0.00011781742796301842,-0.0013970062136650085
1690839920165436000,11.142435791015625,-0.0004653101786971092,-0.00010242592543363571,0.0010837279260158539
1690839920175475700,11.152475830078124,0.0018903349991887808,-0.0006889115320518613,-0.000463876873254776
1690839920185516800,11.162516845703125,0.00010921293869614601,-0.0009152801940217614,-0.0016037095338106155
1690839920195556900,11.172556884765624,-0.0007022717036306858,0.0008886005962267518,-0.00013889558613300323
1690839920205596700,11.1825966796875,0.0005560717545449734,0.0007868678076192737,0.0003351457417011261
1690839920215637800,11.1926376953125,-0.00009908294305205345,0.0008491486078128219,0.00029887817800045013
1690839920225677800,11.202677734375,-0.0010365154594182968,0.0001005340600386262,-0.0012263134121894836
1690839920235718000,11.2127177734375,0.0007737474516034126,-0.001384475501254201,0.00006041489541530609
1690839920245757700,11.2227578125,-0.00029018567875027657,-0.0016896736342459917,-0.0014525260776281357
1690839920255798800,11.232798828125,-0.0005888491868972778,-0.0007392059778794646,-0.0024843458086252213
1690839920265838800,11.2428388671875,-0.00024050753563642502,0.000357483746483922,0.0001809448003768921
1690839920275878700,11.252878662109374,0.00023314589634537697,0.0005119252018630505,-0.0008172523230314255
1690839920285919700,11.262919677734375,-0.00004408927634358406,0.000510593643411994,-0.000023365020751953125
1690839920295959800,11.272959716796874,0.0006765590514987707,0.00025877426378428936,-0.0009758118540048599
1690839920306000000,11.282999755859375,0.0014667189680039883,-0.000494367559440434,-0.00006660819053649902
1690839920316071000,11.29307080078125,-0.0010431371629238129,0.000353162526153028,0.0007276702672243118
1690839920326110700,11.30311083984375,-0.0005049123428761959,0.0011867319699376822,0.001591067761182785
1690839920336150800,11.31315087890625,0.0009439741261303425,0.0007001000922173262,-0.0008311085402965546
1690839920346192000,11.32319189453125,0.00133572518825531,0.002247130498290062,0.00006664358079433441
1690839920356231700,11.333231689453125,0.0007406063377857208,-0.0008160872384905815,0.00010361522436141968
1690839920366271700,11.343271728515624,-0.0010679461993277073,-0.00027732993476092815,-0.0005653705447912216
1690839920376312800,11.353312744140625,0.00037864968180656433,-0.002993024652823806,-0.000626320019364357
1690839920386353000,11.363352783203124,-0.00009752344340085983,0.0007918598130345345,0.00021630339324474335
1690839920396392700,11.373392822265625,-0.0005151643417775631,-0.000441809999756515,0.001528717577457428
1690839920406432800,11.383432861328124,-0.0002760123461484909,-0.003788338042795658,-0.00140395388007164
1690839920416473900,11.393473876953125,-0.002220560796558857,-0.0007228130707517266,-0.0006019528955221176
1690839920426513700,11.403513671875,0.00004099542275071144,0.002054597483947873,-0.0008062161505222321
1690839920436553700,11.4135537109375,-0.0012307283468544483,-0.0015655041206628084,0.00005326420068740845
1690839920446594800,11.4235947265625,-0.0009883805178105831,0.0022153856698423624,-0.00029614195227622986
1690839920456664800,11.433664794921874,-0.0010489909909665585,-0.0010918199550360441,0.0009611286222934723
1690839920466706000,11.443705810546875,-0.0008617709390819073,0.0008853108156472445,-0.001259947195649147
1690839920476745700,11.453745849609374,-0.0001995493657886982,0.0005267634987831116,0.0010869987308979034
1690839920486785500,11.46378564453125,0.0007008654065430164,0.0004199707182124257,-0.00043206848204135895
1690839920496826600,11.47382666015625,0.001836925046518445,0.0009557300363667309,-0.0012304652482271194
1690839920506866700,11.48386669921875,-0.0006051938980817795,-0.002568164374679327,-0.00017026066780090332
1690839920516906800,11.49390673828125,-0.0007089916616678238,0.000002566375769674778,0.0025464948266744614
1690839920526946800,11.50394677734375,0.001893715700134635,0.0005676891887560487,0.0006947983056306839
1690839920536988000,11.51398779296875,-0.0007192641496658325,-0.000858579995110631,0.00023809820413589478
1690839920547027700,11.52402783203125,-0.0005823778919875622,-0.0019065339583903551,-0.00021570362150669098
1690839920557067800,11.53406787109375,-0.0011175484396517277,-0.002484458964318037,0.0008368827402591705
1690839920567107600,11.544107666015625,-0.00041447393596172333,0.00002290715929120779,0.0013087950646877289
1690839920577148700,11.554148681640624,0.0006936525460332632,-0.0010737606789916754,-0.00047163479030132294
1690839920587188700,11.564188720703125,-0.0009125000797212124,-0.0008841436356306076,-0.0007227696478366852
1690839920597228800,11.574228759765624,0.0008084750734269619,-0.000016096048057079315,0.0006354469805955887
1690839920607299800,11.5842998046875,-0.0003531957045197487,0.0005487604066729546,-0.0006718989461660385
1690839920617340000,11.59433984375,-0.001023405697196722,-0.0010220662225037813,0.0012427549809217453
1690839920627380700,11.604380615234374,0.0007507922127842903,0.0008890180615708232,0.001596689224243164
1690839920637420500,11.614420654296875,0.0000989297404885292,-0.0015343520790338516,0.00024336203932762146
1690839920647460600,11.624460693359374,-0.00027204863727092743,-0.00032181479036808014,-0.000044260174036026
1690839920657501700,11.634501708984375,0.0006564664654433727,-0.0010040774941444397,0.0005416162312030792
1690839920667541800,11.644541748046874,-0.00020666373893618584,0.00042257795576006174,-0.0011020880192518234
1690839920677581800,11.654581787109375,0.0004077623598277569,-0.0003465128829702735,-0.00039900094270706177
1690839920687622000,11.664621826171874,-0.0010777488350868225,0.0008796064648777246,-0.00147198885679245
1690839920697662700,11.674662841796875,-0.0015663690865039825,-0.0013686446473002434,-0.0010638125240802765
1690839920707702800,11.684702880859374,0.0007274113595485687,-0.0016243080608546734,-0.00042784959077835083
1690839920717742600,11.69474267578125,0.0015263431705534458,0.0011006597196683288,-0.0011665541678667068
1690839920727783700,11.70478369140625,0.0002882396802306175,-0.0012157578021287918,-0.000772673636674881
1690839920737823700,11.71482373046875,0.0017023158725351095,-0.0018635953310877085,-0.0018348582088947296
1690839920747863800,11.72486376953125,0.0014048407319933176,-0.0012816947419196367,-0.0016870535910129547
1690839920757934800,11.734934814453124,0.0004214518703520298,0.0020918739028275013,-0.0009818971157073975
1690839920767975000,11.744974853515625,-0.0007817642763257027,-0.00007061311043798923,0.00047325529158115387
1690839920778014700,11.7550146484375,-0.0011375541798770428,-0.00019048911053687334,-0.00001790560781955719
1690839920788055600,11.7650556640625,-0.00014472799375653267,-0.000820593093521893,0.0002428162842988968
1690839920798095600,11.775095703125,-7.60890543460846e-7,-0.0008528596954420209,-0.00026922859251499176
