time,seconds_elapsed,z,y,x
1690840650167645000,0.18864501953125,0.2221007824242115,0.12543532878682018,-0.009025935858790763
1690840650177685000,0.19868505859375,0.2279687976747751,0.12466728529008105,-0.016123728083039166
1690840650187725000,0.20872509765625,0.22608079197108744,0.11607516057156025,-0.026523767589917403
1690840650197766100,0.21876611328125,0.20969722792506218,0.11139253744697197,-0.02665261356739793
1690840650207806200,0.22880615234375,0.20140344683229922,0.10684446395486592,-0.020595777196867854
1690840650217846000,0.238845947265625,0.18892331996560097,0.08340623215697705,-0.00918611540616257
1690840650227886000,0.248885986328125,0.1804775631815195,0.06063963427664712,-0.0012724516382091678
1690840650237927000,0.258927001953125,0.18174305307269095,0.04385874147610739,0.0012280256913043558
1690840650247967000,0.268967041015625,0.17221943792402744,0.02306751705566421,0.003587153754790779
1690840650258007000,0.279007080078125,0.155703771930933,-0.1351460274728015,0.017347695228800874
1690840650268048100,0.289048095703125,0.1526572438418865,-0.1585796561608091,0.019160938071180134
1690840650278118100,0.2991181640625,0.1592851375490427,-0.1582874317485839,0.006544489740021526
1690840650288159200,0.3091591796875,0.16173662235438824,-0.15063954734392462,0.01580359960044734
1690840650298199000,0.319198974609375,0.16610300087034702,-0.13299657608764245,0.006849190041329711
1690840650308239000,0.329239013671875,0.1826391251295805,-0.11957942409915849,0.003190731465863064
1690840650318280000,0.339280029296875,0.1809258914709091,-0.08751052567064761,0.0022662689981283617
1690840650328320000,0.349320068359375,0.1774357112675905,-0.0551868122308515,0.0010674591265094932
1690840650338360000,0.359360107421875,0.19354221193790436,-0.024460213523078707,0.0011592758706072345
1690840650348400000,0.369400146484375,0.19350597158074379,0.002514631435740739,-0.0024197665013198275
1690840650358441200,0.379441162109375,0.1929816554456949,0.023632676657754925,-0.003766805187612772
1690840650368481000,0.38948095703125,0.20842998446822164,0.041050789649598296,-0.0047706621676450595
1690840650378521000,0.39952099609375,0.211873987442255,0.049663482232112435,-0.010814760070899501
1690840650388562000,0.40956201171875,0.19659283168017863,0.04607570513952523,-0.005369591608596965
1690840650398602000,0.41960205078125,0.20671032106876372,0.046015645515359936,-0.007517427567049162
1690840650408642000,0.42964208984375,0.20512334413826463,0.04526261692466214,-0.00390928696480114
1690840650418682000,0.43968212890625,0.20096213280558584,0.026439569038338957,-0.0020193279076891483
1690840650428753000,0.4497529296875,0.18645429950356482,0.008490162181388585,0.008505318651325068
1690840650438793000,0.45979296875,0.17776596613526344,0.0017981719957664607,0.011257074178033507
1690840650448834000,0.469833984375,0.18985855498909948,-0.01095236931014806,0.0057933151796925805
1690840650458874000,0.4798740234375,0.185627785551548,-0.028586335276067257,0.002556516082398593
1690840650468914000,0.489913818359375,0.17211714659333227,-0.039555272128526116,0.00028751969599979927
1690840650478955000,0.499955078125,0.1678723486304283,-0.05157855860581621,-0.0029917748276609927
1690840650488995000,0.5099951171875,0.1743950283974409,-0.0543952782606706,-0.002646495920792222
1690840650499035100,0.52003515625,0.17000117735266684,-0.04553051061322912,-0.005473709570197388
1690840650509075000,0.530074951171875,0.1847732145488262,-0.04511396570159122,0.004611854876740836
1690840650519116000,0.540115966796875,0.1796452040106058,-0.03087329543577507,-0.003918570816377177
1690840650529156000,0.550156005859375,0.17707155413031578,-0.02023092365656048,-0.0045462514277780424
1690840650539196000,0.56019580078125,0.18873042774200438,-0.005166241923067719,0.00818995995868463
1690840650549237000,0.570237060546875,0.18439619792997836,0.0023498510617762803,0.009837886995915323
1690840650559277000,0.580277099609375,0.19833353786766528,0.01813546748096123,0.002548614762088982
1690840650569317000,0.590317138671875,0.19387480489313602,0.023401534783001988,-0.0013612007840303703
1690840650579388000,0.600387939453125,0.2001923174768686,0.025747568186186252,0.00511923357672058
1690840650589428000,0.610427978515625,0.18916238941848276,0.02962335017360747,0.005980869074468501
1690840650599469000,0.620468994140625,0.1886035864919424,0.02316020030779764,-0.0005313943298067898
1690840650609508900,0.6305087890625,0.19642273581027983,0.019317224611435084,-0.0013100653934816364
1690840650619549000,0.640548828125,0.1885205843836069,0.014111801455449312,-0.0025879934994736684
1690840650629589000,0.650589111328125,0.1909387514412403,0.0024236104177311063,0.000397360720555298
1690840650639630000,0.660630126953125,0.1863116761624813,0.005329834986943751,-0.0020186235131463034
1690840650649670100,0.670670166015625,0.18137714236974714,-0.005297412288375198,0.00755446593358647
1690840650659710000,0.6807099609375,0.1699988392651081,-0.021831234992668033,0.011746684325882233
1690840650669759700,0.690759765625,0.17866262271404265,-0.023660843306314197,0.007530795080342796
1690840650679800800,0.70080078125,0.18567337825894353,-0.02231520085101947,0.006371795487659983
1690840650689841000,0.7108408203125,0.1790659428179264,-0.02778247154727578,0.007390094268287066
1690840650699881000,0.720880859375,0.1821808599680662,-0.032376064681541174,-0.0008195978707517497
1690840650709921800,0.730921875,0.17691724035143852,-0.0331424824767746,0.0009800240132957696
1690840650719991800,0.74099169921875,0.18706746296584606,-0.01800420578410849,0.0015786794596118852
1690840650730032600,0.75103271484375,0.18824352100789546,-0.017041406900249422,-0.0059125941778067495
1690840650740072700,0.76107275390625,0.18344167368412018,-0.007401088303048163,-0.00336082733576186
1690840650750112800,0.77111279296875,0.18986966090500354,-0.008090166545752436,-0.00494296369436197
1690840650760153900,0.78115380859375,0.18373101201951503,-0.0015010522127151488,-0.0034725029827328397
1690840650770194000,0.79119384765625,0.18807751679122447,0.01015941056786105,-0.0054364919655025
1690840650780234000,0.80123388671875,0.18629647859334944,0.006283409384731203,-0.0033306650929385796
1690840650790273800,0.811273681640625,0.19185586628615856,0.009460486784577369,0.0019086329331854358
1690840650800314600,0.821314697265625,0.19935995830595493,0.009178345374949276,0.004491059774975292
1690840650810354700,0.831354736328125,0.19923311705589294,0.0064923394276760514,-0.006271305671695154
1690840650820394800,0.841394775390625,0.18743162010312078,0.009257822085637598,-0.001873194010334555
1690840650830435800,0.851435791015625,0.187750184533,-0.005211469304282218,-0.0029178487916360608
1690840650840476000,0.861475830078125,0.1876145754545927,-0.0067232073077932,-0.004031965779687743
1690840650850516000,0.871515869140625,0.18402970270514488,-0.01167836376344785,-0.0019015113559435121
1690840650860555800,0.8815556640625,0.1802899316549301,-0.02329142547203228,0.0019955120656173675
1690840650870626800,0.891626708984375,0.18118308110237122,-0.017956822978425768,-0.004985252483107615
1690840650880666600,0.90166650390625,0.18027473408579825,-0.013135631633363664,-0.001652826974634081
1690840650890707700,0.911707763671875,0.17906185116469858,-0.018736629978194832,0.007774542991630732
1690840650900747800,0.921747802734375,0.18592530719339848,-0.016284396254178136,0.004417412300163414
1690840650910787800,0.931787841796875,0.17798107019066808,-0.013239402535092084,-0.00177646248745732
1690840650920829000,0.941828857421875,0.1743774927407503,-0.010302344436198473,-0.0007447722190059721
1690840650930869000,0.951868896484375,0.18693769910633562,-0.005150204103719443,-0.0014462806850206106
1690840650940908500,0.961908447265625,0.18109890995025635,0.006085037268418818,0.003520726038631983
1690840650950948600,0.971948486328125,0.17929741348624229,0.0036093130709603425,-0.0073035553458612405
1690840650960989700,0.98198974609375,0.1988946788817644,0.004140095479413867,-0.012414633015589788
1690840650971029800,0.99202978515625,0.17719781085848807,0.004475793707184493,-0.00045351135458331554
1690840650981069800,1.00206982421875,0.20308803891837596,0.005810385045502335,-0.011691926497919483
1690840650991111000,1.01211083984375,0.19471768545806406,-0.0009814122527837753,-0.006382252949592657
1690840651001150700,1.022150634765625,0.17617489755153656,-0.00016465250980108977,0.00693655323095154
1690840651011190500,1.0321904296875,0.19294833769798278,-0.008118406259547918,0.007101251406525262
1690840651021261600,1.042261474609375,0.1733575020432472,-0.007796170301549136,0.006740010028833058
1690840651031301600,1.052301513671875,0.18997838197648523,-0.007794435002189129,0.0014814570296788588
1690840651041342700,1.0623427734375,0.17711656231582162,-0.0135139268938452,0.003237139307300094
1690840651051382800,1.0723828125,0.17726853800714015,-0.004883899584040045,0.002938135811127722
1690840651061422800,1.0824228515625,0.17292437132298946,-0.004638674385007471,-0.0013252138719079083
1690840651071463000,1.092462890625,0.18848317498266695,-0.014977734102401882,-0.004317098297423217
1690840651081503700,1.102503662109375,0.17156418888568878,-0.023757545146439223,-0.0024379471870488484
1690840651091543600,1.11254345703125,0.1869651716351509,-0.01105248695006594,-0.011808602546993643
1690840651101583600,1.12258349609375,0.17767887237370014,-0.012899046398513019,-0.009586003727233037
1690840651111623700,1.132623779296875,0.1796142243504524,-0.016447824921272693,-0.007190838519274257
1690840651121664800,1.142664794921875,0.20025895297229288,-0.013503843891248106,-0.008850140900467521
1690840651131704800,1.152704833984375,0.17825813356637954,-0.011876936809159815,-0.002600277592311613
1690840651141745000,1.162744873046875,0.18543723141551016,0.004156918750051409,0.005666907754470594
1690840651151785700,1.17278564453125,0.1843903527110815,-0.004053403576649725,0.0038277575776330193
1690840651161825500,1.182825439453125,0.18230068695545196,0.0005032368144020437,0.009192711827019228
1690840651171896600,1.192896484375,0.18410159889757632,0.00011526041012257337,0.0040539606990758325
1690840651181936600,1.2029365234375,0.18395663746893404,0.0016154358400031924,0.0011305429664673283
1690840651191976700,1.212976806640625,0.1808218465745449,-0.002286978426016867,-0.0028324789129896086
1690840651202017800,1.223017822265625,0.18322247797548769,0.0051362669099122285,-0.008350924957345705
1690840651212057900,1.233057861328125,0.18996610701680183,-0.0004180975479073822,-0.009643770929612218
1690840651222098000,1.243097900390625,0.18862462927997112,-0.009465327356476335,-0.008945580081979277
1690840651232137700,1.2531376953125,0.18204700445532798,-0.006165573425032198,-0.014121793126501142
1690840651242178600,1.263178466796875,0.17486966017186642,-0.004442713421490043,-0.00044476407583570105
1690840651252218600,1.273218505859375,0.18474866462945938,-0.010452493496611714,0.0026812635567854157
1690840651262258700,1.2832587890625,0.17397125002741812,-0.01028747566062957,0.0038984641766874116
1690840651272299800,1.2932998046875,0.17725977017879485,-0.008511040572635829,0.013861984562978612
1690840651282339800,1.30333984375,0.192660752928257,-0.012743527043238282,0.01274285118980333
1690840651292380000,1.3133798828125,0.18681494950950145,-0.0073271280176937575,0.005940578163275495
1690840651302419700,1.323419677734375,0.19084815054833887,-0.0031360330034047364,-0.0013847323566675185
1690840651312460500,1.33346044921875,0.18396014460027216,-0.0076856408654712135,-0.003383500391873531
1690840651322530800,1.34353076171875,0.18365560869574546,-0.0051852754171006375,-0.0012649693013634532
1690840651332571600,1.353571533203125,0.19113690436184405,-0.008319079930800943,-0.008166168091143481
1690840651342611700,1.36361181640625,0.18290742067694662,-0.007384484228119254,-0.005897926331637427
1690840651352651800,1.37365185546875,0.1823071166962385,-0.00774016579799354,-0.0035595693448325617
1690840651362692900,1.38369287109375,0.18350655561387538,0.0034330614549107847,0.0035219772808020933
1690840651372733000,1.39373291015625,0.17438333795964717,-0.0017379114422015846,0.010347850378626025
1690840651382772700,1.403772705078125,0.18740356305241584,0.0029476890907622873,-0.0016376933375839143
1690840651392812800,1.413812744140625,0.18725567901432513,-0.0007300313076004385,0.0043536788645898924
1690840651402853600,1.423853515625,0.18531506634056566,-0.012246738235931844,-0.008650095133588184
1690840651412893700,1.433893798828125,0.18397358860373497,-0.004690934295207262,-0.016259225280303508
1690840651422933800,1.443933837890625,0.18173370072245595,-0.005996719664148986,-0.011925993265409487
1690840651432974800,1.453974853515625,0.18966800085306165,-0.00644028044687584,-0.00889100948368432
1690840651443015000,1.464014892578125,0.18323767554461956,-0.005211524103209376,-0.009488422820984851
1690840651453054700,1.4740546875,0.17500702281594274,-0.012695541449356824,-0.005553085816185921
1690840651463094800,1.4840947265625,0.18398060286641119,-0.006157791977375746,0.003496582544641569
1690840651473135600,1.494135498046875,0.17155249844789505,-0.00364345280257985,0.004423339717451017
1690840651483206700,1.50420654296875,0.17723405121564864,-0.008471073888428509,0.009599735425063408
1690840651493246700,1.514246826171875,0.18620821578800678,-0.010919672616943717,0.007529856648715212
1690840651503286800,1.524286865234375,0.18545710515975952,-0.012095840256847441,-0.002784059494268149
1690840651513326800,1.534326904296875,0.17991817573308944,-0.0026317367430776354,-0.003865986679191701
1690840651523368000,1.544367919921875,0.19128829553127288,-0.008716299087461084,-0.004720982373598963
1690840651533407700,1.55440771484375,0.18724749570786953,-0.008112561040651053,0.004543442982761189
1690840651543447800,1.56444775390625,0.18500351617336272,-0.002088880304340273,-0.005608647361746989
1690840651553488600,1.574488525390625,0.18336100966334343,-0.00045583574241027234,-0.007690912978921551
1690840651563528700,1.58452880859375,0.1812666677325964,-0.0041461233614012594,-0.009094945974391885
1690840651573568800,1.59456884765625,0.18320844945013523,0.0015481427574530243,-0.0054171388110611585
1690840651583608800,1.60460888671875,0.1932394295990467,-0.009908394948858767,-0.0012474747438682243
1690840651593650000,1.61464990234375,0.1782762537449598,-0.011215952149778604,-0.011393098814971744
1690840651603689700,1.624689697265625,0.1763333029836416,0.0005377966711297631,0.004314141438645311
1690840651613729800,1.634729736328125,0.18037585637271403,-0.01315592550272122,-0.0014353779818047769
1690840651623769900,1.644769775390625,0.19294424604475496,-0.018709924634359776,0.0023205656017875297
1690840651633841000,1.6548408203125,0.19085107315778732,-0.017440142160560935,0.0015539582935976794
1690840651643881700,1.6648818359375,0.1769347760081291,-0.016695516072027385,-0.0033521028899005613
1690840651653921800,1.674921875,0.18755612326562404,-0.011404186464566736,-0.006305301556130871
1690840651663955500,1.68495556640625,0.1874053166180849,-0.009813812000583857,-0.007913814465003088
1690840651673995500,1.69499560546875,0.18605624009668825,-0.003940864846576005,-0.0063044613059144465
1690840651684036600,1.70503662109375,0.18500410069525242,0.00200582339707762,0.0002807257706765085
1690840651694076400,1.715076416015625,0.17572364665269852,-0.0024597777096554635,-0.0019732682677684353
1690840651704116500,1.725116455078125,0.1764689120620489,-0.004664101087208837,-0.0007565083225723355
1690840651714157600,1.735157470703125,0.1743739856094122,-0.005114164675958454,0.0004482049918035045
1690840651724197600,1.74519775390625,0.17632161254584788,-0.009525551377423107,-0.00023208258966915307
1690840651734237400,1.755237548828125,0.1788648672878742,-0.0035518472626805304,-0.005344100974313914
1690840651744277500,1.765277587890625,0.18365560869574546,-0.006613810382876545,0.0007157470539212226
1690840651754318600,1.775318603515625,0.179318456274271,-0.010117909513693303,0.00748570241315756
1690840651764358400,1.7853583984375,0.18425591267645358,-0.01343136317692697,0.0014715932227903977
1690840651774398500,1.7953984375,0.1808171703994274,-0.009842800633050501,0.000010256532533094287
1690840651784469500,1.805469482421875,0.18186580266952512,0.0018592180006206036,-0.007124454185599461
1690840651794509300,1.81550927734375,0.1866512833803892,0.005195577615406364,-0.002984071011818014
1690840651804550400,1.82555029296875,0.1839595600783825,-0.005964863221161067,0.0006914300299948081
1690840651814590500,1.835590576171875,0.1815659429401159,-0.011928940991032868,-0.004663754027336836
1690840651824630500,1.845630615234375,0.19099603458642958,-0.005086783478688448,-0.006593895539431832
1690840651834670600,1.855670654296875,0.18456278666853904,-0.009520692539215087,-0.00426010056331288
1690840651844711400,1.86571142578125,0.18366729913353919,-0.0029815000288188455,-0.005953814387472812
1690840651854751500,1.87575146484375,0.17409107701480386,-0.002214260249678045,0.001133677921758499
1690840651864791600,1.88579150390625,0.1794791997939348,-0.0076864445830695325,0.0039425590467406435
1690840651874832600,1.89583251953125,0.18172317932844162,-0.013412822873238474,0.001969964349118527
1690840651884872400,1.90587255859375,0.18740590113997457,-0.0066415203737095,-0.000686767554609105
1690840651894912500,1.91591259765625,0.1799205138206482,-0.007845361471828073,0.006488503502774984
1690840651904952600,1.92595263671875,0.17079028190374373,-0.002404065467044711,-0.0043485642980551345
1690840651914993400,1.935993408203125,0.18126374512314794,-0.007083839047420769,0.0015247801481746135
1690840651925033500,1.946033447265625,0.185901926317811,-0.009222695973329245,-0.007888300997833721
1690840651935104500,1.9561044921875,0.17826982400417327,-0.010887651777174323,-0.014335139049659482
1690840651945144300,1.966144287109375,0.18021452833116053,-0.0001248502223752439,-0.0021299429670907557
1690840651955184400,1.976184326171875,0.18006664429306982,0.005657295109331608,-0.0012446754320058972
1690840651965225500,1.9862255859375,0.1805167261481285,-0.0041754225211218,-0.0013651828394038602
1690840651975265500,1.996265625,0.1829126813739538,-0.005760152695607394,-0.002488958138367161
1690840651985305600,2.0063056640625,0.17857202182114124,-0.007140574203338474,-0.005479303627344779
1690840651995346400,2.016346435546875,0.18665420598983765,-0.010683123914711178,0.0026816037667915225
1690840652005386500,2.026386474609375,0.18440847288966178,-0.0009986191159114242,0.004268434566818177
1690840652015426300,2.03642626953125,0.17902268819808959,-0.010225443275086581,-0.000490897922636941
1690840652025466400,2.04646630859375,0.18336393227279185,-0.012554397679306566,-0.0009294217706425114
1690840652035507500,2.056507568359375,0.1836626229584217,-0.005233809000253677,-0.00820353182631079
1690840652045547500,2.066547607421875,0.17737784360051154,-0.008214158251602202,-0.00516300878636539
1690840652055587600,2.076587646484375,0.1772276214748621,-0.007935633571166544,-0.0004594433384481817
1690840652065628400,2.08662841796875,0.17558160783350465,-0.009134615831077098,-0.0012239477378083391
1690840652075668500,2.09666845703125,0.17154256157577036,0.0003661116323433816,-0.005743059996911324
1690840652085739500,2.106739501953125,0.18126842129826545,-0.010139993481338023,-0.00041091888844966884
1690840652095779300,2.116779296875,0.18381226056218147,-0.00027112682526931166,-0.006651836271747015
1690840652105819400,2.1268193359375,0.186655375033617,-0.0034104660306125876,-0.0034506245110649614
1690840652115859500,2.136859375,0.1829132658958435,-0.013172785305976866,-0.0020590514216572045
1690840652125900500,2.146900634765625,0.19024550848007202,-0.003304411840252578,-0.010828117309394291
1690840652135940600,2.156940673828125,0.19533377152979373,0.001516377646010369,-0.003770924240304157
1690840652145980700,2.166980712890625,0.179622407656908,0.0007801723259501158,-0.0036072672443464397
1690840652156021500,2.177021484375,0.17782734093368052,-0.008597750741709024,-0.002607780478755012
1690840652166061300,2.187061279296875,0.1785813741713762,-0.003584635287430137,-0.004804114629386458
1690840652176101400,2.197101318359375,0.18172259480655192,-0.0018433080454356968,-0.0062746666725608516
1690840652186141400,2.207141357421875,0.17947744622826575,-0.006800601659249514,-0.0017956946276011876
1690840652196182500,2.2171826171875,0.18052315588891504,-0.006251936534233391,0.0022149909020401535
1690840652206222600,2.22722265625,0.17932663958072662,-0.0053465121271088715,-0.0007271543639246374
1690840652216262700,2.2372626953125,0.17812720066308974,-0.012932309347297995,-0.0019785289647756142
1690840652226303500,2.247303466796875,0.17363514994084833,-0.010071805349644273,-0.00031574228513054546
1690840652236373500,2.25737353515625,0.18126432964503764,-0.009874401347711682,-0.007714145440747961
1690840652246414300,2.267414306640625,0.18231062382757662,-0.00528000449584797,-0.007108119538729078
1690840652256454400,2.277454345703125,0.18784721516668795,-0.0019908815562725067,-0.005832679075701162
1690840652266494500,2.287494384765625,0.18874504078924656,-0.007078213024232536,-0.012486282612849026
1690840652276534500,2.297534423828125,0.1873959642678499,-0.003272190071083605,-0.011039919729437679
1690840652286575600,2.30757568359375,0.18859189605414867,-0.003630045331735164,-0.0019573628791607917
1690840652296615700,2.31761572265625,0.17931670270860195,-0.008333601646497844,-0.0007766651946119964
1690840652306655500,2.327655517578125,0.1832090339720249,-0.005714139863103628,-0.0041241535581881174
1690840652316696300,2.3376962890625,0.18769874660670757,0.0016262860275804995,-0.007252382281050086
1690840652326736400,2.347736328125,0.17288462383449077,-0.008551299517787993,0.0047035608813399445
1690840652336776400,2.3577763671875,0.18096446991562842,-0.0067693480044603346,0.004500234028697013
1690840652346816500,2.36781640625,0.18126257607936858,-0.0005318966533057392,-0.005221191547275521
1690840652356857600,2.377857666015625,0.16899170804917812,-0.006824822785053402,-0.003308864253084175
1690840652366897700,2.387897705078125,0.17722177625596522,-0.007735306959785521,-0.00608335676798597
1690840652376937700,2.397937744140625,0.18290742067694662,-0.015362678299378603,-0.001834668081253767
1690840652387008500,2.408008544921875,0.1736287202000618,-0.007340279760211706,0.0006651722107315436
1690840652397048600,2.418048583984375,0.17467735247015953,-0.0069850913806818425,-0.00263684674303513
1690840652407089400,2.42808935546875,0.18140812202990053,-0.008450378160271794,-0.0023196294534485787
1690840652417129500,2.43812939453125,0.1802110211998224,-0.009026570613030343,-0.0031137800724012777
1690840652427169500,2.44816943359375,0.19023674065172672,-0.003217007551435381,-0.005578517084964551
1690840652437210600,2.458210693359375,0.18634557843208313,-0.00472028825385496,-0.005750887110340408
1690840652447250700,2.468250732421875,0.18320611136257647,-0.008654778158571571,-0.00019642218782100826
1690840652457290500,2.47829052734375,0.17946926292181015,-0.00534393657753244,-0.0033819888547994194
1690840652467330600,2.48833056640625,0.1820166093170643,-0.0014621267081238328,-0.004104709072201513
1690840652477371400,2.498371337890625,0.17962416122257707,-0.008105729441065341,0.002468075180542655
1690840652487411500,2.508411376953125,0.18021861998438835,-0.003490709926281124,-0.00045437443768605587
1690840652497451500,2.518451416015625,0.18066753279566763,-0.00753021284174174,0.00017820154454093425
1690840652507492600,2.52849267578125,0.1827653818577528,0.00364635714571923,-0.001681555312196724
1690840652517532700,2.53853271484375,0.1779769785374403,0.0003419087728485465,-0.0010828450669534504
1690840652527572700,2.54857275390625,0.17782792545557022,-0.009811272983625531,-0.0000029134762939065692
1690840652537643500,2.5586435546875,0.17304186022281645,-0.004776785947754979,-0.004031383541086688
1690840652547683600,2.56868359375,0.18127134390771388,-0.004351144414208829,-0.009137556706834584
1690840652557723600,2.5787236328125,0.17648294058740138,-0.0001337641811929643,-0.0044368362365523354
1690840652567764500,2.588764404296875,0.1778326016306877,-0.00780983350072056,-0.005901497395057231
1690840652577804500,2.598804443359375,0.17319558947980404,-0.01583440573066473,-0.007380824116442817
1690840652587844600,2.6088447265625,0.17558686853051184,-0.004567746306955814,0.004608945967024192
1690840652597885700,2.6188857421875,0.17992460547387598,-0.005386588409170508,-0.0017925003068055957
1690840652607925500,2.628925537109375,0.1766308246254921,-0.0065072995347902176,-0.0023832921070745215
1690840652617965600,2.638965576171875,0.17977204526066778,-0.004295815764088183,0.0036006320075830443
1690840652628005600,2.649005615234375,0.1766296555817127,-0.003265486335661262,-0.0026339378333184865
1690840652638046500,2.65904638671875,0.1788730505943298,-0.0016526260452345012,-0.0038501086900476363
1690840652648086500,2.66908642578125,0.17827391565740108,-0.010373984900303184,-0.004431287845177575
1690840652658126600,2.679126708984375,0.18321312562525272,-0.009872501651570201,-0.0015330593527527526
1690840652668148200,2.689148193359375,0.18471125522851942,-0.0009681691787205636,-0.007447781555564142
1690840652678188000,2.69918798828125,0.1739367632359266,-0.0072534051943570375,0.00025209333123639226
1690840652688259000,2.709259033203125,0.178878311291337,-0.007122965481411665,0.003967506258329376
1690840652698299100,2.719299072265625,0.1734925265997648,-0.002451503071654588,0.0005086276588612236
1690840652708339200,2.729339111328125,0.1719943969964981,-0.0010033866225741804,-0.00445387870289851
1690840652718380300,2.73938037109375,0.17618424990177153,-0.014192903867643325,-0.0035835027762688696
1690840652728420400,2.74942041015625,0.1814192279458046,0.0015977175202220677,-0.0014595739914337173
1690840652738460200,2.759460205078125,0.183514738920331,-0.0015105141608044504,-0.0006394212815444916
1690840652748500200,2.769500244140625,0.19249533323347567,-0.004731759495940059,-0.006004960052820388
1690840652758541000,2.779541015625,0.17499007168114183,-0.006724303286336362,-0.004804299575765617
1690840652768581000,2.7895810546875,0.17095044090151787,-0.002960493773408234,-0.0068787494959542525
1690840652778621200,2.79962109375,0.18501403756737708,-0.003665536770224571,0.0008426476694876327
1690840652788661200,2.8096611328125,0.17184475939273833,-0.005043729788251221,-0.0006035508171422407
1690840652798702300,2.819702392578125,0.18366554556787013,-0.007310030752420425,-0.00418607634587679
1690840652808742400,2.829742431640625,0.17349135755598544,-0.007272858813498169,-0.002475089443218894
1690840652818782200,2.8397822265625,0.17827859183251857,-0.002227137997560203,-0.0030071504933061074
1690840652828823000,2.849822998046875,0.19204700494408605,-0.0038244901916012165,-0.002901231016975362
1690840652838893000,2.85989306640625,0.17992635903954504,-0.004567417513392865,0.003608568718866445
1690840652848934100,2.86993408203125,0.1770832445681095,-0.0033784451908431944,-0.0010403370824991725
1690840652858974200,2.87997412109375,0.18905308382511138,-0.009105937725864351,-0.001711918484419584
1690840652869014300,2.89001416015625,0.17932547053694725,-0.0026998335432261225,-0.006279655658220872
1690840652879055400,2.900055419921875,0.18501228400170802,0.0016683716036379336,-0.006985931630898267
1690840652889095200,2.91009521484375,0.18231880713403223,-0.0034284400787204503,0.004113855926459655
1690840652899135200,2.92013525390625,0.1691536206126213,-0.0007651026209816337,-0.0006670627737184986
1690840652909175000,2.930175048828125,0.18591361675560472,-0.0011951280687004327,-0.0015720076902303844
1690840652919216000,2.940216064453125,0.18037877898216245,-0.00007370455702766775,-0.009896905440464615
1690840652929256200,2.950256103515625,0.183074593937397,0.000014996639732271433,-0.012217792985949199
1690840652939296300,2.960296142578125,0.17948153788149357,-0.010370733497291803,-0.005511059605632908
1690840652949337300,2.97033740234375,0.18411796551048754,-0.0067328336526639755,-0.013590930802945513
1690840652959377400,2.98037744140625,0.1914490390509367,0.0010039894107729196,-0.009684267336782067
1690840652969417200,2.990417236328125,0.1736409951597452,0.0006681815851479768,-0.009327151861647143
1690840652979457000,3.00045703125,0.17423896105289458,-0.0053438087133690715,0.0000073658891255035995
1690840652989528000,3.010528076171875,0.17453706721663473,-0.002091236658208072,-0.006585365173104219
1690840652999568100,3.020568115234375,0.1715419770538807,-0.00831540840268135,0.0075287424038629975
1690840653009609200,3.030609130859375,0.18007073594629763,-0.003870630888268351,-0.002852206526766531
1690840653019649300,3.040649169921875,0.1827653818577528,-0.0017217640249989927,-0.00797779221246019
1690840653029689000,3.050689208984375,0.18620763126611709,-0.008130608153995127,-0.005134335247729905
1690840653039730200,3.060730224609375,0.18291501946151256,-0.009502590626943856,0.0028521334615303202
1690840653049770200,3.070770263671875,0.18575930297672746,-0.004983871093485504,-0.0034197727150749413
1690840653059810000,3.08081005859375,0.18411387385725975,-0.005242558562289923,-0.004165969706187024
1690840653069850000,3.09085009765625,0.19144494739770887,-0.005290416292008012,-0.00003878394069615751
1690840653079891200,3.10089111328125,0.1881546736806631,-0.006107340431772172,-0.004341632233769633
1690840653089931300,3.11093115234375,0.19189970542788504,-0.006688757048919796,-0.0011728477382333949
1690840653099971300,3.120971435546875,0.1814274112522602,-0.005691398308333009,-0.008260650574718602
1690840653110012400,3.131012451171875,0.1814268267303705,0.000876636704057455,-0.010227402336732484
1690840653120052200,3.14105224609375,0.18232699044048786,-0.003974986311886459,-0.012250293316331226
1690840653130092000,3.151092041015625,0.1763379791587591,-0.010384086169209331,-0.008377267258288338
1690840653140163000,3.1611630859375,0.16960136438012122,0.0004034297017380595,-0.004298647041991353
1690840653150203100,3.171203125,0.181871647888422,-0.0010984992938116193,0.0026408516312949356
1690840653160244200,3.181244140625,0.18322013988792896,-0.0015039200232364236,0.0002557443097583018
1690840653170284300,3.1912841796875,0.17918167815208433,0.00037062341067939993,-0.002911037741648033
1690840653180324000,3.201323974609375,0.18187515501976012,-0.005468074413854628,-0.009961392361286561
1690840653190364200,3.2113642578125,0.18591361675560472,-0.00672583765629679,-0.007964647319808137
1690840653200405200,3.2214052734375,0.1799281126052141,-0.004807016689237207,-0.0031426020247978157
1690840653210445000,3.231445068359375,0.1757370906561613,-0.006625299891270696,-0.0003858301129657775
1690840653220485000,3.241485107421875,0.1743897677004337,-0.0018869279914535582,0.0022957805036916395
1690840653230525200,3.251525146484375,0.17992518999576568,-0.0016365516932681202,-0.005968626080825924
1690840653240566300,3.261566162109375,0.18950375020205973,-0.003224880330637097,-0.00445671226409031
1690840653250606300,3.2716064453125,0.18157412624657154,-0.004671553741302341,-0.005445125079818535
1690840653260646100,3.281646240234375,0.1742430527061224,-0.00700998835992068,-0.0038961032562423495
1690840653270687000,3.29168701171875,0.17813363040387628,-0.006436444521974772,0.003962560655153356
1690840653280727000,3.30172705078125,0.17573942874372003,-0.0015047420071437954,-0.008022761582059319
1690840653290798000,3.311798095703125,0.17977964404523372,-0.000152779408916831,-0.0018185389303602276
1690840653300838100,3.321838134765625,0.1886076781451702,-0.006171984899509698,0.0027306739227729846
1690840653310878200,3.331878173828125,0.17618717251121996,-0.00499066616045311,-0.005205968861968722
1690840653320919300,3.341919189453125,0.18007950377464294,-0.0026789916845969854,0.0018109606953919863
1690840653330959000,3.351958984375,0.18007950377464294,0.003760211050044745,-0.0011443431629566474
1690840653340999200,3.361999267578125,0.18127835817039012,-0.0027634733639657497,0.0001597594222635962
1690840653351039200,3.372039306640625,0.18142448864281177,-0.008285342057980597,-0.004309273467282764
1690840653361080000,3.382080078125,0.177832017108798,-0.0035601584332995116,-0.005918548994557932
1690840653371120000,3.3921201171875,0.18052257136702538,0.0009654840312898159,-0.008137604150362313
1690840653381160200,3.40216015625,0.17977438334822654,0.002451375207491219,-0.009216887287050486
1690840653391201300,3.412201171875,0.17633213393986225,-0.006393062037974595,0.0026727811395190655
1690840653401241000,3.422240966796875,0.181871647888422,-0.00807953555388376,0.004041112633945886
1690840653411281200,3.43228125,0.19055296699404714,-0.0057450829906389115,-0.007355593777063768
1690840653421321200,3.4423212890625,0.17738485786318778,-0.006644388184230774,-0.005256123580050189
1690840653431362000,3.452362060546875,0.17888181842267512,-0.001362173464987427,0.008080197707586922
1690840653441432300,3.462432373046875,0.18756079944074153,-0.0042136173733510075,0.0007165644712513312
1690840653451473200,3.47247314453125,0.18800971225202082,-0.0036106099789030848,-0.008687803645338863
1690840653461513200,3.48251318359375,0.17678864553570747,-0.0029500271783210338,-0.0003112738892785273
1690840653471553000,3.492552978515625,0.1803805325478315,-0.007691504350677132,-0.006906719781691208
1690840653481594000,3.502593994140625,0.18202713071107862,-0.01334426941536367,0.001512069080362562
1690840653491634200,3.51263427734375,0.1790355476796627,-0.006715699854772538,0.00047156531779328357
1690840653501674200,3.52267431640625,0.1773883649945259,-0.006741583214700222,-0.0004823584231548011
1690840653511714300,3.53271435546875,0.17574059778749943,-0.009046553955134004,-0.00279247112958692
1690840653521755100,3.542755126953125,0.18441899428367614,-0.006984433793555945,-0.0037197625919361595
1690840653531795200,3.552795166015625,0.17948036883771418,-0.004929601889289916,-0.008741764605569188
1690840653541835000,3.5628349609375,0.18606150079369543,-0.011187949898000807,-0.0003103879732894711
1690840653551876000,3.5728759765625,0.18815525820255277,-0.010927600195072591,-0.0002381059050792828
1690840653561916200,3.582916259765625,0.19399170927107334,-0.0077672547343187025,-0.003601282744843047
1690840653571956200,3.592956298828125,0.18112404439151286,-0.004710734974220395,-0.002294819239177741
1690840653581996300,3.602996337890625,0.17633622559309003,-0.007381342422962189,-0.0015194646522402762
1690840653592067300,3.6130673828125,0.17978256665468215,0.00014439517306163906,-0.005153834532643668
1690840653602108200,3.623108154296875,0.17604396464824676,-0.007550104852300137,0.002641465835936833
1690840653612148200,3.633148193359375,0.17424889792501924,-0.003184475255012512,0.005436058140662499
1690840653622188000,3.64318798828125,0.18113222769796847,-0.004233399786055088,-0.003496683009341359
1690840653632228000,3.65322802734375,0.1775450168609619,-0.012008198506012558,-0.00042947517515858633
1690840653642269200,3.663269287109375,0.18427929355204103,-0.008410046149883419,-0.005335983883228619
1690840653652309200,3.673309326171875,0.180687406539917,0.0014448285134509205,-0.005219600095099304
1690840653662349300,3.683349365234375,0.17948738310039042,0.002547419460490346,-0.005887190308491699
1690840653672370200,3.6933701171875,0.1791875233709812,-0.004662950309738517,-0.002629727449081838
1690840653682410200,3.70341015625,0.17739187212586402,0.0007397855166345834,0.002779451817809604
1690840653692450000,3.713449951171875,0.18217793735861776,-0.0005661642490886152,-0.005896389678388368
1690840653702490000,3.723489990234375,0.1847211921006441,0.001964486739691347,-0.004695701801870018
1690840653712531200,3.73353125,0.18292554085552692,-0.012258081613853573,-0.00426321953558363
1690840653722571000,3.743571044921875,0.1787339343845844,-0.004872136081010103,-0.005471777908015065
1690840653732611000,3.753611083984375,0.16706103224754332,-0.0002726429289206862,-0.007617206138605251
1690840653742682000,3.76368212890625,0.1725958700209856,-0.0033333091411739584,-0.0027207165010506287
1690840653752722000,3.773721923828125,0.17528934688866138,-0.006025123774725943,-0.00009848052196903153
1690840653762763000,3.783762939453125,0.18082652274966238,-0.004956270700506866,-0.010173304379184265
1690840653772803000,3.793802978515625,0.17693652957379816,-0.006866543034929781,-0.002718351014028303
1690840653782843100,3.803843017578125,0.17379180180728435,-0.006362228508293629,0.006033489744272083
1690840653792883200,3.81388330078125,0.18696400259137153,-0.007539017202705145,-0.005058402200997807
1690840653802924000,3.823924072265625,0.18756313752830028,-0.003935805078968405,0.004101964559266344
1690840653812964000,3.833964111328125,0.17798691540956496,-0.004798705518618226,0.003345894628111273
1690840653823004200,3.844004150390625,0.180678054189682,-0.009834471196122466,0.0009486790269613265
1690840653833045200,3.854045166015625,0.1728968987941742,-0.000862114988360554,0.0017615594625589436
1690840653843085000,3.8640849609375,0.17933073123395443,-0.005961027296259999,-0.0052974853536114095
1690840653853125000,3.874125,0.1890571754783392,-0.00597817936046049,-0.007981379258900415
1690840653863165200,3.884165283203125,0.18262217399477956,-0.01630684554800391,-0.0018018389573087915
1690840653873206000,3.8942060546875,0.16945231129825114,-0.0006559796907007694,-0.0033579869247041642
1690840653883246000,3.90424609375,0.18516542873680591,-0.004646200104337185,0.0033625763348536565
1690840653893317000,3.914317138671875,0.1782820989638567,-0.003601294161286205,0.0009088059575879015
1690840653903357000,3.92435693359375,0.17962942191958425,0.0010450155409052967,-0.0030098790232208554
1690840653913397000,3.93439697265625,0.17858429678082466,-0.00395284754531458,0.001424386230332311
1690840653923438000,3.94443798828125,0.17245032407045363,-0.017673074133601037,-0.002411059180123266
1690840653933478100,3.95447802734375,0.17798633088767526,-0.013955661045666784,-0.004520763076783623
1690840653943518200,3.964518310546875,0.1881634415090084,0.0012500183274038136,-0.005526426138123497
1690840653953558300,3.974558349609375,0.18187924667298794,-0.007844283759593963,-0.000604208404268138
1690840653963599000,3.98459912109375,0.18502105183005332,-0.006217869867850095,-0.0006645237567601725
1690840653973639200,3.99463916015625,0.17858721939027308,-0.0012605762540362775,0.00197094616323011
1690840653983679000,4.004678955078125,0.17078619025051592,-0.008424056408926845,0.009428402012726291
1690840653993720000,4.014719970703125,0.23532617470026015,-0.14570117762628942,-0.18327146821636706
1690840654003760000,4.024760009765625,-0.07672258967459201,-0.28109003741163757,0.07569438827116973
1690840654013800200,4.03480029296875,0.12017711599767207,0.0818835526343435,0.21898259560475125
1690840654023840300,4.04484033203125,0.30245149946808814,-0.017618713597860186,0.08002561327535658
1690840654033881000,4.054881103515625,0.08194061658382415,0.08496454924857244,0.11500757700582034
1690840654043952000,4.0649521484375,0.2650327461779117,0.050127209020033474,0.05774439689232967
1690840654053992000,4.074991943359375,0.18719664230346678,0.07255440061185509,0.0464101703914348
1690840654064032000,4.085031982421875,0.24946400564610957,0.08625590423336252,0.009116953451867447
1690840654074072000,4.095072021484375,0.2454845806211233,0.0796391895073466,-0.019646684894664212
1690840654084113200,4.105113037109375,0.20293781679272652,0.062419430365506554,-0.028903086774772963
1690840654094153200,4.1151533203125,0.2522609428882599,0.04804534297836944,-0.015174768211576156
1690840654104193300,4.125193359375,0.16723054359555242,0.034285149705875664,0.014028867845772765
1690840654114234000,4.135234130859375,0.2131289559394121,0.019728344429284332,0.036286415658844634
1690840654124274200,4.145274169921875,0.12839140211343764,0.0026603052504360672,0.06554308794452808
1690840654134314000,4.15531396484375,0.21212825446426867,-0.007951342596951872,0.09005235564056784
1690840654144354000,4.16535400390625,0.10326046798825263,-0.012598145489487796,0.0847866445315536
1690840654154395100,4.17539501953125,0.16660335160791873,-0.03773127157175913,0.061376583948801265
1690840654164435200,4.185435302734375,0.16347908210754394,-0.045049047239217904,0.02839951660023071
1690840654174475300,4.195475341796875,0.1428197404384613,-0.06054075874574482,0.004762032478261972
1690840654184516000,4.20551611328125,0.1954571056485176,-0.07875782182924448,-0.015545190692855976
1690840654194586000,4.215586181640625,0.15005845952033997,-0.06369454660154879,-0.002464239255641587
1690840654204627000,4.225626953125,0.18664777624905107,-0.05584368697069585,0.016759247224312275
1690840654214667000,4.2356669921875,0.14212299034595488,-0.03399818599065765,0.046154378132615234
1690840654224707000,4.24570703125,0.16912205643057823,-0.017750212756730614,0.07182524608708918
1690840654234747100,4.2557470703125,0.16769523849785328,-0.012730229170247912,0.06838706093248911
1690840654244788200,4.265788330078125,0.16762743395864962,0.012858330795634537,0.06571144851506687
1690840654254828300,4.275828369140625,0.18074176707565784,0.02343698968887329,0.04821665355782024
1690840654264868000,4.2858681640625,0.21272972748875615,0.026937709552515298,0.02730586244489532
1690840654274909200,4.2959091796875,0.19386077636778354,0.03371925945142284,0.020896187198837287
1690840654284949000,4.305948974609375,0.19760873072445392,0.0296289761967957,0.014332911701599367
1690840654294989000,4.315989013671875,0.22187574149668216,0.027127386905718594,0.013696877678739838
1690840654305029000,4.326029052734375,0.17822247773110866,0.04044920702725649,0.02372046453906223
1690840654315070200,4.3360703125,0.19638298832178114,0.03203019211962819,0.02293653392002452
1690840654325110300,4.3461103515625,0.1841770022213459,0.02503344683377072,0.04548859856710769
1690840654335150300,4.356150390625,0.17929858253002165,0.020015965731628237,0.048041648617363535
1690840654345221000,4.36622119140625,0.17801380341649053,0.005986472264770418,0.04312498840803746
1690840654355261200,4.37626123046875,0.16489596316814423,-0.008051496769487857,0.04122625124778133
1690840654365302000,4.386302001953125,0.1793009206175804,-0.024273568377178163,0.03241659305475186
1690840654375342000,4.396342041015625,0.1685521475881338,-0.02985335953719914,0.02911424074084498
1690840654385382100,4.406382080078125,0.16422317847311496,-0.03810973122902214,0.024344528421270658
1690840654395422200,4.416422119140625,0.16496435222923755,-0.03691087683327496,0.02691539268943015
1690840654405463300,4.42646337890625,0.16344459531605243,-0.04205370134813711,0.025891990758711472
1690840654415503000,4.436503173828125,0.1590676954060793,-0.0285927284842357,0.0371975391543936
1690840654425543200,4.446543212890625,0.17398937020599842,-0.02156226359186694,0.04426436313493177
1690840654435584000,4.456583984375,0.16496318318545816,-0.025230722971539943,0.04046742767053656
1690840654445624000,4.4666240234375,0.18092764503657816,-0.018522019113134593,0.030909951351466586
1690840654455664000,4.4766640625,0.18582243134081364,-0.012561850333400069,0.03637643659643363
1690840654465704200,4.4867041015625,0.17755495373308658,0.006659129095636308,0.029523415196780114
1690840654475745300,4.496745361328125,0.19533435605168342,0.013850520170759408,0.034476338596153074
1690840654485785300,4.506785400390625,0.1936702222317457,0.015837273541186005,0.02464057962524239
1690840654495856000,4.516856201171875,0.19022154308259487,0.024837887729052453,0.017757341183838433
1690840654505896200,4.526896240234375,0.19337094702422616,0.03153839001469314,0.024720832654065453
1690840654515936300,4.536936279296875,0.17498247289657592,0.019607878121081737,0.03245570578901097
1690840654525977000,4.54697705078125,0.1815928309470415,0.02060801334064454,0.031799442970519884
1690840654536017200,4.55701708984375,0.19374796364307403,0.017279544771369545,0.029992146953381597
1690840654546057200,4.56705712890625,0.1765735414803028,0.021447879964578895,0.021198494613659566
1690840654556098300,4.577098388671875,0.1827431700259447,0.008716262554842978,0.025875062456796875
1690840654566138000,4.58713818359375,0.17349603373110292,-0.0014813428652472793,0.034944768958655184
1690840654576178200,4.59717822265625,0.16858488081395626,-0.007926372552476822,0.03138459682562388
1690840654586218200,4.60721826171875,0.1790788022994995,-0.009860518952831625,0.026439409208134746
1690840654596259000,4.617259033203125,0.16202712973356245,-0.01738044786257669,0.025471632755058815
1690840654606299100,4.627299072265625,0.17235212439298628,-0.024565299599058926,0.03393111210381612
1690840654616339200,4.637339111328125,0.17055004340708255,-0.025579883469082413,0.032127729643392375
1690840654626380300,4.64738037109375,0.16544716731011866,-0.01807739888448268,0.03351811998928897
1690840654636420400,4.65742041015625,0.1757505346596241,-0.02745820802897215,0.0399840098014567
1690840654646491100,4.6674912109375,0.17318272999823092,-0.01597313834792003,0.03350871740670409
1690840654656531200,4.67753125,0.17794482983350754,-0.005177146909572184,0.024131935983360744
1690840654666578200,4.687578125,0.17447101624310016,-0.008068173909652978,0.027709319546096955
1690840654676618200,4.6976181640625,0.17085399478971958,-0.014003610106930136,0.03514248348784167
1690840654686659300,4.707659423828125,0.18519991552829743,-0.004718772150203585,0.030008924558246507
1690840654696699400,4.717699462890625,0.1844376989841461,0.0026621684139594435,0.020313126613874917
1690840654706739500,4.727739501953125,0.1717109038800001,0.00985615330496803,0.02995674227986019
1690840654716780500,4.737780517578125,0.17964345044493674,0.01216583675313741,0.034503815691545606
1690840654726820400,4.7478203125,0.1778542289406061,0.008978585019148886,0.030307245351118034
1690840654736860200,4.757860107421875,0.18250468509495257,0.008368563362024723,0.030848042263509703
1690840654746900200,4.767900146484375,0.18117782040536404,0.010626315693557261,0.03340318837272934
1690840654756941300,4.77794140625,0.18972937565147877,0.008186174266133456,0.03106437472819816
1690840654766981400,4.7879814453125,0.18900339946448802,-0.006664791651442647,0.027585866696364245
1690840654777021400,4.798021484375,0.18558511545360087,-0.0030666210290044545,0.022097028055693954
1690840654787062500,4.8080625,0.17542612501084803,-0.0037905513893812894,0.02467444079564884
1690840654797132500,4.818132568359375,0.18620996935367584,-0.0002580481479875743,0.026366713864682242
1690840654807173400,4.82817333984375,0.17439385935366153,-0.00005067074131220579,0.029923844657256265
1690840654817213200,4.838213134765625,0.18098025200664997,-0.009257073166966438,0.02919604640593752
1690840654827253200,4.848253173828125,0.18337328462302685,-0.012287453838810324,0.02599757002503611
1690840654837294300,4.85829443359375,0.17199322795271874,-0.011389737814106047,0.030578847100422715
1690840654847334400,4.86833447265625,0.18605156392157077,-0.00868973987409845,0.021965410165814683
1690840654857374500,4.87837451171875,0.17481646867990494,-0.013824508946668356,0.029574195535946635
1690840654867414500,4.88841455078125,0.16956453950107098,-0.014373101006448268,0.026250964830792506
1690840654877455400,4.898455322265625,0.1794225011706352,-0.008947587092686443,0.02573824780199211
1690840654887495200,4.9084951171875,0.16983166600465774,0.0015707747143693268,0.03008081161752343
1690840654897535200,4.91853515625,0.16697744561731814,0.00669255644120276,0.024630478356336243
1690840654907575300,4.9285751953125,0.1783417201966047,0.007708382420241832,0.02835066792324651
1690840654917616400,4.938616455078125,0.17504209412932395,0.01489792859815061,0.02680226030431222
1690840654927656400,4.948656494140625,0.18312077116668224,0.009905088746920228,0.026962264038459395
1690840654937696500,4.958696533203125,0.18641396749317646,0.010545249813981354,0.03724975796539802
1690840654947767600,4.968767578125,0.17190496514737605,-0.0034508345736190675,0.027600744605087674
1690840654957807400,4.978807373046875,0.17580606423914433,-0.0030498342909850177,0.026336510522663593
1690840654967848200,4.98884814453125,0.1788128448396921,0.004536163858603686,0.025437862916197627
1690840654977888300,4.99888818359375,0.16655425176918506,0.003940389922540635,0.025124513517552984
1690840654987928300,5.00892822265625,0.17210136450231076,0.005822276412695646,0.02422735004869755
1690840654997969400,5.018969482421875,0.17914368422925472,-0.003681793785281479,0.020903384124604053
1690840655008009500,5.029009521484375,0.17466390846669672,-0.00047054012119770045,0.02575803021469619
1690840655018049500,5.039049560546875,0.1634457643598318,0.002103822145145386,0.026440829413663595
1690840655028089300,5.04908935546875,0.1781120030939579,-0.00008667363645508884,0.02977932162003126
1690840655038130200,5.059130126953125,0.1896364366710186,-0.005684530176129192,0.037222116473224015
1690840655048170200,5.069170166015625,0.17077859146595,-0.006409556515049189,0.030087588418181984
1690840655058210300,5.079210205078125,0.17825345739126205,-0.012229001649841666,0.021698612455790862
1690840655068251400,5.08925146484375,0.17255846062004565,-0.0008933138442225754,0.02254145192152355
1690840655078291500,5.09929150390625,0.17404782239496708,-0.005219506480265409,0.026318326412001623
1690840655088331500,5.10933154296875,0.17359131079912185,-0.0055022872107103465,0.029095115915266794
1690840655098402600,5.119402587890625,0.17089081966876982,-0.003682159111462533,0.02493171719207894
1690840655108442400,5.1294423828125,0.17776655065715313,0.00649374593347311,0.025910946620930915
1690840655118482400,5.139482421875,0.18688859926760196,0.002072550224047154,0.027305930943554265
1690840655128523300,5.149523193359375,0.18568916034996508,-0.0029461181881837543,0.027133633983414618
1690840655138563300,5.159563232421875,0.17596213158369065,0.007348517865594476,0.02145554724780377
1690840655148603400,5.169603271484375,0.1786561929732561,-0.0015975896560586989,0.020902580407005735
1690840655158644500,5.17964453125,0.18015607614219187,0.00392773137036711,0.02999390508562792
1690840655168684500,5.1896845703125,0.17402736412882805,0.007612758292350918,0.02954340310546104
1690840655178724400,5.199724365234375,0.1791220569193363,0.01237498599179089,0.027947827309975398
1690840655188764400,5.209764404296875,0.19020108481645584,0.006602393939718604,0.025587966310838237
1690840655198805200,5.21980517578125,0.1734457648485899,-0.004913125678524375,0.022840087808226234
1690840655208845300,5.22984521484375,0.1743470976024866,0.008988448826037347,0.02652824740221258
1690840655218885400,5.239885498046875,0.1765957533121109,-0.004318155460059643,0.02479187946312595
1690840655228926500,5.249926513671875,0.17435352734327314,-0.007828373804409056,0.025415934212179855
1690840655238966500,5.259966552734375,0.1761474250227213,-0.009082885643839836,0.026856273780181072
1690840655249037600,5.27003759765625,0.18542203384637831,0.005025317348726094,0.024267334999213925
1690840655259077400,5.280077392578125,0.18945991106033325,-0.0038944136226549742,0.027578057849244213
1690840655269117400,5.290117431640625,0.1774836420625448,0.00247851894274354,0.02716152207076084
1690840655279158300,5.300158203125,0.17673194691240787,-0.00035228403639048336,0.02662493097602855
1690840655289198300,5.3101982421875,0.18061492582559585,0.0016105952681042253,0.03135188186611049
1690840655299238400,5.32023828125,0.1765688653051853,0.006165865685977041,0.019878365625534206
1690840655309278500,5.330278564453125,0.17955401859581469,0.0016769933015108108,0.021360571573884227
1690840655319319600,5.340319580078125,0.18104688750207423,-0.00654458107156679,0.02148526653263252
1690840655329359400,5.350359375,0.17580606423914433,-0.01146928759003058,0.032132401251932605
1690840655339399400,5.3603994140625,0.1789437777429819,-0.00042576939770951863,0.028087847702018914
1690840655349440300,5.370440185546875,0.17281097407639026,-0.0004828698798082769,0.025453530842787585
1690840655359480300,5.380480224609375,0.17655249869227407,0.001483406958170235,0.03107616106411442
1690840655369520400,5.390520263671875,0.17940028933882712,0.00302230696324259,0.018815010710339992
1690840655379560400,5.400560546875,0.1876356182426214,0.007410257990192621,0.022770205476367846
1690840655389601500,5.4106015625,0.1744692626774311,0.0014947320697829127,0.030190898095606825
1690840655399671300,5.42067138671875,0.1891349168896675,-0.0015989596292376516,0.019477379042631946
1690840655409712400,5.43071240234375,0.1756722087264061,-0.011763009839598089,0.02111677114695776
1690840655419752400,5.44075244140625,0.1768739857316017,-0.008443345631286502,0.023752229650504886
1690840655429792500,5.45079248046875,0.1698410183548927,0.0002535729022696614,0.02796039453060366
1690840655439833300,5.460833251953125,0.18435761948525906,-0.002081244987156242,0.021097185097075997
1690840655449873400,5.470873291015625,0.18510697654783725,-0.013114661910571156,0.020220534693286753
1690840655459913500,5.48091357421875,0.17941782499551773,-0.007537537631671875,0.018727350693196056
1690840655469953300,5.490953369140625,0.17762042018473148,-0.005210702119302004,0.029346400962327605
1690840655479994400,5.500994384765625,0.18809212983846663,0.0022997831086628137,0.026217007762263527
1690840655490034400,5.511034423828125,0.17836568559408186,0.007684234359674155,0.021103856866457497
1690840655500074500,5.521074462890625,0.17671382673382757,-0.0013695165212266147,0.019175747481244614
1690840655510115300,5.531115234375,0.17416531129479407,-0.002745334919076413,0.019165637079183943
1690840655520155400,5.5411552734375,0.18538520896732807,0.0022401801422238347,0.025622407436557113
1690840655530195500,5.551195556640625,0.17027122646570206,0.0020736644688993692,0.024889873644616454
1690840655540235300,5.5612353515625,0.17909984508752821,0.0026732560635544357,0.025910942054353653
1690840655550306300,5.571306396484375,0.1811959405839443,-0.0007311638187617063,0.019089831896615214
1690840655560346400,5.581346435546875,0.18658406336307526,0.0018633279201574623,0.026604344845726154
1690840655570387500,5.591387451171875,0.18329378964602946,0.0007225603871978819,0.023081673445180056
1690840655580427500,5.601427490234375,0.17985329380333423,-0.0007302505033090711,0.027682865364011374
1690840655590467300,5.61146728515625,0.18224866450726984,0.0005046433201991021,0.014018305352563038
1690840655600508400,5.62150830078125,0.18194938929975032,-0.010253573391027749,0.021675304645439607
1690840655610548500,5.631548583984375,0.17835867133140562,-0.011880590070970356,0.01841610192009248
1690840655620588300,5.64158837890625,0.18464578877687454,-0.0035678302831016477,0.018208025827095842
1690840655630628400,5.65162841796875,0.16968261292278766,-0.0027829087167978283,0.026789916845969854
1690840655640669400,5.66166943359375,0.16833587448894977,-0.012361925580818205,0.02311711921789683
1690840655650709500,5.67170947265625,0.18255203136801718,-0.0018741781077347695,0.026706608776957727
1690840655660749300,5.681749267578125,0.18539514583945274,-0.003065451985225081,0.026753676488809285
1690840655670783200,5.691783203125,0.17402151890993117,-0.006245689456537366,0.016259334878157825
1690840655680823300,5.7018232421875,0.1792582505196333,-0.001332180185522884,0.016036919732554816
1690840655690863400,5.71186328125,0.17566636350750922,0.0020891542989760637,0.02645625987823587
1690840655700934100,5.72193408203125,0.17207096936404703,0.007150291879754513,0.02635815609889105
1690840655710974200,5.73197412109375,0.17207096936404703,0.007152830896712839,0.025604725649394092
1690840655721015300,5.742015380859375,0.1756628563761711,-0.008683620660565793,0.02578576303841546
1690840655731055400,5.752055419921875,0.18254501710534093,-0.00856795839164406,0.028726104506361295
1690840655741095400,5.762095458984375,0.18613222794234752,0.009222805571183561,0.024247808314836583
1690840655751135200,5.77213525390625,0.18643208767175673,0.0011599836900830268,0.02372601749701425
1690840655761176300,5.78217626953125,0.18104513393640517,-0.0009347600994631648,0.026141709469771013
1690840655771216100,5.792216064453125,0.18299334539473056,-0.004554667629674077,0.02267106051740702
1690840655781256200,5.802256103515625,0.18194880477786063,0.0015359225966967642,0.02483692418124992
1690840655791297300,5.81229736328125,0.18404373123049736,0.00003563756896182894,0.01962945976522751
1690840655801337300,5.82233740234375,0.18224983355104923,-0.001692556196823716,0.017892854364123193
1690840655811377400,5.83237744140625,0.1823988866329193,0.0027739034264348448,0.017326425253553317
1690840655821417200,5.842417236328125,0.18060089730024337,-0.007186331307515502,0.014180651740846224
1690840655831458300,5.852458251953125,0.1870341452181339,-0.010066983044054359,0.018441706718807106
1690840655841498400,5.862498291015625,0.1792529898226261,0.0032568281051702794,0.01991592115694657
1690840655851569200,5.872569091796875,0.180599728256464,0.0018948555695824324,0.02451471562271472
1690840655861609200,5.882609130859375,0.17551204972863196,0.0014544365920126437,0.01793498560595326
1690840655871649300,5.892649169921875,0.1826958237528801,0.004195460662152618,0.020876212989888152
1690840655881690400,5.9026904296875,0.17581249397993087,-0.004793116028048098,0.025250144624640234
1690840655891730400,5.91273046875,0.18823007700443267,-0.005766746833175421,0.02418743816341739
1690840655901770200,5.922770263671875,0.17880290796756743,0.002464654814172536,0.020151661575003525
1690840655911810000,5.93281005859375,0.17132161230146883,-0.006048139324132353,0.0176330846165074
1690840655921851100,5.94285107421875,0.17835399515628814,-0.006673230686224997,0.025249213042878544
1690840655931891200,5.95289111328125,0.17775369117558001,-0.0037346564836800095,0.015000169696495867
1690840655941931300,5.96293115234375,0.18344050464034078,0.0016712942130863665,0.017315515700471587
1690840655951972400,5.972972412109375,0.17850246371626852,-0.0022241240565665063,0.02050303686251864
1690840655962012400,5.983012451171875,0.1808966653764248,-0.0049256198339164255,0.02363505584450904
1690840655972052200,5.99305224609375,0.17117022113204,0.0018115794666111469,0.027088488800590855
1690840655982092300,6.00309228515625,0.1768558655530214,0.005078947232104837,0.025312195276492273
1690840655992133400,6.01313330078125,0.18269290114343165,-0.0002611534205265343,0.024977656959346495
1690840656002203100,6.023203125,0.1858364598661661,-0.0024570012306794524,0.018131608723173848
1690840656012244200,6.033244140625,0.17655834391117095,-0.0039680999133735895,0.01729519443165045
1690840656022284300,6.0432841796875,0.17685937268435953,-0.01018485553637147,0.019754323687334544
1690840656032324400,6.053324462890625,0.16997545838952063,-0.004968728323280811,0.026165793598257003
1690840656042365400,6.063365478515625,0.17611118466556072,-0.0018033230949193238,0.02196778021941427
1690840656052405200,6.0734052734375,0.17297113307416437,-0.010859156335052102,0.02633501268532127
1690840656062445000,6.083445068359375,0.18329729677736759,-0.004076638321764767,0.01822512765894644
1690840656072485000,6.093485107421875,0.17820786468386648,-0.0023364801235496997,0.01947258413650561
1690840656082526200,6.103526123046875,0.17820611111819742,0.0020703217343427237,0.025983838327205737
1690840656092566300,6.113566162109375,0.17580957137048245,-0.008941230417136103,0.015998359554144553
1690840656102606300,6.1236064453125,0.19032208084762095,0.00039654330322518944,0.015780360288755037
1690840656112647200,6.133647216796875,0.18014497022628784,0.003338186245691031,0.018867937340820207
1690840656122687200,6.143687255859375,0.17804887472987174,0.001186798631772399,0.01305810941774398
1690840656132727000,6.15372705078125,0.17445874128341674,-0.0034086759323254225,0.01738084972137585
1690840656142767000,6.16376708984375,0.18612988985478876,-0.004325370652135461,0.018999824658758005
1690840656152838100,6.173838134765625,0.1850818421065807,-0.0035962709262967107,0.023774624145403503
1690840656162879200,6.183879150390625,0.17879823179244994,-0.009234970933012664,0.022678604503045787
1690840656172919300,6.193919189453125,0.18404022409915924,-0.0044231319381855426,0.018232397649949415
1690840656182959400,6.20395947265625,0.18553660013675688,-0.0014206987191922962,0.015963804263994096
1690840656192999400,6.21399951171875,0.1874836425513029,-0.0005973265723325312,0.019806779960356652
1690840656203040300,6.224040283203125,0.17611001562178133,-0.0003565583527088165,0.02677307530902326
1690840656213080000,6.234080078125,0.17566051828861234,-0.003825604436453432,0.021733811633335424
1690840656223120100,6.2441201171875,0.17416531129479407,-0.0033197190072387457,0.016689652586821466
1690840656233161200,6.2541611328125,0.17656009747684,0.0056740453147329385,0.02408572678803466
1690840656243201300,6.264201171875,0.17985212475955487,-0.005233681136090308,0.01652595449166838
1690840656253241300,6.274241455078125,0.17701193289756773,-0.001381042562238872,0.018012580886809154
1690840656263281400,6.284281494140625,0.1777589518725872,-0.002026245130598545,0.026528653827589004
1690840656273322200,6.294322265625,0.18314707465171812,0.005352887068968266,0.017875455704750493
1690840656283362000,6.304362060546875,0.18105214819908141,-0.0004794358137063682,0.014358908084314316
1690840656293402000,6.314402099609375,0.17611352275311945,0.004278207042161375,0.011865155039820819
1690840656303473200,6.32447314453125,0.17222294505536556,0.0035277540010400115,0.013918388642044737
1690840656313513200,6.33451318359375,0.18224807998538017,-0.009505129643902183,0.019943530683079733
1690840656323554300,6.34455419921875,0.1807522884696722,-0.011119560836907476,0.01950501596822869
1690840656333594400,6.354594482421875,0.17806056516766547,-0.006276723915617913,0.018934814864839427
1690840656343634400,6.364634521484375,0.17147475703656673,0.0011425028323195875,0.015022856452339329
1690840656353674200,6.37467431640625,0.18224749546349048,-0.0017372903876937925,0.014820579912466927
1690840656363715000,6.384715087890625,0.17955284955203532,0.009146616796124727,0.013778263218724168
1690840656373755100,6.394755126953125,0.17670973508059978,0.0012150018129497766,0.01808113434468396
1690840656383795200,6.404795166015625,0.173566760879755,-0.003896057590469718,0.016432942445972
1690840656393836300,6.414836181640625,0.1740156736910343,0.0034381577551364896,0.01535538547548931
1690840656403876400,6.42487646484375,0.1823953795015812,0.0001431713303551078,0.025485775444842873
1690840656413916400,6.43491650390625,0.17880524605512618,-0.0029555618699640034,0.026596006275643593
1690840656423956200,6.444956298828125,0.18000117784142494,-0.0018050401279702782,0.01595955278056208
1690840656433997000,6.4549970703125,0.1800017623633146,-0.0037327750538475807,0.01817531543415971
1690840656444037000,6.465037109375,0.1792529898226261,-0.001948083594162017,0.016568807252706028
1690840656454108200,6.475108154296875,0.1767085660368204,-0.005113196561578661,0.02211837223782204
1690840656464148200,6.485148193359375,0.18389175553917883,-0.005549213358666747,0.018488669399381614
1690840656474188300,6.495188232421875,0.18448855238854883,-0.0018652824152261018,0.018384227210795506
1690840656484229400,6.5052294921875,0.17970014906823634,-0.006947955974377691,0.016975091065233573
1690840656494269400,6.51526953125,0.17625848418176174,-0.0062032385542988774,0.019927963221189563
1690840656504309200,6.525309326171875,0.1719213317602873,-0.004773881604615599,0.018328240973548963
1690840656514349300,6.535349365234375,0.16892799516320228,-0.001344656074605882,0.02289374965764582
1690840656524390100,6.54539013671875,0.17162205655276774,-0.004025967580452561,0.019595146503672004
1690840656534430200,6.55543017578125,0.17670798151493072,-0.012314177448954432,0.020525714485207572
1690840656544470300,6.56547021484375,0.18104688750207423,0.001292268300242722,0.015394429711089468
1690840656554511400,6.575511474609375,0.18075053490400314,0.004994228090718388,0.0233178248551907
1690840656564551400,6.585551513671875,0.18329846582114695,0.0003521561722271144,0.019689902981882914
1690840656574591200,6.59559130859375,0.18569032939374447,0.00430794459329918,0.021181913371616973
1690840656584631300,6.60563134765625,0.1903296796321869,0.016457159005198625,0.02165092368943151
1690840656594672000,6.615672119140625,0.18000468497276306,0.0017824264373630283,0.019535274109174498
1690840656604743200,6.6257431640625,0.1791091974377632,-0.011591087338794022,0.01725288509330712
1690840656614783200,6.635783203125,0.1859931117326021,0.003401807800121605,0.014991630197013727
1690840656624823300,6.6458232421875,0.18180501239299773,0.0010894574708305298,0.005701106851594522
1690840656634863400,6.65586328125,0.1732750844568014,-0.00013312486037611961,0.01515454740745481
1690840656644904400,6.665904541015625,0.1789618979215622,-0.012540679681207983,0.015702513846149665
1690840656654944300,6.6759443359375,0.18314882821738718,-0.003970675462950021,0.01580212002941407
1690840656664984300,6.685984375,0.18270225349366664,-0.0008810206182301044,0.02181070366129279
1690840656675005200,6.696005126953125,0.1837491321980953,-0.0055516793103888625,0.03127801747887861
1690840656685045200,6.706045166015625,0.17237608979046343,0.0002798763873055577,0.025704267900576814
1690840656695085000,6.7160849609375,0.17551789494752884,0.0028018874119035897,0.020753372061508707
1690840656705125000,6.726125,0.17910861291587352,-0.006343377677351236,0.015580778029467909
1690840656715166200,6.736166259765625,0.18075404203534126,0.0032038375426083803,0.022228993005445227
1690840656725206000,6.7462060546875,0.18060323538780212,0.0007607004404999316,0.011404149931948632
1690840656735246000,6.75624609375,0.17746026118695735,0.005222246426623315,0.023981549460929816
1690840656745287200,6.766287109375,0.17416764938235282,0.00370961337396875,0.01664688659075182
1690840656755357000,6.77635693359375,0.18344342724978924,-0.009368990842532366,0.014247191338147967
1690840656765398000,6.78639794921875,0.18090017250776289,-0.00127834937274456,0.020384926908183842
1690840656775438000,6.79643798828125,0.17416531129479407,-0.008936316780000925,0.018870690986909903
1690840656785478100,6.80647802734375,0.1840408086210489,0.000025043109711259602,0.011699452217249199
1690840656795518200,6.816518310546875,0.17700725672245024,-0.0006044686991721392,0.013266861364175564
1690840656805559000,6.82655908203125,0.17730477836430072,-0.0006753054456785321,0.018918544150050728
1690840656815599000,6.83659912109375,0.18463702094852924,-0.0020151026820763944,0.02071223176694475
1690840656825639200,6.84663916015625,0.17895137652754783,0.004155329581163823,0.01292893921327777
1690840656835680300,6.85668017578125,0.17955226503014562,0.006486786469724029,0.011192676305468193
1690840656845720000,6.866719970703125,0.1808966653764248,0.003859744168072939,0.020237426462583242
1690840656855760100,6.876760009765625,0.17760230000615118,0.006009159020613879,0.014628719735331832
1690840656865800200,6.88680029296875,0.17685352746546268,0.0019460743001662195,0.013799648500047623
1690840656875841000,6.896841064453125,0.17984686406254768,0.0016663075107149778,0.009246592872147448
1690840656885881000,6.906881103515625,0.17131985873579977,-0.002130180429108441,0.010756485978444107
1690840656895921200,6.916921142578125,0.1819458821684122,-0.005802640130463987,0.021733309309836475
1690840656905992000,6.926991943359375,0.1817985826522112,-0.005708239845279604,0.017906019806372932
1690840656916032000,6.937031982421875,0.17895897531211374,0.00040956718157976864,0.016361808871943502
1690840656926073000,6.947072998046875,0.18210078046917913,0.00023307810351252554,0.021420393736031836
1690840656936113200,6.957113037109375,0.17566460994184016,0.00526913604196161,0.02035043555011507
1690840656946153200,6.9671533203125,0.17895488365888595,-0.000626643998362124,0.01724267879312392
1690840656956194000,6.977194091796875,0.17102116805016992,-0.004930277742724865,0.009430187544436194
1690840656966234000,6.987234130859375,0.1792529898226261,-0.0012767784701660275,0.00864731637132354
1690840656976274200,6.997274169921875,0.18254501710534093,-0.0053146374178119,0.010991413545748218
1690840656986314000,7.00731396484375,0.1737152294397354,-0.0074511014572344715,0.005037583175254985
1690840656996355000,7.01735498046875,0.17281565025150775,0.0008564158999361097,0.008812270275224
1690840657006395100,7.02739501953125,0.17759996191859245,-0.00528959430810064,0.012543077134271151
1690840657016435200,7.037435302734375,0.18552841683030127,0.0009106303052045404,0.013763367043691686
1690840657026475300,7.047475341796875,0.1728092205107212,-0.0070219710586592555,0.021731395913963204
1690840657036516000,7.05751611328125,0.18463176025152206,0.0011108290524221955,0.01662763846758753
1690840657046556200,7.06755615234375,0.1870259619116783,-0.002338197156600654,0.012802673351950943
1690840657056627000,7.077626953125,0.17879472466111182,-0.004466496155876666,0.00805356999556534
1690840657066667000,7.0876669921875,0.1746048717558384,0.0010501849063672124,0.007277653719624504
1690840657076707000,7.09770703125,0.16906886493861675,0.0033177279795520006,0.00916149013827089
1690840657086748200,7.107748046875,0.17281097407639026,-0.0051731100552715355,0.01797190638312604
1690840657096788200,7.117788330078125,0.18283552448451518,-0.002666607127059251,0.01906417686555069
1690840657106828300,7.127828369140625,0.18343699750900266,-0.0018166392342187463,0.013293183115520513
1690840657116869000,7.137869140625,0.17984744858443735,-0.005626680775359273,0.009897823322494514
1690840657126909200,7.1479091796875,0.17580606423914433,-0.005976078734919428,0.01735455536949448
1690840657136949000,7.157948974609375,0.16772680267989634,-0.004719612400420009,0.014797920556087045
1690840657146989000,7.167989013671875,0.18104688750207423,0.0017966558921150863,0.004758989996160381
1690840657157030100,7.178030029296875,0.1928688427209854,-0.002803476580791175,0.01429473854061216
1690840657167070200,7.1880703125,0.18464052807986736,-0.0031879458537325263,0.019754195823171176
1690840657177110300,7.1981103515625,0.1800017623633146,-0.0012391681398265064,0.013310138816898688
1690840657187151000,7.208151123046875,0.17805647351443765,0.0020496260061860084,0.022117541120760142
1690840657197191200,7.218191162109375,0.18344167368412018,0.003472023492120206,0.015770368617703204
1690840657207262000,7.228261962890625,0.18598726651370523,-0.005124320743791759,0.019969149181526154
1690840657217302000,7.238302001953125,0.1812012012809515,-0.004606562213692814,0.014699688912578857
1690840657227342000,7.248342041015625,0.180002931407094,-0.010929846951086073,0.01960299188341014
1690840657237382100,7.258382080078125,0.17536533473432064,-0.00578267505466938,0.01790130253206007
1690840657247423200,7.26842333984375,0.1806044044315815,-0.006474054852314293,0.019865223016170785
1690840657257463300,7.27846337890625,0.18329612773358822,-0.0035527605781331658,0.02154828986544162
1690840657267503000,7.288503173828125,0.18613924220502376,-0.003084266283549368,0.014731759984698146
1690840657277544000,7.2985439453125,0.180452428740263,0.003170318865496665,0.0077107661735732105
1690840657287584000,7.308583984375,0.17132511943280695,0.000052844432089477775,0.009904609256307593
1690840657297624000,7.3186240234375,0.1828472149223089,-0.0018946546401828526,0.008162729458464309
1690840657307664100,7.3286640625,0.1816495295703411,0.0007830401364713906,0.01543280265983194
1690840657317705200,7.338705322265625,0.17686171077191828,-0.0032444252813234923,0.016527931819623334
1690840657327745300,7.348745361328125,0.1825473551928997,-0.0022092918136157095,0.01428565105185844
1690840657337785300,7.358785400390625,0.1708750375777483,-0.004786704553570598,0.013403082363936118
1690840657347826200,7.368826171875,0.17985329380333423,0.004807674276363104,0.008498445952543988
1690840657357896200,7.378896240234375,0.18434300643801688,-0.004607786056399345,0.019505294529441743
1690840657367937000,7.38893701171875,0.1810527327209711,0.0011404022067785262,0.015745453372155317
1690840657377977000,7.39897705078125,0.1844949821293354,-0.003760010120645165,0.01421845843400806
1690840657388017200,7.40901708984375,0.1843470980912447,0.0003545125260949135,0.007132902353536337
1690840657398058200,7.419058349609375,0.18285189109742642,-0.007537117506563663,0.007754367853282019
1690840657408098300,7.429098388671875,0.17791268112957476,-0.00593382876208052,0.009128309387876652
1690840657418138000,7.43913818359375,0.1886854195564985,-0.0019402838801965117,0.013726067240606061
1690840657428178200,7.44917822265625,0.1822510025948286,-0.0022386275059543548,0.014218129640445113
1690840657438219000,7.459218994140625,0.18808628461956978,-0.0023999372811987995,0.00789113227573689
1690840657448259000,7.469259033203125,0.1844943976074457,-0.007963197431527078,0.019527442429168148
1690840657458299100,7.479299072265625,0.1838976007580757,-0.004163786882255226,0.024259896044852212
1690840657468340200,7.48934033203125,0.17746493736207483,0.0023382702218368648,0.01984424416022375
1690840657478380300,7.49938037109375,0.18225275616049766,0.0054624849232845,0.0072392396716866635
1690840657488420400,7.50942041015625,0.17566928611695765,0.005631247352622449,0.0032225142727926137
1690840657498460200,7.519460205078125,0.17387129678428173,0.006006473873183131,0.010082445474667474
1690840657508531200,7.52953125,0.18524200110435485,-0.0009503777937032282,0.01852559474313166
1690840657518571300,7.5395712890625,0.18599018912315368,-0.004823565965238958,0.018311627765465528
1690840657528612000,7.549612060546875,0.18075287299156187,0.005650719238072633,0.01717753656846471
1690840657538652200,7.559652099609375,0.17356968348920343,0.008013594178203493,0.017232276130118407
1690840657548692200,7.569692138671875,0.16997838099896906,0.002795348073262721,0.011091161292907782
1690840657558733300,7.5797333984375,0.1785077244132757,0.0029382271426729857,0.009018387306574732
1690840657568773000,7.589773193359375,0.18165011409223078,0.0014464542149566113,0.0051339425220852716
1690840657578813200,7.599813232421875,0.18464345068931579,0.00026886180294677614,0.012089597745728679
1690840657588853200,7.609853271484375,0.17985563189089296,0.0023963570846244693,0.01673298940504901
1690840657598894000,7.61989404296875,0.17835867133140562,-0.00765645130360499,0.014703520270902663
1690840657608934100,7.62993408203125,0.18673603905439376,-0.0017735672774724662,0.004417500206775731
1690840657618974200,7.63997412109375,0.18404022409915924,0.0027956586005166172,0.007692897156742401
1690840657629015300,7.650015380859375,0.18688275404870508,0.0035139812040142714,0.009513532146066426
1690840657639055400,7.660055419921875,0.17880232344567776,0.0062063803594559425,0.007569759400840848
1690840657649095200,7.67009521484375,0.17984861762821674,0.0022612594628706574,0.016103705925028772
1690840657659166200,7.680166259765625,0.1820902590751648,-0.002784844945557415,0.007146739082643762
1690840657669208800,7.690208740234375,0.17864976323246956,-0.004691701480187475,0.013070352411386555
1690840657679249000,7.700248779296875,0.18358955772221086,-0.0019171952655538916,0.016107756479061208
1690840657689289700,7.710289794921875,0.18493395806849003,-0.001868570350855589,0.015798658563848583
1690840657699329800,7.720329833984375,0.18134324010014533,-0.01036760995844379,0.01877284293589182
1690840657709369600,7.73036962890625,0.18089432728886604,-0.008281506133079528,0.016595626760972662
1690840657719410700,7.74041064453125,0.17580547971725463,-0.006086114980652928,0.017818058395129628
1690840657729450800,7.75045068359375,0.1786474251449108,-0.003723879361338913,0.016796094936248847
1690840657739490800,7.76049072265625,0.1792442219942808,-0.00021358795175328849,0.012105078442650847
1690840657749531000,7.77053076171875,0.190763979396224,0.0040481063470244405,0.0072659176160581405
1690840657759571700,7.78057177734375,0.1873217299878597,0.003729231389891356,0.012184737816429696
1690840657769611800,7.79061181640625,0.17983868075609205,0.003973652871325612,0.019575167728145607
1690840657779651800,7.80065185546875,0.1831312925606966,-0.0025851941876113413,0.01644034829264856
1690840657789693000,7.81069287109375,0.18283201735317706,-0.007666369909420609,0.015386930249579017
1690840657799732700,7.820732666015625,0.18671908791959285,-0.0018077070090919732,0.012941899159550666
1690840657809803800,7.8308037109375,0.18058569973111152,-0.0035289961100555952,0.009881776369991711
1690840657819843800,7.84084375,0.1837269203662872,0.006137680771108716,0.01321766448567505
1690840657829884000,7.8508837890625,0.18507482784390447,0.0005185257150791585,0.022576034611137583
1690840657839924700,7.8609248046875,0.18014087857306002,0.001570573784969747,0.014352035385533235
1690840657849964800,7.87096484375,0.17939385959804058,0.002963781709037721,0.00928971049466636
1690840657860004600,7.881004638671875,0.18702303930222988,-0.0044705512764863665,0.011891380893043242
1690840657870044700,7.891044677734375,0.18327917659878729,-0.00008314823880791664,0.012822583628818392
1690840657880085800,7.901085693359375,0.17250643817186354,-0.00842834899155423,0.024528885711962357
1690840657890125800,7.911125732421875,0.17415303633511064,0.00672543579749763,0.012280914500169455
1690840657900166000,7.921165771484375,0.1832826837301254,0.007400047123432159,0.012107160801882856
1690840657910206700,7.931206787109375,0.17744798622727392,-0.009007865912560373,0.021366389393317513
1690840657920246800,7.941246826171875,0.1894184100061655,-0.013376783445477484,0.019511495941365135
1690840657930286600,7.95128662109375,0.18043956925868987,-0.007406823924090713,0.014458098709047771
1690840657940326700,7.96132666015625,0.18014029405117035,-0.00681826518010348,0.016555331283202395
1690840657950367700,7.97136767578125,0.176550745126605,-0.00958787602391094,0.017745911040948702
1690840657960437800,7.981437744140625,0.17505553813278674,0.0015191175923682748,0.014999552066921024
1690840657970478800,7.991478759765625,0.18792320301234722,0.00043762423228472467,0.012686284997244364
1690840657980519000,8.001518798828124,0.18448270716965198,-0.0011634725551120937,0.012218821607477729
1690840657990559000,8.01155908203125,0.17789865260422227,-0.005036423264630139,0.013707622835040092
1690840658000599800,8.021599853515625,0.181039873239398,-0.0039006972329691052,0.02319469166586641
1690840658010639600,8.0316396484375,0.17939444411993025,-0.0008817695369012653,0.014675084194284862
1690840658020679700,8.0416796875,0.16742518938481807,-0.004256981591042131,0.016370480802166274
1690840658030719700,8.0517197265625,0.17505846074223516,-0.00015593948038294912,0.014333841000072425
1690840658040760800,8.0617607421875,0.18822773891687392,-0.0013080138586461544,0.009503388636320597
1690840658050801000,8.07180078125,0.18253975640833378,-0.000006009615678340196,0.014229820078238845
1690840658060841000,8.081841064453124,0.1793973667293787,-0.0037600649195723233,0.013707270066946511
1690840658070881800,8.0918818359375,0.1855313394397497,-0.002751837725099176,0.019430740589043125
1690840658080921600,8.101921630859374,0.18119301797449588,0.00045061157802119846,0.020072705454123204
1690840658090961700,8.111961669921875,0.17475977005660534,0.002282028256263584,0.012331361479195765
1690840658101001700,8.122001708984374,0.17715455623865126,0.004095306489616632,0.010868874011468141
1690840658111072800,8.13207275390625,0.17296587237715721,-0.002588756117876619,0.01360983414952643
1690840658121112800,8.14211279296875,0.18089841894209382,0.005571132929529994,0.01772362157732714
1690840658131154000,8.15215380859375,0.1722211914896965,0.004897434919048101,0.021645073903957382
1690840658141194000,8.162194091796875,0.17237433622479437,0.001291775109898299,0.01368203173605725
1690840658151233800,8.17223388671875,0.18494564850628376,-0.0014968509616330266,0.012664433925040066
1690840658161274600,8.182274658203125,0.18434534452557563,-0.004698679210245609,0.00439847242096439
1690840658171314700,8.192314697265624,0.18539339227378368,0.0027954576711170373,0.013202915582759305
1690840658181354800,8.202354736328125,0.18404899192750454,0.004091762825660407,0.015627978172060103
1690840658191394800,8.212394775390624,0.18255378493368624,0.0018848273659124969,0.009289165930327727
1690840658201436000,8.222435791015625,0.17492051357626914,-0.0019197708151303232,0.01565849660790991
1690840658211476000,8.23247607421875,0.17252689643800256,-0.005770126100350171,0.011855999052408151
1690840658221515800,8.242515869140625,0.1762684210538864,-0.0033682160577736793,0.01506250233449391
1690840658231556600,8.252556640625,0.18809037627279757,-0.0028953926479443905,0.012804128948453581
1690840658241596700,8.2625966796875,0.18794190771281719,-0.011077420461922883,0.018618897908128564
1690840658251636700,8.27263671875,0.18824352100789546,-0.0009456650859676301,0.003302133118198253
1690840658261707800,8.282707763671874,0.1873474489510059,-0.004034808474034071,0.009140898299746913
1690840658271747800,8.292747802734375,0.1891431001961231,-0.0013399981657974422,0.005812950320279924
1690840658281789000,8.302788818359375,0.17537644065022467,0.001658544329367578,0.01262995170012582
1690840658291829000,8.3128291015625,0.17986673780679702,0.0017211977694183587,0.011455149466823786
1690840658301868800,8.322868896484374,0.19228607439696788,-0.0026417466804385184,0.012270041479705833
1690840658311908600,8.33290869140625,0.19497896674275397,-0.002675685482658446,0.015805892022233457
1690840658321949700,8.34294970703125,0.18180910404622555,-0.004678659335523844,0.006571336647751741
1690840658331989800,8.35298974609375,0.18180910404622555,0.003105875327158719,0.012330302033270709
1690840658342029800,8.36302978515625,0.18270926775634289,-0.00623829160137102,0.015315459890477359
1690840658352071000,8.37307080078125,0.18405600619018075,0.003051259063091129,0.01940709941855166
1690840658362111000,8.383111083984375,0.18645020785033703,-0.004731540300231427,0.021665294708078726
1690840658372150800,8.39315087890625,0.1773234830647707,-0.009025620764959602,0.0069603770645335315
1690840658382190600,8.403190673828124,0.173732765096426,0.00028606866607442494,0.02182958189169876
1690840658392231700,8.413231689453125,0.17313538372516632,0.004053513174504041,0.012511361113534075
1690840658402271700,8.423271728515624,0.1900415103405714,-0.0014517149119637905,0.01700680480268202
1690840658412342800,8.4333427734375,0.1800152063667774,0.0007851590283215045,0.010666460474277845
1690840658422382800,8.4433828125,0.1849520782470703,-0.003766805187612772,0.006105226106499322
1690840658432423000,8.4534228515625,0.1761205370157957,-0.005828834017645567,0.01004967571622692
1690840658442464000,8.463464111328125,0.18255787658691405,-0.0001835581396706402,0.010622647590370616
1690840658452503800,8.47350390625,0.18091653912067412,-0.004463336084410548,0.010342644480546004
1690840658462543600,8.483543701171875,0.17149053912758827,-0.003822298234514892,0.012379195234383222
1690840658472583700,8.493583740234374,0.1821148089945316,0.0005325725067406893,0.015958653164841234
1690840658482624800,8.503624755859375,0.1744867983341217,0.005747092284634709,0.012902941688918508
1690840658492664800,8.513664794921874,0.1809212152957916,-0.0023319500789046287,0.005971608055778779
1690840658502705000,8.523704833984375,0.18525953676104545,0.0019692725126631556,0.01811646138639189
1690840658512746000,8.53374609375,0.17717676807045935,-0.0009703976684249936,0.009328215874149464
1690840658522785500,8.54378564453125,0.18376023811399936,0.0033402138059958814,0.010819558401958784
1690840658532825600,8.55382568359375,0.18899638520181178,-0.005232932217419147,0.009299029737216188
1690840658542865700,8.56386572265625,0.16834522683918476,-0.004070391244068741,0.01659953575110994
1690840658552906800,8.57390673828125,0.1702905156880617,0.0032645912865176797,0.012002577049401587
1690840658562977800,8.583977783203125,0.1788216126680374,-0.0016203129445202648,0.012117566889821319
1690840658573017900,8.594017822265625,0.18615210168659685,0.0005608670194633305,0.012221588953299214
1690840658583058000,8.604057861328124,0.1837579000264406,0.003566825636103749,0.008268126061698421
1690840658593097700,8.61409765625,0.18091478555500506,0.0013278693365864455,0.011805058883037418
1690840658603138600,8.624138671875,0.17253215713500974,-0.0013322897833772003,0.009221750691835768
1690840658613178600,8.6341787109375,0.18001403732299803,-0.001190031768474728,0.005198486525123007
1690840658623218700,8.64421875,0.1842021366626024,0.0020501922617666424,0.003158797391061671
1690840658633258800,8.6542587890625,0.18555062866210936,0.0010644874263554811,0.009365995167847722
1690840658643299800,8.6642998046875,0.1753752716064453,-0.0010182371318340302,0.009870044833002611
1690840658653340000,8.67433984375,0.18345219507813454,-0.00295634732125327,0.005778569701709784
1690840658663379700,8.684379638671874,0.18214812674224376,-0.0035805619005113837,0.011356369834044016
1690840658673421600,8.694421630859376,0.42702538911998267,-0.06020458559393883,-0.08680414923327043
1690840658683461600,8.704461669921875,-0.15264496888220308,0.10783279913878067,-0.5576061910364777
1690840658693501700,8.714501708984375,0.16146891132891178,-0.06884677826557307,0.8594256762113421
1690840658703541800,8.724541748046875,0.3210948251396417,0.08970883943252266,-0.03977501125985291
1690840658713612800,8.73461279296875,-0.19839666623175142,-0.0231083057237789,0.5877782246014103
1690840658723654000,8.74465380859375,0.23811025246083736,-0.15112725779563188,0.1665093166489154
1690840658733693700,8.754693603515625,0.12318915729522704,0.003800890120305121,-0.007403170662280171
1690840658743733800,8.764733642578125,0.25277999832630155,-0.060417826485820114,-0.11281997643420472
1690840658753773600,8.774773681640625,0.25010405711531636,-0.04207984043639153,-0.1746465372067876
1690840658763814700,8.784814697265626,0.20704817472100256,-0.036599838122725485,-0.2232095291174017
1690840658773854700,8.794854736328125,0.3214408620983362,0.0011388495705090462,-0.16043430758416652
1690840658783894800,8.804894775390625,0.18221768484711645,0.029429234107304362,-0.07788511238163337
1690840658793936000,8.814935791015625,0.24683248809874056,0.06650425199372693,0.0253524587882217
1690840658803975700,8.8249755859375,0.09196458247005938,0.0880970933869481,0.16534122271761298
1690840658814015700,8.835015625,0.25390169583261013,0.09613405017443001,0.26576418399130924
1690840658824055600,8.8450556640625,0.053149990907311435,0.09740934907356276,0.2856769998757169
1690840658834096600,8.8550966796875,0.18176877203583716,0.08504603525325656,0.24869696679636835
1690840658844136700,8.86513671875,0.18276187472641467,0.053722237837314606,0.15690927526317536
1690840658854176800,8.8751767578125,0.1381266141861677,0.0346884332771413,0.04819372020680457
1690840658864247800,8.885247802734375,0.2631815653532743,0.0104895375713706,-0.03508508617822081
1690840658874287600,8.89528759765625,0.18158640120625494,0.0038870705664157865,-0.09954835212994366
1690840658884328700,8.90532861328125,0.2835954078286886,-0.007304514327086508,-0.12163040181221439
1690840658894368800,8.91536865234375,0.19255729255378246,-0.02488463121391833,-0.09307047961903736
1690840658904408600,8.92540869140625,0.19846154816150663,-0.022031013614777474,-0.04317555411807261
1690840658914448600,8.93544873046875,0.16632979536354542,-0.019487539677042514,0.030457061051391062
1690840658924489700,8.94548974609375,0.13297522277235985,-0.03391841701902449,0.11395808621919713
1690840658934529800,8.95552978515625,0.11515081226825713,-0.04014152931757271,0.16306326784826813
1690840658944569600,8.965569580078125,0.14085165523588655,-0.04114065989013761,0.1746403997269459
1690840658954610700,8.975610595703126,0.12418167546391487,-0.04184683539811521,0.15512966183740645
1690840658964650800,8.985650634765625,0.12455284686386585,-0.03671522639701143,0.10546902001635171
1690840658974690600,8.995690673828125,0.22098376109302043,-0.029649123935680834,0.04959920309055596
1690840658984730600,9.005730712890625,0.15535656592845914,-0.021914492829330265,0.0038776451509445905
1690840658994771700,9.015771728515626,0.22874328917860984,-0.000703746088873595,-0.024293035696051082
1690840659004811800,9.025811767578125,0.20188275478184223,0.017600684750825164,-0.0311767992938403
1690840659014882600,9.035882568359375,0.20810499029755591,0.019413451527524737,-0.025405483600113073
1690840659024922600,9.045922607421875,0.20880583204329012,0.018838446384854615,0.012973353743739426
1690840659034962700,9.055962646484375,0.18513152646720407,0.030552794777136294,0.03927966092438437
1690840659045003800,9.066003662109376,0.21160276928544045,0.032784645482432095,0.06917740759258158
1690840659055043600,9.076043701171875,0.16926292620599268,0.03695144630568102,0.09752820794656872
1690840659065083600,9.086083740234375,0.1727268029242754,0.04261175535600632,0.10827323638265952
1690840659075124700,9.096124755859375,0.19206570964455602,0.04224279417945072,0.09391954332957975
1690840659085164800,9.106164794921876,0.19002046755254268,0.04222458266932517,0.06989256099145859
1690840659095204600,9.11620458984375,0.1772095012962818,0.030383685287926343,0.05462947060903534
1690840659105244700,9.12624462890625,0.21423370231091976,0.02392501066783443,0.0320383822759497
1690840659115285800,9.13628564453125,0.18900281494259832,0.016629885223601013,0.007223222401936073
1690840659125325600,9.14632568359375,0.1922024877667427,0.0023678981751203538,0.0006732504859101026
1690840659135365600,9.15636572265625,0.1968950294971466,-0.003832472568657249,0.004541079779027495
1690840659145405700,9.16640576171875,0.17239654805660246,-0.0194310785157606,0.019122800301166715
1690840659155446800,9.17644677734375,0.18932956267893314,-0.020543186209816485,0.03848124512226786
1690840659165517600,9.186517578125,0.15971066948473453,-0.022192305123712865,0.07347106793220154
1690840659175557600,9.1965576171875,0.17571370978057382,-0.023834227111842483,0.08566476080664433
1690840659185597700,9.20659765625,0.1647697064399719,-0.03098934129718691,0.08681068857191131
1690840659195637800,9.2166376953125,0.15471242280602454,-0.024472287553362546,0.07901680155899375
1690840659205678600,9.2266787109375,0.1783154167115688,-0.02455978317372501,0.0590858106970787
1690840659215718700,9.23671875,0.1821633243113756,-0.019374745218642055,0.04128305490235798
1690840659225758700,9.2467587890625,0.1695499264538288,-0.011887001545447855,0.02291115973346168
1690840659235799800,9.2567998046875,0.1841723260462284,-0.001481543794646859,0.016985749456565825
1690840659245839600,9.266839599609375,0.19595102664530276,0.0005081504515372216,0.025650948544451966
1690840659255879700,9.276879638671875,0.18723405170440674,0.020144250020105392,0.024721312144678084
1690840659265919700,9.286919677734375,0.19393910230100153,0.020394626318290827,0.041730424210522324
1690840659275960600,9.296960693359376,0.18868483503460884,0.025143044688086955,0.05192537188264541
1690840659286000600,9.307000732421875,0.19930033707320688,0.027938685022294518,0.0593597048681695
1690840659296040700,9.317040771484375,0.18419103074669838,0.026595143192540853,0.06148954737056046
1690840659306081800,9.327081787109375,0.18016484397053717,0.032958814739249644,0.05863323549083434
1690840659316151600,9.337151611328125,0.19769640900790691,0.027882059464231133,0.057942157087288795
1690840659326192600,9.347192626953126,0.18919687620997427,0.013871161099988967,0.056052397817932066
1690840659336232700,9.357232666015625,0.20104922656714916,0.014595383721310645,0.03624844000232406
1690840659346272800,9.367272705078125,0.19854279670417307,0.017004764684289693,0.03684026613234309
1690840659356312800,9.377312744140625,0.18586042526364324,0.014467446492705493,0.03696899794539204
1690840659366353700,9.387353759765626,0.19008242687284946,0.004559106342773884,0.03420633286560187
1690840659376393700,9.397393798828125,0.18187807762920855,0.0013037395423278213,0.035262835631612685
1690840659386433500,9.40743359375,0.18070143506526945,-0.0018402758381329475,0.04482901128036901
1690840659396474600,9.417474609375,0.18131109139621257,-0.007732859274372458,0.04058200309406966
1690840659406514700,9.4275146484375,0.17817337789237497,-0.013123886396642774,0.04892622659928165
1690840659416554800,9.4375546875,0.18190905728936194,-0.006574811813049018,0.05353225452343467
1690840659426594800,9.4475947265625,0.17501228351294992,-0.008718618908710778,0.053155164839350615
1690840659436635600,9.4576357421875,0.1745481731325388,-0.010626881949137896,0.050649771589413285
1690840659446675700,9.46767578125,0.18455168075263498,-0.0054701019741594786,0.04498824782953598
1690840659456715500,9.477715576171875,0.18078619073927402,-0.003538293661363423,0.04078830735508818
1690840659466786600,9.48778662109375,0.17941081073284149,0.007215867929253727,0.04752210455555469
1690840659476826600,9.49782666015625,0.19270400754809378,0.00676810589544475,0.04299515604986809
1690840659486867700,9.50786767578125,0.19133388823866843,0.006194269796553999,0.035226853286067485
1690840659496907800,9.51790771484375,0.18772271200418472,0.014141465941350906,0.04605671731126494
1690840659506947800,9.52794775390625,0.1936930185854435,0.013440386733599007,0.04087420923998579
1690840659516988700,9.53798876953125,0.187848968732357,0.02314069188972935,0.05299849927318282
1690840659527028700,9.54802880859375,0.19353519767522812,0.0267159748269245,0.04728241404816508
1690840659537068500,9.558068603515625,0.18845277984440326,0.018521653786953536,0.05129200588255189
1690840659547108600,9.568108642578125,0.18741291540265081,0.018508739506453275,0.05440198199609294
1690840659557149700,9.578149658203126,0.1887736823618412,0.011990297523140906,0.04673782231006771
1690840659567189800,9.588189697265625,0.17876783665418625,0.018992413103859872,0.046153473950317124
1690840659577229800,9.598229736328125,0.18731296215951443,0.013003310490585862,0.04082197672924958
1690840659587270700,9.608270751953125,0.17775778282880783,0.008254709457699209,0.041551281951065173
1690840659597310700,9.618310791015626,0.17672960882484912,0.005530563457123935,0.03931670043256599
1690840659607350500,9.6283505859375,0.18722177674472332,0.0019704415564425286,0.030735046875709666
1690840659617421600,9.638421630859375,0.17810265074372292,0.00696353713599965,0.03518312602548394
1690840659627461600,9.648461669921875,0.18364800991117952,0.000671834846958518,0.0317141210409347
1690840659637501700,9.658501708984375,0.17781681953966616,-0.007986742703896016,0.03669168569121975
1690840659647542800,9.668542724609376,0.1766167961001396,-0.000013864128571003675,0.035961110960925
1690840659657582800,9.678582763671875,0.18738544287383554,0.0008256006365641951,0.03923859826163389
1690840659667622700,9.68862255859375,0.1719640018582344,-0.002801302890013903,0.048476578569062984
1690840659677646800,9.698646728515625,0.19289923785924912,-0.0011050203661434352,0.05693103011625353
1690840659687687000,9.70868701171875,0.1924327893912792,0.0024375658778473734,0.05211592145210597
1690840659697726700,9.718726806640625,0.19106734625697136,0.012535181522183119,0.0466815346787218
1690840659707766800,9.728766845703126,0.18401859678924082,0.010470723273046314,0.055307990925107145
1690840659717807900,9.738807861328125,0.1721820285230875,0.010679196658264846,0.054196559084486215
1690840659727848000,9.748847900390626,0.18069675889015197,0.01299087113412097,0.030135774941463023
1690840659737887700,9.7588876953125,0.19250585462749004,0.009403568965569138,0.02898181000021286
1690840659747928800,9.7689287109375,0.19295009126365184,0.008944500086456537,0.025417130655422806
1690840659757969000,9.778968994140625,0.1889127985715866,0.0011063172740861773,0.030682056313147767
1690840659768039700,9.789039794921875,0.19056699551939962,0.012437328904587775,0.03540530370906927
1690840659778079700,9.799079833984376,0.16677753913104534,0.007882734340149909,0.034427763913804664
1690840659788119800,9.809119873046875,0.19117489828467368,0.011080361337680368,0.046669131854875014
1690840659798160000,9.819159912109376,0.19013328027725218,0.012183080148883163,0.04472977955644019
1690840659808201000,9.829200927734375,0.18116729901134968,0.008591832457575947,0.057046651285979896
1690840659818240800,9.83924072265625,0.1638204428911209,0.007655665852315723,0.05767655582050792
1690840659828280800,9.84928076171875,0.18223697406947612,0.009749404994864016,0.05552197160250507
1690840659838322000,9.859322021484376,0.17880232344567776,0.010343936821911483,0.0472725776407402
1690840659848361700,9.86936181640625,0.1786614536702633,-0.0069744786551222205,0.045288340454385616
1690840659858401800,9.87940185546875,0.18240648541748522,0.0012725589527748525,0.033287398239644245
1690840659868441900,9.88944189453125,0.18719722682535647,0.004669124322198331,0.02782978585429955
1690840659878483000,9.89948291015625,0.18974223513305186,-0.0014353300327435135,0.02800268560263794
1690840659888522800,9.909522705078125,0.16265490624308584,-0.0012962686219252645,0.037832919015060175
1690840659898562800,9.919562744140626,0.1894347766190767,0.0068571724183857435,0.04400090815946459
1690840659908604000,9.92960400390625,0.1865817252755165,-0.0038817368041723964,0.04690173503435217
1690840659918673700,9.939673583984375,0.1665215185433626,-0.0034605887826532123,0.06101543618594296
1690840659928714800,9.94971484375,0.19329788178801535,0.003691931586805731,0.05920757391322404
1690840659938754800,9.9597548828125,0.17922434825003147,0.000904328428581357,0.05823844575327821
1690840659948795000,9.969794921875,0.17906360473036764,0.0018614099577069282,0.05240331899216398
1690840659958836000,9.9798359375,0.1825029315292835,0.012282668065838515,0.03687494700336828
1690840659968875800,9.989875732421876,0.18938100060522556,0.00867333672856912,0.027274631622992453
1690840659978915600,9.99991552734375,0.18698036920428274,0.0016966843826696275,0.024604060706868765
1690840659988955600,10.00995556640625,0.18219021231830118,0.010889898533187807,0.023847698514768853
1690840659998996700,10.019996826171875,0.18847440715432165,0.0070827065362595015,0.03268622660925612
1690840660009036800,10.030036865234376,0.1934130326002836,0.008262363041192293,0.031023389697261154
1690840660019076900,10.040076904296875,0.16902444127500058,0.009060253686923533,0.04269864818817004
1690840660029117700,10.05011767578125,0.1774099923044443,0.004159987489972264,0.046202053199242796
1690840660039157800,10.06015771484375,0.188934425881505,0.0063566207514144475,0.04898998515103012
1690840660049197800,10.07019775390625,0.1748743363469839,0.01526429595882073,0.051078363131871446
1690840660059237600,10.080237548828125,0.1768254704147577,0.00457251381361857,0.04513644239488058
1690840660069308700,10.09030859375,0.17593173644542692,0.0006974076796323061,0.04704065944785252
1690840660079348700,10.1003486328125,0.1756365528911352,0.0049059835516847665,0.03690431009517051
1690840660089389800,10.110389892578125,0.18626432988941669,0.003992467169649899,0.03126776551292278
1690840660099430000,10.120429931640626,0.18895956032276154,0.009740838095918298,0.026182954795612022
1690840660109470000,10.130469970703125,0.19434768310189246,0.012458243828453123,0.03609492994104512
1690840660119510800,10.1405107421875,0.19240122520923614,0.005345525746420026,0.02920391005198471
1690840660129550600,10.150550537109375,0.17892799565196035,0.0028592070897109803,0.034712837066035715
1690840660139590700,10.160590576171876,0.17443536040782928,-0.001183876022323966,0.04435525628877803
1690840660149630700,10.170630615234375,0.18281155908703803,0.0015201770382933318,0.04189590783738531
1690840660159671800,10.180671875,0.18191256442070006,0.008643379981722682,0.04532264914936386
1690840660169711900,10.1907119140625,0.18220599440932272,0.006062003452703356,0.04847797137512825
1690840660179752000,10.200751953125,0.18219898014664648,0.007305208446830511,0.04750856922054663
1690840660189792800,10.210792724609375,0.18024609251320362,0.009591529285721481,0.03548162034829147
1690840660199832800,10.220832763671876,0.18682430185973642,0.011760123762767761,0.03807267802110873
1690840660209872600,10.23087255859375,0.18248130421936512,0.014479155196808279,0.032791330951545385
1690840660219943700,10.240943603515625,0.190861010029912,0.009814999310672283,0.03415773306707851
1690840660229983700,10.250983642578126,0.18502280539572238,0.007771784778963774,0.03188914881427772
1690840660240024800,10.26102490234375,0.1778407849371433,0.007316606623679399,0.03354979376918636
1690840660250065000,10.27106494140625,0.19505203197896478,0.0014389832945540546,0.036386423700908194
1690840660260105000,10.28110498046875,0.17814765892922876,0.006084270083438605,0.050155530932219694
1690840660270144800,10.291144775390626,0.18488894988298415,0.01609115697070956,0.042905623736046256
1690840660280185600,10.301185546875,0.17920798163712023,0.004901069914549589,0.0484990598289296
1690840660290225700,10.3112255859375,0.17951251754164696,0.005682411284279078,0.044060693788994104
1690840660300265700,10.321265625,0.18370412401258945,0.006803706931788474,0.04133531481255777
1690840660310305800,10.331305908203126,0.1964250738978386,0.008674852832220494,0.03633781705251895
1690840660320347000,10.341346923828125,0.15841244636774063,0.009262023336719721,0.032042896337574345
1690840660330387000,10.351386962890626,0.19971184048354623,0.002217566451616585,0.03409625780396163
1690840660340427000,10.361427001953125,0.16469430311620234,-0.00041859073825180527,0.03351589149958454
1690840660350467800,10.3714677734375,0.19626549942195415,0.004433214940782636,0.026730514808930454
1690840660360507600,10.381507568359375,0.21152736596167088,-0.008652787130884826,0.03010785488807596
1690840660370578700,10.39157861328125,0.11366320405900478,0.005670793911721557,0.038399562754761425
1690840660380618800,10.40161865234375,0.23007950621843337,-0.003389222313184291,0.04439888536795042
1690840660390658800,10.411658935546875,0.14313479773700236,0.005688092106394469,0.05053917822125367
1690840660400700000,10.421699951171876,0.2285749468743801,0.009620919776987284,0.04518426359198056
1690840660410740000,10.431739990234375,0.15135668263733387,0.014216485672630369,0.05521655891514383
1690840660420779800,10.44177978515625,0.18771219061017036,0.005447470017243177,0.046207843619212506
1690840660430819800,10.45181982421875,0.17439269030988216,0.0021113478644751013,0.03980617814967408
1690840660440860700,10.461860595703126,0.18007891925275324,-0.0001140731000341475,0.04503387706954963
1690840660450900700,10.471900634765625,0.19669278492331504,0.0069340187805704764,0.03336635436052456
1690840660460940800,10.48194091796875,0.18203414497375486,0.010298197984043508,0.02953962654606439
1690840660470982000,10.49198193359375,0.18862638284564018,0.005185385014954954,0.03020752500342205
1690840660481022000,10.50202197265625,0.16768647066950798,-0.002263962876610458,0.020312290930235757
1690840660491062000,10.51206201171875,0.21378537402153014,0.0011018237620592116,0.018925238752318545
1690840660501101800,10.522101806640626,0.15363690252900122,0.0036853922481648624,0.03138062390340492
1690840660511142700,10.532142578125,0.2079576907813549,-0.001466035698261112,0.03873028341331519
1690840660521213000,10.542212890625,0.17024843011200427,-0.001187291822116822,0.04901881851986982
1690840660531253800,10.552253662109376,0.16994506325125694,0.002098689312301576,0.05004040751941502
1690840660541293800,10.5622939453125,0.1617033046066761,0.016032375988177954,0.05211782571482472
1690840660551334000,10.572333984375,0.17485446260273454,0.01482002279004082,0.053938794064288954
1690840660561375000,10.582375,0.20416823537051676,0.01876280559906736,0.048315118096768854
1690840660571414800,10.592414794921876,0.18619769439399242,0.016176570231840014,0.04776246178322471
1690840660581454800,10.602454833984375,0.17945698796212672,0.009356003496795893,0.03521745298677124
1690840660591495000,10.612494873046876,0.19921090522408486,0.0011917853341437876,0.02613643050645478
1690840660601535700,10.62253564453125,0.20251345390081404,0.0017241021125577389,0.026714687052136286
1690840660611575800,10.632575927734376,0.1615291170835495,0.002763053238857537,0.02266296397591941
1690840660621615900,10.642615966796875,0.2071826147556305,0.008475037677492947,0.02952315033529885
1690840660631657000,10.652656982421876,0.17068097631037235,0.007919741882290691,0.030512097440566866
1690840660641696800,10.66269677734375,0.1780155569821596,0.010675707793235779,0.04489763780348003
1690840660651736800,10.67273681640625,0.18609423401951788,0.014497330174315719,0.04805390074416063
1690840660661777000,10.68277685546875,0.1555605640679598,0.012877766148466616,0.05173795955176465
1690840660671843800,10.69284375,0.18607962097227573,0.00589899491071701,0.043049617050308735
1690840660681884700,10.702884765625,0.1612368561387062,0.002814125838968903,0.04619800721178762
1690840660691924700,10.7129248046875,0.19371113876402377,-0.004108019840717315,0.03661309032994322
1690840660701964800,10.72296484375,0.19431611891984937,-0.004624207468237727,0.03392595187150873
1690840660712004900,10.7330048828125,0.1739765107244253,-0.0015121946612372994,0.029859971941076216
1690840660722046000,10.7430458984375,0.1802723959982395,-0.0018641681703738867,0.036962497422657906
1690840660732085800,10.753085693359376,0.19793489393889901,0.0020503201259300112,0.021686383161880075
1690840660742125800,10.763125732421875,0.17638298734426497,0.010709829258546232,0.030054133673151955
1690840660752166000,10.773165771484376,0.17816928623914718,0.01289426062554121,0.03884782711206935
1690840660762206700,10.783206787109375,0.18459201276302337,0.016194562546256928,0.04238558191731572
1690840660772246800,10.793246826171876,0.16766951953470707,0.01179859260963276,0.046870033854991194
1690840660782286800,10.803286865234375,0.18366963722109794,0.003481174912955612,0.045149192278599364
1690840660792328000,10.813327880859376,0.17513444858789443,-0.001521273016836494,0.053572901627654206
1690840660802368000,10.823367919921875,0.18845394888818262,0.005155976257380098,0.04903468280928209
1690840660812407800,10.83340771484375,0.18037994802594184,0.004651004143618047,0.04080149106364697
1690840660822478800,10.843478759765626,0.18248422682881354,0.011145809523016213,0.029658293622825294
1690840660832519000,10.853518798828125,0.19745383242368697,0.013456114025693387,0.0181511217078194
1690840660842559700,10.863559814453126,0.17905542142391204,0.010378113086149096,0.024408839528867972
1690840660852599800,10.873599853515625,0.1750181287318468,0.016317677469272165,0.02603178282189183
1690840660862639900,10.883639892578126,0.17382102790176868,0.012993117890134452,0.037656534968269983
1690840660872679700,10.8936796875,0.1760597467392683,0.013233813044521956,0.04694070620471611
1690840660882720800,10.903720703125,0.18054361415505407,0.012724383951351045,0.04927928695380687
1690840660892760800,10.9137607421875,0.17725158687233925,0.008990403321105987,0.04943269655038603
1690840660902801000,10.92380078125,0.1733662698715925,0.0018633644527755676,0.039564067356335
1690840660912841700,10.933841796875,0.19027882622778414,0.002010663968976587,0.04064154212842695
1690840660922881800,10.9438818359375,0.1769692627996206,0.004117719250824302,0.034278299839980896
1690840660932921900,10.953921875,0.18550737404227255,0.0026466968501918015,0.02760880461395718
1690840660942961700,10.963961669921876,0.1900023473739624,0.004645231989957392,0.03371271097962744
1690840660953002800,10.974002685546875,0.1692015514075756,0.013874595166090875,0.03273820339166559
1690840660963042800,10.984042724609376,0.1784732376217842,0.0040591026650741695,0.02423049642043188
1690840660973113900,10.99411376953125,0.18160685947239397,0.004479867094103246,0.03194899837588891
1690840660983154000,11.00415380859375,0.17920038285255432,0.008508720751386135,0.038166941308975216
1690840660993194000,11.014194091796876,0.1815887392938137,0.004414364109840244,0.044268308657687154
1690840661003234800,11.02423486328125,0.17724807974100112,0.0058643254561349745,0.0436630727735348
1690840661013275000,11.03427490234375,0.18562895459532736,0.0054696635827422135,0.04541657451051287
1690840661023314700,11.044314697265625,0.18772972626686096,0.0050731202795170245,0.039957158327149224
1690840661033354800,11.054354736328126,0.1793535275876522,0.00462733100708574,0.034548723412351684
1690840661043395800,11.064395751953125,0.18713819011449812,0.013866210930235684,0.037588648230675606
1690840661053436000,11.074435791015626,0.18160042973160742,0.013976356773823499,0.04405343293114565
1690840661063476000,11.08447607421875,0.17815759580135346,0.0061334612537175415,0.03715805652737617
1690840661073516800,11.094516845703126,0.18294132294654844,0.008810480176936834,0.03465814773673191
1690840661083556900,11.104556884765625,0.17425708123147488,0.014749934962205589,0.036297877767775204
1690840661093596700,11.1145966796875,0.1791962911993265,0.011798428212851285,0.03758978074183687
1690840661103636700,11.12463671875,0.18593290597796439,0.012803221341222524,0.0375467453177087
1690840661113677800,11.134677734375,0.17890344573259354,0.005608122205361723,0.04490291676679626
1690840661123748900,11.144748779296876,0.18040800507664678,0.00589899491071701,0.04013694447400048
1690840661133789000,11.154788818359375,0.1898462800294161,0.011240684732235967,0.03469615992587059
1690840661143829000,11.1648291015625,0.18461831624805927,0.0030547844607383013,0.03041031756652519
1690840661153868800,11.174868896484375,0.1798322510153055,0.0047753794419579205,0.0270290319646243
1690840661163910000,11.184909912109376,0.1825245588392019,0.00592869592923671,0.03912552067544311
1690840661173949700,11.19494970703125,0.16890286072194574,0.009952343688439577,0.03779067360879853
1690840661183989800,11.20498974609375,0.17667700185477733,0.011474164694547652,0.04488094239700585
1690840661194030800,11.21503076171875,0.16664251457452772,0.011616240046359598,0.03778822592338547
1690840661204071000,11.22507080078125,0.17531565037369726,0.00047713425876572726,0.03492468058527447
1690840661214111000,11.235111083984375,0.1768079347580671,0.0025622699697501958,0.03386503373081796
1690840661224150800,11.24515087890625,0.1754617808461189,0.00289289016360417,0.02637069592005573
1690840661234192000,11.25519189453125,0.18249591726660727,0.00024175460031256079,0.033971060521714384
1690840661244231700,11.265231689453126,0.1884820059388876,0.01072966647017747,0.03154745923713781
1690840661254271700,11.275271728515625,0.18683774586319923,0.007327767338510602,0.03158387312423438
1690840661264311800,11.285311767578126,0.1856406450331211,0.005389328355528414,0.03694652353539132
1690840661274382800,11.2953828125,0.18249650178849697,0.009948946154955774,0.04191023775683716
1690840661284424000,11.305423828125,0.18204408184587956,0.017308697800617664,0.045008386435266584
1690840661294464000,11.315464111328126,0.17859774078428745,0.01759032775359228,0.04017275557289831
1690840661304503800,11.32550390625,0.16871873632669449,0.02032070256555453,0.02926814352776855
1690840661314543600,11.335543701171876,0.17709961118102072,0.01378510851804167,0.02756765975281596
1690840661324584700,11.345584716796875,0.18683131612241266,0.0018620310122147202,0.03394803583915345
1690840661334624800,11.355624755859376,0.18190087398290633,0.0020057320655323565,0.03655709495954215
1690840661344664800,11.365664794921875,0.17981179274916648,0.0026670272521674633,0.027690729010058566
1690840661354706000,11.375705810546876,0.18684885177910326,0.00669566171374172,0.03271316028195433
1690840661364745700,11.385745849609375,0.18101532332003115,0.006474639374203979,0.03638212198512628
1690840661374785800,11.395785888671876,0.18101123166680336,0.006154303112346679,0.0359290901211556
1690840661384825600,11.40582568359375,0.1796633241891861,0.01223692922797054,0.04683389396253042
1690840661394866700,11.41586669921875,0.1802589519947767,0.008388491905201226,0.04072296420102939
1690840661404906800,11.42590673828125,0.17082769130468367,0.0069003174403682345,0.04299750327058136
1690840661414946800,11.43594677734375,0.17681085736751556,0.006969839012622833,0.03990731870289892
1690840661425017900,11.446017822265626,0.18309914385676382,0.008139595178049058,0.03489065045150928
1690840661435058000,11.456057861328125,0.171727855014801,0.005044770967867225,0.027077529015159234
1690840661445098800,11.4660986328125,0.17951134849786757,0.00003812178699299693,0.02502172899651341
1690840661455138800,11.476138916015625,0.18265432269871235,0.009499193093460053,0.033748713874770325
1690840661465178600,11.4861787109375,0.185500944301486,0.01424039627118036,0.02550250738393515
1690840661475218700,11.49621875,0.18610183280408382,0.010131152587756515,0.03327866694391705
1690840661485259800,11.506259765625,0.1790665273398161,0.00374978098757565,0.03637763760625384
1690840661495299800,11.5162998046875,0.17173370023369788,0.005975366348866373,0.04462063835985027
1690840661505340000,11.52633984375,0.1834013416737318,0.0023831688094884157,0.03767067309147678
1690840661515380700,11.536380615234375,0.18309972837865351,0.004244907560758292,0.04309442430641502
1690840661525420800,11.5464208984375,0.18055238198339937,0.013857607498671858,0.04261217548111453
1690840661535460600,11.556460693359375,0.18070201958715915,0.01087864648681134,0.027000801383983343
1690840661545500700,11.566500732421876,0.1825029315292835,0.001333805887028575,0.031177310750493778
1690840661555541800,11.576541748046875,0.1865513301372528,-0.00015542802372947335,0.028731132307928054
1690840661565581800,11.586581787109376,0.1868564505636692,0.01111641903175041,0.028756851271074264
1690840661575652900,11.59665283203125,0.18476210863292217,0.017426844287570565,0.03204713412127457
1690840661585693000,11.60669287109375,0.16890344524383544,0.012276055661961436,0.04008935160576366
1690840661595732700,11.616732666015626,0.17353928835093974,0.0015403795761056243,0.04524713622773997
1690840661605773800,11.62677392578125,0.17084230435192585,-0.00008766001714393496,0.03944985725898295
1690840661615813600,11.636813720703126,0.17472937491834162,0.003674651658441871,0.034985991451609876
1690840661625853700,11.646853759765625,0.1802642126917839,0.005721081060543656,0.03862395522831939
1690840661635894800,11.656894775390626,0.18265724530816077,0.0041889030572026965,0.026409648824110624
1690840661645934800,11.666934814453125,0.1896925507724285,0.000988700510095805,0.024999535431014373
1690840661655975000,11.676974853515626,0.1870002429485321,0.01732420589700341,0.024457574041420592
1690840661666015000,11.687014892578125,0.18235680105686186,0.020610479292366653,0.02078239266001619
1690840661676055000,11.697054931640626,0.18340017262995242,0.008025814338959754,0.01953492248272523
1690840661686095000,11.70709521484375,0.18459785798192024,0.008488646077737211,0.029928087007533757
1690840661696135200,11.71713525390625,0.1850473553150892,0.007919668817054479,0.03855081692687236
1690840661706176000,11.727176025390625,0.17472236065566538,0.01299362934678793,0.04301268257340416
1690840661716216000,11.737216064453126,0.16678981409072874,0.009034406859613955,0.033356116094300524
1690840661726287000,11.747287109375,0.17725918565690515,0.012298212694842367,0.041433943748287856
1690840661736327200,11.7573271484375,0.19012626601457594,0.006402469187136739,0.03551142183151096
1690840661746367000,11.767366943359375,0.1748614768654108,0.0020065723157487807,0.035743531820643694
1690840661756407000,11.777406982421875,0.17725509400367737,-0.001001541725359857,0.02593802185752429
1690840661766448000,11.7874482421875,0.18249650178849697,0.012163443866651505,0.03408774570394307
1690840661776488200,11.79748828125,0.1799538315683603,0.01623169795256108,0.028501269074808804
1690840661786528000,11.807528076171875,0.18130466165542602,0.011295940317120402,0.025749833208508786
1690840661796569000,11.817569091796875,0.1926765350192785,0.01335838927226141,0.03164572284668684
1690840661806609200,11.827609130859376,0.1807031886309385,0.005795808530878275,0.030580185107560828
1690840661816649000,11.83764892578125,0.17621289147436617,0.011433997080940752,0.027661840842291712
1690840661826689000,11.84768896484375,0.17786007415950297,0.00833416790207848,0.03739840462189167
1690840661836730000,11.857730224609375,0.17636603620946406,-0.0028015220857225357,0.04176646363828331
1690840661846770200,11.867770263671876,0.1819026275485754,0.008871672312263398,0.03439062850750051
1690840661856810000,11.87781005859375,0.18205343419611453,0.003082914576679468,0.023827057585539296
1690840661866851000,11.88785107421875,0.16829028178155422,-0.002791073756944388,0.03202388110985048
1690840661876920800,11.8979208984375,0.17652093451023101,0.0017266045968979595,0.02975916931456886
1690840661886962200,11.907962158203125,0.1805599807679653,0.005266816220711916,0.031586256877565756
1690840661897002000,11.918001953125,0.17831424766778944,0.013290109809022396,0.03669461286724545
1690840661907042000,11.9280419921875,0.1777110210776329,0.014928013209160417,0.028332387914462014
1690840661917082000,11.93808203125,0.18070143506526945,0.007506941564008593,0.03335541284140199
1690840661927123000,11.948123046875,0.172020700481534,0.0032507636905647814,0.03045380964837968
1690840661937163000,11.9581630859375,0.17231997568905352,0.010729556872323154,0.03305886844708584
1690840661947203000,11.968203125,0.1781552577137947,0.003080503423884511,0.034430421661771834
1690840661957244200,11.978244140625,0.17995441609025,0.0036594175566919147,0.02920938994470052
1690840661967284000,11.988283935546875,0.17995733869969843,0.009905289676319807,0.028694663621904325
1690840661977324000,11.998323974609375,0.17741700656712053,0.00927712957430631,0.027323311336617914
1690840661987364000,12.008364013671875,0.18280688291192054,0.012075747316889464,0.03559992209887132
1690840661997405000,12.018405029296876,0.1747270368307829,0.015533669218420981,0.028844219027273355
1690840662007445000,12.028445068359375,0.18295710503756998,0.0035749906762503085,0.031320765208639204
1690840662017485000,12.038485107421875,0.1847515872389078,0.008599668704159557,0.03839654881376773
1690840662027555800,12.048555908203125,0.17667115663588046,0.002163808704074472,0.0412319092370104
1690840662037596000,12.058595947265625,0.17442659257948398,0.001427968710195273,0.042921652422240004
1690840662047637000,12.068636962890626,0.18026245912611483,0.002614694276731461,0.0278050761047285
1690840662057677000,12.078677001953125,0.18070961837172508,0.010802987434715031,0.029099974753474814
1690840662067717000,12.088717041015625,0.19028642501235007,0.004816478637326508,0.02918465736224316
1690840662077758000,12.098758056640625,0.1783165857553482,0.004697893758956343,0.03411435971623286
1690840662087798000,12.108798095703126,0.18879297158420086,-0.001218088819179684,0.030366149631235746
1690840662097838000,12.118838134765625,0.18086334762871265,0.004796148235350847,0.027523044292954726
1690840662107878000,12.1288779296875,0.18505320053398608,0.004634308737143874,0.040089908728189766
1690840662117919000,12.1389189453125,0.18505086244642732,0.0005166260189376771,0.03564440969456918
1690840662127959000,12.148958984375,0.18190730372369288,0.005422481706459075,0.03272412006738595
1690840662137999000,12.1589990234375,0.17547288676202297,0.008715184842608869,0.033899849315872414
1690840662148040000,12.1690400390625,0.17472528326511383,0.009623294397164136,0.029385303634032606
1690840662158080000,12.179080078125,0.17128244933485984,0.00030086437640711666,0.020499502331716938
1690840662168120000,12.1891201171875,0.18205577228367328,0.00702436394514516,0.025399019609997048
1690840662178190800,12.19919091796875,0.18295418242812156,0.002861143318470567,0.03504135663434863
1690840662188231000,12.20923095703125,0.17472411422133444,0.01123030946869403,0.024237638547271487
1690840662198271000,12.21927099609375,0.18444822037816047,0.008145020271837711,0.024536347499210385
1690840662208312000,12.22931201171875,0.17696692471206188,-0.0021589315995573996,0.03468435075706802
1690840662218352000,12.23935205078125,0.17711247066259383,-0.00456184628913179,0.03531311364728026
1690840662228392200,12.24939208984375,0.18728665867447852,0.010360266902204603,0.03615987580288201
1690840662238433000,12.25943310546875,0.17127835768163202,0.007341430537682026,0.03905559724438935
1690840662248473000,12.26947314453125,0.1805564736366272,0.0033207784531638024,0.038046146207209676
1690840662258513000,12.279512939453125,0.1795101794540882,0.018777619575709104,0.030658200513524934
