time,seconds_elapsed,z,y,x
1690840650167645000,0.18864501953125,0.0010177285876125097,-0.00002196570858359337,0.008374074473977089
1690840650177685000,0.19868505859375,-0.0007712068036198616,0.0024679338093847036,0.024337375536561012
1690840650187725000,0.20872509765625,0.0002429247833788395,0.008968177251517773,0.03617752343416214
1690840650197766100,0.21876611328125,-0.0006284415721893311,0.00683374609798193,0.045776329934597015
1690840650207806200,0.22880615234375,0.00017716456204652786,0.004465397447347641,0.047943875193595886
1690840650217846000,0.238845947265625,-0.00009555649012327194,0.003164116758853197,0.04926677048206329
1690840650227886000,0.248885986328125,-0.0004076790064573288,0.0019044415093958378,0.04417826980352402
1690840650237927000,0.258927001953125,-0.0009035053662955761,-0.001905754441395402,0.035579826682806015
1690840650247967000,0.268967041015625,-0.0003314581699669361,-0.0006223770324140787,0.02460147626698017
1690840650258007000,0.279007080078125,-0.00005052890628576279,-0.0012438541743904352,0.010479141026735306
1690840650268048100,0.289048095703125,0.0008640005253255367,-0.001297383802011609,-0.001783117651939392
1690840650278118100,0.2991181640625,0.0008129538036882877,0.0008812143933027983,-0.013720879331231117
1690840650288159200,0.3091591796875,-0.0007407343946397305,0.0033694058656692505,-0.02378310076892376
1690840650298199000,0.319198974609375,0.0011287052184343338,0.0007712965598329902,-0.03251323103904724
1690840650308239000,0.329239013671875,-0.0005091391503810883,-0.0008143496233969927,-0.033663712441921234
1690840650318280000,0.339280029296875,0.0008043390698730946,-0.0021054197568446398,-0.036359816789627075
1690840650328320000,0.349320068359375,0.00047730281949043274,-0.0035211562644690275,-0.03301195800304413
1690840650338360000,0.359360107421875,-0.00006358511745929718,-0.0027536333072930574,-0.02706245519220829
1690840650348400000,0.369400146484375,-0.0002675834111869335,-0.0035797457676380873,-0.019593620672822
1690840650358441200,0.379441162109375,-0.0008790385909378529,-0.000739983981475234,-0.013009142130613327
1690840650368481000,0.38948095703125,-0.00084654800593853,-0.00117434561252594,-0.0013586096465587616
1690840650378521000,0.39952099609375,0.0019892279524356127,0.0013111095177009702,0.008044948801398277
1690840650388562000,0.40956201171875,-0.000070993322879076,0.0018591880798339844,0.015008315443992615
1690840650398602000,0.41960205078125,0.0017639463767409325,0.002558371052145958,0.02391255460679531
1690840650408642000,0.42964208984375,-0.0007271743379533291,0.0022265412844717503,0.02588888630270958
1690840650418682000,0.43968212890625,0.0005942424759268761,0.003383217379450798,0.025807734578847885
1690840650428753000,0.4497529296875,-0.001003121491521597,-0.0012394976802170277,0.026094289496541023
1690840650438793000,0.45979296875,0.0002222205512225628,-0.000855105696246028,0.022644130513072014
1690840650448834000,0.469833984375,0.000942339189350605,-0.0000257974024862051,0.015691416338086128
1690840650458874000,0.4798740234375,0.00045548519119620323,-0.00032420014031231403,0.010850275866687298
1690840650468914000,0.489913818359375,-0.0002585086040198803,-0.0008562998846173286,0.00210711732506752
1690840650478955000,0.499955078125,0.00026239920407533646,0.002394320908933878,-0.004514111205935478
1690840650488995000,0.5099951171875,-0.0002289540134370327,0.0006949579110369086,-0.010274793952703476
1690840650499035100,0.52003515625,0.00012258999049663544,0.002242554444819689,-0.016402915120124817
1690840650509075000,0.530074951171875,0.00027119414880871773,-0.002738089533522725,-0.01985117793083191
1690840650519116000,0.540115966796875,0.000006981659680604935,-0.001958177424967289,-0.018930574879050255
1690840650529156000,0.550156005859375,-0.00011339318007230759,-0.0004862481728196144,-0.019058937206864357
1690840650539196000,0.56019580078125,0.0006818403489887714,-0.0008414504118263721,-0.017093099653720856
1690840650549237000,0.570237060546875,0.00019767740741372108,0.00013806018978357315,-0.012644287198781967
1690840650559277000,0.580277099609375,-0.0003300672397017479,-0.003189127193763852,-0.010370021685957909
1690840650569317000,0.590317138671875,-0.0003598947077989578,0.00017444510012865067,-0.0049587432295084
1690840650579388000,0.600387939453125,0.0009404970332980156,0.0010840450413525105,0.003510609269142151
1690840650589428000,0.610427978515625,0.00046778563410043716,0.0015908447094261646,0.007720268331468105
1690840650599469000,0.620468994140625,0.0006725830025970936,-0.001567930681630969,0.009170891717076302
1690840650609508900,0.6305087890625,0.0001423475332558155,0.0011982946889474988,0.013815977610647678
1690840650619549000,0.640548828125,-0.0007192171178758144,-0.000003492925316095352,0.015096046030521393
1690840650629589000,0.650589111328125,0.001439807703718543,0.0037086873780936003,0.015644390136003494
1690840650639630000,0.660630126953125,0.0009070844389498234,0.0014858129434287548,0.012523586861789227
1690840650649670100,0.670670166015625,0.0005408995784819126,-0.0011642987374216318,0.009182118810713291
1690840650659710000,0.6807099609375,-0.0008863420225679874,-0.0010957522317767143,0.005799596197903156
1690840650669759700,0.690759765625,-0.0003023110330104828,0.0010496902978047729,0.001898597925901413
1690840650679800800,0.70080078125,0.0010341517627239227,0.0002790058497339487,-0.0035150814801454544
1690840650689841000,0.7108408203125,0.0004839426837861538,0.00039112474769353867,-0.005484487861394882
1690840650699881000,0.720880859375,0.0021431902423501015,-0.0015784518327564,-0.01024838350713253
1690840650709921800,0.730921875,-0.0007665795274078846,0.0007930930005386472,-0.010061962530016899
1690840650719991800,0.74099169921875,0.0001532682217657566,-0.001173750264570117,-0.008746245875954628
1690840650730032600,0.75103271484375,0.00010453257709741592,-0.0005457769148051739,-0.011009402573108673
1690840650740072700,0.76107275390625,-0.0014767046086490154,-0.00135550438426435,-0.010930277407169342
1690840650750112800,0.77111279296875,0.0014011075254529715,-0.0005933076608926058,-0.007097989320755005
1690840650760153900,0.78115380859375,0.0011069807223975658,-0.0017713617999106646,-0.0043672919273376465
1690840650770194000,0.79119384765625,-0.0008858628571033478,0.0012864796444773674,-0.0005605705082416534
1690840650780234000,0.80123388671875,-0.002065689768642187,0.0005982163129374385,0.0026428010314702988
1690840650790273800,0.811273681640625,-0.0006179953925311565,-0.00008115614764392376,0.004736045375466347
1690840650800314600,0.821314697265625,-0.0009204400703310966,-0.0005168491043150425,0.00665085855871439
1690840650810354700,0.831354736328125,-0.0008400124497711658,-0.002399704186245799,0.006863378919661045
1690840650820394800,0.841394775390625,-0.00018402701243758202,0.002583274384960532,0.010481731034815311
1690840650830435800,0.851435791015625,0.0005291677080094814,0.0015246677212417126,0.007720566354691982
1690840650840476000,0.861475830078125,-0.0003819502890110016,0.0008123430889099836,0.005727601237595081
1690840650850516000,0.871515869140625,0.00083191879093647,0.0022858702577650547,0.003870312124490738
1690840650860555800,0.8815556640625,0.00015067216008901596,0.00030403793789446354,0.0019769705832004547
1690840650870626800,0.891626708984375,0.000680641271173954,-0.0011180902365595102,-0.0005783308297395706
1690840650880666600,0.90166650390625,0.00006897002458572388,-0.00024459371343255043,-0.002282245084643364
1690840650890707700,0.911707763671875,0.00016404502093791962,-0.0003332768101245165,-0.005683368071913719
1690840650900747800,0.921747802734375,0.0010757162235677242,-0.0011197889689356089,-0.006666278466582298
1690840650910787800,0.931787841796875,0.0006743776611983776,-0.0025251389015465975,-0.006092634052038193
1690840650920829000,0.941828857421875,0.000052259769290685654,0.00019385246559977531,-0.004830449819564819
1690840650930869000,0.951868896484375,0.0006759720854461193,-0.001181137515231967,-0.003679431974887848
1690840650940908500,0.961908447265625,-0.0011544968001544476,0.00003184238448739052,-0.005411725491285324
1690840650950948600,0.971948486328125,-0.00022398866713047028,0.0013628903543576598,-0.0039397962391376495
1690840650960989700,0.98198974609375,0.0001358604058623314,-0.001169291092082858,-0.004351114854216576
1690840650971029800,0.99202978515625,0.0006786123849451542,0.0019319601124152541,0.0008191466331481934
1690840650981069800,1.00206982421875,-0.0007704747840762138,-0.00011647515930235386,-0.0017935317009687424
1690840650991111000,1.01211083984375,0.00043487176299095154,0.0022486781235784292,0.004889404401183128
1690840651001150700,1.022150634765625,-0.0009514293633401394,0.0029994756914675236,0.006080488674342632
1690840651011190500,1.0321904296875,0.0005905409343540668,0.00047213584184646606,0.007145753130316734
1690840651021261600,1.042261474609375,-0.001754913479089737,-0.00001033395528793335,0.005318918265402317
1690840651031301600,1.052301513671875,0.00007281405851244926,-0.0019174234475940466,0.00476418249309063
1690840651041342700,1.0623427734375,0.00008805887773633003,0.0008858236251398921,0.0036399494856595993
1690840651051382800,1.0723828125,0.0015171112027019262,0.0025771972723305225,0.0033123809844255447
1690840651061422800,1.0824228515625,-0.0004882644861936569,-0.0007099132053554058,-0.001583646982908249
1690840651071463000,1.092462890625,0.0021717010531574488,-0.0006926024798303843,-0.0028611645102500916
1690840651081503700,1.102503662109375,0.0007100142538547516,0.0015712869353592396,-0.004643619060516357
1690840651091543600,1.11254345703125,-0.0005730967968702316,0.002006713766604662,-0.004506200551986694
1690840651101583600,1.12258349609375,-0.00030498579144477844,-0.0018460231367498636,-0.004100510850548744
1690840651111623700,1.132623779296875,0.0005858414806425571,0.0013380524469539523,-0.005746344104409218
1690840651121664800,1.142664794921875,0.00018813321366906166,-0.00132510787807405,-0.0022842753678560257
1690840651131704800,1.152704833984375,0.00009092781692743301,0.001974815037101507,-0.001819821074604988
1690840651141745000,1.162744873046875,0.0002879360690712929,0.0016538535710424185,-0.0015824194997549057
1690840651151785700,1.17278564453125,-0.0006247288547456264,0.00006687594577670097,-0.0006058383733034134
1690840651161825500,1.182825439453125,0.0007438622415065765,0.001006332691758871,0.0005927775055170059
1690840651171896600,1.192896484375,-0.0009075640700757504,-0.001522605074569583,0.0007688123732805252
1690840651181936600,1.2029365234375,-0.00007756520062685013,-0.0018406102899461985,0.001050025224685669
1690840651191976700,1.212976806640625,-0.0004813005216419697,0.000524809118360281,0.0037022680044174194
1690840651202017800,1.223017822265625,0.0010576590429991484,0.0007529666181653738,0.0023459717631340027
1690840651212057900,1.233057861328125,0.0008509978652000427,0.0007780003361403942,0.003667699173092842
1690840651222098000,1.243097900390625,0.0020003782119601965,0.004018832929432392,0.002724485471844673
1690840651232137700,1.2531376953125,0.0008176681585609913,0.0037639683578163385,0.0035513974726200104
1690840651242178600,1.263178466796875,-0.00004353746771812439,-0.00046653905883431435,0.001976246014237404
1690840651252218600,1.273218505859375,-0.0009247777052223682,0.00024985126219689846,-0.0013686828315258026
1690840651262258700,1.2832587890625,-0.0006571179255843163,-0.00009154924191534519,-0.0010193735361099243
1690840651272299800,1.2932998046875,0.0004361094906926155,-0.00040740007534623146,-0.0021546799689531326
1690840651282339800,1.30333984375,0.0001991651952266693,-0.0010756298433989286,-0.004281163215637207
1690840651292380000,1.3133798828125,-0.0000820644199848175,-0.0004633690696209669,-0.004428967833518982
1690840651302419700,1.323419677734375,0.00010359985753893852,-0.00010205106809735298,-0.0036950651556253433
1690840651312460500,1.33346044921875,-0.0007994784973561764,0.0005994255188852549,-0.0005509369075298309
1690840651322530800,1.34353076171875,-0.000683310441672802,0.0011721409391611814,-0.001924825832247734
1690840651332571600,1.353571533203125,-0.0006020842120051384,0.0011036976939067245,-0.0009405221790075302
1690840651342611700,1.36361181640625,0.00020424602553248405,0.0021013703662902117,-0.00017421133816242218
1690840651352651800,1.37365185546875,-0.00030894530937075615,-0.0009364974685013294,0.0005610883235931396
1690840651362692900,1.38369287109375,0.0008521708659827709,0.0008768290281295776,0.0005865339189767838
1690840651372733000,1.39373291015625,0.0006646844558417797,-0.0004539524670690298,0.0014741644263267517
1690840651382772700,1.403772705078125,0.0007584672421216965,-0.0006675012409687042,0.0019781868904829025
1690840651392812800,1.413812744140625,-0.0009699244983494282,-0.0024821790866553783,-0.000576583668589592
1690840651402853600,1.423853515625,-0.0001201927661895752,0.0015143898781388998,0.0019364897161722183
1690840651412893700,1.433893798828125,0.001469448208808899,-0.0001341069582849741,0.002168184146285057
1690840651422933800,1.443933837890625,0.0009386101737618446,0.0013829371891915798,0.0019443463534116745
1690840651432974800,1.453974853515625,0.0004888023249804974,0.001184531720355153,0.002120381221175194
1690840651443015000,1.464014892578125,0.0003681792877614498,-0.0004580377135425806,0.0010277274996042252
1690840651453054700,1.4740546875,0.0007655229419469833,0.0013561075320467353,-0.00036750175058841705
1690840651463094800,1.4840947265625,0.0001025632955133915,0.0006707202410325408,-0.0025196578353643417
1690840651473135600,1.494135498046875,0.0006003081798553467,-0.0011271797120571136,-0.0031188689172267914
1690840651483206700,1.50420654296875,0.0001812158152461052,-0.00016499892808496952,-0.0035700518637895584
1690840651493246700,1.514246826171875,0.000519969966262579,-0.0025450659450143576,-0.001915164291858673
1690840651503286800,1.524286865234375,0.0003594844602048397,0.000426988466642797,-0.0008920524269342422
1690840651513326800,1.534326904296875,0.000514746643602848,-0.0007416065782308578,-0.0019157715141773224
1690840651523368000,1.544367919921875,-0.0006226049736142159,0.00197358475998044,-0.0006532799452543259
1690840651533407700,1.55440771484375,0.00021016504615545273,0.0008824877440929413,-0.00029561668634414673
1690840651543447800,1.56444775390625,-0.00024471990764141083,-0.00039339158684015274,0.0006363634020090103
1690840651553488600,1.574488525390625,-0.000459104310721159,0.0008806646801531315,0.00189870223402977
1690840651563528700,1.58452880859375,-0.0012652724981307983,-0.002001906745135784,-0.003678416833281517
1690840651573568800,1.59456884765625,-0.00007776869460940361,0.0013845690991729498,0.0026580411940813065
1690840651583608800,1.60460888671875,-0.0009051733650267124,-0.0008941174019128084,0.0008707679808139801
1690840651593650000,1.61464990234375,0.00017899973317980766,-0.0008858614601194859,0.001126432791352272
1690840651603689700,1.624689697265625,0.0001578051596879959,-0.0003078759182244539,0.0009661521762609482
1690840651613729800,1.634729736328125,0.0003673960454761982,-0.0004042822401970625,-0.00035717152059078217
1690840651623769900,1.644769775390625,0.00011005345731973648,0.0028248389717191458,-0.0010351408272981644
1690840651633841000,1.6548408203125,-0.0007653278298676014,0.0008274682331830263,0.0005209445953369141
1690840651643881700,1.6648818359375,0.0006470037624239922,-0.00006175646558403969,-0.00003935210406780243
1690840651653921800,1.674921875,0.0017783145885914564,-0.0012295525521039963,-0.0010822471231222153
1690840651663955500,1.68495556640625,-0.00029870960861444473,-0.0005927993915975094,-0.00016131624579429626
1690840651673995500,1.69499560546875,-0.00006861239671707153,0.002214172389358282,-0.001538170501589775
1690840651684036600,1.70503662109375,-0.00028691859915852547,0.0008171156514436007,-0.002407848834991455
1690840651694076400,1.715076416015625,-0.00015349406749010086,-0.0012625467497855425,-0.0024219639599323273
1690840651704116500,1.725116455078125,-0.00015077786520123482,0.0015948296058923006,-0.0013775471597909927
1690840651714157600,1.735157470703125,0.0010833307169377804,-0.0029605072923004627,-0.0012646280229091644
1690840651724197600,1.74519775390625,-0.000005844980478286743,-0.0009986641816794872,-0.0002465248107910156
1690840651734237400,1.755237548828125,-0.0010226396843791008,0.0015545082278549671,-0.0005027204751968384
1690840651744277500,1.765277587890625,0.00107840565033257,0.00007437542080879211,0.002507546916604042
1690840651754318600,1.775318603515625,-0.00036529405042529106,0.0017329921247437596,-0.0005692020058631897
1690840651764358400,1.7853583984375,0.00084489188157022,0.0022765565663576126,0.002147441729903221
1690840651774398500,1.7953984375,0.0010622059926390648,-0.00019831908866763115,-0.0010590031743049622
1690840651784469500,1.805469482421875,0.0007338342256844044,0.0005740269552916288,-0.0012391544878482819
1690840651794509300,1.81550927734375,-0.0008195876143872738,-0.00034263310953974724,-0.0005493964999914169
1690840651804550400,1.82555029296875,0.0016987617127597332,-0.0001451447606086731,-0.0006039738655090332
1690840651814590500,1.835590576171875,-0.00025972677394747734,0.0003672473831102252,-0.00034964270889759064
1690840651824630500,1.845630615234375,0.0013086139224469662,-0.0004700394347310066,0.000013431534171104431
1690840651834670600,1.855670654296875,0.0021134212147444487,0.0012514278059825301,0.0001220889389514923
1690840651844711400,1.86571142578125,0.00008282577618956566,-0.00029057450592517853,-0.0007449574768543243
1690840651854751500,1.87575146484375,0.00038296403363347054,0.000007166992872953415,0.0025182124227285385
1690840651864791600,1.88579150390625,0.00026898831129074097,-0.0003155467566102743,0.000516209751367569
1690840651874832600,1.89583251953125,0.0005377014167606831,0.0004378616577014327,-0.0008760914206504822
1690840651884872400,1.90587255859375,-0.0009786244481801987,-0.0007669935002923012,-0.003215176984667778
1690840651894912500,1.91591259765625,0.0008136830292642117,-0.0008452904876321554,-0.0013736020773649216
1690840651904952600,1.92595263671875,0.0002473238855600357,-0.00031996588222682476,-0.00037711113691329956
1690840651914993400,1.935993408203125,-0.0001305784098803997,0.0006739258533343673,-0.0014447718858718872
1690840651925033500,1.946033447265625,-0.000672485213726759,-0.0011531594209372997,-0.00015851296484470367
1690840651935104500,1.9561044921875,0.0007163533009588718,-0.0014074912760406733,-0.0025060903280973434
1690840651945144300,1.966144287109375,-0.0010457350872457027,0.0036807958967983723,0.0013350341469049454
1690840651955184400,1.976184326171875,0.0008714743889868259,0.0011241612955927849,0.0001685693860054016
1690840651965225500,1.9862255859375,0.0004470101557672024,-0.00033413548953831196,0.0012552030384540558
1690840651975265500,1.996265625,-0.0009476873092353344,0.0016326089389622211,-0.0009933039546012878
1690840651985305600,2.0063056640625,-0.00007523223757743835,-0.0016690220218151808,-0.0004102494567632675
1690840651995346400,2.016346435546875,0.000022772233933210373,-0.00016620010137557983,0.0013375822454690933
1690840652005386500,2.026386474609375,0.0010690772905945778,0.0034534111618995667,-0.0014184694737195969
1690840652015426300,2.03642626953125,0.00022219214588403702,0.0007593573536723852,0.0022425781935453415
1690840652025466400,2.04646630859375,0.0000072196125984191895,-0.00021425262093544006,-0.00019714795053005219
1690840652035507500,2.056507568359375,0.000355294905602932,0.00012476788833737373,-0.0012672059237957
1690840652045547500,2.066547607421875,0.000976234907284379,0.0013933195732533932,0.001366991549730301
1690840652055587600,2.076587646484375,0.000029481016099452972,0.0003456319682300091,-0.00010094232857227325
1690840652065628400,2.08662841796875,0.00011309189721941948,0.0010763074969872832,-0.00016750022768974304
1690840652075668500,2.09666845703125,-0.00010954821482300758,0.0008648524526506662,-0.002368336543440819
1690840652085739500,2.106739501953125,0.0006347773596644402,0.00020738854072988033,-0.00016281753778457642
1690840652095779300,2.116779296875,0.00015913648530840874,0.0010593339102342725,0.00003079511225223541
1690840652105819400,2.1268193359375,0.0009218428749591112,-0.00015378394164144993,-0.0010607875883579254
1690840652115859500,2.136859375,0.0008997386321425438,-0.00035325484350323677,-0.002129513770341873
1690840652125900500,2.146900634765625,-0.0002216082066297531,0.00039526354521512985,0.00030768103897571564
1690840652135940600,2.156940673828125,-0.0002530333586037159,-0.00044682808220386505,-0.00018580257892608643
1690840652145980700,2.166980712890625,-0.0005616764537990093,0.001186419976875186,-0.00023151561617851257
1690840652156021500,2.177021484375,0.002090565860271454,0.0005131729412823915,0.002307809889316559
1690840652166061300,2.187061279296875,-0.0008994569070637226,0.0012652998557314277,0.00007148087024688721
1690840652176101400,2.197101318359375,0.0006576934829354286,0.00036035769153386354,-0.0008643530309200287
1690840652186141400,2.207141357421875,-0.0008409209549427032,-0.000024269800633192062,-0.0007306952029466629
1690840652196182500,2.2171826171875,-0.0005599572323262691,0.0010103682288900018,0.0002631973475217819
1690840652206222600,2.22722265625,-0.0006308881565928459,-0.0010923580266535282,-0.0007464401423931122
1690840652216262700,2.2372626953125,0.0005142712034285069,-0.0011552085634320974,-0.001313958317041397
1690840652226303500,2.247303466796875,-0.0005715670995414257,0.0008938793325796723,-0.00061785988509655
1690840652236373500,2.25737353515625,-0.00015265215188264847,-0.0008731279522180557,-0.001738518476486206
1690840652246414300,2.267414306640625,0.0005242885090410709,0.00033114361576735973,0.000012524425983428955
1690840652256454400,2.277454345703125,0.0005538496188819408,0.0013537973864004016,0.0006567426025867462
1690840652266494500,2.287494384765625,0.0007896409370005131,-0.0012497252319008112,-0.0012102928012609482
1690840652276534500,2.297534423828125,-0.0010950779542326927,-0.0005117631517350674,-0.0007370505481958389
1690840652286575600,2.30757568359375,-0.00007896730676293373,-0.0005711207631975412,-0.000194646418094635
1690840652296615700,2.31761572265625,0.000588421244174242,-0.00028749415650963783,0.0012735538184642792
1690840652306655500,2.327655517578125,-0.00006414903327822685,-0.0009123580530285835,0.0004475042223930359
1690840652316696300,2.3376962890625,-0.00004790397360920906,-0.0003759975079447031,0.00024536997079849243
1690840652326736400,2.347736328125,-0.0005209585651755333,0.0006269473815336823,-0.00006880797445774078
1690840652336776400,2.3577763671875,0.00036640651524066925,0.0010408026864752173,-0.0003939792513847351
1690840652346816500,2.36781640625,-0.0002281544730067253,-0.0003986640367656946,0.00029093213379383087
1690840652356857600,2.377857666015625,-0.0007796953432261944,0.000844233320094645,0.0003950614482164383
1690840652366897700,2.387897705078125,0.0006679566577076912,0.0004587682196870446,-0.0008651893585920334
1690840652376937700,2.397937744140625,0.0013766239862889051,0.0013432040577754378,-0.0004918146878480911
1690840652387008500,2.408008544921875,0.00022637797519564629,0.0009713122854009271,-0.0000760592520236969
1690840652397048600,2.418048583984375,0.0006522173061966896,-0.0003139292821288109,0.0001835990697145462
1690840652407089400,2.42808935546875,0.0015242199879139662,0.0003003738820552826,-0.001452568918466568
1690840652417129500,2.43812939453125,-0.0006007160991430283,0.00034058757591992617,0.001810602843761444
1690840652427169500,2.44816943359375,-0.00002217572182416916,-0.0002748167607933283,-0.0007600504904985428
1690840652437210600,2.458210693359375,0.0016577462665736675,0.0017915299395099282,0.0011744685471057892
1690840652447250700,2.468250732421875,0.0010157336946576834,0.0014920416288077831,-0.0005332231521606445
1690840652457290500,2.47829052734375,-0.0002774973399937153,-0.0014273154083639383,0.0016803964972496033
1690840652467330600,2.48833056640625,-0.0005375104956328869,-0.0004323422908782959,0.0011531990021467209
1690840652477371400,2.498371337890625,0.0003402670845389366,0.001192186027765274,0.0005718301981687546
1690840652487411500,2.508411376953125,-0.0005862670950591564,-0.00023735221475362778,-0.0011604558676481247
1690840652497451500,2.518451416015625,0.0006539672613143921,-0.0008019423112273216,0.0009564906358718872
1690840652507492600,2.52849267578125,-0.0004306687042117119,-0.0015600204933434725,-0.00005212239921092987
1690840652517532700,2.53853271484375,0.001695865299552679,-0.00035467371344566345,-0.0011323001235723495
1690840652527572700,2.54857275390625,0.0007952013984322548,-0.00023481831885874271,0.0011485517024993896
1690840652537643500,2.5586435546875,0.000995737500488758,0.0003175213932991028,-0.0007026121020317078
1690840652547683600,2.56868359375,-0.0007030651904642582,-0.0007489717099815607,-0.0008420739322900772
1690840652557723600,2.5787236328125,0.0017803327646106482,-0.00014017289504408836,0.0008314568549394608
1690840652567764500,2.588764404296875,-0.0002779243513941765,-0.0001177291851490736,0.00030161626636981964
1690840652577804500,2.598804443359375,-0.0009322632104158401,-0.0003342442214488983,0.0006113424897193909
1690840652587844600,2.6088447265625,0.0007488047704100609,0.0003571055131033063,0.00029177963733673096
1690840652597885700,2.6188857421875,0.0006963405758142471,0.0010798875009641051,-0.00034684687852859497
1690840652607925500,2.628925537109375,0.0009267008863389492,-0.00024036155082285404,-0.0015404950827360153
1690840652617965600,2.638965576171875,-0.0008714655414223671,0.0020568810869008303,-0.0006254334002733231
1690840652628005600,2.649005615234375,-0.0005896035581827164,-0.0004498192574828863,-0.0011979378759860992
1690840652638046500,2.65904638671875,-0.0019089332781732082,0.0014594008680433035,-0.0006807520985603333
1690840652648086500,2.66908642578125,0.0007618388626724482,-0.000273378798738122,-0.0011236593127250671
1690840652658126600,2.679126708984375,-0.0010989117436110973,0.0010131942108273506,0.0006468109786510468
1690840652668148200,2.689148193359375,0.00085500068962574,0.000799531233496964,-0.00007956475019454956
1690840652678188000,2.69918798828125,-0.0009239907376468182,-0.00025401520542800426,0.002007821574807167
1690840652688259000,2.709259033203125,-0.0018399432301521301,0.0014139197301119566,0.0017684120684862137
1690840652698299100,2.719299072265625,0.0005478472448885441,-0.0006929070223122835,-0.0018255244940519333
1690840652708339200,2.729339111328125,0.0006374786607921124,-0.0020836309995502234,-0.00120469368994236
1690840652718380300,2.73938037109375,0.00032402435317635536,-0.000052970368415117264,0.0016177240759134293
1690840652728420400,2.74942041015625,0.000373263843357563,0.0029767616651952267,-0.0013833455741405487
1690840652738460200,2.759460205078125,0.000361013226211071,0.0005671335384249687,0.0006888601928949356
1690840652748500200,2.769500244140625,0.0006991289556026459,-0.00043366244062781334,0.0022323541343212128
1690840652758541000,2.779541015625,-0.0007128794677555561,0.001223888946697116,0.0011969171464443207
1690840652768581000,2.7895810546875,-0.0010370281524956226,-0.00022567808628082275,0.00014388933777809143
1690840652778621200,2.79962109375,-0.0007174485363066196,-0.0015812271740287542,-0.0021842457354068756
1690840652788661200,2.8096611328125,0.0005892468616366386,0.0014766621170565486,0.00011477991938591003
1690840652798702300,2.819702392578125,-0.0013806931674480438,-0.0002312231808900833,-0.00078590027987957
1690840652808742400,2.829742431640625,0.0015540525782853365,-0.0011505428701639175,-0.0002253502607345581
1690840652818782200,2.8397822265625,-0.0008630324155092239,-0.001529244240373373,0.0003237929195165634
1690840652828823000,2.849822998046875,0.0007536381017416716,0.0004243974108248949,0.0002738162875175476
1690840652838893000,2.85989306640625,-0.0009350725449621677,-0.0003415278624743223,-0.00009769387543201447
1690840652848934100,2.86993408203125,-0.0020748553797602654,-0.001634723972529173,-0.0004264209419488907
1690840652858974200,2.87997412109375,-0.0007302253507077694,0.0004087194101884961,-0.001120707020163536
1690840652869014300,2.89001416015625,-0.0011612274684011936,0.00004051206633448601,0.00005800463259220123
1690840652879055400,2.900055419921875,-0.0007119523361325264,0.0008053717901930213,0.0013054292649030685
1690840652889095200,2.91009521484375,-0.0002652164548635483,-0.0010798904113471508,0.00048130936920642853
1690840652899135200,2.92013525390625,-0.0003807973116636276,0.0006871169898658991,0.00031859055161476135
1690840652909175000,2.930175048828125,0.00030899979174137115,-0.0007217838428914547,0.0010992847383022308
1690840652919216000,2.940216064453125,-0.0009149890393018723,-0.002334594028070569,0.000537356361746788
1690840652929256200,2.950256103515625,0.0005649784579873085,0.0008712763665243983,-0.000014698132872581482
1690840652939296300,2.960296142578125,-0.0009940359741449356,0.0004662096034735441,-0.0011204425245523453
1690840652949337300,2.97033740234375,-0.0012040701694786549,-0.00041792052797973156,0.00006557069718837738
1690840652959377400,2.98037744140625,0.001681731315329671,0.0013826426584273577,0.0003169737756252289
1690840652969417200,2.990417236328125,-0.0005428753793239594,0.0019671120680868626,0.0006774011999368668
1690840652979457000,3.00045703125,0.0005002850666642189,-0.00253948918543756,0.0003130808472633362
1690840652989528000,3.010528076171875,0.0007239258848130703,0.002522463211789727,-0.0005792286247014999
1690840652999568100,3.020568115234375,0.0006520203314721584,-0.001560695469379425,-0.00011264346539974213
1690840653009609200,3.030609130859375,0.0002109943889081478,-0.0021462657023221254,-0.000604851171374321
1690840653019649300,3.040649169921875,-0.0008388240821659565,-0.0002724656369537115,0.001490788534283638
1690840653029689000,3.050689208984375,-0.0006757322698831558,-0.00286015379242599,-0.00032839924097061157
1690840653039730200,3.060730224609375,0.0005101733841001987,-0.00014532753266394138,0.00034671276807785034
1690840653049770200,3.070770263671875,-0.0009808684699237347,0.0018933709943667054,-0.0002915468066930771
1690840653059810000,3.08081005859375,-0.0002298569306731224,0.0003729723393917084,-0.0010359007865190506
1690840653069850000,3.09085009765625,-0.0010764501057565212,0.0011433408362790942,0.0005017686635255814
1690840653079891200,3.10089111328125,-0.001679389737546444,0.0013041957281529903,0.0012791454792022705
1690840653089931300,3.11093115234375,-0.0002613803371787071,0.0009287893772125244,0.00015210919082164764
1690840653099971300,3.120971435546875,0.0004182583652436733,-0.0015599345788359642,0.0013087205588817596
1690840653110012400,3.131012451171875,-0.000709843821823597,0.0006415974348783493,0.0006471499800682068
1690840653120052200,3.14105224609375,-0.0005061118863523006,0.00040271179750561714,-0.001282576471567154
1690840653130092000,3.151092041015625,0.0001920289359986782,-0.0014979145489633083,-0.000995950773358345
1690840653140163000,3.1611630859375,0.00080508878454566,-0.00026433845050632954,-0.001254810020327568
1690840653150203100,3.171203125,0.0000014915131032466888,-0.0036851149052381516,-0.00020300410687923431
1690840653160244200,3.181244140625,0.0006142850033938885,0.00075836933683604,0.0012513473629951477
1690840653170284300,3.1912841796875,-0.0018026269972324371,0.001293366076424718,0.0003900006413459778
1690840653180324000,3.201323974609375,0.0002485397271811962,0.00042357773054391146,-0.0012840628623962402
1690840653190364200,3.2113642578125,0.0006720595993101597,0.0011025831336155534,0.0014188364148139954
1690840653200405200,3.2214052734375,-0.0008406159467995167,-0.00033472501672804356,-0.0003471057862043381
1690840653210445000,3.231445068359375,-0.00008142320439219475,0.00017587514594197273,-0.0002948399633169174
1690840653220485000,3.241485107421875,-0.001067325472831726,-0.002625237451866269,-0.0013119019567966461
1690840653230525200,3.251525146484375,-0.0009242035448551178,-0.0004017993342131376,-0.00016399472951889038
1690840653240566300,3.261566162109375,0.0003413306549191475,-0.0015408333856612444,0.0013193842023611069
1690840653250606300,3.2716064453125,0.0007045073434710503,0.0012423653388395905,0.002628238871693611
1690840653260646100,3.281646240234375,-0.00022440310567617416,-0.0008828372228890657,-0.0008437242358922958
1690840653270687000,3.29168701171875,0.00036061834543943405,-0.000444954726845026,0.00034186989068984985
1690840653280727000,3.30172705078125,0.0006935135461390018,-0.00045001483522355556,-0.0004155319184064865
1690840653290798000,3.311798095703125,-0.00019146036356687546,0.0004103643586859107,-0.0005565285682678223
1690840653300838100,3.321838134765625,-0.001615452580153942,0.00010383455082774162,0.0005156602710485458
1690840653310878200,3.331878173828125,0.000133490189909935,0.000961970305070281,0.00027658604085445404
1690840653320919300,3.341919189453125,0.0017239300068467855,0.0007465205853804946,0.0007378458976745605
1690840653330959000,3.351958984375,-0.0001617991365492344,-0.0015260898508131504,-0.00009549222886562347
1690840653340999200,3.361999267578125,-0.0003535468131303787,-0.000819286797195673,0.0004408694803714752
1690840653351039200,3.372039306640625,-0.0007018363103270531,-0.0001402110792696476,-0.0017457902431488037
1690840653361080000,3.382080078125,0.0011988617479801178,-0.0013913640286773443,-0.0012222137302160263
1690840653371120000,3.3921201171875,-0.0006960602477192879,0.000044096726924180984,-0.000015100464224815369
1690840653381160200,3.40216015625,0.00032046809792518616,-0.00185793312266469,-0.0010622553527355194
1690840653391201300,3.412201171875,-0.0009733615443110466,-0.00037183170206844807,-0.00010984018445014954
1690840653401241000,3.422240966796875,0.0009398534893989563,0.00014428887516260147,0.0015429165214300156
1690840653411281200,3.43228125,0.0006009177304804325,-0.0014213693793863058,0.0012227967381477356
1690840653421321200,3.4423212890625,0.0008781526703387499,-0.0014682412147521973,-0.0009463485330343246
1690840653431362000,3.452362060546875,0.0000980086624622345,0.0014559285482391715,0.0003993939608335495
1690840653441432300,3.462432373046875,-0.0012801773846149445,0.0002332713920623064,-0.0012861210852861404
1690840653451473200,3.47247314453125,0.0009779648389667273,-0.000743132783100009,0.0017135608941316605
1690840653461513200,3.48251318359375,0.0007934076711535454,0.0009375880472362041,0.0004933010786771774
1690840653471553000,3.492552978515625,-0.0006058504804968834,0.0026736382860690355,0.0004941020160913467
1690840653481594000,3.502593994140625,0.00008603837341070175,0.0025897487066686153,-0.00034372881054878235
1690840653491634200,3.51263427734375,-0.0014364467933773994,0.0013284841552376747,0.0011887159198522568
1690840653501674200,3.52267431640625,0.00030685821548104286,0.0007726824842393398,-0.00046990253031253815
1690840653511714300,3.53271435546875,0.002063217107206583,-0.0003890416119247675,-0.00020715221762657166
1690840653521755100,3.542755126953125,0.0017044893465936184,0.0013830256648361683,-0.00006334111094474792
1690840653531795200,3.552795166015625,-0.0010422528721392155,0.0010059840278699994,-0.0013984255492687225
1690840653541835000,3.5628349609375,-0.00019936216995120049,-0.002449467545375228,-0.000813063234090805
1690840653551876000,3.5728759765625,-0.0009994814172387123,-0.0007543207611888647,0.00004541128873825073
1690840653561916200,3.582916259765625,0.0017558250110596418,0.0013125586556270719,0.0005868319422006607
1690840653571956200,3.592956298828125,0.0007596432697027922,0.000674248905852437,0.0002958271652460098
1690840653581996300,3.602996337890625,-0.0013431888073682785,0.0000585261732339859,0.0020010489970445633
1690840653592067300,3.6130673828125,0.00011114450171589851,0.0015569739043712616,0.001598278060555458
1690840653602108200,3.623108154296875,0.0003867819905281067,-0.0003850031644105911,0.00028534047305583954
1690840653612148200,3.633148193359375,-0.0010732193477451801,0.00017659110017120838,0.00018587708473205566
1690840653622188000,3.64318798828125,-0.0021310271695256233,-0.0004649644251912832,0.0011339634656906128
1690840653632228000,3.65322802734375,-0.0016147862188518047,-0.0005896077491343021,0.00170116126537323
1690840653642269200,3.663269287109375,0.0005658101290464401,-0.002613077638670802,-0.0018368493765592575
1690840653652309200,3.673309326171875,-0.0005832123570144176,0.002584034577012062,-0.0015558172017335892
1690840653662349300,3.683349365234375,-0.0008833506144583225,-0.001790473936125636,-0.000321974977850914
1690840653672370200,3.6933701171875,-0.00037017837166786194,0.0014322265051305294,0.0014370251446962357
1690840653682410200,3.70341015625,-0.000006923452019691467,0.0006726928986608982,-0.00130443274974823
1690840653692450000,3.713449951171875,-0.0020355526357889175,-0.0007616004440933466,-0.00022371113300323486
1690840653702490000,3.723489990234375,-0.0013753552921116352,-0.00046838633716106415,-0.00033396482467651367
1690840653712531200,3.73353125,0.0008677442092448473,-0.0016323071904480457,-0.0022727586328983307
1690840653722571000,3.743571044921875,-0.0008944692090153694,-0.0011713141575455666,0.00035045482218265533
1690840653732611000,3.753611083984375,-0.0011094696819782257,0.0025853596162050962,0.0004858914762735367
1690840653742682000,3.76368212890625,0.0004436857998371124,-0.001350792357698083,-0.00020306743681430817
1690840653752722000,3.773721923828125,0.000630703754723072,0.001475452445447445,-0.00015965476632118225
1690840653762763000,3.783762939453125,-0.0009874328970909119,0.00013508345000445843,0.00019534491002559662
1690840653772803000,3.793802978515625,0.00014165788888931274,-0.001460658386349678,-0.00024846941232681274
1690840653782843100,3.803843017578125,0.0009382094722241163,-0.00009365775622427464,-0.0013550128787755966
1690840653792883200,3.81388330078125,-0.0013600820675492287,0.0014961767010390759,0.0016504470258951187
1690840653802924000,3.823924072265625,-0.0005555413663387299,-0.00019786017946898937,0.000779327005147934
1690840653812964000,3.833964111328125,0.0014781365171074867,0.0011856594355776906,0.00038686953485012054
1690840653823004200,3.844004150390625,0.000029909424483776093,0.0023071165196597576,-0.002193734049797058
1690840653833045200,3.854045166015625,-0.0004225648008286953,-0.00013624271377921104,-0.0005505699664354324
1690840653843085000,3.8640849609375,-0.0003770245239138603,-0.0007003000937402248,-0.0010509788990020752
1690840653853125000,3.874125,0.0006271521560847759,-0.0009445247706025839,0.0009423885494470596
1690840653863165200,3.884165283203125,0.0005483226850628853,-0.0002979093696922064,0.0006984435021877289
1690840653873206000,3.8942060546875,0.0009463860187679529,0.00029339990578591824,-0.0008301101624965668
1690840653883246000,3.90424609375,-0.00019238144159317017,0.0018481533043086529,0.0012871026992797852
1690840653893317000,3.914317138671875,0.0008035115897655487,-0.002260722918435931,-0.0015189945697784424
1690840653903357000,3.92435693359375,0.0006317379884421825,-0.0006942516192793846,0.00031618960201740265
1690840653913397000,3.93439697265625,-0.00016907602548599243,0.0010063989320769906,0.0001640859991312027
1690840653923438000,3.94443798828125,0.00034304941073060036,-0.00037205335684120655,0.000735333189368248
1690840653933478100,3.95447802734375,0.00025021424517035484,0.0005693299463018775,0.0004837866872549057
1690840653943518200,3.964518310546875,0.0006797821260988712,0.002341130981221795,0.00045688822865486145
1690840653953558300,3.974558349609375,0.00005019688978791237,-0.001565628917887807,-0.0013468340039253235
1690840653963599000,3.98459912109375,-0.00014687702059745789,0.0013276292011141777,0.0011874306946992874
1690840653973639200,3.99463916015625,-0.0019369828514754772,0.0006270449375733733,-0.0015792418271303177
1690840653983679000,4.004678955078125,-0.022394854575395584,-0.4366677403450012,-0.05917542427778244
1690840653993720000,4.014719970703125,-0.005764718633145094,-0.1569664627313614,-0.09754151850938797
1690840654003760000,4.024760009765625,-0.0008527846075594425,-0.008366602472960949,-0.0714060589671135
1690840654013800200,4.03480029296875,0.003986927680671215,-0.026027046144008636,-0.06316237896680832
1690840654023840300,4.04484033203125,0.010351084172725677,-0.035171277821063995,-0.04469362646341324
1690840654033881000,4.054881103515625,0.007661893032491207,-0.027313463389873505,-0.029913537204265594
1690840654043952000,4.0649521484375,0.0030010950285941362,-0.023348283022642136,-0.018428124487400055
1690840654053992000,4.074991943359375,-0.0029661240987479687,-0.014135023579001427,-0.001104447990655899
1690840654064032000,4.085031982421875,-0.008602172136306763,0.0018761659739539027,0.010807870887219906
1690840654074072000,4.095072021484375,-0.00881221517920494,0.01149106863886118,0.023532364517450333
1690840654084113200,4.105113037109375,-0.005990596953779459,0.020176969468593597,0.031252071261405945
1690840654094153200,4.1151533203125,-0.0002842661924660206,0.022890619933605194,0.039638422429561615
1690840654104193300,4.125193359375,0.004104357212781906,0.018389077857136726,0.04394741356372833
1690840654114234000,4.135234130859375,0.006166624370962381,0.006968524772673845,0.04518498480319977
1690840654124274200,4.145274169921875,0.004313064273446798,-0.00571744330227375,0.041381195187568665
1690840654134314000,4.15531396484375,0.0022598353680223227,-0.01270260103046894,0.036882974207401276
1690840654144354000,4.16535400390625,-0.0016342387534677982,-0.016282955184578896,0.029652224853634834
1690840654154395100,4.17539501953125,-0.004395191557705402,-0.012590460479259491,0.016854161396622658
1690840654164435200,4.185435302734375,-0.004638870246708393,-0.004581270273774862,0.004299486055970192
1690840654174475300,4.195475341796875,-0.0010504494421184063,0.004607255570590496,-0.006046973168849945
1690840654184516000,4.20551611328125,0.0004869932308793068,0.012127223424613476,-0.01942802406847477
1690840654194586000,4.215586181640625,0.0030482225120067596,0.010839619673788548,-0.027607379481196404
1690840654204627000,4.225626953125,0.0022013371344655752,0.0058150338008999825,-0.03138694167137146
1690840654214667000,4.2356669921875,-0.0005165929906070232,0.0018344153650105,-0.035184841603040695
1690840654224707000,4.24570703125,0.0003249659202992916,-0.005376625806093216,-0.035130247473716736
1690840654234747100,4.2557470703125,-0.0012592733837664127,-0.008417079225182533,-0.030466042459011078
1690840654244788200,4.265788330078125,-0.0026369267143309116,-0.00950791034847498,-0.024680592119693756
1690840654254828300,4.275828369140625,-0.0013799895532429218,-0.0062309675849974155,-0.019948896020650864
1690840654264868000,4.2858681640625,-0.00019674748182296753,-0.001533418195322156,-0.01258658617734909
1690840654274909200,4.2959091796875,0.00041452329605817795,0.0017530005425214767,-0.004363870248198509
1690840654284949000,4.305948974609375,0.0019836577121168375,0.0029146713204681873,0.004349993541836739
1690840654294989000,4.315989013671875,0.0011856851633638144,0.007003811188042164,0.011611271649599075
1690840654305029000,4.326029052734375,0.0014831603039056063,0.004674877040088177,0.016916554421186447
1690840654315070200,4.3360703125,0.0018814322538673878,0.002925241831690073,0.024809814989566803
1690840654325110300,4.3461103515625,-0.001679480541497469,0.0016977909253910184,0.024399954825639725
1690840654335150300,4.356150390625,-0.002040119841694832,-0.0008513389620929956,0.02439446933567524
1690840654345221000,4.36622119140625,-0.002207632642239332,-0.004014641512185335,0.024957461282610893
1690840654355261200,4.37626123046875,-0.0010028034448623657,-0.0014781751669943333,0.020013445988297462
1690840654365302000,4.386302001953125,0.00014768214896321297,-0.0027248007245361805,0.013765404000878334
1690840654375342000,4.396342041015625,0.001009701518341899,0.0035579160321503878,0.009144118055701256
1690840654385382100,4.406382080078125,-0.0000020335428416728973,0.0024686832912266254,0.0013461150228977203
1690840654395422200,4.416422119140625,0.0003841477446258068,0.004016885068267584,-0.004780799150466919
1690840654405463300,4.42646337890625,0.0003990614786744118,0.002366524189710617,-0.013014227151870728
1690840654415503000,4.436503173828125,-0.0013440297916531563,0.0009907608618959785,-0.015493886545300484
1690840654425543200,4.446543212890625,0.0004914212040603161,-0.0013448314275592566,-0.01770537532866001
1690840654435584000,4.456583984375,-0.0009827078320086002,-0.0018428978510200977,-0.018801521509885788
1690840654445624000,4.4666240234375,0.0005715126171708107,-0.003436001017689705,-0.01905505359172821
1690840654455664000,4.4766640625,0.0005423394031822681,-0.0007903869263827801,-0.017252914607524872
1690840654465704200,4.4867041015625,0.0009756358340382576,-0.0019608463626354933,-0.014755669981241226
1690840654475745300,4.496745361328125,-9.140931069850922e-7,0.0009240310173481703,-0.009840516373515129
1690840654485785300,4.506785400390625,0.0009325237479060888,0.000750925624743104,-0.005811953917145729
1690840654495856000,4.516856201171875,-0.0005862768739461899,0.001967990305274725,-0.0018755346536636353
1690840654505896200,4.526896240234375,-0.002136236522346735,0.0026407046243548393,0.004865990951657295
1690840654515936300,4.536936279296875,-0.0004247138276696205,0.0006213454762473702,0.008172220550477505
1690840654525977000,4.54697705078125,-0.00038822833448648453,-0.0010660334955900908,0.01142633706331253
1690840654536017200,4.55701708984375,0.00040712300688028336,0.0006781384581699967,0.014288335107266903
1690840654546057200,4.56705712890625,0.0005243020132184029,-0.0029046121053397655,0.012617734260857105
1690840654556098300,4.577098388671875,0.00028317607939243317,0.0013932327274233103,0.015128888189792633
1690840654566138000,4.58713818359375,-0.0005812859162688255,0.0003394198138266802,0.013148029334843159
1690840654576178200,4.59717822265625,0.0004283483140170574,0.002641325816512108,0.01040393952280283
1690840654586218200,4.60721826171875,0.00012528058141469955,0.002419484546408057,0.007961288094520569
1690840654596259000,4.617259033203125,-0.0007581491954624653,0.0021294618491083384,0.002058057114481926
1690840654606299100,4.627299072265625,-0.0017259418964385986,0.002130793407559395,-0.0003707464784383774
1690840654616339200,4.637339111328125,-0.001104352530092001,0.0011422596871852875,-0.004315342754125595
1690840654626380300,4.64738037109375,-0.0007418962195515633,-0.002719323616474867,-0.008727667853236198
1690840654636420400,4.65742041015625,-0.0010771052911877632,-0.0006256974302232265,-0.008980654180049896
1690840654646491100,4.6674912109375,0.0003972207196056843,-0.0016555418260395527,-0.00924457423388958
1690840654656531200,4.67753125,0.000741325318813324,-0.000654085073620081,-0.012540558353066444
1690840654666578200,4.687578125,0.0006100311875343323,0.0006793596548959613,-0.012728309258818626
1690840654676618200,4.6976181640625,-0.000664945226162672,0.00008119037374854088,-0.008388800546526909
1690840654686659300,4.707659423828125,0.0002122996374964714,0.0011262147454544902,-0.007921682670712471
1690840654696699400,4.717699462890625,0.000674455426633358,-0.00001956196501851082,-0.005490848794579506
1690840654706739500,4.727739501953125,0.0005892342887818813,-0.00016710092313587666,-0.0013024955987930298
1690840654716780500,4.737780517578125,-0.0006419285200536251,0.00032033026218414307,0.0028178226202726364
1690840654726820400,4.7478203125,-0.000674152746796608,0.0012668176786974072,0.0022399164736270905
1690840654736860200,4.757860107421875,-0.0007865079678595066,-0.0024294215254485607,0.00516506377607584
1690840654746900200,4.767900146484375,0.0001879427582025528,-0.0027905460447072983,0.009293762966990471
1690840654756941300,4.77794140625,0.0006526117213070393,-0.0015042205341160297,0.007018915377557278
1690840654766981400,4.7879814453125,-0.00006910460069775581,-0.000901280902326107,0.008972343988716602
1690840654777021400,4.798021484375,-0.0008776825852692127,0.0010282447328791022,0.008123672567307949
1690840654787062500,4.8080625,0.0003657471388578415,0.0007986802374944091,0.005350256338715553
1690840654797132500,4.818132568359375,0.00030103372409939766,0.00021181884221732616,0.0038090627640485764
1690840654807173400,4.82817333984375,-0.000836668536067009,0.0018246292602270842,-0.0001667700707912445
1690840654817213200,4.838213134765625,-0.0005159643478691578,0.001580186653882265,0.0012817829847335815
1690840654827253200,4.848253173828125,-0.001572973094880581,-0.0012648683041334152,-0.0014777854084968567
1690840654837294300,4.85829443359375,-0.0010885028168559074,0.0006932824617251754,-0.0034936610609292984
1690840654847334400,4.86833447265625,0.0009498805738985538,-0.0006340369582176208,-0.004805799573659897
1690840654857374500,4.87837451171875,0.0004074401222169399,-0.000544749666005373,-0.005080509930849075
1690840654867414500,4.88841455078125,-0.0007984391413629055,0.000043542589992284775,-0.00649305060505867
1690840654877455400,4.898455322265625,-0.0005061673000454903,0.0014020211528986692,-0.005342297255992889
1690840654887495200,4.9084951171875,-0.0001796637661755085,0.0010880343616008759,-0.0050357673317193985
1690840654897535200,4.91853515625,-0.00069063575938344,-0.001189536415040493,-0.004824651405215263
1690840654907575300,4.9285751953125,0.00007848534733057022,-0.000796720152720809,-0.0037029292434453964
1690840654917616400,4.938616455078125,-0.0011023590341210365,0.0007420596666634083,-0.0008417181670665741
1690840654927656400,4.948656494140625,-0.0003995508886873722,-0.0021703732199966908,-0.00063292495906353
1690840654937696500,4.958696533203125,0.0006580431945621967,0.0005216461140662432,0.001893928274512291
1690840654947767600,4.968767578125,0.00165619608014822,0.00015519512817263603,0.0024534575641155243
1690840654957807400,4.978807373046875,-0.00016296328976750374,0.0003930516541004181,0.004747847095131874
1690840654967848200,4.98884814453125,0.0014975178055465221,0.00033153267577290535,0.005108439363539219
1690840654977888300,4.99888818359375,-0.00037547387182712555,-0.0002240389585494995,0.004601031541824341
1690840654987928300,5.00892822265625,0.00012679863721132278,-0.0005494772922247648,0.0052274065092206
1690840654997969400,5.018969482421875,0.00013368111103773117,0.00024245562963187695,0.0042397379875183105
1690840655008009500,5.029009521484375,0.0001981295645236969,0.0013620485551655293,0.0044229645282030106
1690840655018049500,5.039049560546875,0.0019671767950057983,0.0015473701059818268,-0.0002642720937728882
1690840655028089300,5.04908935546875,-0.0008075707592070103,-0.000995415961369872,0.002236969769001007
1690840655038130200,5.059130126953125,0.000634870957583189,-0.0007120212540030479,0.00014566071331501007
1690840655048170200,5.069170166015625,0.00020237360149621964,-0.0004947073757648468,-0.0045177992433309555
1690840655058210300,5.079210205078125,0.0009327186271548271,0.0019918077159672976,-0.002363741397857666
1690840655068251400,5.08925146484375,-0.0010279007256031036,-0.0014982649590820074,-0.003507036715745926
1690840655078291500,5.09929150390625,-0.0011877627111971378,0.00015653204172849655,-0.003498004749417305
1690840655088331500,5.10933154296875,0.0006735203787684441,-0.00035559386014938354,-0.0033941417932510376
1690840655098402600,5.119402587890625,0.0006580427289009094,0.00036584294866770506,-0.004362538456916809
1690840655108442400,5.1294423828125,-0.0008631548844277859,-0.0014557591639459133,-0.0014980416744947433
1690840655118482400,5.139482421875,0.0010166214779019356,0.001299036550335586,-0.0020461920648813248
1690840655128523300,5.149523193359375,-0.0005040434189140797,0.0012164786458015442,0.00034985318779945374
1690840655138563300,5.159563232421875,0.0001445319503545761,-0.00027048634365200996,0.0006760172545909882
1690840655148603400,5.169603271484375,-0.0003739851526916027,0.0004389798268675804,0.0011348798871040344
1690840655158644500,5.17964453125,-0.00016337120905518532,0.0016273362562060356,0.001795826479792595
1690840655168684500,5.1896845703125,-0.001052600797265768,0.0010113470489159226,0.0025023631751537323
1690840655178724400,5.199724365234375,0.0005362271331250668,0.0014982938300818205,0.002212056890130043
1690840655188764400,5.209764404296875,0.00024008331820368767,0.001241298858076334,0.002926049754023552
1690840655198805200,5.21980517578125,-0.0018923557363450527,-0.0009373878128826618,0.0021146275103092194
1690840655208845300,5.22984521484375,-0.0003567771054804325,0.001191809307783842,0.0014522988349199295
1690840655218885400,5.239885498046875,0.00007782550528645515,-0.00029726652428507805,0.00043575093150138855
1690840655228926500,5.249926513671875,-0.0007285797037184238,-0.00013401475735008717,0.0006448086351156235
1690840655238966500,5.259966552734375,-0.0003138347528874874,-0.0012459654826670885,-0.0013736020773649216
1690840655249037600,5.27003759765625,0.0018571740947663784,0.00046857772395014763,-0.0011179372668266296
1690840655259077400,5.280077392578125,-0.0008902493864297867,0.0005096140084788203,-0.002023821696639061
1690840655269117400,5.290117431640625,0.00008180411532521248,-0.0003937303554266691,-0.0018840059638023376
1690840655279158300,5.300158203125,-0.0010253372602164745,-0.0005914049688726664,-0.0029898732900619507
1690840655289198300,5.3101982421875,0.00009851669892668724,-0.0020249844528734684,-0.002513701096177101
1690840655299238400,5.32023828125,-0.0010294574312865734,0.0014163784217089415,-0.0022929776459932327
1690840655309278500,5.330278564453125,0.000008110422641038895,-0.0010401213075965643,-0.003317495808005333
1690840655319319600,5.340319580078125,0.00025530532002449036,0.0011105716694146395,-0.0006107483059167862
1690840655329359400,5.350359375,-0.000029120594263076782,-0.00031421962194144726,-0.0018179602921009064
1690840655339399400,5.3603994140625,-0.0002526720054447651,-0.00008655129931867123,0.0012293588370084763
1690840655349440300,5.370440185546875,-0.00016904855147004128,-0.00033342628739774227,0.0004597064107656479
1690840655359480300,5.380480224609375,-0.0008063614368438721,0.0014210960362106562,0.0010525248944759369
1690840655369520400,5.390520263671875,0.0015385516453534365,-0.0015736287459731102,0.0012413430958986282
1690840655379560400,5.400560546875,0.0018257927149534225,-0.0004150262102484703,0.0012932885438203812
1690840655389601500,5.4106015625,0.00015625730156898499,-0.00042754318565130234,0.0007982067763805389
1690840655399671300,5.42067138671875,-0.0009500510059297085,-0.0005904068239033222,0.0009420793503522873
1690840655409712400,5.43071240234375,-0.0009945258498191833,0.0002074760850518942,0.0017484836280345917
1690840655419752400,5.44075244140625,0.0018428985495120287,0.002663516439497471,0.002555001527070999
1690840655429792500,5.45079248046875,-0.00003676069900393486,0.0013058370677754283,0.0017712321132421494
1690840655439833300,5.460833251953125,0.0007117134518921375,-0.0009828037582337856,-0.0008197184652090073
1690840655449873400,5.470873291015625,0.0002453937195241451,-0.000897848978638649,-0.0008735135197639465
1690840655459913500,5.48091357421875,0.0017433594912290573,0.0030952587258070707,-0.001695403829216957
1690840655469953300,5.490953369140625,-0.00044735660776495934,-0.0003641874063760042,-0.0018472038209438324
1690840655479994400,5.500994384765625,-0.00010848743841052055,0.0025298797991126776,-0.0006102770566940308
1690840655490034400,5.511034423828125,-0.0009202188812196255,0.0026374715380370617,-0.0013532992452383041
1690840655500074500,5.521074462890625,0.000444652047008276,-0.001195736462250352,-0.0016173738986253738
1690840655510115300,5.531115234375,-0.0009734812192618847,-0.001442345092073083,-0.0008322745561599731
1690840655520155400,5.5411552734375,-0.00045777577906847,0.0005121823633089662,-0.0011089053004980087
1690840655530195500,5.551195556640625,0.000033577438443899155,0.0008410826558247209,0.0005185529589653015
1690840655540235300,5.5612353515625,-0.0008401335217058659,-0.0014691764954477549,-0.001027178019285202
1690840655550306300,5.571306396484375,0.00045229867100715637,-0.0009988623205572367,-0.00001597590744495392
1690840655560346400,5.581346435546875,-0.0009733471088111401,0.00212191604077816,0.0013238228857517242
1690840655570387500,5.591387451171875,-0.0009746789000928402,-0.002403859980404377,0.00025376491248607635
1690840655580427500,5.601427490234375,0.0013622795231640339,0.0010516379261389375,0.0007704179733991623
1690840655590467300,5.61146728515625,-0.0003948742523789406,-0.0015593250282108784,0.001517169177532196
1690840655600508400,5.62150830078125,0.00047806790098547935,0.0013591274619102478,0.0002735871821641922
1690840655610548500,5.631548583984375,0.0003307950682938099,0.00006829341873526573,0.0008557531982660294
1690840655620588300,5.64158837890625,-0.0007816371507942677,-0.00035696662962436676,0.002324974164366722
1690840655630628400,5.65162841796875,-0.0008921581320464611,0.000498706940561533,0.0003017708659172058
1690840655640669400,5.66166943359375,-0.0004781247116625309,0.0005198766011744738,0.00013213790953159332
1690840655650709500,5.67170947265625,0.00017940998077392578,-0.001262044534087181,-0.000017533078789711
1690840655660749300,5.681749267578125,-0.0005596871487796307,0.0010746755870059133,-0.00036592409014701843
1690840655670783200,5.691783203125,-0.00017752358689904213,-0.0006358728278428316,0.0005848240107297897
1690840655680823300,5.7018232421875,0.0011387141421437263,0.0015097083523869514,-0.0005594305694103241
1690840655690863400,5.71186328125,0.00031206896528601646,0.0011118320981040597,-0.0012361407279968262
1690840655700934100,5.72193408203125,0.0009437832050025463,0.0018894023960456252,0.00041100941598415375
1690840655710974200,5.73197412109375,0.00026201410219073296,-0.0005186279304325581,-0.0010707732290029526
1690840655721015300,5.742015380859375,-0.00031649554148316383,0.0012194957816973329,0.00020399317145347595
1690840655731055400,5.752055419921875,-0.0006669675931334496,-0.0009637637995183468,-0.0031854119151830673
1690840655741095400,5.762095458984375,0.00017358828336000443,-0.0006119688041508198,0.0003228355199098587
1690840655751135200,5.77213525390625,-0.0008088517934083939,0.00024450384080410004,0.00040885619819164276
1690840655761176300,5.78217626953125,0.0019083034712821245,-0.0014294777065515518,0.0016196276992559433
1690840655771216100,5.792216064453125,-0.0010906821116805077,-0.00017113424837589264,0.0003580879420042038
1690840655781256200,5.802256103515625,-0.0000787908211350441,-0.0023834279272705317,0.001961642876267433
1690840655791297300,5.81229736328125,-0.001481478102505207,0.0007766791386529803,-0.0009230934083461761
1690840655801337300,5.82233740234375,0.0006433487869799137,-0.0020241206511855125,0.00164702907204628
1690840655811377400,5.83237744140625,-0.0007798443548381329,0.00026939366944134235,-0.0005106646567583084
1690840655821417200,5.842417236328125,0.0001803436316549778,0.0009672002634033561,-0.001378171145915985
1690840655831458300,5.852458251953125,-0.00032112980261445045,-0.0004293613601475954,-0.0004932042211294174
1690840655841498400,5.862498291015625,-0.00021739304065704346,-0.0001909397542476654,-0.0002519078552722931
1690840655851569200,5.872569091796875,-0.001992656383663416,-0.00007402687333524227,0.0014775488525629044
1690840655861609200,5.882609130859375,0.00043048104271292686,0.0009788034949451685,0.0006522331386804581
1690840655871649300,5.892649169921875,0.0008568530902266502,-0.0007794154807925224,0.00009856186807155609
1690840655881690400,5.9026904296875,-0.00035931356251239777,0.0012030937941744924,0.00004780478775501251
1690840655891730400,5.91273046875,-0.00027995137497782707,0.00017511355690658092,-0.0012294482439756393
1690840655901770200,5.922770263671875,-0.0006674239411950111,-0.0007316654082387686,-0.00013184919953346252
1690840655911810000,5.93281005859375,0.0003672144375741482,0.0005447876174002886,-0.0006232019513845444
1690840655921851100,5.94285107421875,0.00006486102938652039,-0.0018055238761007786,-0.0015711281448602676
1690840655931891200,5.95289111328125,0.0008241285104304552,-0.0014694328419864178,0.0002336949110031128
1690840655941931300,5.96293115234375,0.002034291159361601,0.0009859194979071617,-0.001124795526266098
1690840655951972400,5.972972412109375,-0.0009995820000767708,-0.0019395630806684494,-0.0007857754826545715
1690840655962012400,5.983012451171875,0.00033605098724365234,0.002632091986015439,0.0005263593047857285
1690840655972052200,5.99305224609375,-0.00023439805954694748,0.0016632338520139456,0.0003002583980560303
1690840655982092300,6.00309228515625,0.0011943422723561525,-0.0018821184057742357,-0.00033162347972393036
1690840655992133400,6.01313330078125,0.0003338749520480633,-0.0013729219790548086,0.0005685240030288696
1690840656002203100,6.023203125,0.0019324114546179771,0.0004330216906964779,0.0022571664303541183
1690840656012244200,6.033244140625,0.0004990980960428715,-0.0010202652774751186,-0.0010012127459049225
1690840656022284300,6.0432841796875,0.0014233081601560116,0.00040524802170693874,0.00013941526412963867
1690840656032324400,6.053324462890625,-0.000024386215955018997,-0.0009031631052494049,-0.0023407861590385437
1690840656042365400,6.063365478515625,0.0016899120528250933,0.0010768038919195533,0.0014038234949111938
1690840656052405200,6.0734052734375,0.00021398812532424927,-0.0012321567628532648,0.00008635781705379486
1690840656062445000,6.083445068359375,0.0008424755651503801,0.0014368284028023481,-0.000138724222779274
1690840656072485000,6.093485107421875,0.0007692384533584118,0.0010016679298132658,0.00013638101518154144
1690840656082526200,6.103526123046875,-0.0005516507662832737,0.000265276525169611,-0.0011831820011138916
1690840656092566300,6.113566162109375,0.00018870830535888672,0.0012178892502561212,-0.0011461637914180756
1690840656102606300,6.1236064453125,-0.0007618041709065437,-0.00038102827966213226,-0.0013097245246171951
1690840656112647200,6.133647216796875,-0.0005399626679718494,-0.00023561972193419933,-0.0010324884206056595
1690840656122687200,6.143687255859375,0.0009029358625411987,-0.0024345635902136564,0.0001621060073375702
1690840656132727000,6.15372705078125,0.0006294292397797108,-0.0012145696673542261,0.00047928839921951294
1690840656142767000,6.16376708984375,-0.00027113407850265503,0.0005388364661484957,-0.0008582435548305511
1690840656152838100,6.173838134765625,0.000009562820196151733,0.00037931324914097786,-0.0011301524937152863
1690840656162879200,6.183879150390625,0.0021262995433062315,-0.001439049607142806,0.0020155273377895355
1690840656172919300,6.193919189453125,-0.001346995122730732,0.0007015991723164916,-0.0011104904115200043
1690840656182959400,6.20395947265625,-0.0017444086261093616,-0.0014666477218270302,0.0003858990967273712
1690840656192999400,6.21399951171875,-0.0008149654604494572,0.0014122293796390295,-0.0003667101263999939
1690840656203040300,6.224040283203125,-0.0010804394260048866,-0.0007296844851225615,-0.0002789255231618881
1690840656213080000,6.234080078125,0.0007496848702430725,-0.000012761447578668594,0.0011107120662927628
1690840656223120100,6.2441201171875,-0.0006972267292439938,0.0002576804254204035,0.0012554209679365158
1690840656233161200,6.2541611328125,-0.000867136288434267,0.00038631120696663857,0.0003584679216146469
1690840656243201300,6.264201171875,-0.0008398382924497128,-0.0000703912228345871,-0.0006564315408468246
1690840656253241300,6.274241455078125,-0.0001295730471611023,-0.0015071665402501822,0.0020757056772708893
1690840656263281400,6.284281494140625,-0.0012943721376359463,0.002368127927184105,0.00045537203550338745
1690840656273322200,6.294322265625,0.00013574538752436638,-0.0001160686369985342,0.001729162409901619
1690840656283362000,6.304362060546875,0.0005353530868887901,0.0007198797538876534,0.00016982480883598328
1690840656293402000,6.314402099609375,0.0007478734478354454,-0.0016181094106286764,-0.0017700213938951492
1690840656303473200,6.32447314453125,-0.0019751046784222126,0.001825888641178608,0.0004524737596511841
1690840656313513200,6.33451318359375,0.0002560913562774658,0.00023198663257062435,0.0007022786885499954
1690840656323554300,6.34455419921875,-0.0013080369681119919,-0.00022178003564476967,-0.00039907172322273254
1690840656333594400,6.354594482421875,-0.0013959216885268688,0.0007838296005502343,0.0017985682934522629
1690840656343634400,6.364634521484375,-0.0002270233817398548,-0.000999268377199769,-0.0007924716919660568
1690840656353674200,6.37467431640625,-0.0008163810707628727,-0.00004132930189371109,-0.00013839825987815857
1690840656363715000,6.384715087890625,0.000336991623044014,-0.002290019765496254,-0.000041192397475242615
1690840656373755100,6.394755126953125,0.0010216902010142803,0.001818438759073615,-0.0002760831266641617
1690840656383795200,6.404795166015625,0.00034263450652360916,-0.00006007426418364048,0.00015464425086975098
1690840656393836300,6.414836181640625,-0.0008408739231526852,-0.001013485947623849,-0.00044216960668563843
1690840656403876400,6.42487646484375,-0.0004267771728336811,0.000340089900419116,-0.0004245638847351074
1690840656413916400,6.43491650390625,-0.0007375678978860378,-0.0003523321356624365,-0.0007952749729156494
1690840656423956200,6.444956298828125,0.0008309469558298588,0.00031609158031642437,0.00011743046343326569
1690840656433997000,6.4549970703125,-0.00194459967315197,0.00038719805888831615,0.0004913397133350372
1690840656444037000,6.465037109375,0.0002458370290696621,0.000369115499779582,0.00020010396838188171
1690840656454108200,6.475108154296875,-0.0008399337530136108,0.000002132030203938484,-0.0015860777348279953
1690840656464148200,6.485148193359375,0.0015083786565810442,0.0006393291987478733,-0.00038196519017219543
1690840656474188300,6.495188232421875,0.0007049031555652618,0.000534134334884584,-0.0010235216468572617
1690840656484229400,6.5052294921875,0.00020165136083960533,0.0009854357922449708,0.0017337463796138763
1690840656494269400,6.51526953125,0.0004740930162370205,-0.0010928951669484377,0.001408575102686882
1690840656504309200,6.525309326171875,0.00010723527520895004,-0.0002173292450606823,-0.0008020065724849701
1690840656514349300,6.535349365234375,0.0004933932796120644,0.0006972004193812609,0.0005668587982654572
1690840656524390100,6.54539013671875,0.00022458145394921303,0.002714451402425766,0.0002946536988019943
1690840656534430200,6.55543017578125,0.0008152704685926437,-0.0006821444258093834,-0.0011261440813541412
1690840656544470300,6.56547021484375,0.00043296394869685173,0.00167806854005903,0.0008165277540683746
1690840656554511400,6.575511474609375,0.0005565346218645573,-0.0003174380399286747,0.0022533033043146133
1690840656564551400,6.585551513671875,0.0006800694391131401,-0.0003449181094765663,0.00026993267238140106
1690840656574591200,6.59559130859375,-0.0013553844764828682,-0.00017926935106515884,-0.0013101212680339813
1690840656584631300,6.60563134765625,-0.00048573920503258705,0.00013154465705156326,-0.0007972139865159988
1690840656594672000,6.615672119140625,0.0002956325188279152,0.002242366084828973,-0.0004374217242002487
1690840656604743200,6.6257431640625,-0.0006617642939090729,0.0007983538089320064,0.0015412736684083939
1690840656614783200,6.635783203125,-0.0006676232442259789,-0.000913259806111455,0.00023872219026088715
1690840656624823300,6.6458232421875,0.0006897901184856892,0.002298640087246895,0.00038411468267440796
1690840656634863400,6.65586328125,0.00017526745796203613,0.00008768378756940365,-0.0010715704411268234
1690840656644904400,6.665904541015625,0.0006494065746665001,0.0004068107809871435,-0.0007189977914094925
1690840656654944300,6.6759443359375,0.0009604638908058405,-0.0005900103133171797,-0.00016799010336399078
1690840656664984300,6.685984375,-0.0019373027607798576,-0.0012250093277543783,0.00009025447070598602
1690840656675005200,6.696005126953125,0.0005042832344770432,0.0015787666197866201,0.00032274797558784485
1690840656685045200,6.706045166015625,0.001021749572828412,-0.001269523985683918,-0.0009774323552846909
1690840656695085000,6.7160849609375,-0.001229686662554741,0.00153824663721025,-0.0003702305257320404
1690840656705125000,6.726125,0.0002956753596663475,0.0012614638544619083,0.0008308775722980499
1690840656715166200,6.736166259765625,0.0000655781477689743,0.0003775607328861952,0.0002841297537088394
1690840656725206000,6.7462060546875,0.0006524133495986462,0.0003574448637664318,-0.000871613621711731
1690840656735246000,6.75624609375,-0.0002085869200527668,-0.0014923866838216782,-0.0005783997476100922
1690840656745287200,6.766287109375,0.0006375242955982685,0.0006190653657540679,0.0006740707904100418
1690840656755357000,6.77635693359375,-0.0007771467790007591,0.00022651534527540207,-0.0007768198847770691
1690840656765398000,6.78639794921875,-0.0010100295767188072,0.0008217638824135065,0.0005784854292869568
1690840656775438000,6.79643798828125,-0.00015675276517868042,0.0014614552492275834,-0.0017784126102924347
1690840656785478100,6.80647802734375,0.00016953377053141594,-0.0006432340014725924,0.000041639432311058044
1690840656795518200,6.816518310546875,-0.0012448709458112717,0.001107261748984456,-0.00004970841109752655
1690840656805559000,6.82655908203125,-0.0005187857896089554,-0.0004033863078802824,0.00046771392226219177
1690840656815599000,6.83659912109375,-0.00043596141040325165,0.0005127410404384136,0.0005302987992763519
1690840656825639200,6.84663916015625,0.0010751292575150728,0.0012639944907277822,0.0006827935576438904
1690840656835680300,6.85668017578125,0.00030840514227747917,0.0010019394103437662,-0.001280488446354866
1690840656845720000,6.866719970703125,-0.0003648856654763222,-0.0011747907847166061,-0.0021760184317827225
1690840656855760100,6.876760009765625,0.0006460500881075859,-0.00036092870868742466,-0.00003563612699508667
1690840656865800200,6.88680029296875,0.0005203234031796455,0.0001344406045973301,0.00010969489812850952
1690840656875841000,6.896841064453125,-0.0004748995415866375,0.00027532177045941353,-0.000024527311325073242
1690840656885881000,6.906881103515625,0.0022455535363405943,0.0015561350155621767,0.0010073240846395493
1690840656895921200,6.916921142578125,0.0004266146570444107,0.0005345464451238513,-0.0005255918949842453
1690840656905992000,6.926991943359375,0.0005575632676482201,-0.0010451148264110088,0.000012794509530067444
1690840656916032000,6.937031982421875,-0.0004903906956315041,0.0006609061965718865,0.0013278629630804062
1690840656926073000,6.947072998046875,0.00007039867341518402,-0.0000688296277076006,0.00046554021537303925
1690840656936113200,6.957113037109375,0.002057116711512208,0.0014707437949255109,0.0003811195492744446
1690840656946153200,6.9671533203125,-0.0007701418362557888,0.0007131648017093539,-0.0019417516887187958
1690840656956194000,6.977194091796875,0.0017492084298282862,-0.0007470464333891869,-0.00021975114941596985
1690840656966234000,6.987234130859375,-0.002961243037134409,-0.0007673271466046572,0.001449117437005043
1690840656976274200,6.997274169921875,0.00045798951759934425,0.0015307145658880472,-0.001210847869515419
1690840656986314000,7.00731396484375,0.0014091571792960167,0.0011924061691388488,-0.00002209283411502838
1690840656996355000,7.01735498046875,-0.0007155127823352814,0.0012390115298330784,-0.00048601627349853516
1690840657006395100,7.02739501953125,-0.0006308075971901417,0.0003248846624046564,-0.001718629151582718
1690840657016435200,7.037435302734375,0.00018811458721756935,0.00020690658129751682,0.0008108410984277725
1690840657026475300,7.047475341796875,0.0019142644014209509,-0.0012549329549074173,0.0009280294179916382
1690840657036516000,7.05751611328125,0.001330765662714839,-0.0009492021054029465,-0.001976415514945984
1690840657046556200,7.06755615234375,0.0007222937420010567,-0.0015671474393457174,-0.00029311515390872955
1690840657056627000,7.077626953125,-0.0002750600688159466,0.0014523444697260857,-0.0007881969213485718
1690840657066667000,7.0876669921875,-0.00013688812032341957,-0.0021053238306194544,-0.0007564537227153778
1690840657076707000,7.09770703125,0.0005808337591588497,-0.0005694790743291378,0.0009620841592550278
1690840657086748200,7.107748046875,0.00027188099920749664,-0.0000052263494580984116,-0.0005245842039585114
1690840657096788200,7.117788330078125,-0.0004983050748705864,-0.0017879463266581297,0.0002461336553096771
1690840657106828300,7.127828369140625,0.00011174054816365242,0.0006279879016801715,0.0007765255868434906
1690840657116869000,7.137869140625,-0.00032501760870218277,0.0007001594640314579,0.0005384404212236404
1690840657126909200,7.1479091796875,-0.0007548453286290169,-0.0001177589874714613,-0.0002727638930082321
1690840657136949000,7.157948974609375,-0.00045017991214990616,0.0007775957928970456,-0.0007974077016115189
1690840657146989000,7.167989013671875,-0.0011175204999744892,0.00042151869274675846,0.0008116792887449265
1690840657157030100,7.178030029296875,0.000036693643778562546,0.001616745488718152,0.0009821206331253052
1690840657167070200,7.1880703125,0.00016023404896259308,-0.00023342249915003777,0.00021293573081493378
1690840657177110300,7.1981103515625,0.002059867139905691,-0.0003047951031476259,0.0005990937352180481
1690840657187151000,7.208151123046875,-0.001455613411962986,0.0009970121318474412,-0.0018149390816688538
1690840657197191200,7.218191162109375,0.000988103449344635,-0.0010376430582255125,-0.0005065277218818665
1690840657207262000,7.228261962890625,0.0010851582046598196,-0.00005894014611840248,0.0003639832139015198
1690840657217302000,7.238302001953125,0.0001916675828397274,0.0017757115419954062,0.0010867659002542496
1690840657227342000,7.248342041015625,0.000026306137442588806,-0.0009992974810302258,-0.0005759019404649734
1690840657237382100,7.258382080078125,0.0011142073199152946,0.0002923356369137764,0.0014638137072324753
1690840657247423200,7.26842333984375,0.000030452851206064224,0.0014642744790762663,-0.00032801367342472076
1690840657257463300,7.27846337890625,0.000597173348069191,0.0004054016899317503,0.0015335362404584885
1690840657267503000,7.288503173828125,-0.0002309628762304783,0.002066295361146331,-0.00022411160171031952
1690840657277544000,7.2985439453125,0.00078183738514781,-0.000485279131680727,0.0004613865166902542
1690840657287584000,7.308583984375,-0.000809838529676199,0.0009327065199613571,-0.001019427552819252
1690840657297624000,7.3186240234375,-0.0006106342189013958,-0.001469198614358902,-0.0022170506417751312
1690840657307664100,7.3286640625,0.00028144801035523415,-0.00023573962971568108,0.0004690811038017273
1690840657317705200,7.338705322265625,-0.0014245733618736267,-0.00013107736594974995,0.0005340632051229477
1690840657327745300,7.348745361328125,-0.0007934258319437504,-0.00040610996074974537,-0.0004918966442346573
1690840657337785300,7.358785400390625,0.00018981331959366798,0.0009965769713744521,0.00003753975033760071
1690840657347826200,7.368826171875,-0.0005900482647120953,0.0003671329468488693,-0.0008834172040224075
1690840657357896200,7.378896240234375,0.00046482961624860764,-0.0012557974550873041,0.00038504786789417267
1690840657367937000,7.38893701171875,-0.0005668057128787041,0.0017625025939196348,-0.0008394438773393631
1690840657377977000,7.39897705078125,0.0009748982265591621,-0.0020335670560598373,-0.0010559596121311188
1690840657388017200,7.40901708984375,0.0006693368777632713,-0.00002574734389781952,0.000546550378203392
1690840657398058200,7.419058349609375,0.000029645860195159912,0.0017577717080712318,-0.0004076603800058365
1690840657408098300,7.429098388671875,0.0009662329684942961,-0.00004823179915547371,-0.0010330379009246826
1690840657418138000,7.43913818359375,0.00042294804006814957,0.00046975293662399054,0.00017044506967067719
1690840657428178200,7.44917822265625,0.0010109047871083021,0.001592038432136178,0.00036934949457645416
1690840657438219000,7.459218994140625,-0.0005361256189644337,0.0013283854350447655,-0.0015385393053293228
1690840657448259000,7.469259033203125,-0.00031616678461432457,-0.0025750675704330206,0.002749064937233925
1690840657458299100,7.479299072265625,-0.00006529735401272774,-0.0009502731263637543,-0.001839296892285347
1690840657468340200,7.48934033203125,-0.0004600151441991329,0.002105702878907323,0.0010758619755506516
1690840657478380300,7.49938037109375,-0.000695438589900732,0.00045720627531409264,0.00031126849353313446
1690840657488420400,7.50942041015625,0.0007515246979892254,-0.0013316976837813854,-0.00009057112038135529
1690840657498460200,7.519460205078125,0.0016194488853216171,-0.0013599272351711988,-0.0014530438929796219
1690840657508531200,7.52953125,0.00028132786974310875,0.0012393406359478831,0.0011048335582017899
1690840657518571300,7.5395712890625,0.0005886564031243324,0.0003144247457385063,-0.00028586946427822113
1690840657528612000,7.549612060546875,-0.0005641565658152103,0.0014803992817178369,0.00013379007577896118
1690840657538652200,7.559652099609375,0.00040816375985741615,0.0014788014814257622,0.0007521752268075943
1690840657548692200,7.569692138671875,-0.0009792386554181576,0.0004872343270108104,0.00024716928601264954
1690840657558733300,7.5797333984375,-0.0011584698222577572,-0.0010805686470121145,-0.0010857414454221725
1690840657568773000,7.589773193359375,0.0017070923931896687,0.0003117371816188097,0.0002526137977838516
1690840657578813200,7.599813232421875,-0.0009712488390505314,-0.0009053274989128113,0.0007136072963476181
1690840657588853200,7.609853271484375,-0.0006920737214386463,0.0015348171582445502,-0.0003228951245546341
1690840657598894000,7.61989404296875,-0.0001695617102086544,0.00026475568301975727,0.0005455613136291504
1690840657608934100,7.62993408203125,0.0008242744952440262,-0.00013809744268655777,-0.0001952294260263443
1690840657618974200,7.63997412109375,0.0007696799002587795,-0.00007231743074953556,0.00023247487843036652
1690840657629015300,7.650015380859375,0.0003806762397289276,-0.0025642900727689266,0.00038102082908153534
1690840657639055400,7.660055419921875,0.0009047864004969597,0.0011481567053124309,-0.00014948099851608276
1690840657649095200,7.67009521484375,0.0010839798487722874,-0.00193106010556221,0.0006360877305269241
1690840657659166200,7.680166259765625,0.0008815794717520475,-0.0003547351807355881,-0.0005239862948656082
1690840657669208800,7.690208740234375,0.0017667864449322224,0.000910045811906457,0.0008339695632457733
1690840657679249000,7.700248779296875,-0.0005419077351689339,0.0026189961936324835,-0.0000856202095746994
1690840657689289700,7.710289794921875,-0.00019070878624916077,-0.00014864490367472172,0.0003856755793094635
1690840657699329800,7.720329833984375,-0.0006983070634305477,-0.0018884881865233183,0.000380881130695343
1690840657709369600,7.73036962890625,-0.00034740474075078964,0.00021546450443565845,0.00016309693455696106
1690840657719410700,7.74041064453125,0.0009913663379848003,-0.0011273014824837446,-0.0008124187588691711
1690840657729450800,7.75045068359375,-0.0005857343785464764,0.00007199239917099476,0.0014985688030719757
1690840657739490800,7.76049072265625,-0.00007280940189957619,0.0008978386176750064,-0.00021224655210971832
1690840657749531000,7.77053076171875,-0.0017150710336863995,-0.0012540037278085947,-0.0008555799722671509
1690840657759571700,7.78057177734375,-0.0019081500358879566,-0.00009366427548229694,-0.00020124204456806183
1690840657769611800,7.79061181640625,0.0003261822275817394,0.0014145716559141874,-0.0012009348720312119
1690840657779651800,7.80065185546875,-0.00003840448334813118,0.0015013907104730606,0.0008228011429309845
1690840657789693000,7.81069287109375,0.0007668803445994854,0.0012255579931661487,-0.0001606270670890808
1690840657799732700,7.820732666015625,0.000616944395005703,0.00027534225955605507,-0.0010325461626052856
1690840657809803800,7.8308037109375,0.0009960965253412724,0.000008258502930402756,0.00039364583790302277
1690840657819843800,7.84084375,-0.0008321637287735939,-0.00008362066000699997,-0.0005344673991203308
1690840657829884000,7.8508837890625,0.001943516544997692,0.0015876012621447444,0.0010521672666072845
1690840657839924700,7.8609248046875,0.0004742504097521305,0.001470155781134963,0.003017047420144081
1690840657849964800,7.87096484375,0.0007782541215419769,-0.0012378022074699402,-0.0015150271356105804
1690840657860004600,7.881004638671875,-0.0009053964167833328,-0.00040236860513687134,-0.0017728209495544434
1690840657870044700,7.891044677734375,0.0003637680783867836,0.0011569747002795339,-0.00015774928033351898
1690840657880085800,7.901085693359375,-0.0003603454679250717,0.0011170272482559085,-0.0006091557443141937
1690840657890125800,7.911125732421875,-0.000016810838133096695,0.0024950781371444464,0.0012134499847888947
1690840657900166000,7.921165771484375,0.0014013226609677076,-0.0013622443657368422,0.0018246471881866455
1690840657910206700,7.931206787109375,0.0007631597109138966,-0.0002729275729507208,-0.0010508913546800613
1690840657920246800,7.941246826171875,0.0006073648110032082,-0.0007608185987919569,-0.00032704509794712067
1690840657930286600,7.95128662109375,-0.0002716262824833393,-0.0002632252871990204,-0.00038528814911842346
1690840657940326700,7.96132666015625,0.00029323017224669456,-0.0002895905636250973,-0.00023641809821128845
1690840657950367700,7.97136767578125,-0.0005104299634695053,0.0007852102862671018,0.0006277263164520264
1690840657960437800,7.981437744140625,0.0009748148731887341,0.001609991304576397,0.0005702003836631775
1690840657970478800,7.991478759765625,0.00037542590871453285,0.001498473808169365,0.00017260946333408356
1690840657980519000,8.001518798828124,-0.0009292569011449814,-0.0001212607603520155,0.0010959282517433167
1690840657990559000,8.01155908203125,0.001315475907176733,0.0018673453014343977,0.00017321109771728516
1690840658000599800,8.021599853515625,-0.00006297649815678596,-0.0007633252535015345,0.0005364660173654556
1690840658010639600,8.0316396484375,0.00007228553295135498,-0.0003851370420306921,-0.00002341531217098236
1690840658020679700,8.0416796875,-0.0005532908253371716,0.00024789641611278057,0.0008793957531452179
1690840658030719700,8.0517197265625,-0.0005266182124614716,-0.0005392357707023621,0.0008960925042629242
1690840658040760800,8.0617607421875,0.0003293217159807682,0.0007247003959491849,0.0003741122782230377
1690840658050801000,8.07180078125,0.0015308770816773176,0.0016214343486353755,0.0005998034030199051
1690840658060841000,8.081841064453124,-0.0008553150109946728,0.0005425878334790468,-0.0014111492782831192
1690840658070881800,8.0918818359375,0.000870825257152319,-0.0012400257401168346,0.0008704829961061478
1690840658080921600,8.101921630859374,0.0003227465786039829,0.0006199260242283344,0.0010174904018640518
1690840658090961700,8.111961669921875,0.0010307251941412687,0.00019607017748057842,0.0014635268598794937
1690840658101001700,8.122001708984374,-0.0006060535088181496,0.000575304264202714,-0.00031306780874729156
1690840658111072800,8.13207275390625,-0.0006710276938974857,0.0010941228829324245,0.0019347891211509705
1690840658121112800,8.14211279296875,0.0014991823118180037,0.0011987851466983557,0.000756874680519104
1690840658131154000,8.15215380859375,0.0016307819169014692,-0.0002559369895607233,0.0010098591446876526
1690840658141194000,8.162194091796875,0.0004089237190783024,0.0001733647659420967,0.0013318359851837158
1690840658151233800,8.17223388671875,-0.0009642597287893295,-0.002542125526815653,-0.00002358853816986084
1690840658161274600,8.182274658203125,0.0011883731931447983,-0.00027950387448072433,-0.0010244045406579971
1690840658171314700,8.192314697265624,0.0004196702502667904,0.0012197300093248487,0.0005228761583566666
1690840658181354800,8.202354736328125,-0.0009164377115666866,0.00014381296932697296,-0.0003442484885454178
1690840658191394800,8.212394775390624,-0.000638764351606369,0.000335893826559186,0.0001653321087360382
1690840658201436000,8.222435791015625,-0.00030693458393216133,0.00038729270454496145,0.0010409783571958542
1690840658211476000,8.23247607421875,-0.00035599805414676666,-0.000227675074711442,0.00038606859743595123
1690840658221515800,8.242515869140625,0.000788628589361906,0.0013601016253232956,-0.0005380492657423019
1690840658231556600,8.252556640625,0.0005306396633386612,-0.000034371158108115196,0.001934131607413292
1690840658241596700,8.2625966796875,0.0010430319234728813,-0.0005899067036807537,0.0004299785941839218
1690840658251636700,8.27263671875,0.0008205929771065712,0.000018915394321084023,0.000727381557226181
1690840658261707800,8.282707763671874,0.0002757101319730282,-0.0012538093142211437,0.0010757241398096085
1690840658271747800,8.292747802734375,0.002021900610998273,-0.00010207900777459145,0.00037657469511032104
1690840658281789000,8.302788818359375,0.0011047080624848604,0.0023871776647865772,0.0012173354625701904
1690840658291829000,8.3128291015625,0.00024540815502405167,-0.0004011043347418308,-0.0005237217992544174
1690840658301868800,8.322868896484374,-0.000579106155782938,0.00003538769669830799,-0.0018078982830047607
1690840658311908600,8.33290869140625,0.0007726410403847694,0.001265405910089612,0.0007789060473442078
1690840658321949700,8.34294970703125,0.0009894222021102905,-0.0009367619641125202,-0.0010565463453531265
1690840658331989800,8.35298974609375,-0.0007530050352215767,-0.0009400066919624805,0.0008297469466924667
1690840658342029800,8.36302978515625,-0.0008619283325970173,-0.0022606682032346725,0.00048034079372882843
1690840658352071000,8.37307080078125,-0.00045287609100341797,0.000754179316572845,-0.0006512422114610672
1690840658362111000,8.383111083984375,0.00012662773951888084,0.0015296917408704758,0.000792190432548523
1690840658372150800,8.39315087890625,-0.000325116328895092,-0.0002602876629680395,0.0010259728878736496
1690840658382190600,8.403190673828124,0.000724701676517725,-0.0013007847592234612,0.0004802923649549484
1690840658392231700,8.413231689453125,0.0005156085826456547,0.0003887758357450366,-0.000686420127749443
1690840658402271700,8.423271728515624,-0.000394660048186779,-0.0002562417648732662,0.00043157488107681274
1690840658412342800,8.4333427734375,0.0002163178287446499,-0.001325973542407155,-0.0012231320142745972
1690840658422382800,8.4433828125,0.000047206878662109375,-0.0008745677769184113,-0.0009520221501588821
1690840658432423000,8.4534228515625,-0.0005163461901247501,0.0010775427799671888,-0.0006998106837272644
1690840658442464000,8.463464111328125,-0.0005091559141874313,0.0007523709209635854,0.0013889074325561523
1690840658452503800,8.47350390625,0.0005652904510498047,0.0049898745492100716,0.0035185813903808594
1690840658462543600,8.483543701171875,0.000680871307849884,-0.0006815935485064983,0.000730518251657486
1690840658472583700,8.493583740234374,-0.0007548797875642776,-0.0004050265997648239,0.0004638601094484329
1690840658482624800,8.503624755859375,-0.00007444247603416443,0.0001638245303183794,0.0016385801136493683
1690840658492664800,8.513664794921874,0.0012175990268588066,0.0008748461259528995,0.0007566530257463455
1690840658502705000,8.523704833984375,0.0006705857813358307,-0.0014207987114787102,-0.0022218264639377594
1690840658512746000,8.53374609375,0.000044593121856451035,0.00022559589706361294,-0.0014436636120080948
1690840658522785500,8.54378564453125,0.00041131023317575455,-0.0003829365596175194,-0.001186136156320572
1690840658532825600,8.55382568359375,0.0010168049484491348,0.0008120837155729532,-0.0010684244334697723
1690840658542865700,8.56386572265625,-0.00012435950338840485,-0.0009168405085802078,0.000015215948224067688
1690840658552906800,8.57390673828125,0.00009398767724633217,-0.000747432466596365,0.00043913163244724274
1690840658562977800,8.583977783203125,-0.0017433268949389458,0.0004746920894831419,0.0007094424217939377
1690840658573017900,8.594017822265625,0.0009186172392219305,0.0014524494763463736,-0.0022879932075738907
1690840658583058000,8.604057861328124,0.0009154216386377811,0.001358173554763198,0.0005789007991552353
1690840658593097700,8.61409765625,0.00035036634653806686,-0.0005332247819751501,-0.0011920500546693802
1690840658603138600,8.624138671875,0.00009177345782518387,0.0009448295459151268,-0.00003437325358390808
1690840658613178600,8.6341787109375,-0.0010076267644762993,-0.0010772899258881807,-0.00014896132051944733
1690840658623218700,8.64421875,-0.0009136172011494637,0.0010684189619496465,-0.00003151595592498779
1690840658633258800,8.6542587890625,-0.0010576522909104824,0.0008002965478226542,0.00020144134759902954
1690840658643299800,8.6642998046875,-0.0010467329993844032,-0.00600541103631258,-0.0022774282842874527
1690840658653340000,8.67433984375,0.00009372597560286522,0.0006776601076126099,0.000003954395651817322
1690840658663379700,8.684379638671874,-0.01370331272482872,-0.1745349019765854,0.05754528194665909
1690840658673421600,8.694421630859376,0.10427917540073395,-0.10352954268455505,0.0885271206498146
1690840658683461600,8.704461669921875,0.00962323509156704,0.03146662935614586,0.021683912724256516
1690840658693501700,8.714501708984375,-0.006291993428021669,-0.055770132690668106,0.024502713233232498
1690840658703541800,8.724541748046875,-0.02842206507921219,-0.10086569935083389,-0.02754024975001812
1690840658713612800,8.73461279296875,-0.037553489208221436,-0.10893284529447556,-0.04253336042165756
1690840658723654000,8.74465380859375,-0.03545811399817467,-0.08541341125965118,-0.045744866132736206
1690840658733693700,8.754693603515625,-0.025295017287135124,-0.04171600565314293,-0.05086512118577957
1690840658743733800,8.764733642578125,-0.00709843635559082,-0.0045004598796367645,-0.054417774081230164
1690840658753773600,8.774773681640625,0.011427044868469238,0.044226597994565964,-0.053829751908779144
1690840658763814700,8.784814697265626,0.023095417767763138,0.07096900045871735,-0.0467422753572464
1690840658773854700,8.794854736328125,0.028199849650263786,0.08765772730112076,-0.038121894001960754
1690840658783894800,8.804894775390625,0.024479679763317108,0.08662015944719315,-0.024149088189005852
1690840658793936000,8.814935791015625,0.014368277043104172,0.05987150967121124,-0.005668239668011665
1690840658803975700,8.8249755859375,-0.0002367645502090454,0.021081238985061646,0.00531623512506485
1690840658814015700,8.835015625,-0.014981879852712154,-0.018009137362241745,0.019139977172017097
1690840658824055600,8.8450556640625,-0.017663948237895966,-0.050989191979169846,0.028349988162517548
1690840658834096600,8.8550966796875,-0.015278046950697899,-0.06772033870220184,0.036520350724458694
1690840658844136700,8.86513671875,-0.008341045118868351,-0.06527822464704514,0.04594288021326065
1690840658854176800,8.8751767578125,0.0009038003627210855,-0.043825894594192505,0.04613809287548065
1690840658864247800,8.885247802734375,0.00904295314103365,-0.018146365880966187,0.04541584104299545
1690840658874287600,8.89528759765625,0.009453155100345612,0.013571957126259804,0.040370963513851166
1690840658884328700,8.90532861328125,0.011058774776756763,0.03925707936286926,0.03547261282801628
1690840658894368800,8.91536865234375,0.005364145152270794,0.05161125212907791,0.02661873959004879
1690840658904408600,8.92540869140625,-0.002142773475497961,0.05120033025741577,0.019368816167116165
1690840658914448600,8.93544873046875,-0.006225093267858028,0.03672543168067932,0.00853889249265194
1690840658924489700,8.94548974609375,-0.007166787050664425,0.013159120455384254,-0.00008282437920570374
1690840658934529800,8.95552978515625,-0.005435802973806858,-0.011852279305458069,-0.00965806469321251
1690840658944569600,8.965569580078125,-0.001918299589306116,-0.028131384402513504,-0.016246989369392395
1690840658954610700,8.975610595703126,0.004062125459313393,-0.038805462419986725,-0.023611674085259438
1690840658964650800,8.985650634765625,0.006610504351556301,-0.032900698482990265,-0.02964107133448124
1690840658974690600,8.995690673828125,0.006169979460537434,-0.022630928084254265,-0.03134745731949806
1690840658984730600,9.005730712890625,0.002021040767431259,-0.008645869791507721,-0.032636161893606186
1690840658994771700,9.015771728515626,-0.0025616888888180256,0.008848076686263084,-0.03200116753578186
1690840659004811800,9.025811767578125,-0.0031406600028276443,0.020628036931157112,-0.03005172871053219
1690840659014882600,9.035882568359375,-0.004510574042797089,0.026369884610176086,-0.0237545445561409
1690840659024922600,9.045922607421875,-0.003327864222228527,0.023582886904478073,-0.01790783926844597
1690840659034962700,9.055962646484375,-0.0002930094487965107,0.015546416863799095,-0.010140474885702133
1690840659045003800,9.066003662109376,0.0030252893920987844,0.0056445179507136345,-0.002246331423521042
1690840659055043600,9.076043701171875,0.002119512530043721,-0.0059164282865822315,0.005769927985966206
1690840659065083600,9.086083740234375,0.0010257521644234657,-0.017308631911873817,0.011759643442928791
1690840659075124700,9.096124755859375,0.002001584740355611,-0.018593374639749527,0.0182415172457695
1690840659085164800,9.106164794921876,-0.0010839537717401981,-0.013262526132166386,0.021114801988005638
1690840659095204600,9.11620458984375,-0.0017794780433177948,-0.008126195520162582,0.022823022678494453
1690840659105244700,9.12624462890625,-0.002861787099391222,0.0010236278176307678,0.023668576031923294
1690840659115285800,9.13628564453125,-0.00019279122352600098,0.005656617693603039,0.022301899269223213
1690840659125325600,9.14632568359375,0.00004023546352982521,0.014115882106125355,0.020822245627641678
1690840659135365600,9.15636572265625,0.0005573672242462635,0.017148975282907486,0.0188579224050045
1690840659145405700,9.16640576171875,0.002861267887055874,0.011586431413888931,0.011527571827173233
1690840659155446800,9.17644677734375,0.0013566126581281424,0.00874204933643341,0.006898491643369198
1690840659165517600,9.186517578125,0.001864211168140173,0.0018894693348556757,0.003791114315390587
1690840659175557600,9.1965576171875,0.0008870516903698444,-0.005351339932531118,-0.006454775109887123
1690840659185597700,9.20659765625,-0.0012490698136389256,-0.009052867069840431,-0.009729132056236267
1690840659195637800,9.2166376953125,-0.0025457628071308136,-0.008404387161135674,-0.012429842725396156
1690840659205678600,9.2266787109375,0.0005283239297568798,-0.006775598041713238,-0.014946797862648964
1690840659215718700,9.23671875,0.0012881928123533726,-0.004291354212909937,-0.01822075992822647
1690840659225758700,9.2467587890625,0.003064254764467478,0.005800161976367235,-0.011722382158041
1690840659235799800,9.2567998046875,0.0027043854352086782,0.0017374269664287567,-0.017367681488394737
1690840659245839600,9.266839599609375,0.0032479367218911648,0.005188084673136473,-0.01738605834543705
1690840659255879700,9.276879638671875,0.0011459183879196644,0.0071279993280768394,-0.011803125962615013
1690840659265919700,9.286919677734375,-0.001371567603200674,0.0036949184723198414,-0.009922932833433151
1690840659275960600,9.296960693359376,-0.0017366171814501286,0.0020560617558658123,-0.004361867904663086
1690840659286000600,9.307000732421875,-0.000532601960003376,0.0009513824479654431,-0.003020966425538063
1690840659296040700,9.317040771484375,-0.0007156459614634514,-0.001810968853533268,0.0026185419410467148
1690840659306081800,9.327081787109375,0.0007187323644757271,-0.0033305687829852104,0.0083360830321908
1690840659316151600,9.337151611328125,0.0003038882277905941,-0.005238374229520559,0.01069690752774477
1690840659326192600,9.347192626953126,0.0030975444242358208,-0.004484965931624174,0.01186763308942318
1690840659336232700,9.357232666015625,-0.0018844776786863804,-0.0024326792918145657,0.014240344986319542
1690840659346272800,9.367272705078125,0.001666581491008401,0.0010408817324787378,0.01277933456003666
1690840659356312800,9.377312744140625,-0.00006053037941455841,0.0018534413538873196,0.015206009149551392
1690840659366353700,9.387353759765626,-0.001002224162220955,0.004239633679389954,0.009732680395245552
1690840659376393700,9.397393798828125,-0.0004075402393937111,0.0029703709296882153,0.009498587809503078
1690840659386433500,9.40743359375,0.001479309517890215,0.0033823619596660137,0.006860727444291115
1690840659396474600,9.417474609375,0.000394702423363924,0.0010637299856171012,0.0023865140974521637
1690840659406514700,9.4275146484375,0.0009475743863731623,0.0005779694765806198,0.0004344172775745392
1690840659416554800,9.4375546875,0.00022988580167293549,-0.000837353290989995,-0.0036434046924114227
1690840659426594800,9.4475947265625,0.00028234999626874924,-0.0017039459198713303,-0.006248509511351585
1690840659436635600,9.4576357421875,-0.0007262611761689186,-0.0007162382826209068,-0.008271286264061928
1690840659446675700,9.46767578125,-0.000906290952116251,-0.0017865626141428947,-0.007808161899447441
1690840659456715500,9.477715576171875,0.0008663246408104897,-0.0016615893691778183,-0.009163565933704376
1690840659466786600,9.48778662109375,-0.0018831226043403149,-0.0011454690247774124,-0.011499958112835884
1690840659476826600,9.49782666015625,0.0006231856532394886,0.00025512161664664745,-0.007904350757598877
1690840659486867700,9.50786767578125,0.000477510504424572,0.00021996768191456795,-0.008427927270531654
1690840659496907800,9.51790771484375,0.00006900588050484657,0.001209442736580968,-0.005880402401089668
1690840659506947800,9.52794775390625,0.001594198402017355,0.0011953279608860612,-0.0037051327526569366
1690840659516988700,9.53798876953125,0.0006614970043301582,0.001195308635942638,-0.0022087469696998596
1690840659527028700,9.54802880859375,0.0008319392800331116,0.000903692445717752,-0.00032748840749263763
1690840659537068500,9.558068603515625,0.0008673975244164467,0.0009065306512638927,0.0032300595194101334
1690840659547108600,9.568108642578125,-0.0009824340231716633,0.00047456601168960333,0.004103310406208038
1690840659557149700,9.578149658203126,-0.0012351279146969318,0.00016742153093218803,0.006462692283093929
1690840659567189800,9.588189697265625,0.0003952588886022568,0.00017594359815120697,0.007227019406855106
1690840659577229800,9.598229736328125,0.0004112222231924534,-0.004264684859663248,0.0041746292263269424
1690840659587270700,9.608270751953125,-0.000022074207663536072,-0.0003586264792829752,0.00780105497688055
1690840659597310700,9.618310791015626,8.204951882362366e-7,-0.0006705205887556076,0.007841466926038265
1690840659607350500,9.6283505859375,-0.00015683844685554504,-0.0013094127643853426,0.005416392348706722
1690840659617421600,9.638421630859375,-0.00038131000474095345,-0.0009156500454992056,0.003297325223684311
1690840659627461600,9.648461669921875,0.0008035304490476847,0.0019906575325876474,0.001657884567975998
1690840659637501700,9.658501708984375,-0.0009563425555825233,0.00006973138079047203,-0.00004676543176174164
1690840659647542800,9.668542724609376,-0.0019715395756065845,0.0010047672549262643,-0.0021626483649015427
1690840659657582800,9.678582763671875,0.0007217149250209332,0.0010566988494247198,-0.002048131078481674
1690840659667622700,9.68862255859375,0.00014034705236554146,0.00245033111423254,-0.004937661811709404
1690840659677646800,9.698646728515625,0.001366176875308156,0.0008443404221907258,-0.004492064937949181
1690840659687687000,9.70868701171875,-0.000684723723679781,-0.0005319812335073948,-0.008548591285943985
1690840659697726700,9.718726806640625,0.0008383234962821007,-0.0006961014587432146,-0.00715244747698307
1690840659707766800,9.728766845703126,0.0009717477951198816,-0.005193647928535938,-0.004507128149271011
1690840659717807900,9.738807861328125,0.001341512892395258,-0.0036407113075256348,-0.0062349215149879456
1690840659727848000,9.748847900390626,0.0007135393097996712,-0.002673450857400894,-0.006364084780216217
1690840659737887700,9.7588876953125,0.001510821981355548,-0.001404432812705636,-0.0028646066784858704
1690840659747928800,9.7689287109375,0.00001252768561244011,0.0030598239973187447,0.00017805583775043488
1690840659757969000,9.778968994140625,-0.00037644291296601295,0.0008401493541896343,0.00006767734885215759
1690840659768039700,9.789039794921875,0.000420641154050827,0.0013019414618611336,0.0026139263063669205
1690840659778079700,9.799079833984376,-0.0007920521311461926,-0.0009578207973390818,0.0033046063035726547
1690840659788119800,9.809119873046875,-0.0000756620429456234,0.0009532637195661664,0.0021458640694618225
1690840659798160000,9.819159912109376,0.0007694391533732414,0.0006095196586102247,0.00417720153927803
1690840659808201000,9.829200927734375,0.0007880814373493195,0.0008729062974452972,0.003295429050922394
1690840659818240800,9.83924072265625,-0.0004933848977088928,0.00013931188732385635,0.004852794110774994
1690840659828280800,9.84928076171875,0.000996387330815196,-0.0034093502908945084,0.002588575705885887
1690840659838322000,9.859322021484376,-0.0009434539824724197,-0.004318891558796167,0.002519456669688225
1690840659848361700,9.86936181640625,0.00035483716055750847,-0.0031660092063248158,0.0024089347571134567
1690840659858401800,9.87940185546875,0.0006959382444620132,-0.0033992682583630085,0.003446042537689209
1690840659868441900,9.88944189453125,0.00007568811997771263,0.00015605194494128227,0.0008843466639518738
1690840659878483000,9.89948291015625,0.000981238204985857,0.00458185002207756,-0.0004182253032922745
1690840659888522800,9.909522705078125,0.0006941496394574642,0.006550458259880543,-0.0021426212042570114
1690840659898562800,9.919562744140626,0.00005607539787888527,0.0075332997366786,-0.0024003777652978897
1690840659908604000,9.92960400390625,0.0009985680226236582,0.0026788897812366486,-0.005010010674595833
1690840659918673700,9.939673583984375,0.000508998055011034,-0.0014897235669195652,-0.0027483776211738586
1690840659928714800,9.94971484375,0.00044321827590465546,-0.003437026869505644,-0.0023257341235876083
1690840659938754800,9.9597548828125,0.0004096692427992821,-0.005440615117549896,-0.003412468358874321
1690840659948795000,9.969794921875,0.0009209960699081421,-0.006016657222062349,-0.0017330795526504517
1690840659958836000,9.9798359375,0.000692212488502264,-0.0037022302858531475,0.0000818297266960144
1690840659968875800,9.989875732421876,0.00021204445511102676,-0.0014731644187122583,-0.0025866571813821793
1690840659978915600,9.99991552734375,0.000023745931684970856,0.002532162005081773,-0.0008708704262971878
1690840659988955600,10.00995556640625,0.0012591863051056862,0.002781966468319297,-0.00048524513840675354
1690840659998996700,10.019996826171875,0.00010127713903784752,0.004976002033799887,-0.001195000484585762
1690840660009036800,10.030036865234376,-0.0007421458140015602,0.005218615755438805,0.0011887960135936737
1690840660019076900,10.040076904296875,-0.0010123769752681255,0.003729133168235421,0.00038881972432136536
1690840660029117700,10.05011767578125,0.0009730097372084856,0.0010193667840212584,0.0020751338452100754
1690840660039157800,10.06015771484375,0.0003361627459526062,-0.004620236344635487,0.00026506371796131134
1690840660049197800,10.07019775390625,-0.00002070097252726555,-0.0016449526883661747,0.0020605679601430893
1690840660059237600,10.080237548828125,0.0010322656016796827,-0.003918932750821114,0.0032434631139039993
1690840660069308700,10.09030859375,-0.0008601765148341656,-0.0030709821730852127,0.00009480677545070648
1690840660079348700,10.1003486328125,-0.0002432204782962799,-0.0007117809727787971,0.002947399392724037
1690840660089389800,10.110389892578125,-0.0019002393819391727,-0.000758652575314045,0.002868570387363434
1690840660099430000,10.120429931640626,-0.00025939149782061577,0.0036400281824171543,0.0008263159543275833
1690840660109470000,10.130469970703125,-0.00029800739139318466,0.0041534858755767345,-0.0002511981874704361
1690840660119510800,10.1405107421875,0.000848391093313694,0.004162303172051907,-0.000843418762087822
1690840660129550600,10.150550537109375,-0.0005103535950183868,0.005351937375962734,-0.0017185322940349579
1690840660139590700,10.160590576171876,0.000600854866206646,0.002378299133852124,-0.001377316191792488
1690840660149630700,10.170630615234375,0.0005180304870009422,0.00031594722531735897,-0.0029746796935796738
1690840660159671800,10.180671875,0.0008669889066368341,-0.0008428620640188456,-0.0003116074949502945
1690840660169711900,10.1907119140625,-0.000017713289707899094,-0.002926785498857498,-0.001672215759754181
1690840660179752000,10.200751953125,0.0004152832552790642,-0.002906288020312786,-0.00202007032930851
1690840660189792800,10.210792724609375,0.0006951815448701382,-0.0011933427304029465,-0.001025378704071045
1690840660199832800,10.220832763671876,0.0009429189376533031,-0.000596905592828989,-0.001612810418009758
1690840660209872600,10.23087255859375,-0.0010725613683462143,0.0012606491800397635,-0.0010623354464769363
1690840660219943700,10.240943603515625,0.0006946162320673466,0.002477142494171858,-0.0009982269257307053
1690840660229983700,10.250983642578126,-0.0005797063931822777,0.0035503963008522987,-0.0016389824450016022
1690840660240024800,10.26102490234375,-0.0010690530762076378,0.0028759674169123173,0.0005781091749668121
1690840660250065000,10.27106494140625,-0.0017657363787293434,-0.00020877202041447163,0.0018787980079650879
1690840660260105000,10.28110498046875,-0.000915277749300003,0.00038899655919522047,0.0036165714263916016
1690840660270144800,10.291144775390626,0.0008887476287782192,-0.0008395195472985506,0.0027787405997514725
1690840660280185600,10.301185546875,-0.0005315747112035751,0.00015547662042081356,0.0014235042035579681
1690840660290225700,10.3112255859375,-0.00036459462717175484,-0.0009201741777360439,0.000990474596619606
1690840660300265700,10.321265625,-0.00031403591856360435,-0.0020665000192821026,0.001069074496626854
1690840660310305800,10.331305908203126,0.0005243276245892048,-0.003456669859588146,-0.0012135207653045654
1690840660320347000,10.341346923828125,-0.00016113370656967163,-0.0023108767345547676,-0.000300360843539238
1690840660330387000,10.351386962890626,0.0006828219629824162,-0.000370231457054615,0.0006594434380531311
1690840660340427000,10.361427001953125,0.0006813500076532364,0.000144479563459754,-0.0015164781361818314
1690840660350467800,10.3714677734375,-0.0009213401935994625,0.0012824482982978225,-0.0007958263158798218
1690840660360507600,10.381507568359375,0.0002689226530492306,0.003344319760799408,-0.0010061096400022507
1690840660370578700,10.39157861328125,-0.0009910189546644688,0.001967731863260269,-0.0012324787676334381
1690840660380618800,10.40161865234375,0.0007132780738174915,0.003395439125597477,-0.002458631992340088
1690840660390658800,10.411658935546875,0.0007923739030957222,0.0017951455665752292,-0.000502806156873703
1690840660400700000,10.421699951171876,0.00030098995193839073,0.0004073493182659149,-0.0014485325664281845
1690840660410740000,10.431739990234375,-0.0003040805459022522,-0.0025839130394160748,-0.0018900856375694275
1690840660420779800,10.44177978515625,-0.00007488159462809563,-0.0024908981285989285,-0.0018023215234279633
1690840660430819800,10.45181982421875,-0.0002754176966845989,-0.00367200979962945,0.00005150400102138519
1690840660440860700,10.461860595703126,0.0016240696422755718,-0.004235582426190376,-0.00007643364369869232
1690840660450900700,10.471900634765625,0.002505309646949172,-0.0026211743243038654,0.003362772986292839
1690840660460940800,10.48194091796875,0.001411947887390852,0.000059066805988550186,0.004939697682857513
1690840660470982000,10.49198193359375,-0.0004778308793902397,0.002070552436634898,0.0034129079431295395
1690840660481022000,10.50202197265625,-0.0001795007847249508,0.0023698327131569386,0.003948096185922623
1690840660491062000,10.51206201171875,0.0008777740877121687,0.0017535772640258074,0.0021019931882619858
1690840660501101800,10.522101806640626,0.0013788354117423296,0.002532889135181904,0.001132214441895485
1690840660511142700,10.532142578125,0.00027096038684248924,0.000635120552033186,0.00014950893819332123
1690840660521213000,10.542212890625,0.000812106765806675,-0.0015222430229187012,-0.002045903354883194
1690840660531253800,10.552253662109376,0.0009750921744853258,-0.00007907603867352009,-0.0027178190648555756
1690840660541293800,10.5622939453125,-0.0014878115616738796,0.00041130499448627234,-0.0045161060988903046
1690840660551334000,10.572333984375,0.0008874617051333189,-0.0021639717742800713,-0.005612529814243317
1690840660561375000,10.582375,-0.000874699093401432,-0.0029269098304212093,-0.0050693899393081665
1690840660571414800,10.592414794921876,-0.00016416748985648155,-0.005672895349562168,-0.003981754183769226
1690840660581454800,10.602454833984375,0.0005099931731820107,-0.0021601812914013863,-0.0024663545191287994
1690840660591495000,10.612494873046876,0.00059548020362854,-0.002204389777034521,0.0014218613505363464
1690840660601535700,10.62253564453125,0.000746206846088171,0.0028212228789925575,0.007063695229589939
1690840660611575800,10.632575927734376,0.0007725723553448915,0.004534967243671417,0.004983766004443169
1690840660621615900,10.642615966796875,-0.00013372628018260002,0.004334642086178064,0.005829663015902042
1690840660631657000,10.652656982421876,-0.0008410615846514702,0.0027609802782535553,0.0029678307473659515
1690840660641696800,10.66269677734375,-0.0020561357960104942,0.003437405452132225,-0.00014029443264007568
1690840660651736800,10.67273681640625,-0.0008819480426609516,0.0008799718925729394,-0.0008952990174293518
1690840660661777000,10.68277685546875,0.0003339299000799656,-0.0017063305713236332,-0.003130972385406494
1690840660671843800,10.69284375,0.00022873515263199806,-0.004346322268247604,-0.001257970929145813
1690840660681884700,10.702884765625,0.0030628046952188015,-0.000632518669590354,0.00037503987550735474
1690840660691924700,10.7129248046875,0.00042494339868426323,-0.002050918061286211,0.0015934370458126068
1690840660701964800,10.72296484375,0.0016173813492059708,-0.0022598765790462494,0.0036872252821922302
1690840660712004900,10.7330048828125,0.0016312298830598593,0.001522877486422658,0.0038270410150289536
1690840660722046000,10.7430458984375,-0.0019442499615252018,0.002966818166896701,0.004869326949119568
1690840660732085800,10.753085693359376,-0.00039935018867254257,0.0035516482312232256,-0.00007509812712669373
1690840660742125800,10.763125732421875,-0.0008365996181964874,0.0020689319353550673,-0.0014348775148391724
1690840660752166000,10.773165771484376,-0.0007718848064541817,0.002812220249325037,-0.004866361618041992
1690840660762206700,10.783206787109375,0.00000714743509888649,0.002381875878199935,-0.005100686103105545
1690840660772246800,10.793246826171876,0.0016724220477044582,0.00047265575267374516,-0.004487093538045883
1690840660782286800,10.803286865234375,0.0005608922801911831,-0.0017863120883703232,-0.0037958770990371704
1690840660792328000,10.813327880859376,-0.0005981153808534145,-0.002961831633001566,-0.000639764592051506
1690840660802368000,10.823367919921875,-0.0021484438329935074,-0.005417179316282272,0.002151140943169594
1690840660812407800,10.83340771484375,-0.000032295938581228256,-0.004471490625292063,0.0030222609639167786
1690840660822478800,10.843478759765626,-0.0009296569041907787,-0.0006431250367313623,0.0034572985023260117
1690840660832519000,10.853518798828125,0.00026770075783133507,0.0027577318251132965,0.0037406589835882187
1690840660842559700,10.863559814453126,0.000029335729777812958,0.0038352818228304386,0.002080516889691353
1690840660852599800,10.873599853515625,-0.0012108981609344482,0.004644616506993771,-0.0007898379117250443
1690840660862639900,10.883639892578126,-0.0030387314036488533,0.001950901816599071,-0.0006080735474824905
1690840660872679700,10.8936796875,-0.002074933610856533,0.0019122859230265021,-0.0031455326825380325
1690840660882720800,10.903720703125,-0.000024318695068359375,-0.0026005571708083153,-0.0011289771646261215
1690840660892760800,10.9137607421875,-0.0008006300777196884,-0.002923598513007164,-0.00018222257494926453
1690840660902801000,10.92380078125,-0.00014147255569696426,-0.004236333537846804,0.0037735383957624435
1690840660912841700,10.933841796875,0.001780264312401414,-0.0006021840963512659,0.0016656462103128433
1690840660922881800,10.9438818359375,0.00016900943592190742,-0.00020498153753578663,0.005809765309095383
1690840660932921900,10.953921875,-0.00029517943039536476,-0.00014958763495087624,0.004403881728649139
1690840660942961700,10.963961669921876,-0.0010180971585214138,0.001959617482498288,-0.0010484308004379272
1690840660953002800,10.974002685546875,-0.0003368603065609932,-0.0003192494623363018,-0.0016788020730018616
1690840660963042800,10.984042724609376,-0.0008961232379078865,0.0024566880892962217,-0.0028980188071727753
1690840660973113900,10.99411376953125,0.0008288060780614614,0.00007156119681894779,-0.004681006073951721
1690840660983154000,11.00415380859375,-0.0007565016858279705,0.0003166063688695431,-0.002498472109436989
1690840660993194000,11.014194091796876,0.0009694930631667376,-0.0014333566650748253,-0.0017434656620025635
1690840661003234800,11.02423486328125,-0.000034837983548641205,-0.0007376137655228376,0.0009737312793731689
1690840661013275000,11.03427490234375,-0.0009435084648430347,-0.0016947537660598755,0.001600906252861023
1690840661023314700,11.044314697265625,-0.0006729927845299244,-0.0024463175795972347,0.0010601337999105453
1690840661033354800,11.054354736328126,-0.0008615446276962757,-0.0008004843257367611,0.0019704028964042664
1690840661043395800,11.064395751953125,0.0003240518271923065,0.0018808427266776562,0.00039563514292240143
1690840661053436000,11.074435791015626,-0.000891414936631918,0.0007924087112769485,0.00031520798802375793
1690840661063476000,11.08447607421875,-0.000504177063703537,0.0002924639265984297,-0.0013699252158403397
1690840661073516800,11.094516845703126,-0.00039472104981541634,0.0004125724080950022,-0.0019371788948774338
1690840661083556900,11.104556884765625,0.0005596638657152653,0.0009389526676386595,-0.0003600269556045532
1690840661093596700,11.1145966796875,0.00019294628873467445,0.000277423532679677,-0.0011637676507234573
1690840661103636700,11.12463671875,0.001943756127730012,-0.0009854608215391636,0.002008022740483284
1690840661113677800,11.134677734375,-0.0016219504177570343,-0.0002443031407892704,0.0019174758344888687
1690840661123748900,11.144748779296876,-0.0007602572441101074,0.00029749120585620403,0.003667633980512619
1690840661133789000,11.154788818359375,0.0007462932262569666,-0.00003460492007434368,0.00451505184173584
1690840661143829000,11.1648291015625,0.0005798013880848885,0.0010472512803971767,0.0019676145166158676
1690840661153868800,11.174868896484375,0.0014597098343074322,0.0019865480717271566,-0.0007996764034032822
1690840661163910000,11.184909912109376,-0.0007531177252531052,0.0012259893119335175,0.00045692548155784607
1690840661173949700,11.19494970703125,-0.0003033098764717579,-0.0007500762585550547,-0.0017931796610355377
1690840661183989800,11.20498974609375,0.0003750752657651901,0.00008124625310301781,-0.0041351523250341415
1690840661194030800,11.21503076171875,0.0004429859109222889,0.00042639183811843395,-0.002217942848801613
1690840661204071000,11.22507080078125,0.0017109531909227371,0.000366625958122313,-0.0018184073269367218
1690840661214111000,11.235111083984375,0.0002709818072617054,-0.0011854642070829868,-0.0006538070738315582
1690840661224150800,11.24515087890625,-0.0009009083732962608,0.0004488389240577817,0.0007305759936571121
1690840661234192000,11.25519189453125,0.00016622012481093407,0.000006221700459718704,0.0008355043828487396
1690840661244231700,11.265231689453126,0.0005989843048155308,0.0008397144265472889,0.00036106258630752563
1690840661254271700,11.275271728515625,-0.000780266709625721,0.0013302688021212816,-0.000138014554977417
1690840661264311800,11.285311767578126,0.0006034355610609055,0.001292495522648096,0.0004679728299379349
1690840661274382800,11.2953828125,0.00043139513581991196,0.00012762891128659248,-0.00026945769786834717
1690840661284424000,11.305423828125,-0.0010834853164851665,-0.0006420596037060022,-0.001955309882760048
1690840661294464000,11.315464111328126,-0.0001553734764456749,-0.0002212801482528448,-0.0021478570997714996
1690840661304503800,11.32550390625,0.0006097843870520592,-0.00227492768317461,0.00025120191276073456
1690840661314543600,11.335543701171876,0.0014521421398967505,-0.002294634934514761,0.0006735790520906448
1690840661324584700,11.345584716796875,0.001904947916045785,-0.0025716815143823624,0.002422017976641655
1690840661334624800,11.355624755859376,0.00045245978981256485,0.0008843026589602232,0.0018864553421735764
1690840661344664800,11.365664794921875,0.0001340378075838089,0.0029267361387610435,0.002732168883085251
1690840661354706000,11.375705810546876,0.0002288459800183773,0.004630093928426504,0.000689258798956871
1690840661364745700,11.385745849609375,-0.0012749610468745232,0.003180942963808775,0.0007753018289804459
1690840661374785800,11.395785888671876,-0.0009279511868953705,0.002431795932352543,-0.0020689554512500763
1690840661384825600,11.40582568359375,0.0011072978377342224,0.0009433929808437824,-0.001395372673869133
1690840661394866700,11.41586669921875,-0.0006202948279678822,-0.0007783407345414162,-0.0005881674587726593
1690840661404906800,11.42590673828125,-0.0020428085699677467,-0.0025689764879643917,-0.00034860894083976746
1690840661414946800,11.43594677734375,-0.0008284072391688824,-0.0013614993076771498,-0.0005078651010990143
1690840661425017900,11.446017822265626,-0.0002664993517100811,0.0012542576296254992,0.002070873975753784
1690840661435058000,11.456057861328125,0.0016291388310492039,-0.0006903826724737883,0.0016069505363702774
1690840661445098800,11.4660986328125,0.0006821346469223499,0.0007954178145155311,0.0003329087048768997
1690840661455138800,11.476138916015625,-0.001775696873664856,0.0020939751993864775,0.0014722086489200592
1690840661465178600,11.4861787109375,-0.0008711181581020355,0.0028289128094911575,0.0016643032431602478
1690840661475218700,11.49621875,0.000056727323681116104,0.001652594655752182,0.0005931798368692398
1690840661485259800,11.506259765625,0.00083931814879179,0.004172478336840868,-0.0004486478865146637
1690840661495299800,11.5162998046875,-0.0005892012268304825,0.00038200104609131813,-0.0008060447871685028
1690840661505340000,11.52633984375,-0.00013370299711823463,-0.0036810629535466433,-0.00026317499577999115
1690840661515380700,11.536380615234375,0.0009717750363051891,-0.002638967940583825,-0.0019902344793081284
1690840661525420800,11.5464208984375,0.0016235108487308025,-0.00459360983222723,-0.00010754726827144623
1690840661535460600,11.556460693359375,-0.000655089970678091,-0.001264392165467143,-0.00006626732647418976
1690840661545500700,11.566500732421876,0.0007912772707641125,0.0004521359223872423,0.0029923487454652786
1690840661555541800,11.576541748046875,0.0007172413170337677,0.0004484074888750911,0.00263894721865654
1690840661565581800,11.586581787109376,-0.0007569072768092155,0.0019033423159271479,0.0010747984051704407
1690840661575652900,11.59665283203125,-0.0001230747438967228,0.002885516034439206,-0.0004205666482448578
1690840661585693000,11.60669287109375,-0.0004603136330842972,0.002174637746065855,0.0005303472280502319
1690840661595732700,11.616732666015626,0.0005421005189418793,0.0022758380509912968,-0.0012822002172470093
1690840661605773800,11.62677392578125,-0.0008615981787443161,0.0004281904548406601,-0.0009424779564142227
1690840661615813600,11.636813720703126,-0.0008027423173189163,-0.0030759968794882298,-0.002533184364438057
1690840661625853700,11.646853759765625,0.00003409339115023613,-0.003086516633629799,-0.00014280900359153748
1690840661635894800,11.656894775390626,0.0005520782433450222,-0.002272388432174921,0.0010617375373840332
1690840661645934800,11.666934814453125,0.0004307236522436142,-0.0015344598796218634,0.0000468473881483078
1690840661655975000,11.676974853515626,-0.0006502536125481129,0.002488511148840189,0.0010074488818645477
1690840661666015000,11.687014892578125,-0.0004846462979912758,0.0003565185470506549,-0.0020107626914978027
1690840661676055000,11.697054931640626,-0.00003803428262472153,0.002082513179630041,-0.0007175318896770477
1690840661686095000,11.70709521484375,0.0007983059622347355,0.001987266819924116,0.0008071195334196091
1690840661696135200,11.71713525390625,-0.0005804123356938362,0.003615523688495159,-0.00034922361373901367
1690840661706176000,11.727176025390625,0.0006762952543795109,-0.0005944161675870419,0.0006844848394393921
1690840661716216000,11.737216064453126,-0.0005085449665784836,-0.0005880245007574558,-0.0019680242985486984
