time,seconds_elapsed,z,y,x
1690840650087292000,0.1082919921875,-0.004275172483175993,0.00430047232657671,-0.07686468958854675
1690840650097332000,0.11833203125,-0.004480502102524042,0.0002721750643104315,-0.08537241816520691
1690840650107373000,0.128373046875,-0.00589517317712307,-0.002124936319887638,-0.0831281766295433
1690840650117413000,0.1384130859375,-0.005076251458376646,-0.00675297761335969,-0.08057420700788498
1690840650127484200,0.148484130859375,-0.0049217878840863705,-0.006897320970892906,-0.07039693742990494
1690840650137524200,0.158524169921875,-0.004351871553808451,-0.009614810347557068,-0.05753573030233383
1690840650147564000,0.16856396484375,-0.002965962514281273,-0.011330684646964073,-0.04302230104804039
1690840650157604000,0.17860400390625,-0.002632800955325365,-0.006966562941670418,-0.027113109827041626
1690840650167645000,0.18864501953125,-0.0037675739731639624,-0.0023728765081614256,-0.012014584615826607
1690840650177685000,0.19868505859375,-0.005556419026106596,0.00012436961696948856,0.003946272190660238
1690840650187725000,0.20872509765625,-0.004542287439107895,0.006624612957239151,0.015786420553922653
1690840650197766100,0.21876611328125,-0.00541367381811142,0.004488491453230381,0.02538578398525715
1690840650207806200,0.22880615234375,-0.004608067683875561,0.0021201425697654486,0.02755333110690117
1690840650217846000,0.238845947265625,-0.004880775231868029,0.0008199872681871057,0.02887585572898388
1690840650227886000,0.248885986328125,-0.0051928977482020855,-0.0004396878939587623,0.023787355050444603
1690840650237927000,0.258927001953125,-0.005688778590410948,-0.004254399798810482,0.01519040483981371
1690840650247967000,0.268967041015625,-0.005116731394082308,-0.0029710223898291588,0.00421205535531044
1690840650258007000,0.279007080078125,-0.004835767671465874,-0.0035896748304367065,-0.009911220520734787
1690840650268048100,0.289048095703125,-0.003921238239854574,-0.0036432044580578804,-0.022173479199409485
1690840650278118100,0.2991181640625,-0.003972371108829975,-0.0014713965356349945,-0.034108966588974
1690840650288159200,0.3091591796875,-0.005526059307157993,0.0010167949367314577,-0.04417118802666664
1690840650298199000,0.319198974609375,-0.003656520042568445,-0.0015733955660834908,-0.05290396139025688
1690840650308239000,0.329239013671875,-0.005294364411383867,-0.0031590417493134737,-0.05405444651842117
1690840650318280000,0.339280029296875,-0.003980893176048994,-0.004450674634426832,-0.05675036460161209
1690840650328320000,0.349320068359375,-0.004307929426431656,-0.00586641114205122,-0.053402505815029144
1690840650338360000,0.359360107421875,-0.004848817363381386,-0.00509888818487525,-0.04745300114154816
1690840650348400000,0.369400146484375,-0.005052815657109022,-0.00592500064522028,-0.039984166622161865
1690840650358441200,0.379441162109375,-0.005664277356117964,-0.0030858046375215054,-0.03339950367808342
1690840650368481000,0.38948095703125,-0.005631786771118641,-0.0035201662685722113,-0.021748971194028854
1690840650378521000,0.39952099609375,-0.002796052722260356,-0.0010381002211943269,-0.012344283983111382
1690840650388562000,0.40956201171875,-0.004856273997575045,-0.0004900216590613127,-0.005380916874855757
1690840650398602000,0.41960205078125,-0.0030213561840355396,0.00020746025256812572,0.0035238948184996843
1690840650408642000,0.42964208984375,-0.005512476898729801,-0.00012436961696948856,0.0055002267472445965
1690840650418682000,0.43968212890625,-0.004191016778349876,0.0010357033461332321,0.005417935084551573
1690840650428753000,0.4497529296875,-0.005788380745798349,-0.0035870117135345936,0.0057044909335672855
1690840650438793000,0.45979296875,-0.004563060123473406,-0.003204315435141325,0.002254898427054286
1690840650448834000,0.469833984375,-0.0038429414853453636,-0.002375007141381502,-0.004697815980762243
1690840650458874000,0.4798740234375,-0.00432976707816124,-0.002671150490641594,-0.00953970942646265
1690840650468914000,0.489913818359375,-0.005043760873377323,-0.0032032502349466085,-0.018282867968082428
1690840650478955000,0.499955078125,-0.004522846546024084,0.00004793690095539205,-0.0249042846262455
1690840650488995000,0.5099951171875,-0.005014199763536453,-0.001651426195167005,-0.030664967373013496
1690840650499035100,0.52003515625,-0.004662662278860807,-0.00010439591278554872,-0.036792900413274765
1690840650509075000,0.530074951171875,-0.004514058120548725,-0.005085039883852005,-0.04024116322398186
1690840650519116000,0.540115966796875,-0.004778243601322174,-0.00430286955088377,-0.039321307092905045
1690840650529156000,0.550156005859375,-0.004898618441075087,-0.0028309402987360954,-0.03944966942071915
1690840650539196000,0.56019580078125,-0.0041033984161913395,-0.0031872710678726435,-0.03748346120119095
1690840650549237000,0.570237060546875,-0.00458756135776639,-0.002207760466262698,-0.03303464874625206
1690840650559277000,0.580277099609375,-0.005115399602800608,-0.005542304366827011,-0.03075791336596012
1690840650569317000,0.590317138671875,-0.005145227070897818,-0.0021787320729345083,-0.025346634909510612
1690840650579388000,0.600387939453125,-0.0038448055274784565,-0.0012668657582253218,-0.016878049820661545
1690840650589428000,0.610427978515625,-0.004317516926676035,-0.0007600661483593285,-0.01266839075833559
1690840650599469000,0.620468994140625,-0.0041127195581793785,-0.003918841481208801,-0.011217767372727394
1690840650609508900,0.6305087890625,-0.004642955027520657,-0.0011526161106303334,-0.006572681479156017
1690840650619549000,0.640548828125,-0.005505552981048822,-0.0023515713401138783,-0.005293565336614847
1690840650629589000,0.650589111328125,-0.003346528159454465,0.0013606089632958174,-0.004745220299810171
1690840650639630000,0.660630126953125,-0.0038804919458925724,-0.0008633967954665422,-0.007865645922720432
1690840650649670100,0.670670166015625,-0.004246676806360483,-0.003513508476316929,-0.011207113973796368
1690840650659710000,0.6807099609375,-0.005674663465470076,-0.0034466630313545465,-0.01458906289190054
1690840650669759700,0.690759765625,-0.005090632475912571,-0.0013012205017730594,-0.018490061163902283
1690840650679800800,0.70080078125,-0.003754258155822754,-0.002067944500595331,-0.023905066773295403
1690840650689841000,0.7108408203125,-0.004304467234760523,-0.0019558256026357412,-0.02587447315454483
1690840650699881000,0.720880859375,-0.002645317930728197,-0.00392709719017148,-0.03063780441880226
1690840650709921800,0.730921875,-0.005555087700486183,-0.001555552356876433,-0.03045138344168663
1690840650719991800,0.74099169921875,-0.004635232035070658,-0.003525226376950741,-0.029134714975953102
1690840650730032600,0.75103271484375,-0.004683967679738998,-0.0028972530271857977,-0.03139787167310715
1690840650740072700,0.76107275390625,-0.006265086587518454,-0.0037092508282512426,-0.031317975372076035
1690840650750112800,0.77111279296875,-0.0033872744534164667,-0.0029470541048794985,-0.027485687285661697
1690840650760153900,0.78115380859375,-0.003681021276861429,-0.0041183121502399445,-0.024757277220487595
1690840650770194000,0.79119384765625,-0.005673864856362343,-0.0010604707058519125,-0.0209505558013916
1690840650780234000,0.80123388671875,-0.006853645201772451,-0.0017515610670670867,-0.01774623990058899
1690840650790273800,0.811273681640625,-0.005405950825661421,-0.002430933527648449,-0.01565299555659294
1690840650800314600,0.821314697265625,-0.005708485841751099,-0.0028666264843195677,-0.013738182373344898
1690840650810354700,0.831354736328125,-0.005628058221191168,-0.004749481566250324,-0.013525662012398243
1690840650820394800,0.841394775390625,-0.004972388036549091,0.0002300971100339666,-0.009906160645186901
1690840650830435800,0.851435791015625,-0.004259193316102028,-0.0008285093936137855,-0.01266732532531023
1690840650840476000,0.861475830078125,-0.005170527379959822,-0.0015419702976942062,-0.014659903012216091
1690840650850516000,0.871515869140625,-0.00395665830001235,-0.00006844323797849938,-0.016517192125320435
1690840650860555800,0.8815556640625,-0.004637895151972771,-0.0020474381744861603,-0.01841149851679802
1690840650870626800,0.891626708984375,-0.004107926040887833,-0.003469566348940134,-0.020966799929738045
1690840650880666600,0.90166650390625,-0.004719654098153114,-0.002600044244900346,-0.022669360041618347
1690840650890707700,0.911707763671875,-0.004624579101800919,-0.002688727341592312,-0.026070483028888702
1690840650900747800,0.921747802734375,-0.003712712787091732,-0.003469566348940134,-0.027055319398641586
1690840650910787800,0.931787841796875,-0.004114051349461079,-0.004874916281551123,-0.02648167498409748
1690840650920829000,0.941828857421875,-0.004735899157822132,-0.0021587584633380175,-0.0252185370773077
1690840650930869000,0.951868896484375,-0.0041121868416666985,-0.0035337484441697598,-0.02406751923263073
1690840650940908500,0.961908447265625,-0.005942311137914658,-0.002323608146980405,-0.025798840448260307
1690840650950948600,0.971948486328125,-0.00501180300489068,-0.0009925601771101356,-0.024326911196112633
1690840650960989700,0.98198974609375,-0.0046514770947396755,-0.003519633784890175,-0.02473996765911579
1690840650971029800,0.99202978515625,-0.004108725115656853,-0.0004183826094958931,-0.019569706171751022
1690840650981069800,1.00206982421875,-0.005557218100875616,-0.002466619713231921,-0.022182000800967216
1690840650991111000,1.01211083984375,-0.004351871553808451,-0.00010146643762709573,-0.015499064698815346
1690840651001150700,1.022150634765625,-0.0057375142350792885,0.0006442186422646046,-0.014306235127151012
1690840651011190500,1.0321904296875,-0.004195543937385082,-0.001883121207356453,-0.01324097067117691
1690840651021261600,1.042261474609375,-0.006539924535900354,-0.0023529028985649347,-0.01507162768393755
1690840651031301600,1.052301513671875,-0.004712196998298168,-0.004259992390871048,-0.015626363456249237
1690840651041342700,1.0623427734375,-0.00469595193862915,-0.0014658038271591067,-0.016747554764151573
1690840651051382800,1.0723828125,-0.003266899613663554,0.00022556974727194756,-0.017075123265385628
1690840651061422800,1.0824228515625,-0.005270928610116243,-0.003053047927096486,-0.02197400853037834
1690840651071463000,1.092462890625,-0.0026109630707651377,-0.0030357372015714645,-0.023251526057720184
1690840651081503700,1.102503662109375,-0.004071174189448357,-0.0007797735743224621,-0.02503131702542305
1690840651091543600,1.11254345703125,-0.00535428524017334,-0.00034434671397320926,-0.024893898516893387
1690840651101583600,1.12258349609375,-0.005084507167339325,-0.004193679895251989,-0.02448936365544796
1690840651111623700,1.132623779296875,-0.004193679895251989,-0.0010096043115481734,-0.026135196909308434
1690840651121664800,1.142664794921875,-0.004589691758155823,-0.0036677054595202208,-0.02267388626933098
1690840651131704800,1.152704833984375,-0.004686897154897451,-0.0003677825443446636,-0.02220943197607994
1690840651141745000,1.162744873046875,-0.004488225560635328,-0.0006881608278490603,-0.0219710785895586
1690840651151785700,1.17278564453125,-0.005400890484452248,-0.002275138394907117,-0.02099449746310711
1690840651161825500,1.182825439453125,-0.004030694253742695,-0.0013315805699676275,-0.01979607529938221
1690840651171896600,1.192896484375,-0.005682120565325022,-0.0038605183362960815,-0.01962004043161869
1690840651181936600,1.2029365234375,-0.004850681405514479,-0.00418249424546957,-0.019337479025125504
1690840651191976700,1.212976806640625,-0.005254416726529598,-0.0018170748371630907,-0.016685236245393753
1690840651202017800,1.223017822265625,-0.0037140443455427885,-0.001583249308168888,-0.01804344914853573
1690840651212057900,1.233057861328125,-0.003920705523341894,-0.0015582155901938677,-0.01672172173857689
1690840651222098000,1.243097900390625,-0.002769953804090619,0.0016820525052025914,-0.017664747312664986
1690840651232137700,1.2531376953125,-0.003952663857489824,0.0014271880500018597,-0.01683783531188965
1690840651242178600,1.263178466796875,-0.00481259822845459,-0.0028032432310283184,-0.0184120312333107
1690840651252218600,1.273218505859375,-0.005693838465958834,-0.0020868529099971056,-0.021756960079073906
1690840651262258700,1.2832587890625,-0.005425125360488892,-0.0024285365361720324,-0.021406488493084908
1690840651272299800,1.2932998046875,-0.00433189794421196,-0.0027443873696029186,-0.022541794925928116
1690840651282339800,1.30333984375,-0.004567587748169899,-0.0034029872622340918,-0.0246715247631073
1690840651292380000,1.3133798828125,-0.004848817363381386,-0.00279072648845613,-0.024819329380989075
1690840651302419700,1.323419677734375,-0.004662129562348127,-0.002432797569781542,-0.024084297940135002
1690840651312460500,1.33346044921875,-0.005565207917243242,-0.001731320982798934,-0.02094016969203949
1690840651322530800,1.34353076171875,-0.0054480284452438354,-0.0011608719360083342,-0.022313294932246208
1690840651332571600,1.353571533203125,-0.005366802215576172,-0.0012293151812627912,-0.021328991279006004
1690840651342611700,1.36361181640625,-0.004559597931802273,-0.00023675501870457083,-0.020560935139656067
1690840651352651800,1.37365185546875,-0.005072789266705513,-0.0032746228389441967,-0.019825635477900505
1690840651362692900,1.38369287109375,-0.003910852130502462,-0.00145222176797688,-0.01980326510965824
1690840651372733000,1.39373291015625,-0.004098338540643454,-0.0027830032631754875,-0.018915634602308273
1690840651382772700,1.403772705078125,-0.004003796260803938,-0.003001648932695389,-0.01840990036725998
1690840651392812800,1.413812744140625,-0.0057321880012750626,-0.004816326778382063,-0.020964670926332474
1690840651402853600,1.423853515625,-0.004881574306637049,-0.0008146609761752188,-0.018453309312462807
1690840651412893700,1.433893798828125,-0.0032919333316385746,-0.002463157754391432,-0.018221614882349968
1690840651422933800,1.443933837890625,-0.0038216360844671726,-0.0009432916413061321,-0.018446385860443115
1690840651432974800,1.453974853515625,-0.00427144393324852,-0.0011416971683502197,-0.018270350992679596
1690840651443015000,1.464014892578125,-0.0043910201638937,-0.0027944548055529594,-0.019359583035111427
1690840651453054700,1.4740546875,-0.003993676509708166,-0.0009803095599636436,-0.02075481228530407
1690840651463094800,1.4840947265625,-0.004655472002923489,-0.0016674051294103265,-0.022906381636857986
1690840651473135600,1.494135498046875,-0.004157727118581533,-0.003465305082499981,-0.023505592718720436
1690840651483206700,1.50420654296875,-0.004575577098876238,-0.0024985778145492077,-0.023958329111337662
1690840651493246700,1.514246826171875,-0.004236822947859764,-0.004878644831478596,-0.022303441539406776
1690840651503286800,1.524286865234375,-0.0043960800394415855,-0.0019060244085267186,-0.021280521526932716
1690840651513326800,1.534326904296875,-0.004240817856043577,-0.0030746194534003735,-0.022304240614175797
1690840651523368000,1.544367919921875,-0.005376921966671944,-0.00035659727291204035,-0.021042700856924057
1690840651533407700,1.55440771484375,-0.004544151946902275,-0.0014476943761110306,-0.020685037598013878
1690840651543447800,1.56444775390625,-0.004997954238206148,-0.0027286747936159372,-0.019751334562897682
1690840651553488600,1.574488525390625,-0.005212338641285896,-0.001454618526622653,-0.018488995730876923
1690840651563528700,1.58452880859375,-0.0060174125246703625,-0.004337756894528866,-0.02406592108309269
1690840651573568800,1.59456884765625,-0.004829908721148968,-0.0009512811084277928,-0.017729463055729866
1690840651583608800,1.60460888671875,-0.005656288005411625,-0.003225088119506836,-0.019517509266734123
1690840651593650000,1.61464990234375,-0.004572114907205105,-0.0032168321777135134,-0.01926184445619583
1690840651603689700,1.624689697265625,-0.004592354875057936,-0.0026351979468017817,-0.019422700628638268
1690840651613729800,1.634729736328125,-0.004382763989269733,-0.0027316042687743902,-0.020746024325489998
1690840651623769900,1.644769775390625,-0.0046392264775931835,0.0004985437262803316,-0.02142379991710186
1690840651633841000,1.6548408203125,-0.005514607764780521,-0.0014988270122557878,-0.01986771449446678
1690840651643881700,1.6648818359375,-0.004101534374058247,-0.0023883229587227106,-0.020427243784070015
1690840651653921800,1.674921875,-0.0029702235478907824,-0.003556119045242667,-0.021470138803124428
1690840651663955500,1.68495556640625,-0.005046423990279436,-0.0029140308033674955,-0.020550549030303955
1690840651673995500,1.69499560546875,-0.004816326778382063,-0.00010705907334340736,-0.021927403286099434
1690840651684036600,1.70503662109375,-0.005034173373132944,-0.0015052186790853739,-0.02279612608253956
1690840651694076400,1.715076416015625,-0.0049007488414645195,-0.003584881080314517,-0.02281024120748043
1690840651704116500,1.725116455078125,-0.0048975530080497265,-0.0007257114048115909,-0.021766016259789467
1690840651714157600,1.735157470703125,-0.0036634444259107113,-0.005281048361212015,-0.02165309712290764
1690840651724197600,1.74519775390625,-0.004752144683152437,-0.003322825999930501,-0.020633639767766
1690840651734237400,1.755237548828125,-0.005768939387053251,-0.0007696535321883857,-0.02088983543217182
1690840651744277500,1.765277587890625,-0.0036674391012638807,-0.002246376359835267,-0.01788073033094406
1690840651754318600,1.775318603515625,-0.005111138802021742,-0.0005877596559002995,-0.020957479253411293
1690840651764358400,1.7853583984375,-0.003900465788319707,-0.00003781688792514615,-0.01824291981756687
1690840651774398500,1.7953984375,-0.003683151677250862,-0.0025126924738287926,-0.021449364721775055
1690840651784469500,1.805469482421875,-0.004010987002402544,-0.001748897833749652,-0.021626465022563934
1690840651794509300,1.81550927734375,-0.005564408842474222,-0.002665557898581028,-0.02093670703470707
1690840651804550400,1.82555029296875,-0.0030453247018158436,-0.002463690238073468,-0.02099263295531273
1690840651814590500,1.835590576171875,-0.005003813188523054,-0.00195129809435457,-0.020738301798701286
1690840651824630500,1.845630615234375,-0.003433879930526018,-0.0027915253303945065,-0.020383302122354507
1690840651834670600,1.855670654296875,-0.0026290726382285357,-0.0010700580896809697,-0.02027464471757412
1690840651844711400,1.86571142578125,-0.0046576024033129215,-0.0026040389202535152,-0.021156417205929756
1690840651854751500,1.87575146484375,-0.004357464145869017,-0.0023062974214553833,-0.017893247306346893
1690840651864791600,1.88579150390625,-0.00446905056014657,-0.0026354643050581217,-0.019902868196368217
1690840651874832600,1.89583251953125,-0.004200337454676628,-0.0018820558907464147,-0.02129516936838627
1690840651884872400,1.90587255859375,-0.005714078433811665,-0.003087402554228902,-0.02364194579422474
1690840651894912500,1.91591259765625,-0.003921770956367254,-0.003165699541568756,-0.021800370886921883
1690840651904952600,1.92595263671875,-0.004485296085476875,-0.0026437200140208006,-0.020808076485991478
1690840651914993400,1.935993408203125,-0.004863198380917311,-0.0016498282784596086,-0.021875737234950066
1690840651925033500,1.946033447265625,-0.005401955917477608,-0.0034751589410007,-0.020595023408532143
1690840651935104500,1.9561044921875,-0.004013117402791977,-0.0037294907961040735,-0.022942600771784782
1690840651945144300,1.966144287109375,-0.005771602503955364,0.0013606089632958174,-0.019107913598418236
1690840651955184400,1.976184326171875,-0.0038543930277228355,-0.00119602563790977,-0.02027437835931778
1690840651965225500,1.9862255859375,-0.004274906124919653,-0.0026586337480694056,-0.01919206976890564
1690840651975265500,1.996265625,-0.00566960358992219,-0.0006918892613612115,-0.021440576761960983
1690840651985305600,2.0063056640625,-0.004793690051883459,-0.003999002743512392,-0.020862137898802757
1690840651995346400,2.016346435546875,-0.00469568558037281,-0.002496180823072791,-0.019114306196570396
1690840652005386500,2.026386474609375,-0.0036456012167036533,0.001133174984715879,-0.021878933534026146
1690840652015426300,2.03642626953125,-0.004492486361414194,-0.0015608787070959806,-0.018217885866761208
1690840652025466400,2.04646630859375,-0.004704207647591829,-0.0025331987999379635,-0.020662667229771614
1690840652035507500,2.056507568359375,-0.0043561323545873165,-0.0021941782906651497,-0.021732725203037262
1690840652045547500,2.066547607421875,-0.0037321539130061865,-0.0009257147903554142,-0.019104452803730965
1690840652055587600,2.076587646484375,-0.0046789078041911125,-0.001973402453586459,-0.02057238668203354
1690840652065628400,2.08662841796875,-0.004592621233314276,-0.001246625673957169,-0.02064375951886177
1690840652075668500,2.09666845703125,-0.004815261345356703,-0.001458080718293786,-0.022844595834612846
1690840652085739500,2.106739501953125,-0.004068511072546244,-0.002113218419253826,-0.02064535766839981
1690840652095779300,2.116779296875,-0.004544151946902275,-0.001261273049749434,-0.020451745018363
1690840652105819400,2.1268193359375,-0.0037792918737977743,-0.0024740765802562237,-0.02154736965894699
1690840652115859500,2.136859375,-0.0038013961166143417,-0.0026735474821180105,-0.02261609584093094
1690840652125900500,2.146900634765625,-0.004920456558465958,-0.0019169433508068323,-0.020185163244605064
1690840652135940600,2.156940673828125,-0.00495188171043992,-0.0027590349782258272,-0.020678646862506866
1690840652145980700,2.166980712890625,-0.005258411634713411,-0.0011198592837899923,-0.020729780197143555
1690840652156021500,2.177021484375,-0.002606169320642948,-0.0017931063193827868,-0.018190454691648483
1690840652166061300,2.187061279296875,-0.005593437235802412,-0.0010365023044869304,-0.020431505516171455
1690840652176101400,2.197101318359375,-0.004036286845803261,-0.0019414444686844945,-0.02136733941733837
1690840652186141400,2.207141357421875,-0.005531918257474899,-0.0023315974976867437,-0.02123631350696087
1690840652196182500,2.2171826171875,-0.005250954534858465,-0.00129695946816355,-0.020242420956492424
1690840652206222600,2.22722265625,-0.005318865180015564,-0.0033923345617949963,-0.021259482949972153
1690840652216262700,2.2372626953125,-0.004173705819994211,-0.0034551850985735655,-0.021827001124620438
1690840652226303500,2.247303466796875,-0.005256547126919031,-0.001398425898514688,-0.021138841286301613
1690840652236373500,2.25737353515625,-0.004837632179260254,-0.003165433183312416,-0.02225949987769127
1690840652246414300,2.267414306640625,-0.004157727118581533,-0.001966478070244193,-0.02051299810409546
1690840652256454400,2.277454345703125,-0.0041281660087406635,-0.0009438242996111512,-0.01986877992749214
1690840652266494500,2.287494384765625,-0.0038895467296242714,-0.0035385421942919493,-0.021744443103671074
1690840652276534500,2.297534423828125,-0.005774265620857477,-0.0028005801141262054,-0.021271200850605965
1690840652286575600,2.30757568359375,-0.00475587323307991,-0.0028642297256737947,-0.020732708275318146
1690840652296615700,2.31761572265625,-0.0040884846821427345,-0.0025806031189858913,-0.01926450803875923
1690840652306655500,2.327655517578125,-0.004738562274724245,-0.0031995216850191355,-0.02009647898375988
1690840652316696300,2.3376962890625,-0.004722317215055227,-0.002663161139935255,-0.020298613235354424
1690840652326736400,2.347736328125,-0.0051931641064584255,-0.0016530241118744016,-0.020617926493287086
1690840652336776400,2.3577763671875,-0.004305799026042223,-0.0012391688069328666,-0.02094309777021408
1690840652346816500,2.36781640625,-0.0048980857245624065,-0.002686596941202879,-0.020257867872714996
1690840652356857600,2.377857666015625,-0.005449626594781876,-0.0014436995843425393,-0.02015373855829239
1690840652366897700,2.387897705078125,-0.003999535460025072,-0.0018221348291262984,-0.02141847275197506
1690840652376937700,2.397937744140625,-0.003290868131443858,-0.0009376989910379052,-0.021045098081231117
1690840652387008500,2.408008544921875,-0.00443869037553668,-0.0013073458103463054,-0.02063177525997162
1690840652397048600,2.418048583984375,-0.004012851044535637,-0.0025925873778760433,-0.020372116938233376
1690840652407089400,2.42808935546875,-0.0031380027066916227,-0.001972603378817439,-0.022011559456586838
1690840652417129500,2.43812939453125,-0.005262938793748617,-0.0019323896849527955,-0.018748387694358826
1690840652427169500,2.44816943359375,-0.0046815709210932255,-0.002543851500377059,-0.021321000531315804
1690840652437210600,2.458210693359375,-0.003001648932695389,-0.000477504770969972,-0.01938648149371147
1690840652447250700,2.468250732421875,-0.003641073824837804,-0.0007813714328221977,-0.021092768758535385
1690840652457290500,2.47829052734375,-0.0049343048594892025,-0.00370072852820158,-0.018879149109125137
1690840652467330600,2.48833056640625,-0.005191832315176725,-0.0027025758754462004,-0.019407786428928375
1690840652477371400,2.498371337890625,-0.004314054735004902,-0.0010780475568026304,-0.01998915523290634
1690840652487411500,2.508411376953125,-0.0052381716668605804,-0.0025009745731949806,-0.02172367088496685
1690840652497451500,2.518451416015625,-0.003997937310487032,-0.0030655646696686745,-0.01960672438144684
1690840652507492600,2.52849267578125,-0.005080245900899172,-0.003817641409114003,-0.020616594702005386
1690840652517532700,2.53853271484375,-0.002953711897134781,-0.002612294629216194,-0.021696772426366806
1690840652527572700,2.54857275390625,-0.0038517299108207226,-0.002494050422683358,-0.019414443522691727
1690840652537643500,2.5586435546875,-0.0036511938087642193,-0.0019417107105255127,-0.021265607327222824
1690840652547683600,2.56868359375,-0.005347094964236021,-0.0030032468494027853,-0.021405156701803207
1690840652557723600,2.5787236328125,-0.0028636970091611147,-0.002394448034465313,-0.01973162591457367
1690840652567764500,2.588764404296875,-0.0049188584089279175,-0.002371811307966709,-0.020259732380509377
1690840652577804500,2.598804443359375,-0.005573197267949581,-0.002588326344266534,-0.019950006157159805
1690840652587844600,2.6088447265625,-0.0038890140131115913,-0.0019001654582098126,-0.020266389474272728
1690840652597885700,2.6188857421875,-0.003941478207707405,-0.0011773834703490138,-0.020905015990138054
1690840652607925500,2.628925537109375,-0.003707652911543846,-0.002487126039341092,-0.022100508213043213
1690840652617965600,2.638965576171875,-0.005505819339305162,-0.00018988338706549257,-0.02118544653058052
1690840652628005600,2.649005615234375,-0.0052208611741662025,-0.0026959178503602743,-0.021757226437330246
1690840652638046500,2.65904638671875,-0.006540190894156694,-0.0007866977830417454,-0.02124004065990448
1690840652648086500,2.66908642578125,-0.003866909770295024,-0.002516687149181962,-0.021682925522327423
1690840652658126600,2.679126708984375,-0.005727660376578569,-0.0012301141396164894,-0.01991245523095131
1690840652668148200,2.689148193359375,-0.003771835006773472,-0.0014514228096231818,-0.0206349715590477
1690840652678188000,2.69918798828125,-0.00555082643404603,-0.00250496924854815,-0.018547585234045982
1690840652688259000,2.709259033203125,-0.006464823614805937,-0.0008194546680897474,-0.018790731206536293
1690840652698299100,2.719299072265625,-0.004077033139765263,-0.0029262814205139875,-0.02238466776907444
1690840652708339200,2.729339111328125,-0.00398568669334054,-0.004317516926676035,-0.021761754527688026
1690840652718380300,2.73938037109375,-0.004299141000956297,-0.002286856295540929,-0.018939336761832237
1690840652728420400,2.74942041015625,-0.004248274490237236,0.0007456850726157427,-0.021938588470220566
1690840652738460200,2.759460205078125,-0.004260525107383728,-0.0016639430541545153,-0.01986638270318508
1690840652748500200,2.769500244140625,-0.003920705523341894,-0.0026639599818736315,-0.018319884315133095
1690840652758541000,2.779541015625,-0.005332713946700096,-0.0010064085945487022,-0.019355321303009987
1690840652768581000,2.7895810546875,-0.005655755288898945,-0.002453836612403393,-0.02040593884885311
1690840652778621200,2.79962109375,-0.005336175672709942,-0.0038093857001513243,-0.02273407392203808
1690840652788661200,2.8096611328125,-0.004028830211609602,-0.0007480819476768374,-0.020433636382222176
1690840652798702300,2.819702392578125,-0.0059987702406942844,-0.0024559672456234694,-0.021334316581487656
1690840652808742400,2.829742431640625,-0.003063700394704938,-0.003373426152393222,-0.020772390067577362
1690840652818782200,2.8397822265625,-0.005480785388499498,-0.0037521275226026773,-0.02022324688732624
1690840652828823000,2.849822998046875,-0.003864246653392911,-0.0018018947448581457,-0.02026985213160515
1690840652838893000,2.85989306640625,-0.00555295730009675,-0.002567820018157363,-0.02064136229455471
1690840652848934100,2.86993408203125,-0.00669305631890893,-0.003858121344819665,-0.020968398079276085
1690840652858974200,2.87997412109375,-0.005348426289856434,-0.001814677962101996,-0.02166268415749073
1690840652869014300,2.89001416015625,-0.005780124571174383,-0.0021824603900313377,-0.020481839776039124
1690840652879055400,2.900055419921875,-0.005330849438905716,-0.0014176006661728024,-0.019234415143728256
1690840652889095200,2.91009521484375,-0.004884770140051842,-0.003299922915175557,-0.020056799054145813
1690840652899135200,2.92013525390625,-0.005000350996851921,-0.0015329155139625072,-0.02021951787173748
1690840652909175000,2.930175048828125,-0.004311391618102789,-0.0029374666046351194,-0.01943761296570301
1690840652919216000,2.940216064453125,-0.005535380449146032,-0.004550276789814234,-0.019999541342258453
1690840652929256200,2.950256103515625,-0.004056526813656092,-0.0013438310706987977,-0.020549217239022255
1690840652939296300,2.960296142578125,-0.005615541245788336,-0.001748897833749652,-0.02165496163070202
1690840652949337300,2.97033740234375,-0.005826996639370918,-0.002629871480166912,-0.02046772465109825
1690840652959377400,2.98037744140625,-0.0029411951545625925,-0.0008293083519674838,-0.0202163215726614
1690840652969417200,2.990417236328125,-0.005166798830032349,-0.00024501082953065634,-0.01985359936952591
1690840652979457000,3.00045703125,-0.00412363838404417,-0.004751611966639757,-0.02021791972219944
1690840652989528000,3.010528076171875,-0.0039009982720017433,0.0003121224872302264,-0.02110874652862549
1690840652999568100,3.020568115234375,-0.003972903825342655,-0.0037710361648350954,-0.02064216136932373
1690840653009609200,3.030609130859375,-0.004414988216012716,-0.00435986090451479,-0.021131383255124092
1690840653019649300,3.040649169921875,-0.005464806687086821,-0.0024860608391463757,-0.019035743549466133
1690840653029689000,3.050689208984375,-0.005302620120346546,-0.005063201766461134,-0.020856812596321106
1690840653039730200,3.060730224609375,-0.004116714466363192,-0.0023483755066990852,-0.020181700587272644
1690840653049770200,3.070770263671875,-0.005609150044620037,-0.0003182477375958115,-0.02081579901278019
1690840653059810000,3.08081005859375,-0.004858138505369425,-0.001838646363466978,-0.021560152992606163
1690840653069850000,3.09085009765625,-0.005706089083105326,-0.0010703244479373097,-0.020021112635731697
1690840653079891200,3.10089111328125,-0.006309028714895248,-0.0009094694978557527,-0.019243735820055008
1690840653089931300,3.11093115234375,-0.004892759490758181,-0.0012828446924686432,-0.020370785146951675
1690840653099971300,3.120971435546875,-0.0042131207883358,-0.003771568648517132,-0.019214173778891563
1690840653110012400,3.131012451171875,-0.005343100056052208,-0.0015664712991565466,-0.019876236096024513
1690840653120052200,3.14105224609375,-0.005139368120580912,-0.0018053569365292788,-0.021805962547659874
1690840653130092000,3.151092041015625,-0.004443750716745853,-0.003712979145348072,-0.021516211330890656
1690840653140163000,3.1611630859375,-0.0038306908681988716,-0.0024794030468910933,-0.02177507057785988
1690840653150203100,3.171203125,-0.004636829718947411,-0.00589650496840477,-0.020723920315504074
1690840653160244200,3.181244140625,-0.004024036228656769,-0.0014530207263305783,-0.019269568845629692
1690840653170284300,3.1912841796875,-0.006443784572184086,-0.0009153284481726587,-0.020131099969148636
1690840653180324000,3.201323974609375,-0.0043926178477704525,-0.001785116852261126,-0.021805163472890854
1690840653190364200,3.2113642578125,-0.003971838392317295,-0.0011110707418993115,-0.019100191071629524
1690840653200405200,3.2214052734375,-0.0054845139384269714,-0.0025483788922429085,-0.020866133272647858
1690840653210445000,3.231445068359375,-0.004728176165372133,-0.002032258315011859,-0.02081553265452385
1690840653220485000,3.241485107421875,-0.005714078433811665,-0.004833370912820101,-0.021832594648003578
1690840653230525200,3.251525146484375,-0.005573996342718601,-0.002612294629216194,-0.020684238523244858
1690840653240566300,3.261566162109375,-0.004308462142944336,-0.003751328680664301,-0.01920085959136486
1690840653250606300,3.2716064453125,-0.003947869874536991,-0.0009731190511956811,-0.017890583723783493
1690840653260646100,3.281646240234375,-0.0048767803236842155,-0.0030983216129243374,-0.0213625468313694
1690840653270687000,3.29168701171875,-0.004294081125408411,-0.002671150490641594,-0.020173978060483932
1690840653280727000,3.30172705078125,-0.003961185924708843,-0.0026762105990201235,-0.02093137986958027
1690840653290798000,3.311798095703125,-0.004847751930356026,-0.0018069547368213534,-0.021076789125800133
1690840653300838100,3.321838134765625,-0.006271744146943092,-0.0021134845446795225,-0.020004600286483765
1690840653310878200,3.331878173828125,-0.004524976946413517,-0.0012650014832615852,-0.020241355523467064
1690840653320919300,3.341919189453125,-0.0029345371294766665,-0.0014804512029513717,-0.019780095666646957
1690840653330959000,3.351958984375,-0.004822185728698969,-0.0037590519059449434,-0.020612334832549095
1690840653340999200,3.361999267578125,-0.005013933405280113,-0.003052248852327466,-0.020075973123311996
1690840653351039200,3.372039306640625,-0.005364139098674059,-0.0023731428664177656,-0.02226375974714756
1690840653361080000,3.382080078125,-0.003463441040366888,-0.0036242958158254623,-0.021740183234214783
1690840653371120000,3.3921201171875,-0.005359877832233906,-0.0021883193403482437,-0.020535102114081383
1690840653381160200,3.40216015625,-0.004343349486589432,-0.004090349189937115,-0.021582257002592087
1690840653391201300,3.412201171875,-0.005638444796204567,-0.0026101642288267612,-0.0206296443939209
1690840653401241000,3.422240966796875,-0.003725229762494564,-0.0020940436515957117,-0.018976887688040733
1690840653411281200,3.43228125,-0.004064782522618771,-0.0036610474344342947,-0.019297797232866287
1690840653421321200,3.4423212890625,-0.0037875475827604532,-0.003707919269800186,-0.021466942504048347
1690840653431362000,3.452362060546875,-0.004567853640764952,-0.0007906925166025758,-0.020120181143283844
1690840653441432300,3.462432373046875,-0.005946039687842131,-0.002013349672779441,-0.021805696189403534
1690840653451473200,3.47247314453125,-0.0036879454273730516,-0.002993126632645726,-0.018806444481015205
1690840653461513200,3.48251318359375,-0.0038725025951862335,-0.001312405802309513,-0.02002670429646969
1690840653471553000,3.492552978515625,-0.005271460860967636,0.0004215783847030252,-0.02002643793821335
1690840653481594000,3.502593994140625,-0.004579572007060051,0.0003376888344064355,-0.020864268764853477
1690840653491634200,3.51263427734375,-0.006101568229496479,-0.0009297095239162445,-0.019331086426973343
1690840653501674200,3.52267431640625,-0.004358263220638037,-0.0014855111949145794,-0.020989704877138138
1690840653511714300,3.53271435546875,-0.0026011094450950623,-0.0026458504144102335,-0.020728981122374535
1690840653521755100,3.542755126953125,-0.002959837205708027,-0.0008737831376492977,-0.02058517001569271
1690840653531795200,3.552795166015625,-0.005705290008336306,-0.001255946815945208,-0.021919945254921913
1690840653541835000,3.5628349609375,-0.004862399306148291,-0.004711398389190435,-0.021334582939743996
1690840653551876000,3.5728759765625,-0.005660815164446831,-0.0030149647500365973,-0.020478110760450363
1690840653561916200,3.582916259765625,-0.0029055087361484766,-0.0009480853332206607,-0.019936690106987953
1690840653571956200,3.592956298828125,-0.003899933071807027,-0.0015875103417783976,-0.020228838548064232
1690840653581996300,3.602996337890625,-0.0060027651488780975,-0.0022032330743968487,-0.01852361671626568
1690840653592067300,3.6130673828125,-0.004547081422060728,-0.0007070692372508347,-0.018926553428173065
1690840653602108200,3.623108154296875,-0.00427144393324852,-0.0026490462478250265,-0.020239491015672684
1690840653612148200,3.633148193359375,-0.005730323493480682,-0.0020927118603140116,-0.02033776231110096
1690840653622188000,3.64318798828125,-0.0067881313152611256,-0.002734267385676503,-0.019389675930142403
1690840653632228000,3.65322802734375,-0.00627094553783536,-0.0028522454667836428,-0.01882535219192505
1690840653642269200,3.663269287109375,-0.004090349189937115,-0.004875715356320143,-0.022363362833857536
1690840653652309200,3.673309326171875,-0.005238703917711973,0.000313986703986302,-0.02208106778562069
1690840653662349300,3.683349365234375,-0.005538842175155878,-0.004060521721839905,-0.020847225561738014
1690840653672370200,3.6933701171875,-0.005025118589401245,-0.0008412926108576357,-0.019088473170995712
1690840653682410200,3.70341015625,-0.004661863669753075,-0.001600826159119606,-0.021829931065440178
1690840653692450000,3.713449951171875,-0.006689594127237797,-0.003034938359633088,-0.0207513514906168
1690840653702490000,3.723489990234375,-0.0060293967835605145,-0.0027417242527008057,-0.020861605182290077
1690840653712531200,3.73353125,-0.0037856835406273603,-0.0039036613889038563,-0.02280358225107193
1690840653722571000,3.743571044921875,-0.005547896958887577,-0.003442668356001377,-0.020180368795990944
1690840653732611000,3.753611083984375,-0.005762547720223665,0.00030892668291926384,-0.02004561387002468
1690840653742682000,3.76368212890625,-0.004209392238408327,-0.0036272252909839153,-0.020734572783112526
1690840653752722000,3.773721923828125,-0.004022172186523676,-0.0008074704091995955,-0.0206911638379097
1690840653762763000,3.783762939453125,-0.00564030883833766,-0.002147839404642582,-0.02033616416156292
1690840653772803000,3.793802978515625,-0.004511395003646612,-0.0037502634804695845,-0.020780112594366074
1690840653782843100,3.803843017578125,-0.0037148434203118086,-0.002383262850344181,-0.021886656060814857
1690840653792883200,3.81388330078125,-0.006013151258230209,-0.0007912251749075949,-0.01888447441160679
1690840653802924000,3.823924072265625,-0.0052086105570197105,-0.0024852619972079992,-0.019755594432353973
1690840653812964000,3.833964111328125,-0.003175020683556795,-0.001109739183448255,-0.02014761231839657
1690840653823004200,3.844004150390625,-0.004623247776180506,0.000011717908819264267,-0.022728215903043747
1690840653833045200,3.854045166015625,-0.005075452383607626,-0.002430667169392109,-0.021087441593408585
1690840653843085000,3.8640849609375,-0.005029912106692791,-0.0029947245493531227,-0.021587850525975227
1690840653853125000,3.874125,-0.004025634378194809,-0.0032437301706522703,-0.019595272839069366
1690840653863165200,3.884165283203125,-0.0041044638492167,-0.002597114769741893,-0.019839217886328697
1690840653873206000,3.8942060546875,-0.0037060549948364496,-0.002002430846914649,-0.02137106843292713
1690840653883246000,3.90424609375,-0.004844822455197573,-0.00044767739018425345,-0.01925385557115078
1690840653893317000,3.914317138671875,-0.0038488004356622696,-0.00455773388966918,-0.022061092779040337
1690840653903357000,3.92435693359375,-0.004020574036985636,-0.0029912625905126333,-0.02022590860724449
1690840653913397000,3.93439697265625,-0.004820853937417269,-0.0012934972764924169,-0.020378507673740387
1690840653923438000,3.94443798828125,-0.004308728501200676,-0.002671949565410614,-0.01980726048350334
1690840653933478100,3.95447802734375,-0.0044011399149894714,-0.0017291904659941792,-0.020060792565345764
1690840653943518200,3.964518310546875,-0.003971572034060955,0.00004261057620169595,-0.02008769102394581
1690840653953558300,3.974558349609375,-0.004600610584020615,-0.0038655782118439674,-0.021892249584197998
1690840653963599000,3.98459912109375,-0.004797684494405985,-0.0009723200928419828,-0.019357984885573387
1690840653973639200,3.99463916015625,-0.006587595213204622,-0.0016820525052025914,-0.022122079506516457
1690840653983679000,4.004678955078125,-0.027045466005802155,-0.43897682428359985,-0.07971826195716858
1690840653993720000,4.014719970703125,-0.010415356606245041,-0.1592772752046585,-0.11808376014232635
1690840654003760000,4.024760009765625,-0.0055034225806593895,-0.01067741122096777,-0.09194830060005188
1690840654013800200,4.03480029296875,-0.0006636597099713981,-0.02833443507552147,-0.08370581269264221
1690840654023840300,4.04484033203125,0.00570049649104476,-0.03747866675257683,-0.06523706018924713
1690840654033881000,4.054881103515625,0.003011502558365464,-0.0296055618673563,-0.050462108105421066
1690840654043952000,4.0649521484375,-0.0016492956783622503,-0.02564038150012493,-0.03897669538855553
1690840654053992000,4.074991943359375,-0.007616640534251928,-0.016437295824289322,-0.021649634465575218
1690840654064032000,4.085031982421875,-0.013252688571810722,-0.0004261057765688747,-0.009737315587699413
1690840654074072000,4.095072021484375,-0.013462811708450317,0.009183111600577831,0.0029891319572925568
1690840654084113200,4.105113037109375,-0.010641193017363548,0.01786901243031025,0.01070883683860302
1690840654094153200,4.1151533203125,-0.0049348375760018826,0.02058437094092369,0.019094599410891533
1690840654104193300,4.125193359375,-0.0005462143453769386,0.016082828864455223,0.0234035924077034
1690840654114234000,4.135234130859375,0.0015161376213654876,0.004668521229177713,0.024639032781124115
1690840654124274200,4.145274169921875,-0.0003374225052539259,-0.008017446845769882,0.020835241302847862
1690840654134314000,4.15531396484375,-0.0023907197173684835,-0.015007711946964264,0.016338760033249855
1690840654144354000,4.16535400390625,-0.006284793838858604,-0.01858806610107422,0.009108010679483414
1690840654154395100,4.17539501953125,-0.009045693092048168,-0.01489159744232893,-0.0036914076190441847
1690840654164435200,4.185435302734375,-0.009289371781051159,-0.006882407236844301,-0.01624608226120472
1690840654174475300,4.195475341796875,-0.0057010287418961525,0.0023004384711384773,-0.02659059874713421
1690840654184516000,4.20551611328125,-0.004163586068898439,0.009820406325161457,-0.03997164964675903
1690840654194586000,4.215586181640625,-0.0016024239594116807,0.008528240956366062,-0.04814941808581352
1690840654204627000,4.225626953125,-0.0024493092205375433,0.00350365461781621,-0.05192897841334343
1690840654214667000,4.2356669921875,-0.005167065188288689,-0.0004644552827812731,-0.05573117360472679
1690840654224707000,4.24570703125,-0.004325506277382374,-0.007675496395677328,-0.05567657947540283
1690840654234747100,4.2557470703125,-0.005909820552915335,-0.010721620172262192,-0.05101045221090317
1690840654244788200,4.265788330078125,-0.007287473883479834,-0.011812451295554638,-0.045225001871585846
1690840654254828300,4.275828369140625,-0.006030461750924587,-0.008529838174581528,-0.04049522802233696
1690840654264868000,4.2858681640625,-0.004847219679504633,-0.003832288784906268,-0.03313291817903519
1690840654274909200,4.2959091796875,-0.004236023873090744,-0.0005515406373888254,-0.0249082800000906
1690840654284949000,4.305948974609375,-0.0026668894570320845,0.0006101301987655461,-0.01619441621005535
1690840654294989000,4.315989013671875,-0.0034647725988179445,0.0047060721553862095,-0.008935438469052315
1690840654305029000,4.326029052734375,-0.0031672974582761526,0.002377137541770935,-0.0036301547661423683
1690840654315070200,4.3360703125,-0.0027691549621522427,0.0006178533658385277,0.004266384057700634
1690840654325110300,4.3461103515625,-0.006330067757517099,-0.0006095975404605269,0.003856523660942912
1690840654335150300,4.356150390625,-0.006690659560263157,-0.0031553131993860006,0.003849865635856986
1690840654345221000,4.36622119140625,-0.006858172360807657,-0.00631861574947834,0.004412857815623283
1690840654355261200,4.37626123046875,-0.005653358530253172,-0.0037832865491509438,-0.0005307680112309754
1690840654365302000,4.386302001953125,-0.004502872936427593,-0.005029912106692791,-0.0067788101732730865
1690840654375342000,4.396342041015625,-0.003640807466581464,0.0012562130577862263,-0.011401258409023285
1690840654385382100,4.406382080078125,-0.004652542527765036,0.00016698020044714212,-0.01919926144182682
1690840654395422200,4.416422119140625,-0.004266384057700634,0.0017134778900071979,-0.02532559633255005
1690840654405463300,4.42646337890625,-0.004251470323652029,0.00006311691686278209,-0.03355902433395386
1690840654415503000,4.436503173828125,-0.005994509439915419,-0.0013086773687973619,-0.03604002669453621
1690840654425543200,4.446543212890625,-0.004159058444201946,-0.003644269658252597,-0.03825151547789574
1690840654435584000,4.456583984375,-0.005633118096739054,-0.0041366880759596825,-0.03934953734278679
1690840654445624000,4.4666240234375,-0.004078897647559643,-0.00572979124262929,-0.03960306942462921
1690840654455664000,4.4766640625,-0.004108192399144173,-0.003093794221058488,-0.037797711789608
1690840654465704200,4.4867041015625,-0.003674895968288183,-0.004264253657311201,-0.035300467163324356
1690840654475745300,4.496745361328125,-0.0046514770947396755,-0.0013816480059176683,-0.03038453683257103
1690840654485785300,4.506785400390625,-0.0037180392537266016,-0.0015547533985227346,-0.02635597437620163
1690840654495856000,4.516856201171875,-0.00523683987557888,-0.0003376888344064355,-0.022419555112719536
1690840654505896200,4.526896240234375,-0.006786799523979425,0.0003350256592966616,-0.015678029507398605
1690840654515936300,4.536936279296875,-0.005075186025351286,-0.001677525113336742,-0.012374111451208591
1690840654525977000,4.54697705078125,-0.00503870053216815,-0.003364904085174203,-0.009119994938373566
1690840654536017200,4.55701708984375,-0.00424348097294569,-0.001630387152545154,-0.0062547000125050545
1690840654546057200,4.56705712890625,-0.004126301966607571,-0.005213137716054916,-0.007925300858914852
1690840654556098300,4.577098388671875,-0.004367318004369736,-0.000907338981050998,-0.005416869651526213
1690840654566138000,4.58713818359375,-0.005231780000030994,-0.001961151836439967,-0.007397728972136974
1690840654576178200,4.59717822265625,-0.004222175572067499,0.0003384877636563033,-0.01014105137437582
1690840654586218200,4.60721826171875,-0.004525243304669857,0.00011664645717246458,-0.012583702802658081
1690840654596259000,4.617259033203125,-0.005408613942563534,-0.00016884441720321774,-0.018488463014364243
1690840654606299100,4.627299072265625,-0.006376406643539667,-0.0001675128296483308,-0.020917266607284546
1690840654616339200,4.637339111328125,-0.005754824727773666,-0.0011566109023988247,-0.02486167475581169
1690840654626380300,4.64738037109375,-0.005392368417233229,-0.005018194206058979,-0.029273999854922295
1690840654636420400,4.65742041015625,-0.005727660376578569,-0.002930808812379837,-0.029524868354201317
1690840654646491100,4.6674912109375,-0.004253334365785122,-0.003960653208196163,-0.029788788408041
1690840654656531200,4.67753125,-0.003909253980964422,-0.0029609024059027433,-0.03308418393135071
1690840654666578200,4.687578125,-0.004040548112243414,-0.001627457677386701,-0.03327193483710289
1690840654676618200,4.6976181640625,-0.005315402988344431,-0.002216548891738057,-0.0289355106651783
1690840654686659300,4.707659423828125,-0.0044381581246852875,-0.0011715245200321078,-0.02846839278936386
1690840654696699400,4.717699462890625,-0.003976099658757448,-0.0023246733471751213,-0.026035062968730927
1690840654706739500,4.727739501953125,-0.004061320796608925,-0.002472212305292487,-0.02184670977294445
1690840654716780500,4.737780517578125,-0.005292499903589487,-0.0019859191961586475,-0.017726000398397446
1690840654726820400,4.7478203125,-0.00532472413033247,-0.0010394317796453834,-0.01830390654504299
1690840654736860200,4.757860107421875,-0.005437908694148064,-0.004735100548714399,-0.01537895668298006
1690840654746900200,4.767900146484375,-0.004463457968086004,-0.005096225067973137,-0.01125025749206543
1690840654756941300,4.77794140625,-0.003999535460025072,-0.0038059235084801912,-0.013526461087167263
1690840654766981400,4.7879814453125,-0.004721251782029867,-0.0032029838766902685,-0.011573032476007938
1690840654777021400,4.798021484375,-0.005530053749680519,-0.001270061475224793,-0.01242284756153822
1690840654787062500,4.8080625,-0.004286624025553465,-0.001499625970609486,-0.015196263790130615
1690840654797132500,4.818132568359375,-0.004351605195552111,-0.0020967067684978247,-0.01673397235572338
1690840654807173400,4.82817333984375,-0.005489307455718517,-0.00048389637959189713,-0.020709805190563202
1690840654817213200,4.838213134765625,-0.0051689292304217815,-0.0007203850545920432,-0.01926397532224655
1690840654827253200,4.848253173828125,-0.006225937977433205,-0.0035654399544000626,-0.02202354371547699
1690840654837294300,4.85829443359375,-0.005742307752370834,-0.0016146745765581727,-0.024036893621087074
1690840654847334400,4.86833447265625,-0.003703924361616373,-0.002941993996500969,-0.025349032133817673
1690840654857374500,4.87837451171875,-0.004246676806360483,-0.0028453213162720203,-0.02562626823782921
1690840654867414500,4.88841455078125,-0.005452556069940329,-0.0022570290602743626,-0.027038808912038803
1690840654877455400,4.898455322265625,-0.005160673521459103,-0.000898550555575639,-0.025888055562973022
1690840654887495200,4.9084951171875,-0.004834169987589121,-0.0012125372886657715,-0.02558152563869953
1690840654897535200,4.91853515625,-0.005345763172954321,-0.003489539958536625,-0.025370603427290916
1690840654907575300,4.9285751953125,-0.004576642066240311,-0.003096723696216941,-0.02424888126552105
1690840654917616400,4.938616455078125,-0.005758286919444799,-0.0015534218400716782,-0.021389178931713104
1690840654927656400,4.948656494140625,-0.005055478774011135,-0.004465854726731777,-0.02118038572371006
1690840654937696500,4.958696533203125,-0.003998736385256052,-0.0017800568602979183,-0.01865144819021225
1690840654947767600,4.968767578125,-0.0030005834996700287,-0.0021465078461915255,-0.018091918900609016
1690840654957807400,4.978807373046875,-0.004820055328309536,-0.0019092201255261898,-0.015797339379787445
1690840654967848200,4.98884814453125,-0.00315957423299551,-0.0019707391038537025,-0.0154367471113801
1690840654977888300,4.99888818359375,-0.005032575689256191,-0.002525741932913661,-0.0159443449229002
1690840654987928300,5.00892822265625,-0.004530303180217743,-0.0028511802665889263,-0.01531796995550394
1690840654997969400,5.018969482421875,-0.004523379262536764,-0.002062085550278425,-0.01630467176437378
1690840655008009500,5.029009521484375,-0.004458930809050798,-0.0009424926829524338,-0.01612144522368908
1690840655018049500,5.039049560546875,-0.002689792774617672,-0.0007566040731035173,-0.020808875560760498
1690840655028089300,5.04908935546875,-0.005464540328830481,-0.003299390198662877,-0.018307633697986603
1690840655038130200,5.059130126953125,-0.004022172186523676,-0.00301656243391335,-0.02039874903857708
1690840655048170200,5.069170166015625,-0.004454669542610645,-0.002799248555675149,-0.025062208995223045
1690840655058210300,5.079210205078125,-0.003724430687725544,-0.0003102582704741508,-0.022909309715032578
1690840655068251400,5.08925146484375,-0.005685050040483475,-0.0038003309164196253,-0.024052605032920837
1690840655078291500,5.09929150390625,-0.005845372099429369,-0.002150236163288355,-0.024042218923568726
1690840655088331500,5.10933154296875,-0.003984089009463787,-0.002662362065166235,-0.023938355967402458
1690840655098402600,5.119402587890625,-0.004000067710876465,-0.0019411781104281545,-0.0249069482088089
1690840655108442400,5.1294423828125,-0.00552126532420516,-0.003762780223041773,-0.022042451426386833
1690840655118482400,5.139482421875,-0.0036418726667761803,-0.001008805469609797,-0.022590795531868935
1690840655128523300,5.149523193359375,-0.0051625375635921955,-0.0010913633741438389,-0.020194750279188156
1690840655138563300,5.159563232421875,-0.004514324478805065,-0.002579005202278495,-0.01986877992749214
1690840655148603400,5.169603271484375,-0.005032841581851244,-0.0018695390317589045,-0.019409917294979095
1690840655158644500,5.17964453125,-0.004822718445211649,-0.0006836334359832108,-0.018748387694358826
1690840655168684500,5.1896845703125,-0.005711948033422232,-0.0012996225850656629,-0.01804185099899769
1690840655178724400,5.199724365234375,-0.00412363838404417,-0.0008109325426630676,-0.018332934007048607
1690840655188764400,5.209764404296875,-0.0044197821989655495,-0.001067927572876215,-0.017618941143155098
1690840655198805200,5.21980517578125,-0.0065527078695595264,-0.0032415995374321938,-0.018432270735502243
1690840655208845300,5.22984521484375,-0.005017129238694906,-0.0011124024167656898,-0.019094599410891533
1690840655218885400,5.239885498046875,-0.004583033733069897,-0.0026101642288267612,-0.020108463242650032
1690840655228926500,5.249926513671875,-0.005389438942074776,-0.0024469124618917704,-0.019899405539035797
1690840655238966500,5.259966552734375,-0.004975051153451204,-0.00355931487865746,-0.021917816251516342
1690840655249037600,5.27003759765625,-0.0028040423057973385,-0.001844771672040224,-0.02166215144097805
1690840655259077400,5.280077392578125,-0.00555162550881505,-0.001802693703211844,-0.02256842516362667
1690840655269117400,5.290117431640625,-0.004579572007060051,-0.0027060380671173334,-0.022428609430789948
1690840655279158300,5.300158203125,-0.005686914082616568,-0.0029049760196357965,-0.02353408746421337
1690840655289198300,5.3101982421875,-0.004563060123473406,-0.004338555503636599,-0.02305791527032852
1690840655299238400,5.32023828125,-0.005691175349056721,-0.0008932242053560913,-0.022838735952973366
1690840655309278500,5.330278564453125,-0.004653607495129108,-0.003349723992869258,-0.023863254114985466
1690840655319319600,5.340319580078125,-0.004406732507050037,-0.0012032161466777325,-0.021155351772904396
1690840655329359400,5.350359375,-0.0046911584213376045,-0.002628007438033819,-0.022362563759088516
1690840655339399400,5.3603994140625,-0.004914863966405392,-0.0023963123094290495,-0.01931697316467762
1690840655349440300,5.370440185546875,-0.004831240512430668,-0.0026431872975081205,-0.02008662559092045
1690840655359480300,5.380480224609375,-0.005468801129609346,-0.00088949577184394,-0.01949380710721016
1690840655369520400,5.390520263671875,-0.003123888047412038,-0.0038842204958200455,-0.019304988905787468
1690840655379560400,5.400560546875,-0.0028367992490530014,-0.0027326694689691067,-0.01925092563033104
1690840655389601500,5.4106015625,-0.004506334662437439,-0.0027451864443719387,-0.01974600739777088
1690840655399671300,5.42067138671875,-0.005612611770629883,-0.0029033781029284,-0.019604060798883438
1690840655409712400,5.43071240234375,-0.005657086614519358,-0.0021054951939731836,-0.018797656521201134
1690840655419752400,5.44075244140625,-0.00281975488178432,0.00034647725988179445,-0.01799018494784832
1690840655429792500,5.45079248046875,-0.004699414130300283,-0.00101120222825557,-0.01877395436167717
1690840655439833300,5.460833251953125,-0.003950799349695444,-0.003299123840406537,-0.02136547677218914
1690840655449873400,5.470873291015625,-0.0044171190820634365,-0.0032141690608114004,-0.02141927182674408
1690840655459913500,5.48091357421875,-0.002919090911746025,0.00077631144085899,-0.022240590304136276
1690840655469953300,5.490953369140625,-0.005109807010740042,-0.002683134749531746,-0.02239239029586315
1690840655479994400,5.500994384765625,-0.004770786967128515,0.00021278657368384302,-0.021156417205929756
1690840655490034400,5.511034423828125,-0.00558251840993762,0.0003203782835043967,-0.02189943939447403
1690840655500074500,5.521074462890625,-0.004217648413032293,-0.003516437951475382,-0.022162560373544693
1690840655510115300,5.531115234375,-0.005635781679302454,-0.003763046581298113,-0.021377461031079292
1690840655520155400,5.5411552734375,-0.005120193585753441,-0.0018098842119798064,-0.02165389619767666
1690840655530195500,5.551195556640625,-0.004628840368241072,-0.0014809839194640517,-0.02002643793821335
1690840655540235300,5.5612353515625,-0.005502623505890369,-0.0037894118577241898,-0.021572936326265335
1690840655550306300,5.571306396484375,-0.004210191313177347,-0.0033190976828336716,-0.020561734214425087
1690840655560346400,5.581346435546875,-0.005636047571897507,-0.00019654128118418157,-0.019222697243094444
1690840655570387500,5.591387451171875,-0.005637379363179207,-0.004722317215055227,-0.020292755216360092
1690840655580427500,5.601427490234375,-0.0033009881153702736,-0.00126766471657902,-0.019776102155447006
1690840655590467300,5.61146728515625,-0.005058141890913248,-0.003878627670928836,-0.019029350951313972
1690840655600508400,5.62150830078125,-0.004185956437140703,-0.000964064325671643,-0.02027198113501072
1690840655610548500,5.631548583984375,-0.004333229269832373,-0.002254898427054286,-0.019689815118908882
1690840655620588300,5.64158837890625,-0.005446430761367083,-0.002683134749531746,-0.018220016732811928
1690840655630628400,5.65162841796875,-0.005556951742619276,-0.0018274611793458462,-0.020243220031261444
1690840655640669400,5.66166943359375,-0.005143629387021065,-0.0018034926615655422,-0.020414194092154503
1690840655650709500,5.67170947265625,-0.004486094694584608,-0.003585413796827197,-0.020563865080475807
1690840655660749300,5.681749267578125,-0.005227518733590841,-0.001255680457688868,-0.020915668457746506
1690840655670783200,5.691783203125,-0.004845355171710253,-0.002966228872537613,-0.019964920356869698
1690840655680823300,5.7018232421875,-0.003531085327267647,-0.0008266451768577099,-0.02111007831990719
1690840655690863400,5.71186328125,-0.004357730504125357,-0.0012245214311406016,-0.02178678847849369
1690840655700934100,5.72193408203125,-0.003727892879396677,-0.00044661210267804563,-0.020140688866376877
1690840655710974200,5.73197412109375,-0.00440966198220849,-0.0028546424582600594,-0.021622471511363983
1690840655721015300,5.742015380859375,-0.004989698529243469,-0.0011201255256310105,-0.02034655027091503
1690840655731055400,5.752055419921875,-0.005340170580893755,-0.00330338510684669,-0.023735955357551575
1690840655741095400,5.762095458984375,-0.004501008428633213,-0.0029523803386837244,-0.020229104906320572
1690840655751135200,5.77213525390625,-0.005483448505401611,-0.0020959076937288046,-0.020143084228038788
1690840655761176300,5.78217626953125,-0.002767823403701186,-0.0037742317654192448,-0.018933210521936417
1690840655771216100,5.792216064453125,-0.005766808986663818,-0.0025158883072435856,-0.020194750279188156
1690840655781256200,5.802256103515625,-0.004756405483931303,-0.004728975240141153,-0.01859445683658123
1690840655791297300,5.81229736328125,-0.006159092765301466,-0.0015688681742176414,-0.02147919312119484
1690840655801337300,5.82233740234375,-0.004036286845803261,-0.004372377879917622,-0.018913503736257553
1690840655811377400,5.83237744140625,-0.005459479987621307,-0.0020788635592907667,-0.02107119746506214
1690840655821417200,5.842417236328125,-0.004501541145145893,-0.001383512164466083,-0.021944446489214897
1690840655831458300,5.852458251953125,-0.005003014579415321,-0.0027800737880170345,-0.02105947956442833
1690840655841498400,5.862498291015625,-0.00490154791623354,-0.002552639925852418,-0.02082165889441967
1690840655851569200,5.872569091796875,-0.006676811259239912,-0.002435727044939995,-0.019092202186584473
1690840655861609200,5.882609130859375,-0.004256796557456255,-0.0013771206140518188,-0.01992577128112316
1690840655871649300,5.892649169921875,-0.0038304245099425316,-0.0031353395897895098,-0.020479442551732063
1690840655881690400,5.9026904296875,-0.005049886181950569,-0.0011584750609472394,-0.020533503964543343
1690840655891730400,5.91273046875,-0.0049705239944159985,-0.002186455298215151,-0.021810756996273994
1690840655901770200,5.922770263671875,-0.005361475981771946,-0.0031065773218870163,-0.020712735131382942
1690840655911810000,5.93281005859375,-0.004326837603002787,-0.0018301242962479591,-0.021204087883234024
1690840655921851100,5.94285107421875,-0.004632302559912205,-0.0041761030443012714,-0.022156167775392532
1690840655931891200,5.95289111328125,-0.00387303507886827,-0.0038400120101869106,-0.020351344719529152
1690840655941931300,5.96293115234375,-0.002665824256837368,-0.0013917679898440838,-0.021709023043513298
1690840655951972400,5.972972412109375,-0.00569969741627574,-0.004317250568419695,-0.02137000299990177
1690840655962012400,5.983012451171875,-0.004367051646113396,0.0002519350382499397,-0.020058929920196533
1690840655972052200,5.99305224609375,-0.0049375006929039955,-0.000716922979336232,-0.02028503082692623
1690840655982092300,6.00309228515625,-0.0035121769178658724,-0.004259992390871048,-0.020919661968946457
1690840655992133400,6.01313330078125,-0.004372644238173962,-0.003750795964151621,-0.020019514486193657
1690840656002203100,6.023203125,-0.0027776770293712616,-0.0019504991360008717,-0.018331069499254227
1690840656012244200,6.033244140625,-0.004210990387946367,-0.003403786104172468,-0.021589448675513268
1690840656022284300,6.0432841796875,-0.0032898029312491417,-0.001975799212232232,-0.02045281045138836
1690840656032324400,6.053324462890625,-0.004737497307360172,-0.0032842103391885757,-0.02293301187455654
1690840656042365400,6.063365478515625,-0.003026149934157729,-0.0013086773687973619,-0.0191918034106493
1690840656052405200,6.0734052734375,-0.004502073861658573,-0.00361763802357018,-0.0205092690885067
1690840656062445000,6.083445068359375,-0.003876497270539403,-0.000955009541939944,-0.020737236365675926
1690840656072485000,6.093485107421875,-0.003949734382331371,-0.0013901700731366873,-0.02046213112771511
1690840656082526200,6.103526123046875,-0.005273059010505676,-0.002124137245118618,-0.02178678847849369
1690840656092566300,6.113566162109375,-0.004532699938863516,-0.0011715245200321078,-0.021749770268797874
1690840656102606300,6.1236064453125,-0.0054853130131959915,-0.0027739484794437885,-0.021916218101978302
1690840656112647200,6.133647216796875,-0.005263471510261297,-0.0026285399217158556,-0.021638981997966766
1690840656122687200,6.143687255859375,-0.0038224351592361927,-0.004830707795917988,-0.020447218790650368
1690840656132727000,6.15372705078125,-0.004095941781997681,-0.0036107138730585575,-0.020130036398768425
1690840656142767000,6.16376708984375,-0.004998220596462488,-0.0018671422731131315,-0.021468274295330048
1690840656152838100,6.173838134765625,-0.004717523697763681,-0.0020266654901206493,-0.021740183234214783
1690840656162879200,6.183879150390625,-0.0026024410035461187,-0.003846669802442193,-0.01859818585216999
1690840656172919300,6.193919189453125,-0.006075735669583082,-0.0017060210229828954,-0.02172420360147953
1690840656182959400,6.20395947265625,-0.006474943365901709,-0.0038778288289904594,-0.020230969414114952
1690840656192999400,6.21399951171875,-0.005545500200241804,-0.0009989517275243998,-0.020983578637242317
1690840656203040300,6.224040283203125,-0.005812881514430046,-0.003142263740301132,-0.020899955183267593
1690840656213080000,6.234080078125,-0.003982757218182087,-0.0024253407027572393,-0.019510317593812943
1690840656223120100,6.2441201171875,-0.005431517027318478,-0.002157160546630621,-0.01936943642795086
1690840656233161200,6.2541611328125,-0.005601426586508751,-0.002028529765084386,-0.020266389474272728
1690840656243201300,6.264201171875,-0.005575860384851694,-0.002481267089024186,-0.021287178620696068
1690840656253241300,6.274241455078125,-0.004865595139563084,-0.003918042406439781,-0.018555041402578354
1690840656263281400,6.284281494140625,-0.0060323262587189674,-0.00004900216299574822,-0.020177174359560013
1690840656273322200,6.294322265625,-0.004602208733558655,-0.0025331987999379635,-0.01890338398516178
1690840656283362000,6.304362060546875,-0.004204332362860441,-0.0016932378057390451,-0.02046745829284191
1690840656293402000,6.314402099609375,-0.003991812001913786,-0.004031226970255375,-0.022407304495573044
1690840656303473200,6.32447314453125,-0.006716492120176554,-0.0005912217311561108,-0.020187027752399445
1690840656313513200,6.33451318359375,-0.004485296085476875,-0.0021851237397640944,-0.019937222823500633
1690840656323554300,6.34455419921875,-0.006050968077033758,-0.002633333671838045,-0.021043499931693077
1690840656333594400,6.354594482421875,-0.006138852797448635,-0.0016277240356430411,-0.01884585991501808
1690840656343634400,6.364634521484375,-0.004971855320036411,-0.0034200313966721296,-0.021435251459479332
1690840656353674200,6.37467431640625,-0.005561213009059429,-0.0024620923213660717,-0.020781178027391434
1690840656363715000,6.384715087890625,-0.00440966198220849,-0.004710332956165075,-0.020685303956270218
1690840656373755100,6.394755126953125,-0.003724963404238224,-0.0006018743733875453,-0.020920194685459137
1690840656383795200,6.404795166015625,-0.0044054011814296246,-0.0024833977222442627,-0.020489562302827835
1690840656393836300,6.414836181640625,-0.005588909611105919,-0.003436809405684471,-0.021086376160383224
1690840656403876400,6.42487646484375,-0.005175853613764048,-0.002082591876387596,-0.02107013203203678
1690840656413916400,6.43491650390625,-0.005486644338816404,-0.0027750139124691486,-0.021440843120217323
1690840656423956200,6.444956298828125,-0.003919107839465141,-0.0021078919526189566,-0.02052897773683071
1690840656433997000,6.4549970703125,-0.00669465446844697,-0.0020367854740470648,-0.02015506848692894
1690840656444037000,6.465037109375,-0.004505536053329706,-0.0020543625578284264,-0.020447485148906708
1690840656454108200,6.475108154296875,-0.005591306835412979,-0.00242134602740407,-0.022233666852116585
1690840656464148200,6.485148193359375,-0.0032442628871649504,-0.0017920411191880703,-0.021028585731983185
1690840656474188300,6.495188232421875,-0.004047738388180733,-0.0018972359830513597,-0.02167014218866825
1690840656484229400,6.5052294921875,-0.004552141297608614,-0.0014455638593062758,-0.018915101885795593
1690840656494269400,6.51526953125,-0.004279699642211199,-0.0035238948184996843,-0.019240273162722588
1690840656504309200,6.525309326171875,-0.004647482186555862,-0.0026442527305334806,-0.021453892812132835
1690840656514349300,6.535349365234375,-0.004261324182152748,-0.0017297230660915375,-0.020085027441382408
1690840656524390100,6.54539013671875,-0.004531102254986763,0.00028309403569437563,-0.020356936380267143
1690840656534430200,6.55543017578125,-0.003940413240343332,-0.0031135017052292824,-0.02177773416042328
1690840656544470300,6.56547021484375,-0.004323641769587994,-0.0007552724564447999,-0.019835757091641426
1690840656554511400,6.575511474609375,-0.004200071096420288,-0.0027507790364325047,-0.018398981541395187
1690840656564551400,6.585551513671875,-0.004077033139765263,-0.0027747475542128086,-0.020384101197123528
1690840656574591200,6.59559130859375,-0.006112487055361271,-0.002609098795801401,-0.02196415513753891
1690840656584631300,6.60563134765625,-0.005243497900664806,-0.0022945795208215714,-0.021453360095620155
1690840656594672000,6.615672119140625,-0.004462126176804304,-0.00018375810759607702,-0.021093567833304405
1690840656604743200,6.6257431640625,-0.005420331843197346,-0.0016306535108014941,-0.019114838913083076
1690840656614783200,6.635783203125,-0.005426190793514252,-0.0033422671258449554,-0.020417390391230583
1690840656624823300,6.6458232421875,-0.004069842863827944,-0.00013076121103949845,-0.0202725138515234
1690840656634863400,6.65586328125,-0.004584365524351597,-0.002341717481613159,-0.02172819897532463
1690840656644904400,6.665904541015625,-0.004111388232558966,-0.0020271982066333294,-0.021374264732003212
1690840656654944300,6.6759443359375,-0.0038003309164196253,-0.0030240193009376526,-0.02082325704395771
1690840656664984300,6.685984375,-0.006698915269225836,-0.0036493295338004827,-0.02056839130818844
1690840656675005200,6.696005126953125,-0.004257329273968935,-0.0008455536444671452,-0.02033589780330658
1690840656685045200,6.706045166015625,-0.0037409423384815454,-0.0037025928031653166,-0.021633123978972435
1690840656695085000,6.7160849609375,-0.005992378573864698,-0.0008948221220634878,-0.021025922149419785
1690840656705125000,6.726125,-0.00446825148537755,-0.0011677960865199566,-0.019825901836156845
1690840656715166200,6.736166259765625,-0.004698348697274923,-0.0020516992080956697,-0.020372649654746056
1690840656725206000,6.7462060546875,-0.0041127195581793785,-0.0020690099336206913,-0.021528728306293488
1690840656735246000,6.75624609375,-0.0049737198278307915,-0.003918841481208801,-0.02123551443219185
1690840656745287200,6.766287109375,-0.004128965083509684,-0.001802960061468184,-0.01998409442603588
1690840656755357000,6.77635693359375,-0.005543636158108711,-0.00219551008194685,-0.021434985101222992
1690840656765398000,6.78639794921875,-0.00577826052904129,-0.0016082830261439085,-0.020076505839824677
1690840656775438000,6.79643798828125,-0.0049249837175011635,-0.0009685916593298316,-0.022433403879404068
1690840656785478100,6.80647802734375,-0.004600078333169222,-0.003069825703278184,-0.020614197477698326
1690840656795518200,6.816518310546875,-0.0060144830495119095,-0.0013193299528211355,-0.02070554532110691
1690840656805559000,6.82655908203125,-0.005289836786687374,-0.002828276949003339,-0.020188359543681145
1690840656815599000,6.83659912109375,-0.00520701240748167,-0.0019121496006846428,-0.020125774666666985
1690840656825639200,6.84663916015625,-0.0036975329276174307,-0.0011518171522766352,-0.01997610554099083
1690840656835680300,6.85668017578125,-0.004464257042855024,-0.0014138722326606512,-0.021939387544989586
1690840656845720000,6.866719970703125,-0.005139101762324572,-0.003591539105400443,-0.022834742441773415
1690840656855760100,6.876760009765625,-0.0041281660087406635,-0.0027776770293712616,-0.02069436013698578
1690840656865800200,6.88680029296875,-0.004255198873579502,-0.002281263703480363,-0.020550016313791275
1690840656875841000,6.896841064453125,-0.005250421818345785,-0.0021403825376182795,-0.020684238523244858
1690840656885881000,6.906881103515625,-0.002531334524974227,-0.0008578042034059763,-0.019654128700494766
1690840656895921200,6.916921142578125,-0.0043502734042704105,-0.0018793927738443017,-0.02118704468011856
1690840656905992000,6.926991943359375,-0.004220843780785799,-0.0034618431236594915,-0.020648552104830742
1690840656916032000,6.937031982421875,-0.005268797744065523,-0.0017558221006765962,-0.019333483651280403
1690840656926073000,6.947072998046875,-0.004709533881396055,-0.0024746092967689037,-0.020200077444314957
1690840656936113200,6.957113037109375,-0.0027228158432990313,-0.0009350358741357923,-0.02028449811041355
1690840656946153200,6.9671533203125,-0.00555109279230237,-0.0016966998809948564,-0.022606775164604187
1690840656956194000,6.977194091796875,-0.003031742526218295,-0.003156911116093397,-0.02088477462530136
1690840656966234000,6.987234130859375,-0.007742342073470354,-0.003172357566654682,-0.019218435510993004
1690840656976274200,6.997274169921875,-0.004323109518736601,-0.0008743157959543169,-0.021878400817513466
1690840656986314000,7.00731396484375,-0.0033720945939421654,-0.0012146678054705262,-0.02069009840488434
1690840656996355000,7.01735498046875,-0.0054967645555734634,-0.0011680624447762966,-0.021154021844267845
1690840657006395100,7.02739501953125,-0.005412076134234667,-0.00207699928432703,-0.02238946221768856
1690840657016435200,7.037435302734375,-0.004593153949826956,-0.0021949773654341698,-0.01985999196767807
1690840657026475300,7.047475341796875,-0.0028668928425759077,-0.0036570527590811253,-0.01974334381520748
1690840657036516000,7.05751611328125,-0.0034503915812820196,-0.0033513219095766544,-0.022647788748145103
1690840657046556200,7.06755615234375,-0.004057858604937792,-0.003959587775170803,-0.020968930795788765
1690840657056627000,7.077626953125,-0.005055212415754795,-0.000940095866099,-0.021464012563228607
1690840657066667000,7.0876669921875,-0.0049159289337694645,-0.004503671545535326,-0.02143125608563423
1690840657076707000,7.09770703125,-0.004198207054287195,-0.0029678267892450094,-0.019712718203663826
1690840657086748200,7.107748046875,-0.004505802411586046,-0.002395513467490673,-0.021202756091952324
1690840657096788200,7.117788330078125,-0.005275988485664129,-0.004178233444690704,-0.020432038232684135
1690840657106828300,7.127828369140625,-0.004664793144911528,-0.0017539578257128596,-0.019905265420675278
1690840657116869000,7.137869140625,-0.005101551301777363,-0.0016817862633615732,-0.020143350586295128
1690840657126909200,7.1479091796875,-0.005530586466193199,-0.002499909373000264,-0.020955348387360573
1690840657136949000,7.157948974609375,-0.0052259210497140884,-0.0016045545926317573,-0.02147999219596386
1690840657146989000,7.167989013671875,-0.005892776418477297,-0.0019571571610867977,-0.019872773438692093
1690840657157030100,7.178030029296875,-0.004738562274724245,-0.0007619303651154041,-0.019702332094311714
1690840657167070200,7.1880703125,-0.004614725708961487,-0.0026059031952172518,-0.020474381744861603
1690840657177110300,7.1981103515625,-0.0027150926180183887,-0.00267727579921484,-0.02008822374045849
1690840657187151000,7.208151123046875,-0.006229666527360678,-0.0013731258222833276,-0.0225034449249506
1690840657197191200,7.218191162109375,-0.0037859496660530567,-0.0034077810123562813,-0.021195033565163612
1690840657207262000,7.228261962890625,-0.0036876790691167116,-0.0024285365361720324,-0.020325245335698128
1690840657217302000,7.238302001953125,-0.004581169690936804,-0.0005938849062658846,-0.019602462649345398
1690840657227342000,7.248342041015625,-0.004744953941553831,-0.0033601103350520134,-0.021268270909786224
1690840657237382100,7.258382080078125,-0.0036570527590811253,-0.0020684772171080112,-0.019228555262088776
1690840657247423200,7.26842333984375,-0.004739094991236925,-0.0008977515972219408,-0.021019531413912773
1690840657257463300,7.27846337890625,-0.004172374494373798,-0.0019566244445741177,-0.019157981500029564
1690840657267503000,7.288503173828125,-0.004998753312975168,-0.000291616132017225,-0.020915934816002846
1690840657277544000,7.2985439453125,-0.00398595305159688,-0.0028431906830519438,-0.020230436697602272
1690840657287584000,7.308583984375,-0.005575860384851694,-0.0014237258583307266,-0.021710621193051338
1690840657297624000,7.3186240234375,-0.005376656074076891,-0.0038256309926509857,-0.022908244282007217
1690840657307664100,7.3286640625,-0.004482632502913475,-0.002588059986010194,-0.0202229805290699
1690840657317705200,7.338705322265625,-0.006188653875142336,-0.0024833977222442627,-0.02015799842774868
1690840657327745300,7.348745361328125,-0.005555886775255203,-0.0027569043450057507,-0.02118411473929882
1690840657337785300,7.358785400390625,-0.004572647623717785,-0.0013542174128815532,-0.020654678344726562
1690840657347826200,7.368826171875,-0.005350823048502207,-0.001975532853975892,-0.021577730774879456
1690840657357896200,7.378896240234375,-0.004295945167541504,-0.0035984632559120655,-0.020309265702962875
1690840657367937000,7.38893701171875,-0.00532578956335783,-0.0005840312223881483,-0.02153165638446808
1690840657377977000,7.39897705078125,-0.003784085623919964,-0.0043801008723676205,-0.021748172119259834
1690840657388017200,7.40901708984375,-0.004087419714778662,-0.002365685999393463,-0.020147079601883888
1690840657398058200,7.419058349609375,-0.004727110732346773,-0.0005821670056320727,-0.021101290360093117
1690840657408098300,7.429098388671875,-0.0037880802992731333,-0.0023917849175632,-0.02172473631799221
1690840657418138000,7.43913818359375,-0.00433136522769928,-0.0018738001817837358,-0.02052125334739685
1690840657428178200,7.44917822265625,-0.0037406759802252054,-0.000752875639591366,-0.020321249961853027
1690840657438219000,7.459218994140625,-0.005287706386297941,-0.0010165285784751177,-0.022229138761758804
1690840657448259000,7.469259033203125,-0.005065065808594227,-0.0049161952920258045,-0.017942247912287712
1690840657458299100,7.479299072265625,-0.00481419637799263,-0.003291400847956538,-0.022530609741806984
1690840657468340200,7.48934033203125,-0.00520647969096899,-0.00023568976030219346,-0.01961524598300457
1690840657478380300,7.49938037109375,-0.0054419031366705894,-0.0018841864075511694,-0.020379839465022087
1690840657488420400,7.50942041015625,-0.003992611076682806,-0.0036727653350681067,-0.020781710743904114
1690840657498460200,7.519460205078125,-0.0031246868893504143,-0.00370099488645792,-0.02214418351650238
1690840657508531200,7.52953125,-0.004460262134671211,-0.0011012171162292361,-0.019586751237511635
1690840657518571300,7.5395712890625,-0.0041529336012899876,-0.002026133006438613,-0.020977454259991646
1690840657528612000,7.549612060546875,-0.005302886478602886,-0.000857005245052278,-0.020559603348374367
1690840657538652200,7.559652099609375,-0.00433056615293026,-0.0008586031035520136,-0.019941218197345734
1690840657548692200,7.569692138671875,-0.005715409759432077,-0.0018487664638087153,-0.020447485148906708
1690840657558733300,7.5797333984375,-0.005894640926271677,-0.0034165694378316402,-0.02178039588034153
1690840657568773000,7.589773193359375,-0.0030272151343524456,-0.00202293717302382,-0.020443489775061607
1690840657578813200,7.599813232421875,-0.005705556366592646,-0.003240001853555441,-0.01998249627649784
1690840657588853200,7.609853271484375,-0.005425125360488892,-0.0008069378091022372,-0.021017400547862053
1690840657598894000,7.61989404296875,-0.0049026133492589,-0.00207699928432703,-0.02014894410967827
1690840657608934100,7.62993408203125,-0.003907389938831329,-0.00247594085521996,-0.020891699939966202
1690840657618974200,7.63997412109375,-0.003961984533816576,-0.002410160843282938,-0.02046399563550949
1690840657629015300,7.650015380859375,-0.004349474795162678,-0.004897287115454674,-0.020317789167165756
1690840657639055400,7.660055419921875,-0.0038253646343946457,-0.0011848403373733163,-0.020848290994763374
1690840657649095200,7.67009521484375,-0.0036448021419346333,-0.004265584982931614,-0.020062390714883804
1690840657659166200,7.680166259765625,-0.003847202518954873,-0.002689260058104992,-0.021222464740276337
1690840657669208800,7.690208740234375,-0.002960369922220707,-0.0014239922165870667,-0.01986478455364704
1690840657679249000,7.700248779296875,-0.005269064102321863,0.0002849582233466208,-0.020784374326467514
1690840657689289700,7.710289794921875,-0.0049164616502821445,-0.0024855281226336956,-0.020312195643782616
1690840657699329800,7.720329833984375,-0.0054240599274635315,-0.004225371405482292,-0.020316990092396736
1690840657709369600,7.73036962890625,-0.005071723833680153,-0.002115082461386919,-0.020536966621875763
1690840657719410700,7.74041064453125,-0.003732952754944563,-0.003457848448306322,-0.021512482315301895
1690840657729450800,7.75045068359375,-0.005308479070663452,-0.002261023735627532,-0.01920112408697605
1690840657739490800,7.76049072265625,-0.004795554094016552,-0.0014351775171235204,-0.020911939442157745
1690840657749531000,7.77053076171875,-0.006436061579734087,-0.0035872780717909336,-0.021555624902248383
1690840657759571700,7.78057177734375,-0.006629140581935644,-0.002426938619464636,-0.020901286974549294
1690840657769611800,7.79061181640625,-0.004393416922539473,-0.000919323181733489,-0.02190157026052475
1690840657779651800,7.80065185546875,-0.004758003633469343,-0.0008325041271746159,-0.019877834245562553
1690840657789693000,7.81069287109375,-0.003951864782720804,-0.0011086739832535386,-0.020861871540546417
1690840657799732700,7.820732666015625,-0.004101800732314587,-0.002058889716863632,-0.021733790636062622
1690840657809803800,7.8308037109375,-0.003722033929079771,-0.0023270701058208942,-0.020307933911681175
1690840657819843800,7.84084375,-0.005550294183194637,-0.002418949268758297,-0.02123604714870453
1690840657829884000,7.8508837890625,-0.0027742148377001286,-0.0007451524725183845,-0.019651465117931366
1690840657839924700,7.8609248046875,-0.00424348097294569,-0.0008625978953205049,-0.01768658496439457
1690840657849964800,7.87096484375,-0.003939347807317972,-0.003572896821424365,-0.022218752652406693
1690840657860004600,7.881004638671875,-0.005622998345643282,-0.002737463219091296,-0.022476546466350555
1690840657870044700,7.891044677734375,-0.004354001954197884,-0.0011760519118979573,-0.020863736048340797
1690840657880085800,7.901085693359375,-0.005078115500509739,-0.0012159993639215827,-0.021315142512321472
1690840657890125800,7.911125732421875,-0.004735100548714399,0.0001627191377338022,-0.01949460618197918
1690840657900166000,7.921165771484375,-0.003316967049613595,-0.0036946034524589777,-0.01888340897858143
1690840657910206700,7.931206787109375,-0.003955326974391937,-0.0026056368369609118,-0.021759890019893646
1690840657920246800,7.941246826171875,-0.004111121874302626,-0.003093527862802148,-0.021036043763160706
1690840657930286600,7.95128662109375,-0.004989698529243469,-0.0025901903863996267,-0.021097294986248016
1690840657940326700,7.96132666015625,-0.004424842074513435,-0.0026165556628257036,-0.02094842493534088
1690840657950367700,7.97136767578125,-0.005228051450103521,-0.001547030289657414,-0.020083695650100708
1690840657960437800,7.981437744140625,-0.003742806613445282,-0.0007222492713481188,-0.020141221582889557
1690840657970478800,7.991478759765625,-0.004341484978795052,-0.0008311725687235594,-0.020540695637464523
1690840657980519000,8.001518798828124,-0.005646167788654566,-0.00245090713724494,-0.01961737684905529
1690840657990559000,8.01155908203125,-0.0034011229872703552,-0.00046312372433021665,-0.020540162920951843
1690840658000599800,8.021599853515625,-0.004779575392603874,-0.003093794221058488,-0.020176908001303673
1690840658010639600,8.0316396484375,-0.004644020460546017,-0.002710032742470503,-0.020738834515213966
1690840658020679700,8.0416796875,-0.005269596818834543,-0.00207699928432703,-0.019836023449897766
1690840658030719700,8.0517197265625,-0.005242965184152126,-0.0028666264843195677,-0.019818445667624474
1690840658040760800,8.0617607421875,-0.0043870252557098866,-0.0016026903176680207,-0.02034042589366436
1690840658050801000,8.07180078125,-0.0031854070257395506,-0.0007097324123606086,-0.020112991333007812
1690840658060841000,8.081841064453124,-0.005571599118411541,-0.0017885789275169373,-0.022123944014310837
1690840658070881800,8.0918818359375,-0.0038453382439911366,-0.003561711637303233,-0.019844811409711838
1690840658080921600,8.101921630859374,-0.004393416922539473,-0.001701759872958064,-0.019697804003953934
1690840658090961700,8.111961669921875,-0.0036852823104709387,-0.002126800362020731,-0.01925039291381836
1690840658101001700,8.122001708984374,-0.005322061013430357,-0.0017475662752985954,-0.021026987582445145
1690840658111072800,8.13207275390625,-0.005387308541685343,-0.0012311793398112059,-0.01877688430249691
1690840658121112800,8.14211279296875,-0.0032170985359698534,-0.0011265170760452747,-0.019954798743128777
1690840658131154000,8.15215380859375,-0.003085538512095809,-0.0025720810517668724,-0.019703131169080734
1690840658141194000,8.162194091796875,-0.004307396709918976,-0.0021427792962640524,-0.01938115432858467
1690840658151233800,8.17223388671875,-0.005680788774043322,-0.004863997455686331,-0.020732708275318146
1690840658161274600,8.182274658203125,-0.003528155852109194,-0.0026013758033514023,-0.021733524277806282
1690840658171314700,8.192314697265624,-0.004296477884054184,-0.001100950757972896,-0.020184630528092384
1690840658181354800,8.202354736328125,-0.005632585845887661,-0.002176867797970772,-0.02105175517499447
1690840658191394800,8.212394775390624,-0.00535428524017334,-0.0019765980541706085,-0.020543090999126434
1690840658201436000,8.222435791015625,-0.005022455472499132,-0.001925199176184833,-0.01966744475066662
1690840658211476000,8.23247607421875,-0.00507092522457242,-0.00253532943315804,-0.020322049036622047
1690840658221515800,8.242515869140625,-0.003926298581063747,-0.0009475527331233025,-0.0212461668998003
1690840658231556600,8.252556640625,-0.00418382603675127,-0.002347576431930065,-0.01877022534608841
1690840658241596700,8.2625966796875,-0.00367143377661705,-0.0029031119775027037,-0.02027437835931778
1690840658251636700,8.27263671875,-0.0038932752795517445,-0.0022921827621757984,-0.01997583918273449
1690840658261707800,8.282707763671874,-0.0044381581246852875,-0.003564907470718026,-0.019627496600151062
1690840658271747800,8.292747802734375,-0.0026913906913250685,-0.002404035534709692,-0.020327642560005188
1690840658281789000,8.302788818359375,-0.003608583239838481,0.0000852211524033919,-0.01948688179254532
1690840658291829000,8.3128291015625,-0.004467186518013477,-0.0027081684675067663,-0.021223796531558037
1690840658301868800,8.322868896484374,-0.005291700828820467,-0.0022716764360666275,-0.02250797301530838
1690840658311908600,8.33290869140625,-0.003939081449061632,-0.001041295938193798,-0.01991911232471466
1690840658321949700,8.34294970703125,-0.003722300287336111,-0.0032434638123959303,-0.021754564717411995
1690840658331989800,8.35298974609375,-0.0054637412540614605,-0.003240001853555441,-0.0198685135692358
1690840658342029800,8.36302978515625,-0.005572664551436901,-0.004560663364827633,-0.02021791972219944
1690840658352071000,8.37307080078125,-0.0051628039218485355,-0.001540904981084168,-0.021349230781197548
1690840658362111000,8.383111083984375,-0.004583300091326237,-0.0007653924985788763,-0.019905798137187958
1690840658372150800,8.39315087890625,-0.005033907014876604,-0.0025537051260471344,-0.01967037469148636
1690840658382190600,8.403190673828124,-0.003984089009463787,-0.003594202222302556,-0.02021605521440506
1690840658392231700,8.413231689453125,-0.004191815387457609,-0.0019057580502703786,-0.021380389109253883
1690840658402271700,8.423271728515624,-0.005102084018290043,-0.0025507756508886814,-0.020262394100427628
1690840658412342800,8.4333427734375,-0.004489823244512081,-0.00361737166531384,-0.021915951743721962
1690840658422382800,8.4433828125,-0.004658934194594622,-0.003165965899825096,-0.021644841879606247
1690840658432423000,8.4534228515625,-0.005221127066761255,-0.0012154667638242245,-0.021389978006482124
1690840658442464000,8.463464111328125,-0.0052139367908239365,-0.001540638622827828,-0.019301259890198708
1690840658452503800,8.47350390625,-0.004138285759836435,0.0026961842086166143,-0.017169665545225143
1690840658462543600,8.483543701171875,-0.004022704903036356,-0.002975283656269312,-0.019957728683948517
1690840658472583700,8.493583740234374,-0.0054570832289755344,-0.00270683690905571,-0.02021951787173748
1690840658482624800,8.503624755859375,-0.004776645917445421,-0.0021379857789725065,-0.019044797867536545
1690840658492664800,8.513664794921874,-0.003482881933450699,-0.0014199974248185754,-0.01992657035589218
1690840658502705000,8.523704833984375,-0.004029895178973675,-0.003715642262250185,-0.022905049845576286
1690840658512746000,8.53374609375,-0.0046544065698981285,-0.002070873975753784,-0.022124476730823517
1690840658522785500,8.54378564453125,-0.004287689458578825,-0.0026794064324349165,-0.021866949275135994
1690840658532825600,8.55382568359375,-0.003680754918605089,-0.0014831144362688065,-0.021748172119259834
1690840658542865700,8.56386572265625,-0.004821919370442629,-0.0032120386604219675,-0.020664531737565994
1690840658552906800,8.57390673828125,-0.004602208733558655,-0.0030386666767299175,-0.020240556448698044
1690840658562977800,8.583977783203125,-0.006439523305743933,-0.0018165421206504107,-0.01997024565935135
1690840658573017900,8.594017822265625,-0.0037768951151520014,-0.0008412926108576357,-0.022965503856539726
1690840658583058000,8.604057861328124,-0.0037800907157361507,-0.0009355684742331505,-0.0200986098498106
1690840658593097700,8.61409765625,-0.004344148561358452,-0.0028213527984917164,-0.021870145574212074
1690840658603138600,8.624138671875,-0.004602741450071335,-0.0013432984706014395,-0.020712468773126602
1690840658613178600,8.6341787109375,-0.0057012951001524925,-0.0033774208277463913,-0.02082165889441967
1690840658623218700,8.64421875,-0.005607285536825657,-0.001231711939908564,-0.02070421352982521
1690840658633258800,8.6542587890625,-0.0057502975687384605,-0.0014950985787436366,-0.020471720024943352
1690840658643299800,8.6642998046875,-0.005739378277212381,-0.008300806395709515,-0.022950589656829834
1690840658653340000,8.67433984375,-0.004598213825374842,-0.001615473534911871,-0.020669858902692795
1690840658663379700,8.684379638671874,-0.018395252525806427,-0.1768280416727066,0.03687146678566933
1690840658673421600,8.694421630859376,0.09958731383085251,-0.10581644624471664,0.06785121560096741
1690840658683461600,8.704461669921875,0.0049313753843307495,0.02917972393333912,0.0010080065112560987
1690840658693501700,8.714501708984375,-0.01098394114524126,-0.05806383490562439,0.003829092951491475
1690840658703541800,8.724541748046875,-0.03311401233077049,-0.10315940529108047,-0.04821386933326721
1690840658713612800,8.73461279296875,-0.04224545881152153,-0.11122824996709824,-0.06320639699697495
1690840658723654000,8.74465380859375,-0.04015008360147476,-0.08770881593227386,-0.06641790270805359
1690840658733693700,8.754693603515625,-0.029986927285790443,-0.04400687292218208,-0.07153970003128052
1690840658743733800,8.764733642578125,-0.01179034635424614,-0.006791327148675919,-0.07509235292673111
1690840658753773600,8.774773681640625,0.006735134404152632,0.04193573072552681,-0.07450433075428009
1690840658763814700,8.784814697265626,0.01840350776910782,0.06867813318967819,-0.06741685420274734
1690840658773854700,8.794854736328125,0.023507989943027496,0.08537082374095917,-0.05879780277609825
1690840658783894800,8.804894775390625,0.019787820056080818,0.08433325588703156,-0.0448249951004982
1690840658793936000,8.814935791015625,0.009676329791545868,0.05757780745625496,-0.026341859251260757
1690840658803975700,8.8249755859375,-0.0049287122674286366,0.018787536770105362,-0.015357384458184242
1690840658814015700,8.835015625,-0.01967383548617363,-0.020303407683968544,-0.0015334481140598655
1690840658824055600,8.8450556640625,-0.022355904802680016,-0.053283460438251495,0.007676561828702688
1690840658834096600,8.8550966796875,-0.01996997930109501,-0.0700129047036171,0.015846341848373413
1690840658844136700,8.86513671875,-0.013032977469265461,-0.06757079064846039,0.02526887133717537
1690840658854176800,8.8751767578125,-0.0037880802992731333,-0.046114496886730194,0.025462748482823372
1690840658864247800,8.885247802734375,0.004351072479039431,-0.020434968173503876,0.02474050037562847
1690840658874287600,8.89528759765625,0.004761199466884136,0.01127768773585558,0.019697537645697594
1690840658884328700,8.90532861328125,0.006366819143295288,0.03696281090378761,0.014799186028540134
1690840658894368800,8.91536865234375,0.000672181835398078,0.049316417425870895,0.005945506971329451
1690840658904408600,8.92540869140625,-0.006834736559540033,0.04890549182891846,-0.0013044163351878524
1690840658914448600,8.93544873046875,-0.01091709639877081,0.03442774713039398,-0.012133361771702766
1690840658924489700,8.94548974609375,-0.011858790181577206,0.010861435905098915,-0.02075507864356041
1690840658934529800,8.95552978515625,-0.010127735324203968,-0.01414484716951847,-0.03033207356929779
1690840658944569600,8.965569580078125,-0.006610231939703226,-0.030423952266573906,-0.036920998245477676
1690840658954610700,8.975610595703126,-0.0006298375665210187,-0.04110029712319374,-0.04428490623831749
1690840658964650800,8.985650634765625,0.0019185412675142288,-0.03519553691148758,-0.05031430348753929
1690840658974690600,8.995690673828125,0.0014780544443055987,-0.024922925978899002,-0.052021656185388565
1690840658984730600,9.005730712890625,-0.002670884132385254,-0.010937868617475033,-0.05331036075949669
1690840658994771700,9.015771728515626,-0.007253651972860098,0.0065532405860722065,-0.05267439782619476
1690840659004811800,9.025811767578125,-0.007832623086869717,0.018333200365304947,-0.05072496086359024
1690840659014882600,9.035882568359375,-0.00920255295932293,0.02407390996813774,-0.04442738741636276
1690840659024922600,9.045922607421875,-0.008019843138754368,0.021286912262439728,-0.03858068212866783
1690840659034962700,9.055962646484375,-0.004984905011951923,0.013256683014333248,-0.03081543743610382
1690840659045003800,9.066003662109376,-0.0016666061710566282,0.0033547841012477875,-0.02292129397392273
1690840659055043600,9.076043701171875,-0.0025723471771925688,-0.008203335106372833,-0.014905978925526142
1690840659065083600,9.086083740234375,-0.0036661075428128242,-0.019595539197325706,-0.008916263468563557
1690840659075124700,9.096124755859375,-0.0026903252582997084,-0.02088424190878868,-0.002433063928037882
1690840659085164800,9.106164794921876,-0.005775863770395517,-0.01555339340120554,0.00044022052315995097
1690840659095204600,9.11620458984375,-0.0064714811742305756,-0.010423879139125347,0.002150768879801035
1690840659105244700,9.12624462890625,-0.007553790230304003,-0.0012740562669932842,0.0029963224660605192
1690840659115285800,9.13628564453125,-0.004884770140051842,0.0033606430515646935,0.0016290555940940976
1690840659125325600,9.14632568359375,-0.0046517434529960155,0.01181990746408701,0.00014940333494450897
1690840659135365600,9.15636572265625,-0.0041345576755702496,0.014856976456940174,-0.0018162758788093925
1690840659145405700,9.16640576171875,-0.0018306568963453174,0.00929443258792162,-0.00914662703871727
1690840659155446800,9.17644677734375,-0.003335342975333333,0.006447779480367899,-0.013774934224784374
1690840659165517600,9.186517578125,-0.0028277444653213024,-0.00040480049210600555,-0.016882311552762985
1690840659175557600,9.1965576171875,-0.0038048583082854748,-0.0076422072015702724,-0.02712935581803322
1690840659185597700,9.20659765625,-0.005940979812294245,-0.011343734338879585,-0.030403712764382362
1690840659195637800,9.2166376953125,-0.007237672805786133,-0.010695254430174828,-0.03310442343354225
1690840659205678600,9.2266787109375,-0.004163586068898439,-0.009066465310752392,-0.03562137857079506
1690840659215718700,9.23671875,-0.003403786104172468,-0.006587328854948282,-0.038893602788448334
1690840659225758700,9.2467587890625,-0.0016277240356430411,0.00350418733432889,-0.03239522501826286
1690840659235799800,9.2567998046875,-0.001987517112866044,-0.0005528722540475428,-0.03804245591163635
1690840659245839600,9.266839599609375,-0.0014439659425988793,0.002897785510867834,-0.038060832768678665
1690840659255879700,9.276879638671875,-0.0035459990613162518,0.004836566746234894,-0.03247751668095589
1690840659265919700,9.286919677734375,-0.00606348505243659,0.0014034858904778957,-0.030597323551774025
1690840659275960600,9.296960693359376,-0.006428604479879141,-0.00024048343766480684,-0.02503451332449913
1690840659286000600,9.307000732421875,-0.005224589258432388,-0.0013451626291498542,-0.023693611845374107
1690840659296040700,9.317040771484375,-0.005407548509538174,-0.004101268015801907,-0.0180562324821949
1690840659306081800,9.327081787109375,-0.003973170183598995,-0.005620867945253849,-0.012338691391050816
1690840659316151600,9.337151611328125,-0.004388090688735247,-0.007534348871558905,-0.009975935332477093
1690840659326192600,9.347192626953126,-0.00159443449229002,-0.0067809405736625195,-0.008805209770798683
1690840659336232700,9.357232666015625,-0.00657641002908349,-0.00472524669021368,-0.006433664355427027
1690840659346272800,9.367272705078125,-0.003025350859388709,-0.0012516856659203768,-0.007894674316048622
1690840659356312800,9.377312744140625,-0.004752411041408777,-0.00043516053119674325,-0.0054693338461220264
1690840659366353700,9.387353759765626,-0.005694104824215174,0.0019510318525135517,-0.010942662134766579
1690840659376393700,9.397393798828125,-0.00509942090138793,0.0006817692192271352,-0.011176754720509052
1690840659386433500,9.40743359375,-0.003212571144104004,0.0010937602492049336,-0.013814615085721016
1690840659396474600,9.417474609375,-0.004297276493161917,-0.0012322446564212441,-0.0182863287627697
1690840659406514700,9.4275146484375,-0.0037444045301526785,-0.0017180051654577255,-0.020238425582647324
1690840659416554800,9.4375546875,-0.004462126176804304,-0.00313560594804585,-0.02431545965373516
1690840659426594800,9.4475947265625,-0.00440966198220849,-0.004002198576927185,-0.026920564472675323
1690840659436635600,9.4576357421875,-0.0054182009771466255,-0.0030093719251453876,-0.02894509956240654
1690840659446675700,9.46767578125,-0.005598230753093958,-0.0040796962566673756,-0.028481975197792053
1690840659456715500,9.477715576171875,-0.0038256309926509857,-0.00395585922524333,-0.02983699180185795
1690840659466786600,9.48778662109375,-0.00657507823780179,-0.003439738880842924,-0.032173383980989456
1690840659476826600,9.49782666015625,-0.004068777430802584,-0.0020397149492055178,-0.02857758291065693
1690840659486867700,9.50786767578125,-0.0042144525796175,-0.0020748688839375973,-0.029101159423589706
1690840659496907800,9.51790771484375,-0.004622981417924166,-0.0010871023405343294,-0.026553047820925713
1690840659506947800,9.52794775390625,-0.0030977888964116573,-0.0011012171162292361,-0.02437777817249298
1690840659516988700,9.53798876953125,-0.004030427895486355,-0.0010966897243633866,-0.022882945835590363
1690840659527028700,9.54802880859375,-0.0038599856197834015,-0.0013883059145882726,-0.02100168727338314
1690840659537068500,9.558068603515625,-0.0038245655596256256,-0.0013883059145882726,-0.01744317263364792
1690840659547108600,9.568108642578125,-0.005674397107213736,-0.001820270554162562,-0.016569921746850014
1690840659557149700,9.578149658203126,-0.005927131045609713,-0.002130262553691864,-0.014209561981260777
1690840659567189800,9.588189697265625,-0.004296744242310524,-0.002121740486472845,-0.0134452348574996
1690840659577229800,9.598229736328125,-0.004280765075236559,-0.006561229936778545,-0.016498016193509102
1690840659587270700,9.608270751953125,-0.004714061506092548,-0.0026551715563982725,-0.012871590442955494
1690840659597310700,9.618310791015626,-0.0046911584213376045,-0.002966495230793953,-0.012831375934183598
1690840659607350500,9.6283505859375,-0.004848817363381386,-0.003605387406423688,-0.01525645051151514
1690840659617421600,9.638421630859375,-0.005073321983218193,-0.0032139027025550604,-0.017374729737639427
1690840659627461600,9.648461669921875,-0.003888481529429555,-0.0003075950953643769,-0.01901417039334774
1690840659637501700,9.658501708984375,-0.005648298189043999,-0.0022245384752750397,-0.020720191299915314
1690840659647542800,9.668542724609376,-0.00666349520906806,-0.0012895026011392474,-0.022836074233055115
1690840659657582800,9.678582763671875,-0.003970240708440542,-0.001237571006640792,-0.022721556946635246
1690840659667622700,9.68862255859375,-0.004551608581095934,0.0001560612436151132,-0.025611087679862976
1690840659677646800,9.698646728515625,-0.003325755475088954,-0.0014482269762083888,-0.025166073814034462
1690840659687687000,9.70868701171875,-0.005376656074076891,-0.0028245486319065094,-0.029222600162029266
1690840659697726700,9.718726806640625,-0.0038535939529538155,-0.0029875340405851603,-0.027826838195323944
1690840659707766800,9.728766845703126,-0.0037201696541160345,-0.007485080510377884,-0.025181518867611885
1690840659717807900,9.738807861328125,-0.0033481260761618614,-0.005941246170550585,-0.02690618298947811
1690840659727848000,9.748847900390626,-0.003976099658757448,-0.004973985720425844,-0.027035346254706383
1690840659737887700,9.7588876953125,-0.0031760858837515116,-0.0036970002111047506,-0.02353861555457115
1690840659747928800,9.7689287109375,-0.004674380179494619,0.0007672567153349519,-0.020495953038334846
1690840659757969000,9.778968994140625,-0.005061071366071701,-0.0014535533264279366,-0.020605942234396935
1690840659768039700,9.789039794921875,-0.004263987299054861,-0.0009917612187564373,-0.01805969327688217
1690840659778079700,9.799079833984376,-0.005474660079926252,-0.0032503881957381964,-0.017369402572512627
1690840659788119800,9.809119873046875,-0.004758269991725683,-0.0013393036788329482,-0.01852814480662346
1690840659798160000,9.819159912109376,-0.003911118488758802,-0.0016841830220073462,-0.01649641804397106
1690840659808201000,9.829200927734375,-0.0038924762047827244,-0.0014207963831722736,-0.0173781905323267
1690840659818240800,9.83924072265625,-0.0051718587055802345,-0.002156095113605261,-0.01582024246454239
1690840659828280800,9.84928076171875,-0.0036820864770561457,-0.0057047572918236256,-0.018084460869431496
1690840659838322000,9.859322021484376,-0.005620068870484829,-0.006613161414861679,-0.018153969198465347
1690840659848361700,9.86936181640625,-0.004321777727454901,-0.0054602790623903275,-0.018264491111040115
1690840659858401800,9.87940185546875,-0.003979295492172241,-0.005694104824215174,-0.017227189615368843
1690840659868441900,9.88944189453125,-0.004599545616656542,-0.002138784620910883,-0.01978888548910618
1690840659878483000,9.89948291015625,-0.003692472819238901,0.002293247962370515,-0.021093567833304405
1690840659888522800,9.909522705078125,-0.003979561384767294,0.004261856433004141,-0.022817963734269142
1690840659898562800,9.919562744140626,-0.0046160570345819,0.005242432467639446,-0.023074958473443985
1690840659908604000,9.92960400390625,-0.0036735644098371267,0.0003880225704051554,-0.025684591382741928
1690840659918673700,9.939673583984375,-0.0041614556685090065,-0.003781156148761511,-0.023422768339514732
1690840659928714800,9.94971484375,-0.004227235447615385,-0.0057284594513475895,-0.023000124841928482
1690840659938754800,9.9597548828125,-0.004259459674358368,-0.007734884973615408,-0.024085894227027893
1690840659948795000,9.969794921875,-0.003748132847249508,-0.008310927078127861,-0.022406505420804024
1690840659958836000,9.9798359375,-0.003975833300501108,-0.0060027651488780975,-0.02058943174779415
1690840659968875800,9.989875732421876,-0.004456001333892345,-0.0037736992817372084,-0.023257918655872345
1690840659978915600,9.99991552734375,-0.004642955027520657,0.00023675501870457083,-0.02154390700161457
1690840659988955600,10.00995556640625,-0.0034075146540999413,0.00048655952559784055,-0.021158281713724136
1690840659998996700,10.019996826171875,-0.004564125556498766,0.002682868391275406,-0.021868813782930374
1690840660009036800,10.030036865234376,-0.005407548509538174,0.0029254823457449675,-0.01948501728475094
1690840660019076900,10.040076904296875,-0.005676794331520796,0.0014314490836113691,-0.02028343454003334
1690840660029117700,10.05011767578125,-0.0036914076190441847,-0.0012783173006027937,-0.01859712041914463
1690840660039157800,10.06015771484375,-0.004327103961259127,-0.006912234704941511,-0.02040913514792919
1690840660049197800,10.07019775390625,-0.004683967679738998,-0.003936951048672199,-0.018613630905747414
1690840660059237600,10.080237548828125,-0.003629888640716672,-0.006216616835445166,-0.017428791150450706
1690840660069308700,10.09030859375,-0.00552233075723052,-0.005368666257709265,-0.020577447488904
1690840660079348700,10.1003486328125,-0.0049039446748793125,-0.0030037793330848217,-0.017726799473166466
1690840660089389800,10.110389892578125,-0.006560963578522205,-0.0030506509356200695,-0.01780562847852707
1690840660099430000,10.120429931640626,-0.0049191247671842575,0.0013406352372840047,-0.019845344126224518
1690840660109470000,10.130469970703125,-0.004957740660756826,0.0018540926976129413,-0.020922858268022537
1690840660119510800,10.1405107421875,-0.0038104509003460407,0.0018708707066252828,-0.021517809480428696
1690840660129550600,10.150550537109375,-0.005169195588678122,0.0030605047941207886,-0.02239292301237583
1690840660139590700,10.160590576171876,-0.004057592246681452,0.00007776429993100464,-0.022048577666282654
1690840660149630700,10.170630615234375,-0.0041404166258871555,-0.001984587637707591,-0.02364594116806984
1690840660159671800,10.180671875,-0.0037907434161752462,-0.0031382690649479628,-0.020984644070267677
1690840660169711900,10.1907119140625,-0.0046754456125199795,-0.005222192499786615,-0.022345252335071564
1690840660179752000,10.200751953125,-0.00424188282340765,-0.0052056810818612576,-0.02269173040986061
1690840660189792800,10.210792724609375,-0.003961984533816576,-0.003492735791951418,-0.021697038784623146
1690840660199832800,10.220832763671876,-0.003713511861860752,-0.002894589677453041,-0.022285064682364464
1690840660209872600,10.23087255859375,-0.0057289921678602695,-0.0010370349045842886,-0.021734589710831642
1690840660219943700,10.240943603515625,-0.003961185924708843,0.000180029688635841,-0.02167067490518093
1690840660229983700,10.250983642578126,-0.0052355085499584675,0.0012532835826277733,-0.022311430424451828
1690840660240024800,10.26102490234375,-0.005724464543163776,0.0005765743553638458,-0.02009355090558529
1690840660250065000,10.27106494140625,-0.006421147845685482,-0.002508165081962943,-0.018792862072587013
1690840660260105000,10.28110498046875,-0.005570267792791128,-0.0019086875254288316,-0.017055682837963104
1690840660270144800,10.291144775390626,-0.003766242414712906,-0.0031372036319226027,-0.017893513664603233
1690840660280185600,10.301185546875,-0.005185973364859819,-0.0021342572290450335,-0.01925145834684372
1690840660290225700,10.3112255859375,-0.005018993280827999,-0.003209908027201891,-0.01968448795378208
1690840660300265700,10.321265625,-0.0049678608775138855,-0.004354534670710564,-0.0196064580231905
1690840660310305800,10.331305908203126,-0.004129497334361076,-0.005744704511016607,-0.021889053285121918
1690840660320347000,10.341346923828125,-0.00481446273624897,-0.004600610584020615,-0.020975323393940926
1690840660330387000,10.351386962890626,-0.003970507066696882,-0.002659965306520462,-0.020015519112348557
1690840660340427000,10.361427001953125,-0.003971572034060955,-0.0021526331547647715,-0.022188926115632057
1690840660350467800,10.3714677734375,-0.005574262235313654,-0.001014664419926703,-0.021468274295330048
1690840660360507600,10.381507568359375,-0.0043835630640387535,0.001050617080181837,-0.021679729223251343
1690840660370578700,10.39157861328125,-0.005643504671752453,-0.0003259709046687931,-0.02190609835088253
1690840660380618800,10.40161865234375,-0.003939081449061632,0.001097755040973425,-0.023130886256694794
1690840660390658800,10.411658935546875,-0.0038599856197834015,-0.0005025385180488229,-0.02117506042122841
1690840660400700000,10.421699951171876,-0.004351072479039431,-0.001885784324258566,-0.022122345864772797
1690840660410740000,10.431739990234375,-0.0049561429768800735,-0.004877046681940556,-0.02256389893591404
1690840660420779800,10.44177978515625,-0.004726844374090433,-0.00478516798466444,-0.022475747391581535
1690840660430819800,10.45181982421875,-0.004927380476146936,-0.0059662796556949615,-0.020621921867132187
1690840660440860700,10.461860595703126,-0.0030280142091214657,-0.006533266510814428,-0.020748687908053398
1690840660450900700,10.471900634765625,-0.0021467742044478655,-0.0049188584089279175,-0.017309481278061867
1690840660460940800,10.48194091796875,-0.003240001853555441,-0.0022391858510673046,-0.015732357278466225
1690840660470982000,10.49198193359375,-0.005129780620336533,-0.00022770027862861753,-0.0172591470181942
1690840660481022000,10.50202197265625,-0.004831240512430668,0.00007669904152862728,-0.01672571711242199
1690840660491062000,10.51206201171875,-0.0037739656399935484,-0.0005395564367063344,-0.018571820110082626
1690840660501101800,10.522101806640626,-0.00327275856398046,0.00023861923546064645,-0.019541211426258087
1690840660511142700,10.532142578125,-0.0043806335888803005,-0.0016591493040323257,-0.02052391692996025
1690840660521213000,10.542212890625,-0.0038394792936742306,-0.0038216360844671726,-0.022717563435435295
1690840660531253800,10.552253662109376,-0.0036764938849955797,-0.0023784691002219915,-0.023389479145407677
1690840660541293800,10.5622939453125,-0.006139118690043688,-0.0018767296569421887,-0.025191638618707657
1690840660551334000,10.572333984375,-0.0037638454232364893,-0.004452006425708532,-0.02628806233406067
1690840660561375000,10.582375,-0.005526059307157993,-0.005228584166616201,-0.025740250945091248
1690840660571414800,10.592414794921876,-0.004815527703613043,-0.00797456968575716,-0.024652615189552307
1690840660581454800,10.602454833984375,-0.004141215234994888,-0.004457865376025438,-0.023138608783483505
1690840660591495000,10.612494873046876,-0.004055728204548359,-0.004502073861658573,-0.01925039291381836
1690840660601535700,10.62253564453125,-0.0039049931801855564,0.0005241101025603712,-0.013608752749860287
1690840660611575800,10.632575927734376,-0.003878627670928836,0.002237854292616248,-0.015688681975007057
1690840660621615900,10.642615966796875,-0.00478463526815176,0.0020471718162298203,-0.014846057631075382
1690840660631657000,10.652656982421876,-0.00549197057262063,0.00047351003740914166,-0.017707889899611473
1690840660641696800,10.66269677734375,-0.006707170978188515,0.0011414308100938797,-0.02081313729286194
1690840660651736800,10.67273681640625,-0.005532983224838972,-0.001416002749465406,-0.021568141877651215
1690840660661777000,10.68277685546875,-0.004317250568419695,-0.004000600427389145,-0.023804398253560066
1690840660671843800,10.69284375,-0.004422445315867662,-0.006640592124313116,-0.021931396797299385
1690840660681884700,10.702884765625,-0.001588575541973114,-0.0029353362042456865,-0.020295418798923492
1690840660691924700,10.7129248046875,-0.004226436838507652,-0.004353735595941544,-0.01907702162861824
1690840660701964800,10.72296484375,-0.0030336068011820316,-0.004551874939352274,-0.016986973583698273
1690840660712004900,10.7330048828125,-0.003019758267328143,-0.0007691209320910275,-0.01684715785086155
1690840660722046000,10.7430458984375,-0.006594785954803228,0.0006668555433861911,-0.015802131965756416
1690840660732085800,10.753085693359376,-0.005049886181950569,0.0012516856659203768,-0.020746557042002678
1690840660742125800,10.763125732421875,-0.005486377980560064,-0.0002247707889182493,-0.022108497098088264
1690840660752166000,10.773165771484376,-0.0054216631688177586,0.0005185174522921443,-0.025539981201291084
1690840660762206700,10.783206787109375,-0.0046421559527516365,0.00008362325752386823,-0.025772741064429283
1690840660772246800,10.793246826171876,-0.0029768813401460648,-0.0018255969043821096,-0.02515914849936962
1690840660782286800,10.803286865234375,-0.004087686073035002,-0.004083424806594849,-0.024468325078487396
1690840660792328000,10.813327880859376,-0.005246693734079599,-0.005258944351226091,-0.021312212571501732
1690840660802368000,10.823367919921875,-0.0067963870242238045,-0.007711449172347784,-0.01852228492498398
1690840660812407800,10.83340771484375,-0.004680239129811525,-0.0067657604813575745,-0.017651164904236794
1690840660822478800,10.843478759765626,-0.005576925817877054,-0.0029385320376604795,-0.01721573807299137
1690840660832519000,10.853518798828125,-0.00437956815585494,0.0004623247659765184,-0.016932377591729164
1690840660842559700,10.863559814453126,-0.00461712246760726,0.0015393070643767715,-0.01859232597053051
1690840660852599800,10.873599853515625,-0.005857356358319521,0.0023486416321247816,-0.021462680771946907
1690840660862639900,10.883639892578126,-0.007684284821152687,-0.0003462109307292849,-0.021280521526932716
1690840660872679700,10.8936796875,-0.006720487028360367,-0.00038482676609419286,-0.02381798066198826
1690840660882720800,10.903720703125,-0.0046693203039467335,-0.004899950232356787,-0.021800637245178223
1690840660892760800,10.9137607421875,-0.0054456316865980625,-0.0052229915745556355,-0.020853882655501366
1690840660902801000,10.92380078125,-0.004785966593772173,-0.006530603393912315,-0.01689988747239113
1690840660912841700,10.933841796875,-0.0028642297256737947,-0.0028964539524167776,-0.01900777965784073
1690840660922881800,10.9438818359375,-0.004474909510463476,-0.002496979897841811,-0.01486443355679512
1690840660932921900,10.953921875,-0.004939098376780748,-0.002441585995256901,-0.016270317137241364
1690840660942961700,10.963961669921876,-0.005661614239215851,-0.00033635724685154855,-0.02172127366065979
1690840660953002800,10.974002685546875,-0.00498037738725543,-0.002615224104374647,-0.022351644933223724
1690840660963042800,10.984042724609376,-0.005539108533412218,0.00016298545233439654,-0.023571638390421867
1690840660973113900,10.99411376953125,-0.00381417921744287,-0.002222141483798623,-0.025354625657200813
1690840660983154000,11.00415380859375,-0.005398760084062815,-0.0019776634871959686,-0.02317189797759056
1690840660993194000,11.014194091796876,-0.0036727653350681067,-0.003727626521140337,-0.022416891530156136
1690840661003234800,11.02423486328125,-0.0046762446872889996,-0.003029612125828862,-0.019700467586517334
1690840661013275000,11.03427490234375,-0.005584915168583393,-0.0039867521263659,-0.01907329261302948
1690840661023314700,11.044314697265625,-0.005313805304467678,-0.004750280175358057,-0.01960992068052292
1690840661033354800,11.054354736328126,-0.005502357147634029,-0.0031044469214975834,-0.018699651584029198
1690840661043395800,11.064395751953125,-0.004315918777137995,-0.0004117247008252889,-0.02027837373316288
1690840661053436000,11.074435791015626,-0.005531385540962219,-0.0015001586871221662,-0.020358800888061523
1690840661063476000,11.08447607421875,-0.005143895745277405,-0.001998968655243516,-0.022044315934181213
1690840661073516800,11.094516845703126,-0.005034439731389284,-0.0018788601737469435,-0.022611569613218307
1690840661083556900,11.104556884765625,-0.004079962614923716,-0.0013547500129789114,-0.021033646538853645
1690840661093596700,11.1145966796875,-0.004446680191904306,-0.002016279147937894,-0.02183738723397255
1690840661103636700,11.12463671875,-0.0026959178503602743,-0.0032831449061632156,-0.018664231523871422
1690840661113677800,11.134677734375,-0.0062616243958473206,-0.0025419872254133224,-0.018754778429865837
1690840661123748900,11.144748779296876,-0.005400091875344515,-0.00199337606318295,-0.017006946727633476
1690840661133789000,11.154788818359375,-0.003893541404977441,-0.0023254721891134977,-0.016159528866410255
1690840661143829000,11.1648291015625,-0.004060521721839905,-0.0012532835826277733,-0.018703646957874298
1690840661153868800,11.174868896484375,-0.003180613275617361,-0.000313986703986302,-0.021470937877893448
1690840661163910000,11.184909912109376,-0.005393700208514929,-0.001071123406291008,-0.02021552249789238
1690840661173949700,11.19494970703125,-0.0049438923597335815,-0.00304718897677958,-0.022465627640485764
1690840661183989800,11.20498974609375,-0.004265851341187954,-0.0022181468084454536,-0.024806812405586243
1690840661194030800,11.21503076171875,-0.004197940696030855,-0.0018730012234300375,-0.022889602929353714
1690840661204071000,11.22507080078125,-0.002930276095867157,-0.001931058126501739,-0.022490661591291428
1690840661214111000,11.235111083984375,-0.004370247479528189,-0.003483148291707039,-0.021326061338186264
1690840661224150800,11.24515087890625,-0.005542570725083351,-0.0018516959389671683,-0.019940685480833054
1690840661234192000,11.25519189453125,-0.004475442226976156,-0.0022943131625652313,-0.019835757091641426
1690840661244231700,11.265231689453126,-0.004042944870889187,-0.0014596786350011826,-0.020310597494244576
1690840661254271700,11.275271728515625,-0.005422195885330439,-0.0009691243176348507,-0.020809674635529518
1690840661264311800,11.285311767578126,-0.004038683604449034,-0.0010034791193902493,-0.020204870030283928
1690840661274382800,11.2953828125,-0.004210724029690027,-0.002168345730751753,-0.02094230055809021
1690840661284424000,11.305423828125,-0.0057257963344454765,-0.0029374666046351194,-0.02262834645807743
1690840661294464000,11.315464111328126,-0.004797684494405985,-0.002516687149181962,-0.022820893675088882
1690840661304503800,11.32550390625,-0.004032824654132128,-0.004573180340230465,-0.020420853048563004
1690840661314543600,11.335543701171876,-0.0031904669012874365,-0.004592887591570616,-0.019998475909233093
1690840661324584700,11.345584716796875,-0.0027379959356039762,-0.00487278588116169,-0.018249044194817543
1690840661334624800,11.355624755859376,-0.004190484061837196,-0.0014168017078191042,-0.01878460682928562
1690840661344664800,11.365664794921875,-0.004508997779339552,0.0006330333999358118,-0.01794145070016384
1690840661354706000,11.375705810546876,-0.0044141896069049835,0.0023363912478089333,-0.01998436078429222
1690840661364745700,11.385745849609375,-0.005918076727539301,0.0008849684381857514,-0.019897541031241417
1690840661374785800,11.395785888671876,-0.005571066867560148,0.0001358212175546214,-0.02274179831147194
1690840661384825600,11.40582568359375,-0.0035361452028155327,-0.001353152096271515,-0.022068018093705177
1690840661394866700,11.41586669921875,-0.005263737868517637,-0.0030748858116567135,-0.021260812878608704
1690840661404906800,11.42590673828125,-0.006686664652079344,-0.004866660572588444,-0.021020863205194473
1690840661414946800,11.43594677734375,-0.005472263321280479,-0.003659183392301202,-0.02118011936545372
1690840661425017900,11.446017822265626,-0.004910869058221579,-0.0010434264549985528,-0.01860138028860092
1690840661435058000,11.456057861328125,-0.0030152308754622936,-0.0029880667570978403,-0.01906530372798443
1690840661445098800,11.4660986328125,-0.003963316325098276,-0.0014940333785489202,-0.02034388668835163
1690840661455138800,11.476138916015625,-0.006421147845685482,-0.0001954760227818042,-0.01920458674430847
1690840661465178600,11.4861787109375,-0.005517803598195314,0.0005379585199989378,-0.01901337131857872
1690840661475218700,11.49621875,-0.004589958116412163,-0.0006383596919476986,-0.020084494724869728
1690840661485259800,11.506259765625,-0.0038077877834439278,0.0018836538074538112,-0.02112605795264244
1690840661495299800,11.5162998046875,-0.0052363071590662,-0.0019068233668804169,-0.02148345485329628
1690840661505340000,11.52633984375,-0.004780906718224287,-0.0059633501805365086,-0.02094096876680851
1690840661515380700,11.536380615234375,-0.0036754286848008633,-0.00492125516757369,-0.022668028250336647
1690840661525420800,11.5464208984375,-0.0030240193009376526,-0.006873086094856262,-0.020786771550774574
1690840661535460600,11.556460693359375,-0.005302620120346546,-0.003543868428096175,-0.020745491608977318
1690840661545500700,11.566500732421876,-0.0038567897863686085,-0.0018287927377969027,-0.01769004762172699
1690840661555541800,11.576541748046875,-0.003930825740098953,-0.001832521171309054,-0.01804344914853573
1690840661565581800,11.586581787109376,-0.005405151750892401,-0.00037497308221645653,-0.0196104533970356
1690840661575652900,11.59665283203125,-0.004771319217979908,0.0006072007236070931,-0.021105818450450897
1690840661585693000,11.60669287109375,-0.005109008401632309,-0.00010359696898376569,-0.02015373855829239
1690840661595732700,11.616732666015626,-0.0041065942496061325,-0.0000023968450477696024,-0.02196628600358963
1690840661605773800,11.62677392578125,-0.005510879214853048,-0.001844505313783884,-0.021625665947794914
1690840661615813600,11.636813720703126,-0.0054520233534276485,-0.005348692648112774,-0.02321637235581875
1690840661625853700,11.646853759765625,-0.00461579067632556,-0.00535508431494236,-0.02082645148038864
1690840661635894800,11.656894775390626,-0.0040978058241307735,-0.004540956113487482,-0.01962190493941307
1690840661645934800,11.666934814453125,-0.004219246096909046,-0.0037942056078463793,-0.02064003050327301
1690840661655975000,11.676974853515626,-0.005300223361700773,0.0002287655370309949,-0.01967942900955677
1690840661666015000,11.687014892578125,-0.005134574603289366,-0.0018985675415024161,-0.022699186578392982
1690840661676055000,11.697054931640626,-0.0046879625879228115,-0.00017257283616345376,-0.021405955776572227
1690840661686095000,11.70709521484375,-0.0038514635525643826,-0.00026525085559114814,-0.019881296902894974
1690840661696135200,11.71713525390625,-0.005230181850492954,0.0013630058383569121,-0.021037640050053596
1690840661706176000,11.727176025390625,-0.003973436541855335,-0.002837864449247718,-0.020005133002996445
1690840661716216000,11.737216064453126,-0.00515827676281333,-0.002831472782418132,-0.022657642140984535
1690840661726287000,11.747287109375,-0.0037433390971273184,-0.005901032127439976,-0.020599018782377243
1690840661736327200,11.7573271484375,-0.003881557146087289,-0.004828044679015875,-0.022238725796341896
1690840661746367000,11.767366943359375,-0.005733519326895475,-0.0046701193787157536,-0.021381987258791924
