time,seconds_elapsed,z,y,x
1691217813632397300,0.045397216796875,-1.0030059814453125,0.044830322265625,-0.00592041015625
1691217813642407400,0.055407470703125,-0.9649200439453125,0.050384521484375,-0.0201263427734375
1691217813652417500,0.06541748046875,-0.9647064208984375,-0.0732269287109375,-0.03753662109375
1691217813662457300,0.075457275390625,-0.9098052978515625,-0.059967041015625,-0.0347900390625
1691217813672528400,0.0855283203125,-0.9545135498046875,0.106109619140625,-0.034820556640625
1691217813682568200,0.095568115234375,-0.9582061767578125,0.051666259765625,-0.024688720703125
1691217813692609300,0.105609375,-0.922607421875,0.066436767578125,-0.01007080078125
1691217813702649300,0.1156494140625,-0.9495086669921875,0.077545166015625,-0.01007080078125
1691217813712689400,0.125689453125,-0.960113525390625,0.02410888671875,-0.0030975341796875
1691217813722729500,0.1357294921875,-0.9542388916015625,0.038360595703125,-0.00408935546875
1691217813732770600,0.1457705078125,-0.9814605712890625,0.012664794921875,-0.00445556640625
1691217813742810400,0.155810302734375,-0.966217041015625,-0.037872314453125,-0.0066680908203125
1691217813752850200,0.16585009765625,-0.965484619140625,-0.0121612548828125,-0.0162353515625
1691217813762891300,0.175891357421875,-0.988433837890625,-0.0230712890625,-0.018096923828125
1691217813772931300,0.185931396484375,-0.9801483154296875,-0.0175628662109375,-0.0193023681640625
1691217813782971400,0.195971435546875,-0.9769439697265625,-0.0167388916015625,-0.0171966552734375
1691217813793011500,0.206011474609375,-0.9942779541015625,-0.037017822265625,-0.0128631591796875
1691217813803052500,0.216052490234375,-0.9789581298828125,-0.0298919677734375,-0.0064239501953125
1691217813813092400,0.22609228515625,-0.9845733642578125,-0.024993896484375,-0.0024261474609375
1691217813823163400,0.236163330078125,-0.9923858642578125,-0.0273590087890625,-0.0047760009765625
1691217813833203200,0.246203125,-0.9758453369140625,-0.0179901123046875,-0.0099029541015625
1691217813843243300,0.2562431640625,-0.982574462890625,-0.03631591796875,-0.014862060546875
1691217813853284400,0.266284423828125,-0.97760009765625,-0.0448455810546875,-0.0198211669921875
1691217813863324400,0.276324462890625,-0.9730682373046875,-0.0169219970703125,-0.0203399658203125
1691217813873364500,0.286364501953125,-0.9813232421875,-0.0302276611328125,-0.01861572265625
1691217813883404300,0.296404296875,-0.9711761474609375,-0.030181884765625,-0.012725830078125
1691217813893445400,0.3064453125,-0.97509765625,-0.0003814697265625,-0.00738525390625
1691217813903485200,0.316485107421875,-0.9832305908203125,-0.0090789794921875,-0.0047760009765625
1691217813913525200,0.326525146484375,-0.9689483642578125,-0.01861572265625,-0.0059814453125
1691217813923566300,0.33656640625,-0.968963623046875,-0.017730712890625,-0.0098419189453125
1691217813933606400,0.3466064453125,-0.976776123046875,-0.0142059326171875,-0.0147857666015625
1691217813943646500,0.356646484375,-0.966796875,-0.0054473876953125,-0.0189666748046875
1691217813953686300,0.366686279296875,-0.9713897705078125,-0.0128021240234375,-0.0209808349609375
1691217813963727400,0.376727294921875,-0.971710205078125,-0.017791748046875,-0.019195556640625
1691217813973798400,0.38679833984375,-0.9682464599609375,-0.0073699951171875,-0.0152587890625
1691217813983838200,0.396838134765625,-0.977783203125,-0.0110626220703125,-0.0109100341796875
1691217813993878300,0.406878173828125,-0.9738006591796875,-0.0142822265625,-0.006439208984375
1691217814003918300,0.41691845703125,-0.974151611328125,-0.0063934326171875,-0.006439208984375
1691217814013959400,0.42695947265625,-0.980560302734375,-0.015106201171875,-0.0083160400390625
1691217814023999500,0.43699951171875,-0.9715423583984375,-0.0174560546875,-0.0138397216796875
1691217814034039300,0.447039306640625,-0.9773406982421875,-0.0074310302734375,-0.0169219970703125
1691217814044080400,0.457080322265625,-0.97467041015625,-0.0217437744140625,-0.017486572265625
1691217814054120200,0.4671201171875,-0.970550537109375,-0.01702880859375,-0.01763916015625
1691217814064160300,0.47716015625,-0.9804229736328125,-0.0064239501953125,-0.01556396484375
1691217814074200300,0.487200439453125,-0.972381591796875,-0.0219573974609375,-0.01202392578125
1691217814084241400,0.497241455078125,-0.97723388671875,-0.0112152099609375,-0.0083465576171875
1691217814094281500,0.507281494140625,-0.9813232421875,-0.008575439453125,-0.007568359375
1691217814104321300,0.5173212890625,-0.9733123779296875,-0.0219879150390625,-0.009674072265625
1691217814114392300,0.527392333984375,-0.978912353515625,-0.0083465576171875,-0.0114288330078125
1691217814124432400,0.537432373046875,-0.975067138671875,-0.0113525390625,-0.0139007568359375
1691217814134473200,0.54747314453125,-0.972259521484375,-0.01800537109375,-0.0163726806640625
1691217814144513300,0.55751318359375,-0.9763641357421875,-0.0074920654296875,-0.0170440673828125
1691217814154553300,0.56755322265625,-0.9725341796875,-0.0120849609375,-0.015960693359375
1691217814164593200,0.57759326171875,-0.9749755859375,-0.014923095703125,-0.0140380859375
1691217814174634500,0.587634521484375,-0.9766082763671875,-0.0098876953125,-0.0124359130859375
1691217814184674300,0.59767431640625,-0.9759063720703125,-0.012908935546875,-0.0097808837890625
1691217814194714400,0.60771435546875,-0.978302001953125,-0.01531982421875,-0.0099029541015625
1691217814204755200,0.617755126953125,-0.97698974609375,-0.0128021240234375,-0.0102691650390625
1691217814214795300,0.627795166015625,-0.9781036376953125,-0.013397216796875,-0.01263427734375
1691217814224835300,0.63783544921875,-0.9768524169921875,-0.0164337158203125,-0.01361083984375
1691217814234875400,0.64787548828125,-0.9747314453125,-0.0131683349609375,-0.0139923095703125
1691217814244916500,0.65791650390625,-0.9776153564453125,-0.0131988525390625,-0.01593017578125
1691217814254956300,0.667956298828125,-0.974273681640625,-0.0173797607421875,-0.015625
1691217814265027300,0.67802734375,-0.9772491455078125,-0.011444091796875,-0.013580322265625
1691217814275067400,0.6880673828125,-0.979248046875,-0.013519287109375,-0.0121917724609375
1691217814285107500,0.698107421875,-0.9764404296875,-0.01568603515625,-0.0092315673828125
1691217814295148300,0.708148193359375,-0.978546142578125,-0.010284423828125,-0.0088958740234375
1691217814305188400,0.718188232421875,-0.976165771484375,-0.013641357421875,-0.0097198486328125
1691217814315228200,0.728228271484375,-0.9754791259765625,-0.0139007568359375,-0.0116119384765625
1691217814325268200,0.738268310546875,-0.9759368896484375,-0.0095672607421875,-0.0142974853515625
1691217814335310300,0.748310302734375,-0.9738311767578125,-0.014984130859375,-0.0161285400390625
1691217814345350400,0.758350341796875,-0.9759979248046875,-0.01416015625,-0.01666259765625
1691217814355390500,0.768390380859375,-0.9765777587890625,-0.0117645263671875,-0.015533447265625
1691217814365431600,0.778431640625,-0.9766998291015625,-0.014129638671875,-0.01214599609375
1691217814375471600,0.7884716796875,-0.9784088134765625,-0.0132293701171875,-0.0106658935546875
1691217814385511700,0.79851171875,-0.9784393310546875,-0.0125579833984375,-0.008514404296875
1691217814395551500,0.808551513671875,-0.978607177734375,-0.0146026611328125,-0.0094146728515625
1691217814405622500,0.81862255859375,-0.9776763916015625,-0.014068603515625,-0.011383056640625
1691217814415663400,0.828663330078125,-0.9772796630859375,-0.013702392578125,-0.0149688720703125
1691217814425703400,0.838703369140625,-0.97760009765625,-0.015289306640625,-0.01593017578125
1691217814435743500,0.848743408203125,-0.9764404296875,-0.0145111083984375,-0.0159912109375
1691217814445783600,0.858783447265625,-0.97564697265625,-0.0112457275390625,-0.0156402587890625
1691217814455824600,0.86882470703125,-0.9767608642578125,-0.013763427734375,-0.013427734375
1691217814465864700,0.87886474609375,-0.9773406982421875,-0.0128631591796875,-0.010772705078125
1691217814475904500,0.888904541015625,-0.9791259765625,-0.01129150390625,-0.00946044921875
1691217814485945300,0.8989453125,-0.9779510498046875,-0.0130157470703125,-0.009765625
1691217814495985400,0.9089853515625,-0.9782257080078125,-0.012542724609375,-0.01165771484375
1691217814506025500,0.919025390625,-0.9768829345703125,-0.011993408203125,-0.0130615234375
1691217814516065500,0.9290654296875,-0.9758758544921875,-0.01422119140625,-0.01422119140625
1691217814526106600,0.939106689453125,-0.9774169921875,-0.0124359130859375,-0.015960693359375
1691217814536146700,0.949146728515625,-0.9759674072265625,-0.013092041015625,-0.0154571533203125
1691217814546186500,0.9591865234375,-0.9766387939453125,-0.014251708984375,-0.013824462890625
1691217814556257500,0.969257568359375,-0.978240966796875,-0.01300048828125,-0.011749267578125
1691217814566297600,0.979297607421875,-0.978759765625,-0.013763427734375,-0.009735107421875
1691217814576338400,0.98933837890625,-0.9786529541015625,-0.014190673828125,-0.009368896484375
1691217814586378500,0.99937841796875,-0.978424072265625,-0.0128021240234375,-0.0103607177734375
1691217814596418600,1.00941845703125,-0.9781036376953125,-0.01385498046875,-0.0124053955078125
1691217814606458600,1.019458740234375,-0.9779052734375,-0.013885498046875,-0.0136260986328125
1691217814616499700,1.029499755859375,-0.9779815673828125,-0.0126190185546875,-0.0142059326171875
1691217814626539500,1.03953955078125,-0.97698974609375,-0.012481689453125,-0.014404296875
1691217814636579600,1.04957958984375,-0.977569580078125,-0.0131378173828125,-0.0148162841796875
1691217814646620400,1.059620361328125,-0.97833251953125,-0.0121917724609375,-0.0127716064453125
1691217814656660500,1.069660400390625,-0.97821044921875,-0.0128021240234375,-0.011199951171875
1691217814666700500,1.079700439453125,-0.9775238037109375,-0.0135040283203125,-0.01116943359375
1691217814676740600,1.08974072265625,-0.9774169921875,-0.0117034912109375,-0.0115509033203125
1691217814686781700,1.09978173828125,-0.9783935546875,-0.013275146484375,-0.01141357421875
1691217814696852500,1.1098525390625,-0.97711181640625,-0.013336181640625,-0.0124359130859375
1691217814706892500,1.119892578125,-0.9765777587890625,-0.0123443603515625,-0.01416015625
1691217814716932600,1.1299326171875,-0.977081298828125,-0.0135955810546875,-0.014068603515625
1691217814726972700,1.13997265625,-0.9777374267578125,-0.01385498046875,-0.0145263671875
1691217814737013500,1.150013427734375,-0.977935791015625,-0.0135955810546875,-0.0137786865234375
1691217814747053600,1.160053466796875,-0.979156494140625,-0.0140533447265625,-0.01190185546875
1691217814757093400,1.17009326171875,-0.97979736328125,-0.0137939453125,-0.011260986328125
1691217814767133400,1.180133544921875,-0.979095458984375,-0.0123291015625,-0.0106964111328125
1691217814777174500,1.190174560546875,-0.9779510498046875,-0.0137786865234375,-0.0108184814453125
1691217814787214600,1.200214599609375,-0.977691650390625,-0.01336669921875,-0.012725830078125
1691217814797254700,1.210254638671875,-0.97760009765625,-0.0125274658203125,-0.013702392578125
1691217814807295500,1.22029541015625,-0.977813720703125,-0.01361083984375,-0.0142822265625
1691217814817335600,1.23033544921875,-0.9779815673828125,-0.0130767822265625,-0.015380859375
1691217814827375600,1.240375732421875,-0.977752685546875,-0.0133514404296875,-0.0142822265625
1691217814837415400,1.25041552734375,-0.9778900146484375,-0.013519287109375,-0.0128631591796875
1691217814847486500,1.260486572265625,-0.9787139892578125,-0.0128326416015625,-0.0118255615234375
1691217814857527600,1.270527587890625,-0.979583740234375,-0.0132904052734375,-0.0105743408203125
1691217814867567600,1.280567626953125,-0.9792022705078125,-0.013916015625,-0.010406494140625
1691217814877607700,1.290607666015625,-0.9788665771484375,-0.013763427734375,-0.011749267578125
1691217814887647700,1.300647705078125,-0.9780426025390625,-0.01324462890625,-0.01214599609375
1691217814897688600,1.3106884765625,-0.97747802734375,-0.014251708984375,-0.0144500732421875
1691217814907728400,1.320728271484375,-0.9780426025390625,-0.01397705078125,-0.01507568359375
1691217814917768400,1.3307685546875,-0.977813720703125,-0.013519287109375,-0.0134735107421875
1691217814927809500,1.3408095703125,-0.9781494140625,-0.0136260986328125,-0.0135498046875
1691217814937849600,1.350849609375,-0.9788970947265625,-0.0129241943359375,-0.01202392578125
1691217814947889700,1.3608896484375,-0.9798583984375,-0.0122528076171875,-0.010711669921875
1691217814957929700,1.3709296875,-0.9788055419921875,-0.0120849609375,-0.0113983154296875
1691217814967970600,1.380970458984375,-0.978729248046875,-0.01287841796875,-0.011322021484375
1691217814978010600,1.3910107421875,-0.9786529541015625,-0.0128021240234375,-0.0126190185546875
1691217814988081400,1.401081298828125,-0.978546142578125,-0.0123138427734375,-0.0135650634765625
1691217814998121500,1.41112158203125,-0.978485107421875,-0.012359619140625,-0.0147705078125
1691217815008161500,1.42116162109375,-0.978759765625,-0.013092041015625,-0.0147857666015625
1691217815018202600,1.43120263671875,-0.9769287109375,-0.013580322265625,-0.0132293701171875
1691217815028242700,1.44124267578125,-0.9778594970703125,-0.013336181640625,-0.012176513671875
1691217815038282800,1.45128271484375,-0.979156494140625,-0.014129638671875,-0.011627197265625
1691217815048322600,1.461322509765625,-0.9795379638671875,-0.014007568359375,-0.0108795166015625
1691217815058363400,1.47136328125,-0.9800567626953125,-0.013336181640625,-0.0115814208984375
1691217815068403500,1.481403564453125,-0.97918701171875,-0.0133514404296875,-0.0121002197265625
1691217815078443500,1.491443603515625,-0.9783935546875,-0.0136566162109375,-0.013153076171875
1691217815088484600,1.501484619140625,-0.9783172607421875,-0.012847900390625,-0.01422119140625
1691217815098524700,1.511524658203125,-0.978057861328125,-0.0135040283203125,-0.0143890380859375
1691217815108564700,1.521564697265625,-0.9777069091796875,-0.013397216796875,-0.014190673828125
1691217815118604500,1.5316044921875,-0.9780731201171875,-0.0128173828125,-0.0133514404296875
1691217815128645600,1.541645751953125,-0.9788360595703125,-0.0125274658203125,-0.0130767822265625
1691217815138716400,1.55171630859375,-0.9784393310546875,-0.012298583984375,-0.011383056640625
1691217815148756500,1.561756591796875,-0.979705810546875,-0.013336181640625,-0.0121002197265625
1691217815158796500,1.571796630859375,-0.9796142578125,-0.0130462646484375,-0.0126495361328125
1691217815168836600,1.581836669921875,-0.9782867431640625,-0.0123138427734375,-0.013519287109375
1691217815178877700,1.591877685546875,-0.978302001953125,-0.0119476318359375,-0.0140838623046875
1691217815188917800,1.601917724609375,-0.97845458984375,-0.0135955810546875,-0.0133209228515625
1691217815198957600,1.61195751953125,-0.97906494140625,-0.0131072998046875,-0.0129241943359375
1691217815208998400,1.621998291015625,-0.9795989990234375,-0.0125274658203125,-0.01275634765625
1691217815219038500,1.63203857421875,-0.979827880859375,-0.013671875,-0.0107574462890625
1691217815229078500,1.64207861328125,-0.9796142578125,-0.01336669921875,-0.01092529296875
1691217815239118600,1.65211865234375,-0.980804443359375,-0.0131072998046875,-0.011444091796875
1691217815249159700,1.66215966796875,-0.9800262451171875,-0.0137786865234375,-0.0120849609375
1691217815259199700,1.67219970703125,-0.9794769287109375,-0.01373291015625,-0.0126800537109375
1691217815269239600,1.682239501953125,-0.97808837890625,-0.013031005859375,-0.0135650634765625
1691217815279310600,1.692310546875,-0.9783782958984375,-0.0135650634765625,-0.013458251953125
1691217815289350400,1.702350341796875,-0.9779510498046875,-0.0130462646484375,-0.013885498046875
1691217815299391500,1.7123916015625,-0.9793243408203125,-0.012725830078125,-0.0129241943359375
1691217815309431600,1.722431640625,-0.979461669921875,-0.0124053955078125,-0.0118408203125
1691217815319471600,1.7324716796875,-0.980010986328125,-0.0128936767578125,-0.0118255615234375
1691217815329511700,1.74251171875,-0.979217529296875,-0.0128631591796875,-0.0114898681640625
1691217815339554800,1.752554931640625,-0.9792327880859375,-0.0134124755859375,-0.012359619140625
1691217815349595000,1.762594970703125,-0.979248046875,-0.0129241943359375,-0.012939453125
1691217815359635000,1.772635009765625,-0.9796142578125,-0.0126190185546875,-0.01348876953125
1691217815369675800,1.78267578125,-0.9795379638671875,-0.013946533203125,-0.0141448974609375
1691217815379715800,1.7927158203125,-0.9795379638671875,-0.0133056640625,-0.0138702392578125
1691217815389755600,1.802755615234375,-0.9791259765625,-0.0141143798828125,-0.0126800537109375
1691217815399795700,1.812795654296875,-0.97943115234375,-0.0137176513671875,-0.01220703125
1691217815409836800,1.8228369140625,-0.9799652099609375,-0.0140838623046875,-0.011627197265625
1691217815419876900,1.832876953125,-0.9794921875,-0.0128631591796875,-0.0118408203125
1691217815429948000,1.842947998046875,-0.97967529296875,-0.012847900390625,-0.0125579833984375
1691217815439988000,1.852988037109375,-0.97991943359375,-0.0131683349609375,-0.012847900390625
1691217815450028000,1.863028076171875,-0.9791259765625,-0.01275634765625,-0.013702392578125
1691217815460068900,1.87306884765625,-0.97869873046875,-0.0130615234375,-0.0130767822265625
1691217815470108700,1.883108642578125,-0.978179931640625,-0.0130157470703125,-0.0130462646484375
1691217815480148700,1.893148681640625,-0.9789886474609375,-0.01312255859375,-0.0131988525390625
1691217815490188800,1.903188720703125,-0.9791259765625,-0.01312255859375,-0.0128326416015625
1691217815500230000,1.91322998046875,-0.9794769287109375,-0.0127410888671875,-0.0126190185546875
1691217815510270000,1.92327001953125,-0.979949951171875,-0.0128631591796875,-0.012664794921875
1691217815520310000,1.93331005859375,-0.980133056640625,-0.0133514404296875,-0.012664794921875
1691217815530350800,1.943350830078125,-0.9794158935546875,-0.0128936767578125,-0.0130462646484375
1691217815540390700,1.953390625,-0.9786224365234375,-0.013275146484375,-0.013763427734375
1691217815550430700,1.9634306640625,-0.9795989990234375,-0.0128936767578125,-0.014068603515625
1691217815560470800,1.973470703125,-0.980194091796875,-0.0132904052734375,-0.0135650634765625
1691217815570541800,1.983541748046875,-0.9798431396484375,-0.0137481689453125,-0.014007568359375
1691217815580583000,1.9935830078125,-0.9797515869140625,-0.0138092041015625,-0.0131072998046875
1691217815590623000,2.003623046875,-0.980255126953125,-0.0140228271484375,-0.01202392578125
1691217815600663000,2.0136630859375,-0.98004150390625,-0.0129852294921875,-0.011749267578125
1691217815610702800,2.023702880859375,-0.980010986328125,-0.0127410888671875,-0.011383056640625
1691217815620743700,2.03374365234375,-0.9795989990234375,-0.012603759765625,-0.012054443359375
1691217815630783700,2.04378369140625,-0.9789276123046875,-0.0126953125,-0.012939453125
1691217815640823800,2.05382373046875,-0.978973388671875,-0.0130767822265625,-0.013214111328125
1691217815650865000,2.063864990234375,-0.9780120849609375,-0.0119476318359375,-0.0133819580078125
1691217815660905000,2.073905029296875,-0.9793853759765625,-0.0122833251953125,-0.0128326416015625
1691217815670945000,2.083945068359375,-0.979522705078125,-0.0131378173828125,-0.013031005859375
1691217815680984800,2.09398486328125,-0.979156494140625,-0.0130767822265625,-0.012054443359375
1691217815691025700,2.104025634765625,-0.98028564453125,-0.01312255859375,-0.0121002197265625
1691217815701065700,2.114065673828125,-0.9801177978515625,-0.0127105712890625,-0.0121002197265625
1691217815711136800,2.12413671875,-0.9803924560546875,-0.0132293701171875,-0.0113067626953125
1691217815721176800,2.1341767578125,-0.980133056640625,-0.013336181640625,-0.012298583984375
1691217815731217000,2.144216796875,-0.9803314208984375,-0.0130462646484375,-0.0127105712890625
1691217815741258000,2.154258056640625,-0.9798126220703125,-0.0132598876953125,-0.013916015625
1691217815751298000,2.164298095703125,-0.97918701171875,-0.012786865234375,-0.0137176513671875
1691217815761337900,2.174337890625,-0.979034423828125,-0.013092041015625,-0.0130157470703125
1691217815771378000,2.1843779296875,-0.9795074462890625,-0.01312255859375,-0.0128631591796875
1691217815781418800,2.194418701171875,-0.9800872802734375,-0.0128326416015625,-0.0118255615234375
1691217815791458800,2.204458740234375,-0.98046875,-0.01336669921875,-0.0121307373046875
1691217815801499000,2.214498779296875,-0.9795074462890625,-0.0131683349609375,-0.0126800537109375
1691217815811540000,2.2245400390625,-0.978759765625,-0.0126190185546875,-0.013458251953125
1691217815821580000,2.234580078125,-0.97991943359375,-0.013153076171875,-0.012908935546875
1691217815831619800,2.244619873046875,-0.9799041748046875,-0.013153076171875,-0.0126953125
1691217815841660000,2.254659912109375,-0.9790191650390625,-0.0131072998046875,-0.012451171875
1691217815851700700,2.26470068359375,-0.9797210693359375,-0.0135650634765625,-0.0129852294921875
1691217815861771800,2.274771728515625,-0.980255126953125,-0.0130767822265625,-0.012939453125
1691217815871811800,2.284811767578125,-0.9794921875,-0.0134124755859375,-0.0123443603515625
1691217815881852000,2.294851806640625,-0.9802703857421875,-0.0132293701171875,-0.0117340087890625
1691217815891892000,2.30489208984375,-0.980255126953125,-0.0138702392578125,-0.012664794921875
1691217815901933000,2.31493310546875,-0.980499267578125,-0.0135498046875,-0.0127410888671875
1691217815911972900,2.324972900390625,-0.9802093505859375,-0.0135345458984375,-0.013092041015625
1691217815922013000,2.335012939453125,-0.9792022705078125,-0.0133819580078125,-0.0128021240234375
1691217815932052700,2.345052734375,-0.9797515869140625,-0.0128021240234375,-0.01318359375
1691217815942093800,2.35509375,-0.979034423828125,-0.0123138427734375,-0.0128936767578125
1691217815952134000,2.3651337890625,-0.9800262451171875,-0.012786865234375,-0.01226806640625
1691217815962174000,2.375174072265625,-0.980194091796875,-0.012908935546875,-0.013031005859375
1691217815972215000,2.385215087890625,-0.9801788330078125,-0.013214111328125,-0.012725830078125
1691217815982254800,2.3952548828125,-0.980010986328125,-0.0135650634765625,-0.01177978515625
1691217815992295000,2.405294921875,-0.9797210693359375,-0.0138092041015625,-0.0126495361328125
1691217816002366000,2.415365966796875,-0.980072021484375,-0.013641357421875,-0.013092041015625
1691217816012405800,2.42540576171875,-0.9794464111328125,-0.0131683349609375,-0.0134124755859375
1691217816022446800,2.43544677734375,-0.9793701171875,-0.0136260986328125,-0.0130767822265625
1691217816032487000,2.44548681640625,-0.9805908203125,-0.013397216796875,-0.0128326416015625
1691217816042526700,2.455526611328125,-0.9804229736328125,-0.0126190185546875,-0.0120849609375
1691217816052566800,2.46556689453125,-0.9796295166015625,-0.0135345458984375,-0.0125579833984375
1691217816062608000,2.47560791015625,-0.98040771484375,-0.013641357421875,-0.0128173828125
1691217816072648000,2.48564794921875,-0.9799346923828125,-0.0131683349609375,-0.0125274658203125
1691217816082687700,2.495687744140625,-0.979888916015625,-0.0130767822265625,-0.0129852294921875
1691217816092728800,2.505728759765625,-0.9798431396484375,-0.01312255859375,-0.013519287109375
1691217816102769000,2.515768798828125,-0.9790191650390625,-0.01318359375,-0.013336181640625
1691217816112809000,2.52580908203125,-0.9788970947265625,-0.0133056640625,-0.0138702392578125
1691217816122848800,2.535848876953125,-0.9802398681640625,-0.01251220703125,-0.01385498046875
1691217816132889900,2.545889892578125,-0.979888916015625,-0.012237548828125,-0.0133819580078125
1691217816142959900,2.5559599609375,-0.9803009033203125,-0.0131378173828125,-0.0125579833984375
1691217816153000700,2.566000732421875,-0.97998046875,-0.0134124755859375,-0.0122833251953125
1691217816163040800,2.576040771484375,-0.97998046875,-0.013275146484375,-0.0121917724609375
1691217816173080800,2.586080810546875,-0.9816741943359375,-0.0131988525390625,-0.0127716064453125
1691217816183122000,2.596121826171875,-0.9802093505859375,-0.01312255859375,-0.0132293701171875
1691217816193161700,2.60616162109375,-0.9804534912109375,-0.0132598876953125,-0.0132904052734375
1691217816203201800,2.616201904296875,-0.9799346923828125,-0.0136260986328125,-0.013427734375
1691217816213241900,2.626241943359375,-0.9795989990234375,-0.013702392578125,-0.013641357421875
1691217816223282700,2.63628271484375,-0.98052978515625,-0.01373291015625,-0.0127716064453125
1691217816233322800,2.64632275390625,-0.9801483154296875,-0.0131988525390625,-0.0127105712890625
1691217816243362800,2.65636279296875,-0.980621337890625,-0.0126800537109375,-0.012054443359375
1691217816253404000,2.66640380859375,-0.9808807373046875,-0.01324462890625,-0.011627197265625
1691217816263444000,2.67644384765625,-0.9803314208984375,-0.0124359130859375,-0.012176513671875
1691217816273483800,2.68648388671875,-0.9800872802734375,-0.0123748779296875,-0.012237548828125
1691217816283554800,2.696554931640625,-0.9798736572265625,-0.0124969482421875,-0.0129852294921875
1691217816293595000,2.706594970703125,-0.979644775390625,-0.01220703125,-0.0130462646484375
1691217816303635700,2.7166357421875,-0.979522705078125,-0.012359619140625,-0.012847900390625
1691217816313675800,2.72667578125,-0.9797210693359375,-0.0127105712890625,-0.0133514404296875
1691217816323715800,2.7367158203125,-0.9803009033203125,-0.01300048828125,-0.0130767822265625
1691217816333755600,2.746755615234375,-0.9805450439453125,-0.013397216796875,-0.0123748779296875
1691217816343797200,2.75679736328125,-0.98004150390625,-0.0126800537109375,-0.0125885009765625
1691217816353837300,2.76683740234375,-0.98065185546875,-0.01263427734375,-0.01239013671875
1691217816363877000,2.776877197265625,-0.97991943359375,-0.0136260986328125,-0.0125274658203125
1691217816373917200,2.786917236328125,-0.979827880859375,-0.013580322265625,-0.0136260986328125
1691217816383958000,2.7969580078125,-0.979461669921875,-0.01361083984375,-0.01336669921875
1691217816393998000,2.806998046875,-0.980194091796875,-0.0135498046875,-0.013458251953125
1691217816404038100,2.8170380859375,-0.980194091796875,-0.0126800537109375,-0.0127716064453125
1691217816414079200,2.827079345703125,-0.9802093505859375,-0.0127716064453125,-0.0127105712890625
1691217816424119300,2.837119384765625,-0.9802398681640625,-0.0124359130859375,-0.0123138427734375
1691217816434190300,2.8471904296875,-0.980255126953125,-0.0115966796875,-0.012664794921875
1691217816444230100,2.857230224609375,-0.9802093505859375,-0.0131072998046875,-0.01287841796875
1691217816454270200,2.867270263671875,-0.9801025390625,-0.012359619140625,-0.0125732421875
1691217816464311000,2.87731103515625,-0.9797515869140625,-0.01251220703125,-0.0128173828125
1691217816474351000,2.88735107421875,-0.9800567626953125,-0.0130615234375,-0.01312255859375
1691217816484391200,2.89739111328125,-0.979583740234375,-0.01287841796875,-0.0133056640625
1691217816494431200,2.90743115234375,-0.980194091796875,-0.013214111328125,-0.013092041015625
1691217816504472300,2.917472412109375,-0.9803466796875,-0.0139007568359375,-0.012969970703125
1691217816514512100,2.92751220703125,-0.980133056640625,-0.013641357421875,-0.0122833251953125
1691217816524552200,2.93755224609375,-0.9799041748046875,-0.0125579833984375,-0.012481689453125
1691217816534593000,2.947593017578125,-0.9801177978515625,-0.0131072998046875,-0.0127716064453125
1691217816544633000,2.957633056640625,-0.9804840087890625,-0.0136871337890625,-0.01287841796875
1691217816554673200,2.967673095703125,-0.9809722900390625,-0.013153076171875,-0.0126495361328125
1691217816564713200,2.977713134765625,-0.980133056640625,-0.0135498046875,-0.0131072998046875
1691217816574784300,2.9877841796875,-0.9803314208984375,-0.013092041015625,-0.0136566162109375
1691217816584824000,2.997823974609375,-0.9802703857421875,-0.013153076171875,-0.0126800537109375
1691217816594865200,3.007865234375,-0.980224609375,-0.013580322265625,-0.0125579833984375
1691217816604905200,3.0179052734375,-0.979705810546875,-0.0128173828125,-0.013153076171875
1691217816614945300,3.0279453125,-0.980010986328125,-0.013336181640625,-0.0132598876953125
1691217816624986000,3.037986083984375,-0.9807891845703125,-0.0129852294921875,-0.01263427734375
1691217816635026200,3.048026123046875,-0.9805755615234375,-0.01300048828125,-0.012420654296875
1691217816645066200,3.058066162109375,-0.979949951171875,-0.0136871337890625,-0.0127410888671875
1691217816655106000,3.06810595703125,-0.97979736328125,-0.0140838623046875,-0.0129547119140625
1691217816665147100,3.078147216796875,-0.979766845703125,-0.01422119140625,-0.0123443603515625
1691217816675187200,3.088187255859375,-0.98095703125,-0.012908935546875,-0.0124969482421875
1691217816685227300,3.098227294921875,-0.9806060791015625,-0.012847900390625,-0.0125732421875
1691217816695268000,3.10826806640625,-0.9810638427734375,-0.0132598876953125,-0.013336181640625
1691217816705308200,3.11830810546875,-0.9806976318359375,-0.0134429931640625,-0.0126953125
1691217816715379200,3.128379150390625,-0.9803314208984375,-0.0137481689453125,-0.012451171875
1691217816725419300,3.138419189453125,-0.97955322265625,-0.0131072998046875,-0.0128631591796875
1691217816735459000,3.148458984375,-0.979736328125,-0.013671875,-0.012939453125
1691217816745500200,3.158500244140625,-0.9798126220703125,-0.0127410888671875,-0.012176513671875
1691217816755540200,3.168540283203125,-0.979400634765625,-0.012786865234375,-0.012847900390625
1691217816765580300,3.178580322265625,-0.9813385009765625,-0.013092041015625,-0.0127105712890625
1691217816775620000,3.1886201171875,-0.9803009033203125,-0.0130462646484375,-0.012542724609375
1691217816785661200,3.1986611328125,-0.98016357421875,-0.012786865234375,-0.0125579833984375
1691217816795701200,3.208701171875,-0.980926513671875,-0.0123291015625,-0.013153076171875
1691217816805741000,3.218740966796875,-0.9799957275390625,-0.0132904052734375,-0.01251220703125
1691217816815782100,3.2287822265625,-0.9796295166015625,-0.013458251953125,-0.012939453125
1691217816825822200,3.238822265625,-0.980255126953125,-0.013397216796875,-0.0132904052734375
1691217816835862300,3.2488623046875,-0.9805450439453125,-0.01287841796875,-0.01300048828125
1691217816845902000,3.258902099609375,-0.98016357421875,-0.01300048828125,-0.0128326416015625
1691217816855973000,3.26897314453125,-0.9805755615234375,-0.0135040283203125,-0.012664794921875
1691217816866013200,3.27901318359375,-0.9797210693359375,-0.0127410888671875,-0.0126800537109375
1691217816876054300,3.28905419921875,-0.9803924560546875,-0.013214111328125,-0.0127410888671875
1691217816886094000,3.299093994140625,-0.9805908203125,-0.013458251953125,-0.0125579833984375
1691217816896134100,3.309134033203125,-0.9805908203125,-0.01287841796875,-0.0130157470703125
1691217816906175200,3.31917529296875,-0.97998046875,-0.0120849609375,-0.012847900390625
1691217816916215300,3.32921533203125,-0.97979736328125,-0.0123138427734375,-0.0134735107421875
1691217816926255000,3.339255126953125,-0.980194091796875,-0.0120697021484375,-0.01263427734375
1691217816936295200,3.349295166015625,-0.979827880859375,-0.0130767822265625,-0.0137176513671875
1691217816946336300,3.359336181640625,-0.9803009033203125,-0.0136260986328125,-0.013153076171875
1691217816956376000,3.3693759765625,-0.979705810546875,-0.0133819580078125,-0.0127716064453125
1691217816966416100,3.379416015625,-0.9798583984375,-0.01312255859375,-0.0124053955078125
1691217816976457200,3.389457275390625,-0.9807281494140625,-0.013336181640625,-0.0122833251953125
1691217816986497300,3.399497314453125,-0.980743408203125,-0.013458251953125,-0.0126800537109375
1691217816996537000,3.409537109375,-0.9806671142578125,-0.01336669921875,-0.012969970703125
1691217817006608100,3.419608154296875,-0.9807891845703125,-0.0131072998046875,-0.013885498046875
1691217817016648000,3.42964794921875,-0.97991943359375,-0.0134429931640625,-0.01361083984375
1691217817026688000,3.43968798828125,-0.97998046875,-0.0140838623046875,-0.0137176513671875
1691217817036729000,3.44972900390625,-0.9804840087890625,-0.0139617919921875,-0.0126495361328125
1691217817046769200,3.45976904296875,-0.9805755615234375,-0.013763427734375,-0.0119781494140625
1691217817056809200,3.469809326171875,-0.9800567626953125,-0.0136871337890625,-0.012451171875
1691217817066850300,3.479850341796875,-0.979827880859375,-0.0124053955078125,-0.0125579833984375
1691217817076890000,3.48989013671875,-0.980072021484375,-0.013519287109375,-0.01318359375
1691217817086930200,3.49993017578125,-0.9802398681640625,-0.012969970703125,-0.013031005859375
1691217817096970000,3.509969970703125,-0.98040771484375,-0.0121307373046875,-0.012359619140625
1691217817107011000,3.520010986328125,-0.980010986328125,-0.013153076171875,-0.0128173828125
1691217817117051100,3.530051025390625,-0.9801483154296875,-0.012603759765625,-0.0129241943359375
1691217817127091200,3.54009130859375,-0.9812469482421875,-0.0122528076171875,-0.013214111328125
1691217817137132300,3.55013232421875,-0.98046875,-0.01287841796875,-0.012359619140625
1691217817147202300,3.560202392578125,-0.9801025390625,-0.0136871337890625,-0.01251220703125
1691217817157243100,3.5702431640625,-0.98046875,-0.013214111328125,-0.0126800537109375
1691217817167283000,3.580282958984375,-0.9803009033203125,-0.0132904052734375,-0.012847900390625
1691217817177323000,3.590322998046875,-0.9805450439453125,-0.01300048828125,-0.01361083984375
1691217817187364000,3.600364013671875,-0.9814300537109375,-0.0135955810546875,-0.01312255859375
1691217817197404200,3.610404052734375,-0.9815521240234375,-0.0131072998046875,-0.01336669921875
1691217817207444200,3.6204443359375,-0.98089599609375,-0.013214111328125,-0.0130615234375
1691217817217484300,3.630484375,-0.9807891845703125,-0.0126495361328125,-0.0131072998046875
1691217817227525000,3.640525146484375,-0.9805755615234375,-0.012786865234375,-0.013153076171875
1691217817237565200,3.650565185546875,-0.980804443359375,-0.0126800537109375,-0.0135040283203125
1691217817247605000,3.66060498046875,-0.9801177978515625,-0.0125579833984375,-0.0126953125
1691217817257646000,3.67064599609375,-0.9802093505859375,-0.012725830078125,-0.0132293701171875
1691217817267686100,3.68068603515625,-0.979827880859375,-0.0127105712890625,-0.0126953125
1691217817277726200,3.690726318359375,-0.9806671142578125,-0.0132598876953125,-0.0128936767578125
1691217817287797200,3.70079736328125,-0.9811553955078125,-0.0135955810546875,-0.013031005859375
1691217817297837300,3.71083740234375,-0.9791259765625,-0.0132293701171875,-0.01300048828125
1691217817307877000,3.720877197265625,-0.9792022705078125,-0.0132598876953125,-0.012542724609375
1691217817317918000,3.73091796875,-0.98046875,-0.013031005859375,-0.012908935546875
1691217817327958000,3.7409580078125,-0.98040771484375,-0.0134735107421875,-0.0124664306640625
1691217817337970400,3.750970458984375,-0.9807281494140625,-0.0126800537109375,-0.0135040283203125
1691217817348011500,3.761011474609375,-0.9805908203125,-0.013336181640625,-0.0125274658203125
1691217817358051600,3.771051513671875,-0.981719970703125,-0.01446533203125,-0.0120849609375
1691217817368091600,3.781091552734375,-0.9806060791015625,-0.01324462890625,-0.012237548828125
1691217817378131700,3.791131591796875,-0.9798126220703125,-0.01263427734375,-0.0130462646484375
1691217817388172500,3.801172607421875,-0.9809417724609375,-0.0129547119140625,-0.01373291015625
1691217817398212400,3.81121240234375,-0.9816131591796875,-0.0131072998046875,-0.012786865234375
1691217817408252400,3.82125244140625,-0.9813079833984375,-0.0134735107421875,-0.0128173828125
1691217817418293500,3.83129345703125,-0.9802703857421875,-0.012939453125,-0.0134429931640625
1691217817428363500,3.841363525390625,-0.980499267578125,-0.0124664306640625,-0.0127105712890625
1691217817438404600,3.851404541015625,-0.980682373046875,-0.0124969482421875,-0.0128173828125
1691217817448444700,3.861444580078125,-0.9808807373046875,-0.012054443359375,-0.0125274658203125
1691217817458484700,3.871484619140625,-0.980560302734375,-0.012664794921875,-0.0127716064453125
1691217817468525600,3.881525634765625,-0.9805755615234375,-0.0128173828125,-0.01226806640625
1691217817478565400,3.8915654296875,-0.980621337890625,-0.0129547119140625,-0.0120849609375
1691217817488605400,3.90160546875,-0.9798736572265625,-0.01318359375,-0.01226806640625
1691217817498645500,3.9116455078125,-0.9805450439453125,-0.013275146484375,-0.0130462646484375
1691217817508686600,3.9216865234375,-0.9797515869140625,-0.013275146484375,-0.01263427734375
1691217817518726700,3.9317265625,-0.9804840087890625,-0.0135498046875,-0.013031005859375
1691217817528766700,3.9417666015625,-0.98052978515625,-0.0137176513671875,-0.012298583984375
1691217817538806500,3.951806640625,-0.9810638427734375,-0.01312255859375,-0.012603759765625
1691217817548847400,3.961847412109375,-0.98101806640625,-0.012786865234375,-0.0127716064453125
1691217817558887400,3.971887451171875,-0.98016357421875,-0.01324462890625,-0.013397216796875
1691217817568958500,3.98195849609375,-0.9800567626953125,-0.0126953125,-0.013519287109375
1691217817578998500,3.99199853515625,-0.98065185546875,-0.01275634765625,-0.012908935546875
1691217817589038600,4.00203857421875,-0.980377197265625,-0.0126953125,-0.0126495361328125
1691217817599079700,4.01207958984375,-0.9798583984375,-0.0121612548828125,-0.0122833251953125
1691217817609119700,4.02211962890625,-0.9793548583984375,-0.0130157470703125,-0.013031005859375
1691217817619159600,4.03215966796875,-0.9798126220703125,-0.0130462646484375,-0.0131378173828125
1691217817629200400,4.042200439453125,-0.9808349609375,-0.01275634765625,-0.0128173828125
1691217817639240400,4.052240478515625,-0.9808502197265625,-0.0131378173828125,-0.0125579833984375
1691217817649280500,4.062280517578125,-0.9808197021484375,-0.013336181640625,-0.0130767822265625
1691217817659320600,4.072320556640625,-0.9795684814453125,-0.0126190185546875,-0.0129852294921875
1691217817669361700,4.082361572265625,-0.9800262451171875,-0.0125885009765625,-0.012908935546875
1691217817679401700,4.092401611328125,-0.979766845703125,-0.0132293701171875,-0.013092041015625
1691217817689441500,4.102441650390625,-0.980194091796875,-0.013580322265625,-0.012786865234375
1691217817699482400,4.112482421875,-0.980499267578125,-0.0140380859375,-0.0125885009765625
1691217817709522400,4.1225224609375,-0.9809722900390625,-0.013336181640625,-0.0130767822265625
1691217817719593500,4.132593505859375,-0.9808502197265625,-0.0131988525390625,-0.0117950439453125
1691217817729633500,4.142633544921875,-0.980804443359375,-0.013092041015625,-0.0123748779296875
1691217817739673600,4.152673583984375,-0.980377197265625,-0.0131988525390625,-0.0135040283203125
1691217817749713700,4.162713623046875,-0.9798126220703125,-0.0128326416015625,-0.0126800537109375
1691217817759754800,4.172754638671875,-0.9806060791015625,-0.0129241943359375,-0.0125885009765625
1691217817769794600,4.182794677734375,-0.9806671142578125,-0.0130767822265625,-0.0126800537109375
1691217817779834600,4.192834716796875,-0.9813079833984375,-0.0132598876953125,-0.01239013671875
1691217817789875500,4.20287548828125,-0.9803466796875,-0.0135040283203125,-0.01263427734375
1691217817799915500,4.21291552734375,-0.9800262451171875,-0.013214111328125,-0.0134124755859375
1691217817809955600,4.22295556640625,-0.9812469482421875,-0.0132598876953125,-0.0131683349609375
1691217817819995600,4.23299560546875,-0.980438232421875,-0.014007568359375,-0.0131378173828125
1691217817830036700,4.24303662109375,-0.9805908203125,-0.0140838623046875,-0.012420654296875
1691217817840076500,4.25307666015625,-0.9810943603515625,-0.01336669921875,-0.0130767822265625
1691217817850116600,4.26311669921875,-0.980377197265625,-0.013458251953125,-0.0127105712890625
1691217817860187600,4.273187744140625,-0.979644775390625,-0.013702392578125,-0.0121002197265625
1691217817870227500,4.2832275390625,-0.97979736328125,-0.01300048828125,-0.0128631591796875
1691217817880268500,4.2932685546875,-0.980194091796875,-0.012969970703125,-0.0128326416015625
1691217817890308600,4.30330859375,-0.9799041748046875,-0.0126953125,-0.012542724609375
1691217817900348700,4.3133486328125,-0.9794769287109375,-0.0130767822265625,-0.012939453125
1691217817910389800,4.3233896484375,-0.9809112548828125,-0.0126190185546875,-0.012481689453125
1691217817920429600,4.3334296875,-0.98095703125,-0.0131988525390625,-0.0123138427734375
1691217817930469600,4.3434697265625,-0.980682373046875,-0.01251220703125,-0.01275634765625
1691217817940509400,4.353509521484375,-0.9805145263671875,-0.0130157470703125,-0.0128021240234375
1691217817950550500,4.363550537109375,-0.9812164306640625,-0.012481689453125,-0.01251220703125
1691217817960590600,4.373590576171875,-0.981170654296875,-0.01336669921875,-0.0122833251953125
1691217817970630700,4.383630615234375,-0.9815521240234375,-0.0126495361328125,-0.013275146484375
1691217817980671700,4.393671630859375,-0.98114013671875,-0.0128326416015625,-0.0127410888671875
1691217817990711600,4.403711669921875,-0.981170654296875,-0.0131072998046875,-0.01263427734375
1691217818000782600,4.413782470703125,-0.9795989990234375,-0.0121917724609375,-0.011199951171875
1691217818010822700,4.42382275390625,-0.9921417236328125,-0.0184326171875,-0.025238037109375
1691217818020862500,4.433862548828125,-0.9858856201171875,-0.066925048828125,-0.06494140625
1691217818030902500,4.443902587890625,-0.9802093505859375,-0.043243408203125,-0.0236968994140625
1691217818040943600,4.453943603515625,-0.9764862060546875,-0.0436859130859375,-0.0508575439453125
1691217818050983400,4.4639833984375,-0.9747467041015625,-0.0432891845703125,-0.0601043701171875
1691217818061023500,4.4740234375,-0.9791107177734375,-0.034637451171875,-0.05615234375
1691217818071064600,4.484064697265625,-0.9715423583984375,-0.0291290283203125,-0.0749969482421875
1691217818081104600,4.494104736328125,-0.9801788330078125,-0.026580810546875,-0.046844482421875
1691217818091144400,4.50414453125,-0.975341796875,-0.0463104248046875,-0.0465087890625
1691217818101184500,4.5141845703125,-0.986297607421875,-0.0375823974609375,-0.0320587158203125
1691217818111225600,4.5242255859375,-0.9798583984375,-0.044158935546875,-0.0142669677734375
1691217818121265700,4.534265625,-0.981597900390625,-0.0737762451171875,-0.0307769775390625
1691217818131305500,4.544305419921875,-0.9925537109375,-0.0579071044921875,-0.025299072265625
1691217818141376500,4.55437646484375,-0.984222412109375,-0.05120849609375,-0.045135498046875
1691217818151416600,4.56441650390625,-0.9832305908203125,-0.037322998046875,-0.044830322265625
1691217818161457700,4.574457763671875,-0.9786376953125,-0.022247314453125,-0.0535125732421875
1691217818171497500,4.58449755859375,-0.9640045166015625,-0.0505828857421875,-0.0402374267578125
1691217818181537500,4.59453759765625,-0.967864990234375,-0.09429931640625,-0.02496337890625
1691217818191577300,4.604577392578125,-0.97967529296875,-0.050994873046875,-0.019012451171875
1691217818201618400,4.614618408203125,-0.98834228515625,-0.0468292236328125,-0.00567626953125
1691217818211658500,4.624658447265625,-0.9923553466796875,-0.0589752197265625,-0.0011444091796875
1691217818221698600,4.634698486328125,-0.9754791259765625,-0.0614776611328125,0.0142669677734375
1691217818231739600,4.64473974609375,-0.9787750244140625,-0.1226043701171875,-0.0010528564453125
1691217818241779500,4.654779541015625,-0.9778289794921875,-0.091094970703125,-0.0081634521484375
1691217818251819500,4.664819580078125,-0.9786529541015625,-0.072021484375,-0.0301666259765625
1691217818261859600,4.674859619140625,-0.9878692626953125,-0.0749664306640625,-0.0433197021484375
1691217818271900700,4.684900634765625,-0.9771728515625,-0.0501251220703125,-0.04443359375
1691217818281971500,4.694971435546875,-0.9851837158203125,-0.047882080078125,-0.0423431396484375
1691217818292011500,4.705011474609375,-0.9974822998046875,-0.0302276611328125,-0.03582763671875
1691217818302051600,4.715051513671875,-0.9722442626953125,-0.0086517333984375,-0.00250244140625
1691217818312091600,4.725091552734375,-0.99346923828125,-0.0815887451171875,-0.0041046142578125
1691217818322132500,4.735132568359375,-0.9853668212890625,-0.0447998046875,-0.0057373046875
1691217818332172500,4.745172607421875,-0.9745330810546875,-0.0113525390625,0.0115203857421875
1691217818342207000,4.75520703125,-0.977386474609375,-0.1085357666015625,0.0177459716796875
1691217818352248000,4.765248046875,-0.9765167236328125,-0.061676025390625,-0.0070953369140625
1691217818362287900,4.775287841796875,-0.96295166015625,-0.0457000732421875,0.0340576171875
1691217818372327700,4.78532763671875,-0.9913177490234375,-0.0745697021484375,-0.00494384765625
1691217818382367700,4.79536767578125,-0.9752044677734375,-0.0524749755859375,0.019012451171875
1691217818392408800,4.805408935546875,-0.9626007080078125,-0.072357177734375,0.015472412109375
1691217818402449000,4.815448974609375,-0.9965667724609375,-0.091461181640625,-0.0037078857421875
1691217818412489000,4.825489013671875,-0.974212646484375,-0.079986572265625,0.0022430419921875
1691217818422530000,4.835530029296875,-0.98822021484375,-0.1027374267578125,0.001495361328125
1691217818432600000,4.84560009765625,-0.9876251220703125,-0.10107421875,-0.0163726806640625
1691217818442641000,4.855640869140625,-0.9646148681640625,-0.0977630615234375,0.001373291015625
1691217818452680700,4.8656806640625,-0.99072265625,-0.104949951171875,0.003387451171875
1691217818462720800,4.875720703125,-0.9745635986328125,-0.1081695556640625,0.02117919921875
1691217818472760800,4.8857607421875,-0.98583984375,-0.1002349853515625,0.041717529296875
1691217818482802000,4.895802001953125,-0.9896392822265625,-0.109344482421875,0.0442047119140625
1691217818492842000,4.905842041015625,-0.9813079833984375,-0.1024017333984375,0.060821533203125
1691217818502882000,4.915882080078125,-0.98431396484375,-0.128265380859375,0.0649871826171875
1691217818512923000,4.9259228515625,-0.98809814453125,-0.094207763671875,0.0539398193359375
1691217818522962700,4.935962646484375,-0.9726409912109375,-0.125396728515625,0.0634307861328125
1691217818533002800,4.946002685546875,-0.9923858642578125,-0.113616943359375,0.0497283935546875
1691217818543042800,4.956042724609375,-0.97271728515625,-0.1219482421875,0.0599212646484375
1691217818553084000,4.966083984375,-0.9806060791015625,-0.140594482421875,0.0543670654296875
1691217818563124000,4.9761240234375,-0.9881591796875,-0.138519287109375,0.060760498046875
1691217818573195000,4.986195068359375,-0.979736328125,-0.14532470703125,0.0743865966796875
1691217818583235000,4.996235107421875,-0.9866943359375,-0.147796630859375,0.0752716064453125
1691217818593275000,5.00627490234375,-0.985595703125,-0.1702423095703125,0.086517333984375
1691217818603315700,5.016315673828125,-0.9924163818359375,-0.1309661865234375,0.087554931640625
1691217818613355800,5.026355712890625,-0.9784698486328125,-0.1778564453125,0.0858154296875
1691217818623395800,5.036395751953125,-0.985595703125,-0.1552581787109375,0.0910491943359375
1691217818633436000,5.046435791015625,-0.976104736328125,-0.1463470458984375,0.093780517578125
1691217818643477000,5.05647705078125,-0.9828948974609375,-0.170623779296875,0.1013336181640625
1691217818653517000,5.06651708984375,-0.9814605712890625,-0.1715087890625,0.1092529296875
1691217818663556900,5.076556884765625,-0.97344970703125,-0.165191650390625,0.10137939453125
1691217818673597700,5.08659765625,-0.99432373046875,-0.1620941162109375,0.1166839599609375
1691217818683637800,5.0966376953125,-0.979736328125,-0.1902923583984375,0.1160888671875
1691217818693677800,5.106677734375,-0.9859771728515625,-0.195953369140625,0.1386871337890625
1691217818703718000,5.1167177734375,-0.9922332763671875,-0.195343017578125,0.137451171875
1691217818713789000,5.126788818359375,-0.985687255859375,-0.19976806640625,0.1442413330078125
1691217818723830000,5.136830078125,-0.98602294921875,-0.239166259765625,0.126007080078125
1691217818733870000,5.1468701171875,-0.9771575927734375,-0.236083984375,0.1406402587890625
1691217818743910000,5.156909912109375,-0.9889373779296875,-0.250701904296875,0.1333160400390625
1691217818753950000,5.166949951171875,-0.98150634765625,-0.2701873779296875,0.1551666259765625
1691217818763990800,5.17699072265625,-0.9776611328125,-0.270904541015625,0.1475067138671875
1691217818774030800,5.18703076171875,-0.9912872314453125,-0.26385498046875,0.1423492431640625
1691217818784071000,5.19707080078125,-0.9875030517578125,-0.2789154052734375,0.1898651123046875
1691217818794112000,5.207112060546875,-0.980377197265625,-0.2718505859375,0.184478759765625
1691217818804152000,5.217152099609375,-1.0066070556640625,-0.2754058837890625,0.1630859375
1691217818814191900,5.22719189453125,-0.985931396484375,-0.29754638671875,0.199676513671875
1691217818824232000,5.23723193359375,-0.984710693359375,-0.293121337890625,0.168975830078125
1691217818834272800,5.247272705078125,-0.9920654296875,-0.2929534912109375,0.1910858154296875
1691217818844312800,5.257312744140625,-0.9761810302734375,-0.314727783203125,0.1875457763671875
1691217818854383900,5.2673837890625,-0.9873504638671875,-0.2818603515625,0.194244384765625
1691217818864424000,5.277423828125,-0.9830474853515625,-0.2947845458984375,0.2017364501953125
1691217818874464000,5.287464111328125,-0.968841552734375,-0.357452392578125,0.2189483642578125
1691217818884505000,5.297505126953125,-0.995574951171875,-0.2931976318359375,0.2272491455078125
1691217818894545000,5.307544921875,-0.9935302734375,-0.3233489990234375,0.2284393310546875
1691217818904585000,5.3175849609375,-0.9841766357421875,-0.37921142578125,0.21612548828125
1691217818914625000,5.327625,-0.9962615966796875,-0.3159332275390625,0.2354583740234375
1691217818924665900,5.337665771484375,-1.00677490234375,-0.2640228271484375,0.2001495361328125
1691217818934706000,5.347705810546875,-0.969818115234375,-0.37890625,0.1953125
1691217818944746000,5.35774609375,-0.9693756103515625,-0.3988189697265625,0.1975860595703125
1691217818954787000,5.367787109375,-0.9849700927734375,-0.328216552734375,0.211181640625
1691217818964827000,5.377826904296875,-0.979400634765625,-0.393280029296875,0.219390869140625
1691217818974867000,5.387866943359375,-1.0000457763671875,-0.3909912109375,0.2284088134765625
1691217818984907000,5.397906982421875,-0.9831695556640625,-0.3748016357421875,0.27020263671875
1691217818994978000,5.40797802734375,-1.0055694580078125,-0.3880767822265625,0.267486572265625
1691217819005019000,5.418018798828125,-0.994903564453125,-0.3968048095703125,0.274017333984375
1691217819015059000,5.428058837890625,-0.9914093017578125,-0.3856964111328125,0.280242919921875
1691217819025099000,5.43809912109375,-0.9999847412109375,-0.4047698974609375,0.257293701171875
1691217819035138800,5.448138916015625,-0.981903076171875,-0.395660400390625,0.2524871826171875
1691217819045180000,5.458179931640625,-0.973663330078125,-0.40521240234375,0.263153076171875
1691217819055220000,5.468219970703125,-0.98583984375,-0.42108154296875,0.2549591064453125
1691217819065260000,5.478260009765625,-0.9642486572265625,-0.4147186279296875,0.299224853515625
1691217819075300900,5.48830078125,-0.989288330078125,-0.450439453125,0.3065948486328125
1691217819085341000,5.4983408203125,-1.005828857421875,-0.434234619140625,0.3326568603515625
1691217819095381000,5.508381103515625,-0.99066162109375,-0.4518890380859375,0.3267669677734375
1691217819105420800,5.5184208984375,-1.0081939697265625,-0.4799957275390625,0.3370208740234375
1691217819115462000,5.5284619140625,-1.0050048828125,-0.4709930419921875,0.3402862548828125
1691217819125502000,5.538501953125,-0.984161376953125,-0.4576416015625,0.3346099853515625
1691217819135573000,5.548572998046875,-0.9965362548828125,-0.4538116455078125,0.3299407958984375
1691217819145613000,5.558613037109375,-0.990081787109375,-0.4645233154296875,0.3374481201171875
1691217819155653000,5.568653076171875,-0.9585113525390625,-0.5300445556640625,0.3609619140625
1691217819165694000,5.57869384765625,-0.9943389892578125,-0.51239013671875,0.3763427734375
1691217819175733800,5.588733642578125,-0.9893035888671875,-0.4674072265625,0.39410400390625
1691217819185773800,5.59877392578125,-0.982757568359375,-0.53204345703125,0.3776092529296875
1691217819195814000,5.60881396484375,-0.998779296875,-0.518646240234375,0.40765380859375
1691217819205855000,5.61885498046875,-0.989105224609375,-0.52056884765625,0.4005279541015625
1691217819215895000,5.62889501953125,-1.0033721923828125,-0.5466766357421875,0.4159393310546875
1691217819225935000,5.63893505859375,-0.9949951171875,-0.5611114501953125,0.4225921630859375
1691217819235976000,5.648975830078125,-0.988311767578125,-0.5564727783203125,0.4242401123046875
1691217819246016000,5.65901611328125,-1.014007568359375,-0.5968017578125,0.3760833740234375
1691217819256055800,5.669055908203125,-0.9853973388671875,-0.5856170654296875,0.42120361328125
1691217819266095900,5.679095947265625,-0.989898681640625,-0.527862548828125,0.3965606689453125
1691217819276137000,5.689136962890625,-0.9861907958984375,-0.6063995361328125,0.40142822265625
1691217819286207000,5.69920703125,-0.9804534912109375,-0.6172943115234375,0.4401397705078125
1691217819296248000,5.709248046875,-0.9955291748046875,-0.584747314453125,0.4313201904296875
1691217819306288000,5.7192880859375,-0.996002197265625,-0.624664306640625,0.4615020751953125
1691217819316328000,5.729327880859375,-1.0068817138671875,-0.6064300537109375,0.449310302734375
1691217819326368800,5.73936865234375,-0.98663330078125,-0.6105804443359375,0.478363037109375
1691217819336408800,5.749408935546875,-1.00323486328125,-0.6226654052734375,0.4277496337890625
1691217819346474200,5.75947412109375,-0.9891204833984375,-0.6315460205078125,0.443634033203125
1691217819356514000,5.76951416015625,-0.995819091796875,-0.6325225830078125,0.452117919921875
1691217819366555000,5.779554931640625,-0.989471435546875,-0.654693603515625,0.4417877197265625
1691217819376595000,5.789594970703125,-0.989715576171875,-0.6517333984375,0.4775390625
1691217819386635000,5.799635009765625,-1.00311279296875,-0.6676788330078125,0.4542388916015625
1691217819396676000,5.809676025390625,-0.9969024658203125,-0.674224853515625,0.4674072265625
1691217819406716200,5.819716064453125,-0.9886474609375,-0.6990966796875,0.4644622802734375
1691217819416756200,5.829756103515625,-0.9879302978515625,-0.693695068359375,0.4845123291015625
1691217819426827300,5.8398271484375,-0.984405517578125,-0.73590087890625,0.519927978515625
1691217819436867000,5.8498671875,-1.00323486328125,-0.7252655029296875,0.538238525390625
1691217819446908000,5.859907958984375,-1.008575439453125,-0.7128448486328125,0.545074462890625
1691217819456948000,5.869947998046875,-1.006591796875,-0.7307891845703125,0.5590667724609375
1691217819466988000,5.879988037109375,-1.00299072265625,-0.753570556640625,0.5626220703125
1691217819477028000,5.890028076171875,-0.995361328125,-0.7526397705078125,0.57366943359375
1691217819487069200,5.900069091796875,-0.999114990234375,-0.7630157470703125,0.5732879638671875
1691217819497109200,5.910109130859375,-0.996612548828125,-0.7741546630859375,0.584075927734375
1691217819507149000,5.920149169921875,-0.9936370849609375,-0.764068603515625,0.5818023681640625
1691217819517190000,5.93018994140625,-0.993988037109375,-0.7960662841796875,0.5860443115234375
1691217819527230000,5.94022998046875,-0.9927215576171875,-0.7729644775390625,0.6123046875
1691217819537270000,5.95027001953125,-0.9828338623046875,-0.7898712158203125,0.6283721923828125
1691217819547310000,5.96031005859375,-0.9990692138671875,-0.814971923828125,0.6225738525390625
1691217819557351200,5.97035107421875,-1.0135650634765625,-0.809600830078125,0.6500701904296875
1691217819567421200,5.980421142578125,-1.0102996826171875,-0.8442230224609375,0.6393585205078125
1691217819577462300,5.990462158203125,-1.0234832763671875,-0.8436279296875,0.613983154296875
1691217819587502000,6.000502197265625,-0.9958038330078125,-0.8187103271484375,0.6179046630859375
1691217819597542100,6.010542236328125,-1.0110626220703125,-0.8274688720703125,0.610198974609375
1691217819607583000,6.0205830078125,-0.9755401611328125,-0.885223388671875,0.599151611328125
1691217819617623000,6.030623046875,-0.9879913330078125,-0.8794097900390625,0.6258697509765625
1691217819627663000,6.0406630859375,-0.994537353515625,-0.8692779541015625,0.6293792724609375
1691217819637703200,6.050703125,-0.9911651611328125,-0.911712646484375,0.6352996826171875
1691217819647744300,6.060744140625,-1.0008392333984375,-0.8831787109375,0.686309814453125
1691217819657784000,6.0707841796875,-0.9963531494140625,-0.91015625,0.6949005126953125
1691217819667824000,6.08082421875,-1.0222625732421875,-0.89776611328125,0.6931304931640625
1691217819677865000,6.090864990234375,-1.0278472900390625,-0.9239044189453125,0.7197265625
1691217819687905000,6.100905029296875,-1.011199951171875,-0.909759521484375,0.694488525390625
1691217819697945000,6.110945068359375,-1.0147247314453125,-0.91259765625,0.6661834716796875
1691217819708016000,6.12101611328125,-0.99188232421875,-0.9473114013671875,0.6723480224609375
1691217819718056200,6.13105615234375,-0.98150634765625,-0.949462890625,0.6649932861328125
1691217819728097300,6.14109716796875,-0.9843597412109375,-0.95037841796875,0.708160400390625
1691217819738137000,6.15113720703125,-0.9915924072265625,-0.9957733154296875,0.728515625
1691217819748177200,6.16117724609375,-1.0053253173828125,-0.9571990966796875,0.762542724609375
1691217819758217200,6.17121728515625,-1.012939453125,-0.9849090576171875,0.78240966796875
1691217819768258000,6.181258056640625,-1.0024871826171875,-1.079620361328125,0.800201416015625
1691217819778298000,6.191298095703125,-1.032928466796875,-0.9881591796875,0.83087158203125
1691217819788338200,6.201338134765625,-1.023681640625,-0.977996826171875,0.7836151123046875
1691217819798378000,6.2113779296875,-1.004150390625,-1.0731658935546875,0.7787933349609375
1691217819808419000,6.221419189453125,-1.0121002197265625,-1.0683746337890625,0.779510498046875
1691217819818459100,6.231459228515625,-0.9868011474609375,-1.0278778076171875,0.7985992431640625
1691217819828499200,6.241499267578125,-1.003662109375,-1.0224151611328125,0.774169921875
1691217819838540000,6.2515400390625,-0.984832763671875,-1.0850067138671875,0.850738525390625
1691217819848610000,6.261610107421875,-0.986053466796875,-1.1129913330078125,0.8511199951171875
1691217819858651100,6.271651123046875,-1.0540771484375,-1.0475311279296875,0.8223419189453125
1691217819868691200,6.281691162109375,-1.0020904541015625,-1.0944976806640625,0.9117431640625
1691217819878731000,6.29173095703125,-1.02874755859375,-1.1446685791015625,0.8278961181640625
1691217819888772000,6.301772216796875,-1.032440185546875,-0.9605865478515625,0.836456298828125
1691217819898812200,6.311812255859375,-1.0067596435546875,-1.0746307373046875,0.7871246337890625
1691217819908852200,6.321852294921875,-0.9943695068359375,-1.209564208984375,0.787200927734375
1691217819918892000,6.33189208984375,-0.9669036865234375,-1.0721588134765625,0.8455352783203125
1691217819928933000,6.34193310546875,-1.007904052734375,-1.1515045166015625,0.8251800537109375
1691217819938973200,6.35197314453125,-1.0209197998046875,-1.125762939453125,0.7969512939453125
1691217819949013000,6.362012939453125,-0.9805755615234375,-1.14752197265625,0.9246978759765625
1691217819959054000,6.37205419921875,-1.0046234130859375,-1.192962646484375,0.89764404296875
1691217819969094100,6.38209423828125,-1.0380401611328125,-1.213470458984375,0.881988525390625
1691217819979134200,6.39213427734375,-1.0337982177734375,-1.214080810546875,0.9392852783203125
1691217819989205200,6.402205322265625,-1.0214691162109375,-1.1950531005859375,0.9134521484375
1691217819999245000,6.4122451171875,-1.013641357421875,-1.1739654541015625,0.893035888671875
1691217820009284900,6.422284912109375,-1.0004119873046875,-1.2255096435546875,0.9022674560546875
1691217820019326000,6.432325927734375,-0.9931182861328125,-1.2283782958984375,0.9074859619140625
1691217820029366000,6.442365966796875,-0.987762451171875,-1.2939300537109375,0.963653564453125
1691217820039406000,6.452406005859375,-1.0111236572265625,-1.33184814453125,0.95794677734375
1691217820049447200,6.462447265625,-1.0057220458984375,-1.23211669921875,1.046051025390625
1691217820059487200,6.4724873046875,-1.0094451904296875,-1.301513671875,1.02978515625
1691217820069527000,6.482527099609375,-1.0377655029296875,-1.28546142578125,1.036041259765625
1691217820079567000,6.492567138671875,-1.0299530029296875,-1.3243865966796875,1.09063720703125
1691217820089608200,6.502608154296875,-1.0335693359375,-1.34283447265625,0.981964111328125
1691217820099648000,6.51264794921875,-1.034942626953125,-1.2124176025390625,1.0401458740234375
1691217820109688000,6.52268798828125,-1.001220703125,-1.1814422607421875,0.9893951416015625
1691217820119729200,6.532729248046875,-0.98272705078125,-1.3680877685546875,0.92236328125
1691217820129799200,6.542799072265625,-0.996063232421875,-1.367218017578125,0.9900665283203125
1691217820139840000,6.552840087890625,-0.9823455810546875,-1.2478790283203125,1.0786590576171875
1691217820149880000,6.562880126953125,-1.0055694580078125,-1.315673828125,1.041290283203125
1691217820159919900,6.572919921875,-1.069549560546875,-1.3279266357421875,1.0526580810546875
1691217820169961000,6.5829609375,-1.0401153564453125,-1.3371429443359375,1.1119842529296875
1691217820180001000,6.5930009765625,-1.0420074462890625,-1.298309326171875,1.01153564453125
1691217820190041000,6.603041015625,-1.04522705078125,-1.345794677734375,0.9913330078125
1691217820200081200,6.6130810546875,-0.99658203125,-1.350433349609375,0.971435546875
1691217820210122000,6.6231220703125,-0.9970245361328125,-1.3824310302734375,0.97503662109375
1691217820220162000,6.633162109375,-0.996673583984375,-1.4354248046875,0.9826812744140625
1691217820230202000,6.6432021484375,-0.9676513671875,-1.4661712646484375,1.0980224609375
1691217820240243200,6.6532431640625,-1.031829833984375,-1.417449951171875,1.0983734130859375
1691217820250283000,6.663282958984375,-1.0035247802734375,-1.5239105224609375,1.173980712890625
1691217820260323000,6.673322998046875,-1.0579681396484375,-1.522491455078125,1.154876708984375
1691217820270363100,6.683363037109375,-1.045379638671875,-1.40911865234375,1.2196502685546875
1691217820280434200,6.69343408203125,-1.0328216552734375,-1.4487762451171875,1.1450042724609375
1691217820290474200,6.70347412109375,-1.0272216796875,-1.5273284912109375,1.1518096923828125
1691217820300515000,6.71351513671875,-1.0162353515625,-1.5472869873046875,1.077117919921875
1691217820310555000,6.723554931640625,-1.0031280517578125,-1.4093170166015625,1.1925811767578125
1691217820320595000,6.733594970703125,-1.008941650390625,-1.488494873046875,1.0930938720703125
1691217820330636000,6.743635986328125,-0.997406005859375,-1.6550445556640625,1.1682891845703125
1691217820340652500,6.753652587890625,-1.0355224609375,-1.521881103515625,1.189483642578125
1691217820350692600,6.763692626953125,-0.9963836669921875,-1.4934844970703125,1.2197113037109375
1691217820360732700,6.773732666015625,-1.0162200927734375,-1.55291748046875,1.1926422119140625
1691217820370773500,6.7837734375,-1.035552978515625,-1.538482666015625,1.2396392822265625
1691217820380813600,6.7938134765625,-1.0219879150390625,-1.5315093994140625,1.2496795654296875
1691217820390853600,6.803853515625,-1.051849365234375,-1.518096923828125,1.21282958984375
1691217820400894700,6.813894775390625,-1.0418853759765625,-1.5533294677734375,1.2137603759765625
1691217820410934500,6.8239345703125,-1.014495849609375,-1.5724029541015625,1.2107086181640625
1691217820421005600,6.834005615234375,-1.0332489013671875,-1.5297088623046875,1.1570892333984375
1691217820431045600,6.844045654296875,-0.9936065673828125,-1.5950927734375,1.1914825439453125
1691217820441085700,6.854085693359375,-0.9844818115234375,-1.6761474609375,1.223052978515625
1691217820451125500,6.86412548828125,-1.027557373046875,-1.602752685546875,1.2788543701171875
1691217820461166600,6.87416650390625,-1.017791748046875,-1.6175079345703125,1.2989501953125
1691217820471206700,6.88420654296875,-1.033782958984375,-1.7638397216796875,1.318878173828125
1691217820481246500,6.89424658203125,-1.058441162109375,-1.65576171875,1.3695220947265625
1691217820491287600,6.90428759765625,-1.0430450439453125,-1.6148834228515625,1.337890625
1691217820501327600,6.91432763671875,-1.0218963623046875,-1.75677490234375,1.3511962890625
1691217820511367700,6.92436767578125,-1.0606842041015625,-1.6991424560546875,1.2874298095703125
1691217820521407500,6.934407470703125,-1.0197296142578125,-1.493194580078125,1.307281494140625
1691217820531448600,6.944448486328125,-1.017547607421875,-1.679473876953125,1.2793121337890625
1691217820541488600,6.954488525390625,-0.9983673095703125,-1.893280029296875,1.2870635986328125
1691217820551528400,6.964528564453125,-1.036865234375,-1.5883331298828125,1.3761138916015625
1691217820561599500,6.974599609375,-1.0135040283203125,-1.6917572021484375,1.398284912109375
1691217820571639600,6.9846396484375,-1.0645904541015625,-1.70220947265625,1.2841339111328125
1691217820581680600,6.9946806640625,-1.0384368896484375,-1.7144775390625,1.4122161865234375
1691217820591720700,7.004720703125,-1.047332763671875,-1.7111968994140625,1.3175048828125
1691217820601760500,7.014760498046875,-1.0338592529296875,-1.6561431884765625,1.32073974609375
1691217820611801600,7.024801513671875,-1.0495147705078125,-1.835693359375,1.30303955078125
1691217820621841400,7.03484130859375,-1.0192718505859375,-1.6991424560546875,1.3261566162109375
1691217820631881500,7.044881591796875,-1.01690673828125,-1.8036041259765625,1.3248443603515625
1691217820641921500,7.054921630859375,-1.012939453125,-1.865386962890625,1.371551513671875
1691217820651962600,7.064962646484375,-1.025543212890625,-1.80584716796875,1.4123992919921875
1691217820662002700,7.075002685546875,-1.036407470703125,-1.7869110107421875,1.4293975830078125
1691217820672042500,7.08504248046875,-1.0325927734375,-1.9279937744140625,1.446044921875
1691217820682083600,7.09508349609375,-1.05584716796875,-1.9047698974609375,1.447509765625
1691217820692123600,7.10512353515625,-1.050811767578125,-1.874664306640625,1.5067138671875
1691217820702194400,7.1151943359375,-1.014129638671875,-1.935638427734375,1.5441436767578125
1691217820712234500,7.125234375,-1.069183349609375,-1.7935791015625,1.3898468017578125
1691217820722274600,7.135274658203125,-1.0232696533203125,-1.766387939453125,1.499359130859375
1691217820732314600,7.145314697265625,-1.034454345703125,-1.97662353515625,1.4191741943359375
1691217820742355700,7.155355712890625,-1.01025390625,-1.951385498046875,1.4404296875
1691217820752395500,7.1653955078125,-1.027008056640625,-1.8410797119140625,1.5536651611328125
1691217820762435300,7.175435302734375,-1.012237548828125,-1.9178466796875,1.4992523193359375
1691217820772476400,7.185476318359375,-1.0524444580078125,-1.843841552734375,1.532623291015625
1691217820782516500,7.1955166015625,-1.083984375,-1.9426422119140625,1.52593994140625
1691217820792556500,7.205556640625,-1.027008056640625,-1.840362548828125,1.5501708984375
1691217820802596600,7.2155966796875,-1.0648651123046875,-1.91455078125,1.454620361328125
1691217820812637400,7.225637451171875,-1.0497589111328125,-1.8938446044921875,1.4912261962890625
1691217820822677500,7.235677490234375,-1.0027313232421875,-1.9225311279296875,1.4622344970703125
1691217820832717600,7.245717529296875,-1.020599365234375,-2.010009765625,1.501617431640625
1691217820842788400,7.255788330078125,-1.0381317138671875,-1.998504638671875,1.5525970458984375
1691217820852828400,7.265828369140625,-1.043121337890625,-1.939117431640625,1.57305908203125
1691217820862869500,7.275869384765625,-1.056365966796875,-2.02716064453125,1.5719451904296875
1691217820872909600,7.28590966796875,-1.0624542236328125,-2.1022186279296875,1.6103668212890625
1691217820882949600,7.29594970703125,-1.032989501953125,-2.04254150390625,1.6203155517578125
1691217820892990500,7.305990478515625,-1.0593414306640625,-1.996063232421875,1.6448516845703125
1691217820903030500,7.316030517578125,-1.05377197265625,-1.91387939453125,1.551971435546875
1691217820913070300,7.3260703125,-1.060455322265625,-2.06219482421875,1.543121337890625
1691217820923110400,7.3361103515625,-1.0426788330078125,-2.162322998046875,1.5943603515625
1691217820933151500,7.3461513671875,-1.01025390625,-1.9722747802734375,1.5993804931640625
1691217820943191600,7.356191650390625,-1.0183868408203125,-2.074951171875,1.588470458984375
1691217820953231600,7.366231689453125,-1.0633087158203125,-2.0927276611328125,1.60223388671875
1691217820963271700,7.376271728515625,-1.0126800537109375,-2.0623779296875,1.6889495849609375
1691217820973312500,7.3863125,-1.076416015625,-2.0740509033203125,1.6315155029296875
1691217820983383600,7.396383544921875,-1.071136474609375,-2.0887908935546875,1.67120361328125
1691217820993423400,7.40642333984375,-1.053131103515625,-2.1183929443359375,1.62841796875
1691217821003463400,7.41646337890625,-1.0537872314453125,-2.0400238037109375,1.6165313720703125
1691217821013503500,7.42650341796875,-1.012115478515625,-2.177215576171875,1.6059722900390625
1691217821023544600,7.436544677734375,-1.0297698974609375,-2.215728759765625,1.68035888671875
1691217821033584600,7.446584716796875,-1.049041748046875,-2.1134796142578125,1.7062530517578125
1691217821043624700,7.456624755859375,-1.0218658447265625,-2.18365478515625,1.7176055908203125
1691217821053665500,7.46666552734375,-1.0681915283203125,-2.2742462158203125,1.7472381591796875
1691217821063705300,7.476705322265625,-1.075347900390625,-2.190155029296875,1.755401611328125
1691217821073745400,7.486745361328125,-1.0212554931640625,-2.20721435546875,1.8370513916015625
1691217821083785500,7.496785400390625,-1.0902252197265625,-2.17822265625,1.7350616455078125
1691217821093826600,7.50682666015625,-1.0572509765625,-2.016021728515625,1.7062530517578125
1691217821103866600,7.51686669921875,-1.052490234375,-2.273590087890625,1.703338623046875
1691217821113906700,7.52690673828125,-1.04852294921875,-2.2597808837890625,1.6972198486328125
1691217821123977700,7.536977783203125,-1.013519287109375,-2.1125946044921875,1.813018798828125
1691217821134017500,7.547017578125,-1.05865478515625,-2.2239227294921875,1.658416748046875
1691217821144058400,7.557058349609375,-1.04669189453125,-2.2083282470703125,1.7850494384765625
1691217821154098400,7.567098388671875,-1.06134033203125,-2.2375030517578125,1.766265869140625
1691217821164138500,7.577138427734375,-1.073577880859375,-2.2003631591796875,1.7539520263671875
1691217821174178600,7.587178466796875,-1.0847320556640625,-2.283447265625,1.7475128173828125
1691217821184219600,7.5972197265625,-1.0552215576171875,-2.249298095703125,1.77117919921875
1691217821194259700,7.607259765625,-1.0398712158203125,-2.303558349609375,1.741455078125
1691217821204299500,7.617299560546875,-1.0615692138671875,-2.3358154296875,1.79620361328125
1691217821214340400,7.62734033203125,-1.0428314208984375,-2.3153839111328125,1.8026123046875
1691217821224380400,7.63738037109375,-1.05084228515625,-2.33099365234375,1.825225830078125
1691217821234420500,7.64742041015625,-1.07037353515625,-2.37493896484375,1.865692138671875
1691217821244460500,7.65746044921875,-1.0434417724609375,-2.401336669921875,1.8992462158203125
1691217821254501600,7.667501708984375,-1.0695037841796875,-2.4129638671875,1.9013214111328125
1691217821264541700,7.677541748046875,-1.1019287109375,-2.2107086181640625,1.89239501953125
1691217821274612700,7.68761279296875,-1.0361480712890625,-2.2077789306640625,1.8326263427734375
1691217821284652500,7.697652587890625,-1.07415771484375,-2.53033447265625,1.77642822265625
1691217821294692600,7.707692626953125,-1.06488037109375,-2.28497314453125,1.9151153564453125
1691217821304733400,7.7177333984375,-1.0314483642578125,-2.3769378662109375,1.889129638671875
1691217821314773500,7.7277734375,-1.0828094482421875,-2.286895751953125,1.7969207763671875
1691217821324813600,7.7378134765625,-1.057159423828125,-2.4834136962890625,1.92236328125
1691217821334854700,7.747854736328125,-1.06640625,-2.31280517578125,1.8845062255859375
1691217821344882000,7.7578818359375,-1.0693359375,-2.349700927734375,1.843963623046875
1691217821354921700,7.767921630859375,-1.063262939453125,-2.5412139892578125,1.89312744140625
1691217821364961800,7.7779619140625,-1.0659332275390625,-2.4091339111328125,1.9454498291015625
1691217821375003000,7.7880029296875,-1.0645904541015625,-2.4528656005859375,1.9246368408203125
1691217821385043000,7.79804296875,-1.0924224853515625,-2.501220703125,1.955718994140625
1691217821395083000,7.8080830078125,-1.06317138671875,-2.463623046875,1.96783447265625
1691217821405123000,7.818123046875,-1.0486907958984375,-2.4788055419921875,1.946990966796875
1691217821415194000,7.828194091796875,-1.0728912353515625,-2.4923858642578125,1.992034912109375
1691217821425235000,7.83823486328125,-1.0611419677734375,-2.522430419921875,1.9955902099609375
1691217821435274800,7.848274658203125,-1.104217529296875,-2.445587158203125,1.986419677734375
1691217821445314800,7.858314697265625,-1.0764617919921875,-2.5030364990234375,2.0078125
1691217821455355000,7.86835498046875,-1.0557098388671875,-2.4710540771484375,1.9725494384765625
1691217821465396000,7.87839599609375,-1.076446533203125,-2.488739013671875,1.9806671142578125
1691217821475436000,7.88843603515625,-1.07965087890625,-2.49176025390625,1.9708099365234375
1691217821485476000,7.89847607421875,-1.0484466552734375,-2.4921722412109375,2.0107421875
1691217821495517000,7.908516845703125,-1.1028900146484375,-2.537841796875,1.958343505859375
1691217821505556700,7.918556640625,-1.0796661376953125,-2.47711181640625,1.9887542724609375
1691217821515596800,7.9285966796875,-1.04150390625,-2.6155242919921875,1.9711761474609375
1691217821525636900,7.938636962890625,-1.0828399658203125,-2.608642578125,2.0295562744140625
1691217821535678000,7.948677978515625,-1.06658935546875,-2.606903076171875,2.066558837890625
1691217821545718000,7.958718017578125,-1.08380126953125,-2.6255035400390625,2.065673828125
1691217821555789000,7.9687890625,-1.10455322265625,-2.634857177734375,2.080718994140625
1691217821565829000,7.9788291015625,-1.0487060546875,-2.641693115234375,2.1096954345703125
1691217821575869000,7.988868896484375,-1.0904388427734375,-2.606781005859375,2.100830078125
1691217821585909800,7.99890966796875,-1.0799560546875,-2.564697265625,2.078643798828125
1691217821595949800,8.00894970703125,-1.092620849609375,-2.667449951171875,2.0661773681640625
1691217821605990000,8.018989990234376,-1.077667236328125,-2.65301513671875,2.1298370361328125
1691217821616030000,8.029030029296875,-1.0662994384765625,-2.5761871337890625,2.1112518310546875
1691217821626071000,8.039071044921876,-1.0799713134765625,-2.609375,2.07098388671875
1691217821636111000,8.049111083984375,-1.1048431396484375,-2.645477294921875,2.076904296875
1691217821646151000,8.05915087890625,-1.062713623046875,-2.6291656494140625,2.1318817138671875
1691217821656191700,8.069191650390625,-1.1104278564453125,-2.6258087158203125,2.05072021484375
1691217821666231800,8.079231689453126,-1.0990753173828125,-2.6569366455078125,2.06988525390625
1691217821676271900,8.08927197265625,-1.055694580078125,-2.7381591796875,2.1002349853515625
1691217821686312000,8.09931201171875,-1.0848541259765625,-2.7056121826171875,2.100433349609375
1691217821696383000,8.109383056640626,-1.0821990966796875,-2.778289794921875,2.149627685546875
1691217821706424000,8.119424072265625,-1.0877838134765625,-2.7510986328125,2.1547088623046875
1691217821716463900,8.1294638671875,-1.08447265625,-2.767669677734375,2.17938232421875
1691217821726504000,8.13950390625,-1.078765869140625,-2.8253326416015625,2.2015838623046875
1691217821736544000,8.1495439453125,-1.1004486083984375,-2.7480621337890625,2.2415313720703125
1691217821746584800,8.159584716796875,-1.1070098876953125,-2.690582275390625,2.150360107421875
1691217821756625000,8.169625,-1.0875701904296875,-2.8067779541015625,2.1765899658203125
1691217821766665000,8.1796650390625,-1.0798797607421875,-2.8292694091796875,2.19537353515625
1691217821776706000,8.1897060546875,-1.0559844970703125,-2.7254638671875,2.2406158447265625
1691217821786746000,8.19974609375,-1.103240966796875,-2.7902374267578125,2.1624603271484375
1691217821796786000,8.209785888671876,-1.0847930908203125,-2.788330078125,2.231597900390625
1691217821806826000,8.219825927734375,-1.0807647705078125,-2.8112335205078125,2.249176025390625
1691217821816866800,8.22986669921875,-1.1188507080078125,-2.732879638671875,2.1680755615234375
1691217821826907000,8.239906982421875,-1.0673370361328125,-2.867767333984375,2.2274169921875
1691217821836978000,8.24997802734375,-1.0844573974609375,-2.8810882568359375,2.2345123291015625
1691217821847018000,8.26001806640625,-1.0864105224609375,-2.852630615234375,2.280426025390625
1691217821857057800,8.270057861328125,-1.1063079833984375,-2.889556884765625,2.2803497314453125
1691217821867099000,8.280098876953126,-1.0959320068359375,-2.87249755859375,2.2854461669921875
1691217821877139000,8.290138916015625,-1.077301025390625,-2.911041259765625,2.30169677734375
1691217821887179000,8.300178955078126,-1.087860107421875,-2.8889007568359375,2.3311920166015625
1691217821897218800,8.31021875,-1.1130218505859375,-2.8420257568359375,2.2761077880859375
1691217821907260000,8.320260009765626,-1.104400634765625,-2.9155426025390625,2.3237152099609375
1691217821917300000,8.330300048828125,-1.099212646484375,-2.9064788818359375,2.2996978759765625
1691217821927340000,8.340340087890626,-1.0728302001953125,-2.84600830078125,2.347320556640625
1691217821937381000,8.350381103515625,-1.109405517578125,-2.87921142578125,2.2596282958984375
1691217821947421000,8.3604208984375,-1.1037750244140625,-2.9068450927734375,2.324676513671875
1691217821957461000,8.3704609375,-1.09722900390625,-2.9117889404296875,2.342620849609375
1691217821967500800,8.380500732421876,-1.1291046142578125,-2.8432769775390625,2.264556884765625
1691217821977571800,8.39057177734375,-1.0819549560546875,-2.9631500244140625,2.282257080078125
1691217821987613000,8.400613037109375,-1.095062255859375,-3.0106658935546875,2.3245849609375
1691217821997653000,8.410653076171876,-1.0804290771484375,-2.9548797607421875,2.3629150390625
1691217822007692800,8.42069287109375,-1.1212005615234375,-3.0374908447265625,2.3682403564453125
1691217822017732900,8.43073291015625,-1.113372802734375,-2.9831085205078125,2.412811279296875
1691217822027774000,8.44077392578125,-1.1010894775390625,-3.0380706787109375,2.4119720458984375
1691217822037814000,8.45081396484375,-1.13665771484375,-2.90960693359375,2.3876800537109375
1691217822047853800,8.460853759765625,-1.1104278564453125,-2.9519195556640625,2.342315673828125
1691217822057894000,8.470893798828126,-1.099029541015625,-3.107818603515625,2.35296630859375
1691217822067935000,8.48093505859375,-1.104461669921875,-2.9445648193359375,2.42889404296875
1691217822077975000,8.49097509765625,-1.091766357421875,-2.9882965087890625,2.3748016357421875
1691217822088014800,8.501014892578125,-1.11492919921875,-2.988922119140625,2.3671112060546875
1691217822098056000,8.511055908203126,-1.1362457275390625,-3.0419921875,2.4107208251953125
1691217822108096000,8.521095947265625,-1.12322998046875,-2.9715576171875,2.3896484375
1691217822118167000,8.5311669921875,-1.128997802734375,-2.994293212890625,2.3309783935546875
1691217822128206800,8.541206787109376,-1.096099853515625,-3.1064453125,2.3858489990234375
1691217822138247000,8.551246826171875,-1.104644775390625,-3.0492401123046875,2.381103515625
1691217822148288000,8.5612880859375,-1.1005859375,-3.1315460205078125,2.424468994140625
1691217822158327800,8.571327880859375,-1.12152099609375,-3.106048583984375,2.4311370849609375
1691217822168367900,8.581367919921876,-1.0977630615234375,-3.1512603759765625,2.5005340576171875
1691217822178408000,8.591407958984375,-1.1328125,-3.130584716796875,2.472869873046875
1691217822188449000,8.601448974609376,-1.1524658203125,-3.025115966796875,2.475372314453125
1691217822198488800,8.61148876953125,-1.108917236328125,-3.113525390625,2.41009521484375
1691217822208529000,8.62152880859375,-1.118499755859375,-3.1986236572265625,2.4423980712890625
1691217822218570000,8.631570068359375,-1.0895538330078125,-3.0944671630859375,2.48150634765625
1691217822228610000,8.641610107421876,-1.10064697265625,-3.1146392822265625,2.469696044921875
1691217822238649900,8.65164990234375,-1.132598876953125,-3.141387939453125,2.4553985595703125
1691217822248690000,8.66168994140625,-1.1205291748046875,-3.1649169921875,2.5420379638671875
1691217822258761000,8.671760986328126,-1.141082763671875,-3.081451416015625,2.44586181640625
1691217822268801000,8.681801025390625,-1.1078948974609375,-3.1685333251953125,2.47259521484375
1691217822278841900,8.691841796875,-1.11761474609375,-3.229888916015625,2.4743194580078125
1691217822288882000,8.7018818359375,-1.08526611328125,-3.1925201416015625,2.5495147705078125
1691217822298921700,8.711921630859376,-1.14984130859375,-3.2276611328125,2.5320892333984375
1691217822308962800,8.721962890625,-1.1036376953125,-3.1899871826171875,2.55413818359375
1691217822319003000,8.7320029296875,-1.1272125244140625,-3.267059326171875,2.5671844482421875
1691217822329043000,8.74204296875,-1.1189422607421875,-3.163787841796875,2.576934814453125
1691217822339083000,8.7520830078125,-1.161773681640625,-3.1996917724609375,2.516754150390625
1691217822349126000,8.7621259765625,-1.1167755126953125,-3.2852935791015625,2.5594329833984375
1691217822359166000,8.772166015625,-1.117095947265625,-3.193634033203125,2.5606689453125
1691217822369206000,8.7822060546875,-1.0952301025390625,-3.1956939697265625,2.5576934814453125
1691217822379246800,8.792246826171874,-1.136260986328125,-3.2383575439453125,2.5262451171875
1691217822389287000,8.802286865234375,-1.1339111328125,-3.258331298828125,2.62469482421875
1691217822399358000,8.81235791015625,-1.1500244140625,-3.1862945556640625,2.5417327880859375
1691217822409397800,8.822397705078124,-1.1338958740234375,-3.2375030517578125,2.5413970947265625
1691217822419437800,8.832437744140625,-1.11419677734375,-3.337646484375,2.557861328125
1691217822429479000,8.84247900390625,-1.105194091796875,-3.2627105712890625,2.6042633056640625
1691217822439519000,8.85251904296875,-1.141754150390625,-3.35980224609375,2.6153411865234375
1691217822449559000,8.86255908203125,-1.1269073486328125,-3.289520263671875,2.6662750244140625
1691217822459599000,8.87259912109375,-1.1445465087890625,-3.3413543701171875,2.649200439453125
1691217822469640000,8.882639892578124,-1.1654052734375,-3.1920166015625,2.62884521484375
1691217822479679700,8.8926796875,-1.12451171875,-3.319793701171875,2.5735321044921875
1691217822489719800,8.9027197265625,-1.13372802734375,-3.368560791015625,2.602447509765625
1691217822499761000,8.912760986328125,-1.1300506591796875,-3.2587432861328125,2.6511077880859375
1691217822509801000,8.922801025390624,-1.120391845703125,-3.2982330322265625,2.606781005859375
1691217822519841000,8.932841064453125,-1.15594482421875,-3.3165740966796875,2.608642578125
1691217822529881000,8.942881103515624,-1.161285400390625,-3.345703125,2.645751953125
1691217822539922000,8.952921875,-1.1480255126953125,-3.2606658935546875,2.6026763916015625
1691217822549992000,8.962991943359375,-1.1410064697265625,-3.3359222412109375,2.5674896240234375
1691217822560032800,8.97303271484375,-1.1128997802734375,-3.4277191162109375,2.63116455078125
1691217822570072800,8.98307275390625,-1.132904052734375,-3.35150146484375,2.653106689453125
1691217822580113000,8.99311279296875,-1.1466217041015625,-3.43231201171875,2.650115966796875
1691217822590154000,9.003154052734375,-1.132354736328125,-3.427642822265625,2.7335662841796875
1691217822600194000,9.013194091796874,-1.1682891845703125,-3.40753173828125,2.698455810546875
1691217822610234000,9.023234130859375,-1.164794921875,-3.314971923828125,2.676727294921875
1691217822620274000,9.03327392578125,-1.136932373046875,-3.4627532958984375,2.6251983642578125
1691217822630314800,9.043314697265625,-1.1232452392578125,-3.4305877685546875,2.68731689453125
1691217822640354800,9.053354736328124,-1.1234588623046875,-3.3917236328125,2.67584228515625
1691217822650395000,9.063394775390625,-1.141876220703125,-3.4334564208984375,2.694427490234375
1691217822660436000,9.07343603515625,-1.1615753173828125,-3.4259796142578125,2.7191162109375
1691217822670476000,9.08347607421875,-1.1680755615234375,-3.42828369140625,2.7190704345703125
1691217822680516000,9.09351611328125,-1.162200927734375,-3.3877105712890625,2.6717987060546875
1691217822690587000,9.1035869140625,-1.1233673095703125,-3.4595184326171875,2.679534912109375
1691217822700627000,9.113626953125,-1.1153411865234375,-3.4902801513671875,2.698638916015625
1691217822710667000,9.1236669921875,-1.1285400390625,-3.4976959228515625,2.756072998046875
1691217822720707800,9.133707763671875,-1.1667938232421875,-3.4783477783203125,2.7706146240234375
1691217822730748000,9.143747802734374,-1.138336181640625,-3.510009765625,2.78802490234375
1691217822740788000,9.1537880859375,-1.1734771728515625,-3.460205078125,2.7800750732421875
1691217822750829000,9.1638291015625,-1.1555938720703125,-3.456329345703125,2.7197265625
1691217822760869000,9.173869140625,-1.16168212890625,-3.527374267578125,2.7441558837890625
1691217822770909000,9.183908935546874,-1.12945556640625,-3.51080322265625,2.72979736328125
1691217822780949000,9.193948974609375,-1.1208648681640625,-3.4830780029296875,2.7844390869140625
1691217822790989800,9.20398974609375,-1.150665283203125,-3.4977264404296875,2.7267608642578125
1691217822801030000,9.21402978515625,-1.1651763916015625,-3.5398712158203125,2.8177947998046875
1691217822811070000,9.224070068359374,-1.187255859375,-3.488494873046875,2.7641448974609375
1691217822821111000,9.234111083984375,-1.1570587158203125,-3.48553466796875,2.7595977783203125
1691217822831180800,9.244180908203125,-1.1251678466796875,-3.5702667236328125,2.7421417236328125
1691217822841222000,9.254221923828124,-1.133941650390625,-3.5723724365234375,2.791015625
1691217822851262000,9.264261962890625,-1.1484832763671875,-3.582550048828125,2.82891845703125
1691217822861302000,9.274302001953124,-1.1538848876953125,-3.5785980224609375,2.862518310546875
1691217822871342800,9.2843427734375,-1.176849365234375,-3.588287353515625,2.8594207763671875
1691217822881383000,9.2943828125,-1.1848907470703125,-3.4557952880859375,2.8345794677734375
1691217822891423000,9.304423095703125,-1.1474151611328125,-3.5823516845703125,2.7510986328125
1691217822901463000,9.314463134765624,-1.15032958984375,-3.6111602783203125,2.81756591796875
1691217822911504100,9.324504150390625,-1.1514739990234375,-3.523712158203125,2.812164306640625
1691217822921544000,9.3345439453125,-1.1513671875,-3.5711669921875,2.817474365234375
1691217822931584000,9.344583984375,-1.177978515625,-3.582550048828125,2.8043060302734375
1691217822941624800,9.354624755859374,-1.1852569580078125,-3.5959930419921875,2.8497161865234375
1691217822951665000,9.364664794921875,-1.1682891845703125,-3.5227203369140625,2.776092529296875
1691217822961705000,9.374705078125,-1.1458892822265625,-3.609649658203125,2.7904205322265625
1691217822971776000,9.38477587890625,-1.1334686279296875,-3.668365478515625,2.8069610595703125
1691217822981815800,9.39481591796875,-1.15496826171875,-3.638214111328125,2.8752899169921875
1691217822991855900,9.40485595703125,-1.160858154296875,-3.6644134521484375,2.864044189453125
1691217823001897000,9.41489697265625,-1.1731414794921875,-3.6952056884765625,2.9457855224609375
1691217823011937000,9.42493701171875,-1.2115631103515625,-3.581329345703125,2.854949951171875
1691217823021976800,9.434976806640625,-1.158782958984375,-3.62322998046875,2.8389739990234375
1691217823032018000,9.445017822265624,-1.138671875,-3.7324066162109375,2.8426055908203125
1691217823042058000,9.45505810546875,-1.1415557861328125,-3.605682373046875,2.8703155517578125
1691217823052098000,9.46509814453125,-1.138519287109375,-3.6951141357421875,2.8769989013671875
1691217823062137900,9.475137939453125,-1.1890716552734375,-3.6548309326171875,2.8956146240234375
1691217823072179000,9.485178955078124,-1.193023681640625,-3.69549560546875,2.924957275390625
1691217823082219000,9.495218994140625,-1.18756103515625,-3.614013671875,2.86834716796875
1691217823092258800,9.5052587890625,-1.1548919677734375,-3.66650390625,2.8532562255859375
1691217823102300000,9.5152998046875,-1.1270599365234375,-3.725250244140625,2.8655548095703125
1691217823112370000,9.525369873046875,-1.13916015625,-3.7331695556640625,2.9344635009765625
1691217823122411000,9.535410888671874,-1.1873931884765625,-3.7064361572265625,2.932373046875
1691217823132450800,9.545450927734375,-1.1572113037109375,-3.745819091796875,2.986724853515625
1691217823142491000,9.555490966796874,-1.2031707763671875,-3.6961517333984375,2.943756103515625
1691217823152532000,9.565531982421875,-1.1724395751953125,-3.6783905029296875,2.9129638671875
1691217823162572000,9.575572021484374,-1.1779632568359375,-3.7528228759765625,2.8922882080078125
1691217823172611800,9.58561181640625,-1.15142822265625,-3.7536468505859375,2.917938232421875
1691217823182652000,9.59565185546875,-1.139251708984375,-3.7063446044921875,2.9434967041015625
1691217823192693000,9.60569287109375,-1.1708984375,-3.7388153076171875,2.90545654296875
1691217823202733000,9.615733154296874,-1.185272216796875,-3.7731170654296875,2.9972381591796875
1691217823212772900,9.62577294921875,-1.201629638671875,-3.7178497314453125,2.9390106201171875
1691217823222813000,9.63581298828125,-1.1728057861328125,-3.70660400390625,2.930999755859375
1691217823232854000,9.64585400390625,-1.1447296142578125,-3.8156280517578125,2.91046142578125
1691217823242893800,9.655893798828124,-1.14398193359375,-3.803436279296875,3.0031280517578125
1691217823252964900,9.66596484375,-1.1789093017578125,-3.785125732421875,2.9840850830078125
1691217823263005000,9.6760048828125,-1.1676025390625,-3.8333740234375,3.0729217529296875
1691217823273044700,9.686044677734374,-1.2212677001953125,-3.744049072265625,2.9931488037109375
1691217823283085800,9.6960859375,-1.1770172119140625,-3.7076873779296875,3.00457763671875
1691217823293126000,9.7061259765625,-1.1541595458984375,-3.829986572265625,2.9080047607421875
1691217823303166000,9.716166015625,-1.1767578125,-3.78900146484375,3.019378662109375
1691217823313206800,9.726206787109374,-1.1510009765625,-3.748687744140625,2.96173095703125
1691217823323246800,9.736246826171875,-1.2013397216796875,-3.79644775390625,2.9760589599609375
1691217823333287000,9.746286865234374,-1.201019287109375,-3.8127899169921875,3.00372314453125
1691217823343328800,9.756328857421876,-1.2003936767578125,-3.765869140625,2.9760284423828125
1691217823353369600,9.76636962890625,-1.176055908203125,-3.749908447265625,2.9402923583984375
1691217823363409700,9.77640966796875,-1.149627685546875,-3.86260986328125,2.948272705078125
1691217823373449700,9.78644970703125,-1.1581573486328125,-3.863250732421875,3.010528564453125
1691217823383490800,9.79649072265625,-1.184173583984375,-3.851806640625,3.021026611328125
1691217823393560800,9.806560791015626,-1.18035888671875,-3.895782470703125,3.1001434326171875
1691217823403602000,9.816601806640625,-1.238677978515625,-3.8078460693359375,3.0208282470703125
1691217823413641700,9.826641845703126,-1.1839447021484375,-3.795745849609375,3.000579833984375
1691217823423681800,9.836681884765625,-1.15472412109375,-3.9418487548828125,2.960601806640625
1691217823433721900,9.846721923828126,-1.1588287353515625,-3.8047332763671875,3.0360260009765625
1691217823443762700,9.8567626953125,-1.1486663818359375,-3.8864898681640625,2.9853668212890625
1691217823453802800,9.866802734375,-1.2097930908203125,-3.888397216796875,3.048004150390625
1691217823463842800,9.8768427734375,-1.20806884765625,-3.9002532958984375,3.0854034423828125
1691217823473884000,9.8868837890625,-1.2036590576171875,-3.8244476318359375,3.0329437255859375
1691217823483924000,9.896924072265625,-1.186309814453125,-3.839752197265625,2.994781494140625
1691217823493963800,9.9069638671875,-1.13751220703125,-3.9490203857421875,3.0172576904296875
1691217823504003800,9.91700390625,-1.1466064453125,-3.917510986328125,3.0717620849609375
1691217823514044700,9.927044677734376,-1.2113494873046875,-3.926666259765625,3.0824737548828125
1691217823524084700,9.937084716796875,-1.15679931640625,-3.938751220703125,3.167144775390625
1691217823534155800,9.94715576171875,-1.235137939453125,-3.861419677734375,3.0693511962890625
1691217823544195800,9.95719580078125,-1.1883697509765625,-3.893890380859375,3.0675811767578125
1691217823554235600,9.967235595703125,-1.18719482421875,-3.9481658935546875,3.04241943359375
1691217823564276700,9.97727685546875,-1.161956787109375,-3.9102020263671875,3.0660400390625
1691217823574316800,9.98731689453125,-1.1568450927734375,-3.921051025390625,3.0702667236328125
1691217823584356900,9.99735693359375,-1.1986236572265625,-3.930328369140625,3.0670318603515625
1691217823594397700,10.007397705078125,-1.1997833251953125,-3.95941162109375,3.142547607421875
1691217823604437800,10.017437744140626,-1.2220916748046875,-3.8951873779296875,3.06524658203125
1691217823614477800,10.027477783203125,-1.1824951171875,-3.8997344970703125,3.0842437744140625
1691217823624517600,10.037517578125,-1.145782470703125,-4.0059356689453125,3.0500640869140625
1691217823634559000,10.04755908203125,-1.1739044189453125,-3.9898834228515625,3.1509246826171875
1691217823644598800,10.057598876953126,-1.1957244873046875,-3.97174072265625,3.1461334228515625
1691217823654638800,10.067638916015625,-1.2017822265625,-3.993194580078125,3.2106781005859375
1691217823664679000,10.077678955078126,-1.223480224609375,-3.869049072265625,3.10003662109375
1691217823674750000,10.08775,-1.1880950927734375,-3.970916748046875,3.1019744873046875
1691217823684790800,10.097790771484375,-1.1706695556640625,-3.974761962890625,3.099365234375
1691217823694830800,10.107830810546876,-1.1880035400390625,-3.9381256103515625,3.0946197509765625
1691217823704870700,10.11787060546875,-1.1839752197265625,-3.978118896484375,3.1310882568359375
1691217823714910700,10.12791064453125,-1.2196502685546875,-3.9582672119140625,3.0978546142578125
1691217823724951800,10.137951904296875,-1.224517822265625,-3.998504638671875,3.1484375
1691217823734992000,10.147991943359376,-1.2075042724609375,-3.9100799560546875,3.06756591796875
1691217823745032000,10.158031982421875,-1.1703033447265625,-3.9749298095703125,3.0885162353515625
1691217823755072800,10.16807275390625,-1.1489105224609375,-4.057403564453125,3.085113525390625
1691217823765112800,10.17811279296875,-1.19976806640625,-4.0347747802734375,3.1756134033203125
1691217823775152600,10.188152587890626,-1.1801300048828125,-4.03424072265625,3.2050933837890625
1691217823785192700,10.198192626953125,-1.25933837890625,-4.0294647216796875,3.1886444091796875
1691217823795233800,10.20823388671875,-1.2260284423828125,-3.93121337890625,3.1363067626953125
1691217823805273900,10.21827392578125,-1.169342041015625,-4.0867919921875,3.0746917724609375
1691217823815345000,10.228344970703125,-1.1674652099609375,-4.003448486328125,3.1600341796875
1691217823825385000,10.238385009765626,-1.1599884033203125,-4.0243682861328125,3.0935211181640625
1691217823835425000,10.248425048828125,-1.2064971923828125,-4.0777587890625,3.17529296875
1691217823845465900,10.2584658203125,-1.2295684814453125,-4.053070068359375,3.2000885009765625
1691217823855505700,10.268505615234375,-1.2308349609375,-4.0350494384765625,3.187347412109375
1691217823865545700,10.278545654296876,-1.213104248046875,-3.964202880859375,3.1202239990234375
1691217823875585800,10.288585693359375,-1.1511993408203125,-4.0833282470703125,3.1414337158203125
1691217823885627000,10.298626953125,-1.1531982421875,-4.1097412109375,3.1588592529296875
1691217823895667000,10.3086669921875,-1.2152099609375,-4.0820159912109375,3.224212646484375
1691217823905707000,10.31870703125,-1.1872711181640625,-4.0890350341796875,3.288299560546875
1691217823915747800,10.328747802734375,-1.238494873046875,-4.0134735107421875,3.194793701171875
1691217823925787600,10.33878759765625,-1.2191314697265625,-4.054351806640625,3.1897125244140625
1691217823935827700,10.34882763671875,-1.1942901611328125,-4.095855712890625,3.1624755859375
1691217823945867800,10.35886767578125,-1.1772003173828125,-4.0330657958984375,3.172698974609375
1691217823955908900,10.368908935546875,-1.1774444580078125,-4.1032257080078125,3.1711578369140625
1691217823965980000,10.37897998046875,-1.2141876220703125,-4.069427490234375,3.1971435546875
1691217823976020000,10.38902001953125,-1.21722412109375,-4.109039306640625,3.246673583984375
1691217823986060000,10.39906005859375,-1.2433013916015625,-4.0467071533203125,3.1748809814453125
1691217823996099600,10.409099609375,-1.1898040771484375,-4.0522308349609375,3.1959381103515625
1691217824006140700,10.419140625,-1.1577606201171875,-4.141265869140625,3.1551513671875
1691217824016180700,10.4291806640625,-1.196929931640625,-4.1597137451171875,3.245819091796875
1691217824026220800,10.439220703125,-1.1955108642578125,-4.12335205078125,3.2946319580078125
1691217824036262000,10.449261962890626,-1.2358551025390625,-4.1125640869140625,3.27587890625
1691217824046302000,10.459302001953125,-1.2256317138671875,-4.037506103515625,3.225494384765625
1691217824056341800,10.469341796875,-1.2020721435546875,-4.1457366943359375,3.1854095458984375
1691217824066381600,10.479381591796875,-1.1834564208984375,-4.09136962890625,3.23651123046875
1691217824076422700,10.489422607421876,-1.18572998046875,-4.117767333984375,3.16827392578125
1691217824086462700,10.499462646484375,-1.220550537109375,-4.1304473876953125,3.2587890625
1691217824096502800,10.509502685546876,-1.223785400390625,-4.1183624267578125,3.219512939453125
1691217824106573800,10.51957373046875,-1.2493133544921875,-4.134552001953125,3.2401580810546875
1691217824116614000,10.52961376953125,-1.2113800048828125,-4.0676116943359375,3.1921539306640625
1691217824126655000,10.539655029296876,-1.1659088134765625,-4.126617431640625,3.1991119384765625
1691217824136694800,10.54969482421875,-1.17083740234375,-4.222137451171875,3.2082061767578125
1691217824146734600,10.559734619140626,-1.2119903564453125,-4.171844482421875,3.297332763671875
1691217824156774700,10.569774658203125,-1.21429443359375,-4.176971435546875,3.351226806640625
1691217824166815700,10.579815673828126,-1.267486572265625,-4.1088104248046875,3.241668701171875
1691217824176855800,10.589855712890625,-1.2135772705078125,-4.1494293212890625,3.242950439453125
1691217824186896000,10.599895751953126,-1.182891845703125,-4.2023773193359375,3.2185211181640625
1691217824196937000,10.60993701171875,-1.17535400390625,-4.089324951171875,3.232513427734375
1691217824206976800,10.619976806640626,-1.1855621337890625,-4.2430267333984375,3.2221527099609375
1691217824217016600,10.6300166015625,-1.239837646484375,-4.167999267578125,3.3021087646484375
1691217824227056600,10.640056640625,-1.24029541015625,-4.1991424560546875,3.311859130859375
1691217824237097700,10.65009765625,-1.239898681640625,-4.1241455078125,3.2464599609375
1691217824247168800,10.660168701171875,-1.1972503662109375,-4.13714599609375,3.2500762939453125
1691217824257208800,10.670208740234376,-1.149169921875,-4.2353515625,3.2301483154296875
1691217824267249000,10.680248779296875,-1.206695556640625,-4.2345123291015625,3.2937469482421875
1691217824277289000,10.6902890625,-1.2112579345703125,-4.21734619140625,3.3754119873046875
1691217824287329800,10.700329833984375,-1.226348876953125,-4.1741790771484375,3.3428955078125
1691217824297369600,10.71036962890625,-1.25860595703125,-4.1185150146484375,3.278961181640625
1691217824307409700,10.72040966796875,-1.1960906982421875,-4.2630767822265625,3.24359130859375
1691217824317449700,10.73044970703125,-1.20703125,-4.1452178955078125,3.311737060546875
1691217824327490800,10.74049072265625,-1.168975830078125,-4.2082366943359375,3.2086639404296875
1691217824337531000,10.75053076171875,-1.2263946533203125,-4.229461669921875,3.3173065185546875
1691217824347556600,10.760556640625,-1.23291015625,-4.20928955078125,3.311767578125
1691217824357597700,10.77059765625,-1.2566986083984375,-4.2059783935546875,3.2978057861328125
1691217824367637800,10.7806376953125,-1.22021484375,-4.155792236328125,3.2654571533203125
1691217824377677600,10.790677490234375,-1.16180419921875,-4.2381744384765625,3.2769775390625
1691217824387748400,10.800748291015625,-1.1930999755859375,-4.2913055419921875,3.2755126953125
1691217824397788400,10.810788330078125,-1.222503662109375,-4.269378662109375,3.3881988525390625
1691217824407829500,10.82082958984375,-1.233123779296875,-4.2362213134765625,3.39599609375
1691217824417869600,10.83086962890625,-1.228546142578125,-4.152984619140625,3.286773681640625
1691217824427909600,10.84090966796875,-1.2337799072265625,-4.2840728759765625,3.2931365966796875
1691217824437949700,10.85094970703125,-1.1872711181640625,-4.222412109375,3.3232574462890625
1691217824447990500,10.860990478515625,-1.1977386474609375,-4.21826171875,3.2571563720703125
1691217824458030300,10.8710302734375,-1.2258148193359375,-4.2914886474609375,3.3274078369140625
1691217824468070400,10.8810703125,-1.23236083984375,-4.233001708984375,3.33331298828125
1691217824478111500,10.891111572265626,-1.2520904541015625,-4.253021240234375,3.330047607421875
1691217824488151600,10.901151611328125,-1.2300872802734375,-4.210906982421875,3.2821502685546875
1691217824498191600,10.911191650390625,-1.1810150146484375,-4.2401580810546875,3.310577392578125
1691217824508231700,10.921231689453125,-1.1710968017578125,-4.3157806396484375,3.2911376953125
1691217824518272500,10.9312724609375,-1.2318572998046875,-4.31927490234375,3.3759765625
1691217824528342500,10.941342529296875,-1.20806884765625,-4.2903289794921875,3.467926025390625
1691217824538383400,10.95138330078125,-1.2833099365234375,-4.213836669921875,3.3266754150390625
1691217824548423400,10.96142333984375,-1.2199249267578125,-4.2685546875,3.3302459716796875
1691217824558463500,10.97146337890625,-1.205413818359375,-4.3272857666015625,3.3137054443359375
1691217824568504600,10.981504638671876,-1.17987060546875,-4.1842498779296875,3.33099365234375
1691217824578544600,10.991544677734375,-1.1908721923828125,-4.363037109375,3.2929534912109375
1691217824588584700,11.001584716796875,-1.2581634521484375,-4.2920074462890625,3.3978729248046875
1691217824598624500,11.01162451171875,-1.2443084716796875,-4.302642822265625,3.4073486328125
1691217824608665300,11.021665283203125,-1.25213623046875,-4.2301483154296875,3.3237762451171875
1691217824618705400,11.031705322265625,-1.2085113525390625,-4.2532806396484375,3.3448333740234375
1691217824628745500,11.041745361328125,-1.1607513427734375,-4.3380279541015625,3.3149261474609375
1691217824638786600,11.05178662109375,-1.2177581787109375,-4.3506927490234375,3.378753662109375
1691217824648826600,11.06182666015625,-1.223663330078125,-4.32342529296875,3.478515625
1691217824658866700,11.07186669921875,-1.24322509765625,-4.250518798828125,3.3964996337890625
1691217824668937500,11.0819375,-1.2642059326171875,-4.2489776611328125,3.3476715087890625
1691217824678977500,11.0919775390625,-1.210845947265625,-4.3780517578125,3.3308563232421875
1691217824689018400,11.102018310546875,-1.2096099853515625,-4.226043701171875,3.3828125
1691217824699058400,11.112058349609375,-1.1879730224609375,-4.3358612060546875,3.288330078125
1691217824709098500,11.122098388671875,-1.2512359619140625,-4.3293609619140625,3.3985443115234375
1691217824719138600,11.132138671875,-1.243408203125,-4.3235321044921875,3.3973388671875
1691217824729179600,11.1421796875,-1.267059326171875,-4.289093017578125,3.3498992919921875
1691217824739219700,11.1522197265625,-1.2220611572265625,-4.2689208984375,3.3467254638671875
1691217824749259500,11.162259521484375,-1.1600189208984375,-4.3655853271484375,3.339019775390625
1691217824759300400,11.17230029296875,-1.21990966796875,-4.39697265625,3.3733062744140625
1691217824769340400,11.18234033203125,-1.2328338623046875,-4.3703460693359375,3.4958038330078125
1691217824779380500,11.19238037109375,-1.2492218017578125,-4.30206298828125,3.42291259765625
1691217824789420500,11.202420654296875,-1.2462158203125,-4.290771484375,3.3530426025390625
1691217824799461600,11.212461669921876,-1.2335357666015625,-4.40728759765625,3.3620147705078125
1691217824809531400,11.222531494140625,-1.195343017578125,-4.2919464111328125,3.396026611328125
1691217824819572500,11.232572509765625,-1.195098876953125,-4.372772216796875,3.3178863525390625
1691217824829612500,11.242612548828125,-1.25518798828125,-4.3879241943359375,3.4190216064453125
1691217824839652600,11.252652587890625,-1.2374725341796875,-4.358001708984375,3.4322357177734375
1691217824849693400,11.262693359375,-1.2694854736328125,-4.3319244384765625,3.378143310546875
1691217824859733500,11.2727333984375,-1.2253570556640625,-4.3322906494140625,3.37811279296875
1691217824869773600,11.282773681640625,-1.1712188720703125,-4.3629150390625,3.3835601806640625
1691217824879813400,11.2928134765625,-1.2073822021484375,-4.439208984375,3.3870697021484375
1691217824889854500,11.3028544921875,-1.2198333740234375,-4.4080047607421875,3.501434326171875
1691217824899894500,11.31289453125,-1.26934814453125,-4.3743743896484375,3.50457763671875
1691217824909934600,11.3229345703125,-1.256744384765625,-4.2930145263671875,3.4031219482421875
1691217824919975400,11.332975341796875,-1.231231689453125,-4.441375732421875,3.382598876953125
1691217824930015500,11.343015380859375,-1.197479248046875,-4.3418426513671875,3.451324462890625
1691217824940055600,11.3530556640625,-1.1859588623046875,-4.3338165283203125,3.3406829833984375
1691217824950126600,11.363126708984375,-1.242156982421875,-4.4675445556640625,3.4278106689453125
1691217824960166400,11.37316650390625,-1.2523193359375,-4.3705291748046875,3.49169921875
1691217824970206500,11.38320654296875,-1.2671966552734375,-4.3708953857421875,3.4421234130859375
1691217824980247600,11.39324755859375,-1.248870849609375,-4.3074951171875,3.393646240234375
1691217824990287600,11.40328759765625,-1.18731689453125,-4.404052734375,3.419342041015625
1691217825000327700,11.41332763671875,-1.1865234375,-4.4273223876953125,3.410430908203125
1691217825010368500,11.423368408203125,-1.245330810546875,-4.4271697998046875,3.495880126953125
1691217825020408600,11.43340869140625,-1.2470855712890625,-4.39239501953125,3.536407470703125
1691217825030448400,11.443448486328125,-1.2725372314453125,-4.27294921875,3.4186248779296875
1691217825040488400,11.453488525390625,-1.2247467041015625,-4.4587860107421875,3.3721923828125
1691217825050529500,11.463529541015625,-1.24212646484375,-4.37908935546875,3.4716644287109375
1691217825060569600,11.473569580078125,-1.18377685546875,-4.341644287109375,3.3569183349609375
1691217825070609700,11.483609619140625,-1.24761962890625,-4.4539794921875,3.42987060546875
1691217825080650500,11.493650390625,-1.2699127197265625,-4.41448974609375,3.456024169921875
1691217825090720800,11.503720703125,-1.2637176513671875,-4.3955230712890625,3.460479736328125
1691217825100761600,11.51376171875,-1.254364013671875,-4.3244171142578125,3.3724212646484375
1691217825110801400,11.523801513671875,-1.1824798583984375,-4.445159912109375,3.418701171875
1691217825120841500,11.533841552734375,-1.2013092041015625,-4.47265625,3.409149169921875
1691217825130882600,11.543882568359376,-1.2407989501953125,-4.466339111328125,3.5238189697265625
1691217825140922600,11.553922607421875,-1.268951416015625,-4.4214935302734375,3.518646240234375
1691217825150962700,11.563962646484375,-1.2415313720703125,-4.343475341796875,3.4211883544921875
1691217825161002800,11.574002685546875,-1.253936767578125,-4.4874420166015625,3.4040679931640625
1691217825171043600,11.584043701171876,-1.21185302734375,-4.4202880859375,3.4614410400390625
1691217825181083400,11.59408349609375,-1.200958251953125,-4.4218597412109375,3.3812713623046875
1691217825191123500,11.60412353515625,-1.2447509765625,-4.4931640625,3.4540557861328125
1691217825201164500,11.61416455078125,-1.2548065185546875,-4.457763671875,3.48809814453125
1691217825211204600,11.62420458984375,-1.270294189453125,-4.4334259033203125,3.470184326171875
1691217825221244700,11.63424462890625,-1.2422332763671875,-4.405059814453125,3.4271087646484375
1691217825231315700,11.644315673828125,-1.189971923828125,-4.4505157470703125,3.452728271484375
1691217825241355800,11.654355712890625,-1.1966400146484375,-4.51123046875,3.4478912353515625
1691217825251395600,11.6643955078125,-1.2342529296875,-4.50103759765625,3.5370025634765625
1691217825261436400,11.6744365234375,-1.2571258544921875,-4.4754791259765625,3.6007843017578125
1691217825271476500,11.6844765625,-1.271728515625,-4.3704376220703125,3.4754180908203125
1691217825281516500,11.6945166015625,-1.2373809814453125,-4.4940948486328125,3.4523162841796875
1691217825291557600,11.7045576171875,-1.2179107666015625,-4.467620849609375,3.5032196044921875
1691217825301597700,11.71459765625,-1.198150634765625,-4.371856689453125,3.431060791015625
1691217825311637800,11.7246376953125,-1.232025146484375,-4.5507659912109375,3.46697998046875
1691217825321677600,11.734677490234375,-1.268157958984375,-4.4527740478515625,3.54290771484375
1691217825331718400,11.744718505859375,-1.2744293212890625,-4.4557037353515625,3.5300140380859375
1691217825341758500,11.754758544921875,-1.25457763671875,-4.3690643310546875,3.4448089599609375
1691217825351794700,11.764794677734375,-1.2084503173828125,-4.47686767578125,3.4737701416015625
1691217825361836000,11.7748359375,-1.191253662109375,-4.4987335205078125,3.476715087890625
1691217825371875800,11.784875732421876,-1.2520599365234375,-4.48846435546875,3.5399322509765625
1691217825381947000,11.79494677734375,-1.264373779296875,-4.4753570556640625,3.5912017822265625
1691217825391987000,11.804987060546875,-1.2726593017578125,-4.345489501953125,3.4765167236328125
1691217825402027000,11.815027099609376,-1.2320709228515625,-4.5236053466796875,3.4207763671875
1691217825412067800,11.82506787109375,-1.2532958984375,-4.4609527587890625,3.522308349609375
1691217825422108000,11.83510791015625,-1.1925506591796875,-4.4190673828125,3.4110565185546875
1691217825432147700,11.845147705078125,-1.2519989013671875,-4.521942138671875,3.48553466796875
1691217825442187800,11.855187744140625,-1.2843475341796875,-4.49554443359375,3.4977569580078125
1691217825452228900,11.865228759765625,-1.27197265625,-4.469482421875,3.527130126953125
1691217825462269000,11.87526904296875,-1.26080322265625,-4.3892669677734375,3.418975830078125
1691217825472309000,11.88530908203125,-1.1850433349609375,-4.5146331787109375,3.4688262939453125
1691217825482348800,11.895348876953125,-1.2064971923828125,-4.5530242919921875,3.4569549560546875
1691217825492390000,11.905389892578125,-1.248870849609375,-4.53521728515625,3.57513427734375
1691217825502429700,11.9154296875,-1.2762298583984375,-4.497802734375,3.5689544677734375
1691217825512469800,11.9254697265625,-1.248260498046875,-4.4128570556640625,3.4684906005859375
1691217825522540800,11.935540771484375,-1.2626190185546875,-4.574249267578125,3.452972412109375
1691217825532580900,11.945580810546875,-1.222747802734375,-4.4783782958984375,3.5215911865234375
1691217825542622000,11.9556220703125,-1.2018280029296875,-4.508575439453125,3.419830322265625
1691217825552662000,11.965662109375,-1.2551422119140625,-4.567047119140625,3.51202392578125
1691217825562701800,11.975701904296875,-1.257720947265625,-4.5410003662109375,3.5462493896484375
1691217825572743000,11.985742919921876,-1.2760162353515625,-4.495269775390625,3.5251312255859375
1691217825582782700,11.99578271484375,-1.2496490478515625,-4.47515869140625,3.4864959716796875
1691217825592822800,12.00582275390625,-1.191802978515625,-4.53155517578125,3.515838623046875
1691217825602862800,12.01586279296875,-1.211700439453125,-4.579803466796875,3.5027618408203125
1691217825612904000,12.025904052734376,-1.237823486328125,-4.5728302001953125,3.607391357421875
1691217825622944000,12.035944091796875,-1.280242919921875,-4.525360107421875,3.627410888671875
1691217825632983800,12.04598388671875,-1.260162353515625,-4.4389801025390625,3.5267486572265625
1691217825643025000,12.05602490234375,-1.2482757568359375,-4.5888519287109375,3.4900970458984375
1691217825653064700,12.066064697265626,-1.222442626953125,-4.50457763671875,3.585479736328125
1691217825663135700,12.0761357421875,-1.2003173828125,-4.4617919921875,3.45758056640625
1691217825673175800,12.08617578125,-1.2600555419921875,-4.6181488037109375,3.5377960205078125
1691217825683216000,12.0962158203125,-1.2695465087890625,-4.519989013671875,3.6009979248046875
1691217825693256000,12.106255859375,-1.2783203125,-4.5052032470703125,3.5622100830078125
1691217825703297000,12.116297119140626,-1.2568359375,-4.4378662109375,3.4944000244140625
1691217825713336800,12.1263369140625,-1.20013427734375,-4.5654296875,3.5314178466796875
1691217825723376600,12.136376708984375,-1.2077178955078125,-4.55743408203125,3.5358428955078125
1691217825733417700,12.146417724609375,-1.258544921875,-4.5567474365234375,3.625091552734375
1691217825743457800,12.156457763671876,-1.2808685302734375,-4.5122222900390625,3.6079864501953125
1691217825753497900,12.166497802734375,-1.2789764404296875,-4.4125213623046875,3.5205535888671875
1691217825763538000,12.176537841796875,-1.2299346923828125,-4.615753173828125,3.4575042724609375
1691217825773579000,12.1865791015625,-1.2594757080078125,-4.4821014404296875,3.584442138671875
1691217825783618800,12.196618896484376,-1.1923980712890625,-4.5128326416015625,3.445465087890625
1691217825793658600,12.20665869140625,-1.2821197509765625,-4.5800628662109375,3.548431396484375
1691217825803729700,12.216729736328125,-1.29071044921875,-4.5618438720703125,3.5673980712890625
1691217825813769700,12.226769775390625,-1.2790069580078125,-4.5027313232421875,3.53955078125
1691217825823810800,12.236810791015625,-1.255279541015625,-4.454376220703125,3.4725799560546875
1691217825833851000,12.246850830078126,-1.1753997802734375,-4.6130523681640625,3.5040130615234375
1691217825843891000,12.256890869140625,-1.24053955078125,-4.59478759765625,3.52178955078125
1691217825853931800,12.266931884765626,-1.2698974609375,-4.5977783203125,3.6454315185546875
1691217825863971800,12.276971923828125,-1.2624969482421875,-4.519805908203125,3.5673828125
1691217825874011600,12.28701171875,-1.26788330078125,-4.5160675048828125,3.5017242431640625
1691217825884051700,12.2970517578125,-1.2613067626953125,-4.6355133056640625,3.5180816650390625
1691217825894092800,12.3070927734375,-1.22198486328125,-4.5128326416015625,3.5322418212890625
1691217825904132900,12.3171328125,-1.2111968994140625,-4.616119384765625,3.4768829345703125
1691217825914173000,12.3271728515625,-1.275543212890625,-4.6178131103515625,3.56390380859375
1691217825924213800,12.3372138671875,-1.2603759765625,-4.5998077392578125,3.6087799072265625
1691217825934253800,12.34725390625,-1.281219482421875,-4.532379150390625,3.536895751953125
1691217825944324600,12.35732470703125,-1.2376556396484375,-4.5630340576171875,3.5510711669921875
1691217825954364700,12.36736474609375,-1.1850738525390625,-4.61175537109375,3.5524444580078125
1691217825964404700,12.37740478515625,-1.2442474365234375,-4.6410369873046875,3.565185546875
1691217825974444800,12.38744482421875,-1.2418670654296875,-4.6252593994140625,3.7047119140625
1691217825984486000,12.39748583984375,-1.289398193359375,-4.5368804931640625,3.603912353515625
1691217825994526000,12.40752587890625,-1.257354736328125,-4.5449676513671875,3.564605712890625
1691217826004566000,12.41756591796875,-1.2537078857421875,-4.6622161865234375,3.5572357177734375
1691217826014606800,12.42760693359375,-1.2177276611328125,-4.479522705078125,3.603729248046875
1691217826024646700,12.437646728515626,-1.2139739990234375,-4.6253662109375,3.5087432861328125
1691217826034686700,12.447686767578125,-1.2895965576171875,-4.6241912841796875,3.6086578369140625
1691217826044726800,12.457726806640625,-1.27545166015625,-4.5914764404296875,3.6612701416015625
1691217826054767900,12.467767822265625,-1.2783355712890625,-4.4996337890625,3.5505218505859375
1691217826064808000,12.477807861328126,-1.240692138671875,-4.55242919921875,3.5658721923828125
1691217826074848000,12.487847900390625,-1.190155029296875,-4.6318817138671875,3.5721282958984375
1691217826084918800,12.497918701171875,-1.249176025390625,-4.6050262451171875,3.608489990234375
1691217826094958800,12.507958740234375,-1.2851409912109375,-4.607330322265625,3.6969451904296875
1691217826104999700,12.517999755859375,-1.2815093994140625,-4.488861083984375,3.5944061279296875
1691217826115039700,12.528039794921876,-1.2514495849609375,-4.5730133056640625,3.5168304443359375
1691217826125079800,12.538079833984375,-1.260284423828125,-4.639923095703125,3.5732574462890625
1691217826135120000,12.548119873046875,-1.220184326171875,-4.505218505859375,3.5502777099609375
1691217826145161000,12.558160888671875,-1.2350921630859375,-4.635772705078125,3.53192138671875
1691217826155200800,12.56820068359375,-1.3143157958984375,-4.6239776611328125,3.59759521484375
1691217826165240800,12.57824072265625,-1.2874908447265625,-4.6065521240234375,3.6289215087890625
1691217826175281700,12.58828173828125,-1.2751617431640625,-4.50225830078125,3.5130767822265625
1691217826185321700,12.59832177734375,-1.2224273681640625,-4.5712738037109375,3.5493011474609375
1691217826195361800,12.60836181640625,-1.1956329345703125,-4.693756103515625,3.5248565673828125
1691217826205401900,12.61840185546875,-1.2518463134765625,-4.640594482421875,3.6360015869140625
1691217826215443000,12.62844287109375,-1.308502197265625,-4.6361846923828125,3.6539764404296875
1691217826225514000,12.638513916015626,-1.238525390625,-4.518798828125,3.5708465576171875
1691217826235553800,12.6485537109375,-1.291412353515625,-4.6747894287109375,3.5171356201171875
1691217826245593900,12.65859375,-1.2447967529296875,-4.6256561279296875,3.61126708984375
1691217826255634000,12.668634033203125,-1.2145843505859375,-4.5984039306640625,3.50506591796875
1691217826265674800,12.6786748046875,-1.2542266845703125,-4.6970367431640625,3.571807861328125
1691217826275714800,12.68871484375,-1.2725677490234375,-4.663421630859375,3.6376953125
1691217826285755000,12.6987548828125,-1.284271240234375,-4.6207122802734375,3.6163177490234375
1691217826295796000,12.7087958984375,-1.2550201416015625,-4.5836944580078125,3.5763397216796875
1691217826305835800,12.718835693359376,-1.205413818359375,-4.6331787109375,3.60992431640625
1691217826315875800,12.728875732421875,-1.220123291015625,-4.700775146484375,3.5767364501953125
1691217826325916000,12.738916015625,-1.24981689453125,-4.689727783203125,3.70147705078125
1691217826335956700,12.748956787109375,-1.297821044921875,-4.635040283203125,3.728759765625
1691217826346010000,12.759010009765625,-1.261932373046875,-4.522552490234375,3.619354248046875
1691217826356050200,12.76905029296875,-1.2703399658203125,-4.692138671875,3.5706787109375
1691217826366121000,12.779120849609376,-1.2414703369140625,-4.6117095947265625,3.676361083984375
1691217826376161000,12.7891611328125,-1.2152862548828125,-4.5462799072265625,3.5592193603515625
1691217826386202000,12.7992021484375,-1.2747802734375,-4.70953369140625,3.6038360595703125
1691217826396242200,12.8092421875,-1.28802490234375,-4.6413421630859375,3.7099609375
1691217826406282200,12.8192822265625,-1.3054046630859375,-4.5657806396484375,3.6367340087890625
1691217826416322300,12.829322265625,-1.2437286376953125,-4.521240234375,3.58056640625
1691217826426363100,12.839363037109376,-1.2008819580078125,-4.6419677734375,3.6061859130859375
1691217826436403200,12.8494033203125,-1.2466888427734375,-4.673065185546875,3.61126708984375
1691217826446443000,12.859443115234376,-1.2761077880859375,-4.64715576171875,3.7393951416015625
1691217826456484000,12.869484130859375,-1.3280792236328125,-4.5800018310546875,3.6829833984375
1691217826466524200,12.879524169921876,-1.2805938720703125,-4.4863128662109375,3.5732879638671875
1691217826476564200,12.889564208984375,-1.2620849609375,-4.717926025390625,3.51727294921875
