time,seconds_elapsed,z,y,x
1691217813795026200,0.208026123046875,0.05501987643241882,-0.45043651371523735,0.0551487269764766
1691217813805066200,0.218066162109375,0.2171896295070648,-0.34096886164993045,0.11567202313076703
1691217813815106300,0.228106201171875,0.13055939380228518,-0.303654390718136,0.1519234131420031
1691217813825146400,0.238146484375,0.08741291051506996,-0.3093232484010979,0.12980696799978614
1691217813835187500,0.2481875,0.24089199213385581,-0.22888861593343315,0.07946880137650296
1691217813845227300,0.258227294921875,0.16048165385723112,-0.43661337474174794,0.034495376656763256
1691217813855298300,0.26829833984375,0.2334720712661743,-0.4795641527937725,-0.015429843517765402
1691217813865338400,0.27833837890625,0.25169980187416074,-0.22355668032094836,-0.017809541728533804
1691217813875378400,0.28837841796875,0.1817927374333143,0.006272212137281894,-0.053748696585977446
1691217813885419300,0.298419189453125,0.28539164359569547,0.027852705505583435,-0.05426092042443342
1691217813895459300,0.308459228515625,0.22712240997850894,0.27228366715423763,-0.022239843193022534
1691217813905499100,0.3184990234375,0.1656073263078928,0.14971885230243206,0.0024623395595001056
1691217813915539200,0.328539306640625,0.31672552401423454,0.051587618695106356,0.0027380283954553304
1691217813925580300,0.338580322265625,0.2873690811485052,0.08422335722614079,-0.018763782846601677
1691217813935620400,0.348620361328125,0.22846505675911902,0.14471076008314265,-0.046006987284868954
1691217813945660400,0.358660400390625,0.32542613234221934,0.20543567975675686,-0.07019392769136466
1691217813955701200,0.368701171875,0.26932489041388036,0.12260399608472361,-0.08236130794761702
1691217813965741300,0.3787412109375,0.2806014867097139,0.08982709551732987,-0.06243245424386114
1691217813975781400,0.388781494140625,0.3021270898193121,0.1708880431897938,-0.0295120078867767
1691217813985821200,0.3988212890625,0.21054887631833552,0.11122335489252581,0.01015465219435282
1691217813995862300,0.4088623046875,0.26253040796816346,0.09370780940819531,0.04671077903951518
1691217814005933300,0.418933349609375,0.24025895492732524,0.16509930372051893,0.043120700391987336
1691217814015973400,0.428973388671875,0.1921200701802969,0.06204261467605829,0.027935397086665033
1691217814026013400,0.439013427734375,0.27868133230209347,0.057395556055195626,-0.02085289147980511
1691217814036053500,0.449053466796875,0.21089783588647842,0.13519165671281516,-0.04111014602086507
1691217814046094300,0.45909423828125,0.2574240247398615,-0.01400903520071879,-0.0444358563774731
1691217814056134100,0.469134033203125,0.27506372632682324,0.05810719318957999,-0.04527664545001462
1691217814066174200,0.47917431640625,0.19095570257604122,0.12741546975336968,-0.02782752539855428
1691217814076215300,0.48921533203125,0.2760615051925182,-0.02276506351036951,0.00790070838825777
1691217814086255400,0.49925537109375,0.20754560284912585,0.09693939347425475,0.03704605665341951
1691217814096295400,0.50929541015625,0.19054010751247405,0.08575626588184386,0.042337039201008154
1691217814106335500,0.51933544921875,0.2589186472117901,-0.023588709651865065,0.0237359452359844
1691217814116376300,0.529376220703125,0.1995622028797865,0.11023366800174117,0.007912608888605609
1691217814126416400,0.53941650390625,0.2514092944949865,0.056555598099716005,-0.013704517562501132
1691217814136456200,0.549456298828125,0.26592121945023534,0.01281102105518803,-0.032387901249807324
1691217814146527200,0.55952734375,0.23038053499162195,0.10500570422038435,-0.03590789206949994
1691217814156567300,0.5695673828125,0.2691279065370559,0.05201008189087733,-0.029367850175732745
1691217814166608400,0.5796083984375,0.24034254155755042,0.033515425708703694,-0.010843246379867196
1691217814176648400,0.5896484375,0.22918635677099228,0.07774762187339365,0.0014539434016682207
1691217814186688500,0.5996884765625,0.23036066124737262,0.045972189966123546,0.022777785994624718
1691217814196728300,0.609728271484375,0.20944529899060724,0.02728723537623882,0.02569698877641931
1691217814206769200,0.61976904296875,0.2251326974660158,0.04977620362527668,0.019376042126584798
1691217814216809200,0.629809326171875,0.2105716726720333,0.04059312727628275,0.0006101769207511097
1691217814226849300,0.639849365234375,0.2283908224791288,0.010621402056422084,-0.003451318630808964
1691217814236890400,0.649890380859375,0.24261633170843122,0.04601111547071486,-0.009834023671550675
1691217814246930400,0.659930419921875,0.21870880189836023,0.03377062431247905,-0.026702640421316027
1691217814256970500,0.669970458984375,0.25214462303221225,-0.00040300957662984724,-0.025856645450694486
1691217814267010600,0.680010498046875,0.21374854914247987,0.05762392145097255,-0.006102929118135944
1691217814277051400,0.690051513671875,0.2034656400591135,0.02349187994757667,0.006107011638209223
1691217814287091200,0.70009130859375,0.22833178576827048,0.014460121702775358,0.034437819516938174
1691217814297162200,0.710162353515625,0.20948037030398844,0.060898942799959326,0.03734172426490113
1691217814307202300,0.720202392578125,0.23534429487884043,0.022725590016506612,0.02785228538047522
1691217814317242400,0.730242431640625,0.23652795170545576,0.029315343670360743,0.012268776537803932
1691217814327283500,0.740283447265625,0.23651450770199298,0.06316716172657906,-0.014490407243184745
1691217814337324500,0.750324462890625,0.25520342608094215,0.01010283980872482,-0.0286727166515775
1691217814347364600,0.760364501953125,0.23023849617242811,0.027317192123085258,-0.034585858818655835
1691217814357404400,0.770404296875,0.22861118723154067,0.04447038883473724,-0.021088828260684384
1691217814367445500,0.780445556640625,0.22563772437870502,0.02113331585638225,0.006664444591570645
1691217814377485600,0.790485595703125,0.20726094068884848,0.03124757210826501,0.02176500135604292
1691217814387525600,0.800525634765625,0.2095037511795759,0.03592599398177117,0.039492819617874916
1691217814397566500,0.81056640625,0.20665362244546412,0.01545534328520298,0.03133072948022746
1691217814407606500,0.8206064453125,0.2177215444266796,0.02140769408466294,0.010069540327321738
1691217814417646600,0.830646484375,0.21994974187016486,0.022788115592394024,-0.02149276941907592
1691217814427686400,0.840686279296875,0.2187543946057558,0.005527878309693187,-0.025873149060923605
1691217814437757400,0.85075732421875,0.23209669125974178,0.01770717733260244,-0.028108954422129316
1691217814447798500,0.860798583984375,0.23497195443511007,0.043623416616581374,-0.023635407470958308
1691217814457838600,0.870838623046875,0.22663024254739284,0.016095376488100735,-0.0014849047955125569
1691217814467878700,0.880878662109375,0.21828210091888903,0.030050325147714465,0.022202972648199645
1691217814477918700,0.890918701171875,0.20302783316373824,0.040558412155928085,0.031902136160014194
1691217814487959600,0.90095947265625,0.2152864262342453,0.024936854591500014,0.029400683866254985
1691217814497999400,0.910999267578125,0.21196926451027392,0.03140185848767869,0.010498743791133166
1691217814508039400,0.921039306640625,0.22540508466660975,0.03292125920783728,0.000933938115555793
1691217814518080500,0.93108056640625,0.23166940575838088,0.015066672761179506,-0.01280633574691601
1691217814528120600,0.94112060546875,0.22044716999828814,0.03252310846941545,-0.0251965010415297
1691217814538160600,0.95116064453125,0.23377251551747322,0.0221300718087703,-0.021558701661601662
1691217814548200700,0.96120068359375,0.2248188092112541,0.014230952589400112,-0.006951061246916651
1691217814558241500,0.971241455078125,0.21227789206802844,0.023793748970981687,0.012546954158367589
1691217814568281600,0.981281494140625,0.2054126824736595,0.014968043825449421,0.031912520556710657
1691217814578321400,0.9913212890625,0.20721417893767355,0.014058527765097096,0.03251580194579437
1691217814588392400,1.001392333984375,0.20990239510834216,0.02623019147082232,0.023416038232389837
1691217814598432500,1.0114326171875,0.21183716256320476,0.01425051580639556,0.005187787034595385
1691217814608473600,1.0214736328125,0.2155734264820814,0.01422056819270365,-0.0031116109482012687
1691217814618513700,1.031513671875,0.21602526190280913,0.02373716907869093,-0.009768392823124304
1691217814628553700,1.0415537109375,0.22457155645191668,0.026875065245619043,-0.01228593773515895
1691217814638593500,1.051593505859375,0.21621698508262632,0.017188395889196545,-0.015033665540721266
1691217814648634400,1.06163427734375,0.2104021613240242,0.028836163584981114,0.005222246426623315
1691217814658674400,1.07167431640625,0.2122095030069351,0.017991382835153488,0.016808054802101104
1691217814668714500,1.081714599609375,0.21894377969801423,0.01793827354158275,0.01531019919347018
1691217814678755600,1.091755615234375,0.2189285821288824,0.031342264654394235,0.01302881025802344
1691217814688795600,1.101795654296875,0.2081318783044815,0.0154640837140847,0.01622052810457535
1691217814698835700,1.111835693359375,0.22278058138191698,0.018016928268363697,0.00379042352521792
1691217814708875800,1.121875732421875,0.22681319789886473,0.028272985877422614,-0.009951430372986942
1691217814718916600,1.13191650390625,0.2229243737667799,0.012557840878563,-0.008874183929758146
1691217814728987400,1.1419873046875,0.2163572703361511,0.012472637679986655,-0.015241764466604217
1691217814739027500,1.15202734375,0.21233926686644553,0.01257214339855127,-0.004240395782422274
1691217814749067500,1.162067626953125,0.20277999588251114,0.008662897532945498,0.009610416649281977
1691217814759107600,1.172107666015625,0.1942635119497776,0.011756908892374485,0.017617042230581862
1691217814769148700,1.182148681640625,0.2054904238849878,0.024045422177109865,0.02320501669705845
1691217814779188700,1.192188720703125,0.21551029811799524,0.009637843512324615,0.02169435640578158
1691217814789228500,1.202228515625,0.21714871297478675,0.01733259926601313,0.001449166761850938
1691217814799269400,1.212269287109375,0.21684417707026005,0.018969845079025254,-0.0030414135225117203
1691217814809309400,1.222309326171875,0.21564590719640253,0.010567900037206708,-0.012358537180488929
1691217814819349500,1.232349609375,0.2128115605533123,0.0179846973660402,-0.020252066909288987
1691217814829389600,1.2423896484375,0.2147673707962036,0.011420671808486804,-0.007633052161708473
1691217814839430700,1.2524306640625,0.21433014842271803,0.01350741495466791,0.004188802592502906
1691217814849470700,1.262470703125,0.2052080998122692,0.01709120999188162,0.011652316006738692
1691217814859510800,1.2725107421875,0.1995177792161703,0.011841408838052302,0.024350542603526263
1691217814869550600,1.282550537109375,0.20354571955800055,0.00691500355284661,0.024093225107900795
1691217814879621600,1.29262158203125,0.2059258926928043,0.011194416171405463,0.012905759267089888
1691217814889662500,1.302662353515625,0.21504443417191504,0.015778857884835452,0.008008954535704105
1691217814899702500,1.31270263671875,0.21863456761837005,0.0032931963264942166,-0.011862095433054491
1691217814909742600,1.32274267578125,0.21445231349766253,0.007583559597330167,-0.01637055843397975
1691217814919782700,1.33278271484375,0.21551555881500242,0.011686117811640724,-0.0021591325289569796
1691217814929823700,1.34282373046875,0.21209376767277716,0.00987726002507843,-0.0039045148915611205
1691217814939863600,1.352863525390625,0.2046276695758104,0.015934687767364085,0.0121274683709722
1691217814949903600,1.362903564453125,0.1941594670534134,0.02362470341385342,0.023116717359097674
1691217814959944400,1.3729443359375,0.20597849966287612,0.022632541438192127,0.016837828885857015
1691217814969984500,1.382984619140625,0.20477496909201143,0.013450460603041574,0.017271434530150145
1691217814980024600,1.393024658203125,0.20910043107569218,0.016873484721127898,0.0045694359405431895
1691217814990064600,1.403064697265625,0.20968904461860655,0.023047195786843076,-0.003753151121595874
1691217815000105700,1.413105712890625,0.20804244645535944,0.02070612168656662,-0.016324874395038932
1691217815010145800,1.423145751953125,0.20939210749864576,0.013817348553519695,-0.015217378944018855
1691217815020216600,1.433216552734375,0.22406419145166873,0.00928260946702212,-0.00007933971337042749
1691217815030256400,1.44325634765625,0.21404782434999942,0.012350335607724264,0.00915281820804812
1691217815040296400,1.45329638671875,0.20222996078431604,0.004177842807071283,0.01600163379004225
1691217815050337500,1.463337646484375,0.19818565382957457,0.005098693112190813,0.02122173392535187
1691217815060377600,1.473377685546875,0.19398820213973522,0.01127866952191107,0.013081645556958392
1691217815070417700,1.483417724609375,0.20281097554266453,0.01172606622953899,0.010889460141770542
1691217815080457500,1.49345751953125,0.21088789901435373,0.008624894476961345,-0.000973822601372376
1691217815090498600,1.50349853515625,0.21014263360500335,0.015144057979481294,-0.006489983073808252
1691217815100538400,1.513538330078125,0.21434593051373957,0.009610507980827241,-0.011027105913637205
1691217815110578400,1.523578369140625,0.21795418413877485,0.008419553763745351,-0.00896612739637494
1691217815120619500,1.53361962890625,0.21153262665867803,0.015433935170993208,-0.0012197784527670592
1691217815130659600,1.54365966796875,0.2074994256198406,0.01909435737468302,0.0031326172036118803
1691217815140699600,1.55369970703125,0.2091431011736393,0.017739399101771414,0.017213165004272012
1691217815150739500,1.563739501953125,0.19581717113256453,0.010031875198055058,0.010438410172332078
1691217815160810500,1.573810546875,0.19894962393939494,0.014549672282906248,0.0063468482760712505
1691217815170851600,1.5838515625,0.21165888338685035,0.022183272433886302,-0.004278407971560955
1691217815180891400,1.593891357421875,0.21105390323102474,0.02287448783474974,-0.007365021475823596
1691217815190931500,1.603931396484375,0.20865677896142004,0.006820110077317804,0.001264393912628293
1691217815200971500,1.613971435546875,0.20162965680360792,0.015339827146753669,0.0035217717848252503
1691217815211012600,1.6240126953125,0.1996925512611866,0.018817522327834738,0.007832702919654547
1691217815221052700,1.634052734375,0.19565818117856978,0.007247377312369644,0.023130234427796676
1691217815231092500,1.644092529296875,0.19491174672544,0.009802706084679811,0.02153303749738261
1691217815241133600,1.654133544921875,0.18727847536802292,0.010957264680974185,0.014988292029034345
1691217815251173400,1.66417333984375,0.19430852013528346,0.0058870761440601195,0.012213146493583916
1691217815261213400,1.67421337890625,0.19954232913553713,0.006490275334753096,0.0048906855178531255
1691217815271253500,1.68425341796875,0.21316110464334487,0.009431315489020198,0.0006309183146804571
1691217815281294600,1.694294677734375,0.209878429710865,0.006390322091616689,-0.0014583547153044492
1691217815291334700,1.704334716796875,0.2137777752369642,0.011308808931848033,-0.005241243388038128
1691217815301374500,1.71437451171875,0.2010696848332882,0.014645186812942846,0.0051331616373732685
1691217815311445500,1.724445556640625,0.19942717832326887,0.014950288973050192,0.015023272010870278
1691217815321485600,1.734485595703125,0.19523732541799543,0.012467313050897792,0.01434740030961111
1691217815331526400,1.7445263671875,0.20032032777071,0.010300134212803095,0.018364727925881744
1691217815341569000,1.754569091796875,0.20345336509943007,0.007019632971100509,0.007214096097275614
1691217815351608800,1.76460888671875,0.202698162817955,0.012835899768117814,0.0038473504773806778
1691217815361649000,1.77464892578125,0.19880173990130423,0.014773809028137474,-0.0028892825675662604
1691217815371689700,1.784689697265625,0.19880232442319393,0.00405161347836256,-0.008807247040234506
1691217815381729800,1.794729736328125,0.20045652137100695,0.0073565459084231405,-0.0042026393216103314
1691217815391769900,1.804769775390625,0.20286241346895695,0.000999779026536271,0.007562215415202081
1691217815401811000,1.81481103515625,0.19883038147389887,0.0027800683057401326,0.009076720764534547
1691217815411851000,1.82485107421875,0.19614274982511995,0.000720569359511137,0.01609937680978328
1691217815421890800,1.834890869140625,0.19704174449145792,0.012732914317678659,0.012860285290703176
1691217815431931000,1.844930908203125,0.19793664750456808,0.010440364667400717,0.007327721672737971
1691217815441971700,1.8549716796875,0.19628595768809318,0.008553372743865474,0.004776475420501083
1691217815452042000,1.8650419921875,0.2021194861471653,0.01346667195232585,-0.003404282884998247
1691217815462082800,1.875082763671875,0.20735797132253644,0.009984382794518023,0.0034515286933630702
1691217815472123000,1.885122802734375,0.21050328361093998,0.010119937073998152,0.0014507559307385235
1691217815482163000,1.895162841796875,0.20527005913257598,0.006422644325485453,0.002872989019891247
1691217815492204000,1.9052041015625,0.20108371335864067,0.008090979396505282,0.004681271417718381
1691217815502243800,1.915243896484375,0.1989899559497833,0.013415005697170272,0.005402881956845521
1691217815512284000,1.925283935546875,0.19599369674324987,0.012072724242741242,0.005209058151487261
1691217815522324000,1.935323974609375,0.19179858314096926,0.006227560144802555,0.004528190614702179
1691217815532364800,1.94536474609375,0.19957272427380085,0.012174604581482708,0.0034462588632013648
1691217815542404900,1.95540478515625,0.20705168185234069,0.008697493922291324,-0.004830772024160251
1691217815552445000,1.96544482421875,0.1947819828659296,0.01117073390171863,-0.005973932443605736
1691217815562486000,1.975486083984375,0.19268939450085162,0.006052459306223318,-0.001494458075147122
1691217815572525800,1.98552587890625,0.19538988563120363,0.002972293809056282,-0.005938541469816118
1691217815582566000,1.99556591796875,0.19464812735319137,0.0005992445347830652,0.002402047039894387
1691217815592606000,2.00560595703125,0.19180793549120426,-0.0010580028866417706,0.012082980775274336
1691217815602677000,2.015677001953125,0.19539865345954893,0.008479467257438226,0.017724849986610933
1691217815612717800,2.0257177734375,0.19180442835986614,0.01138642247901298,0.019815666519710794
1691217815622758000,2.0357578125,0.19808628510832785,0.011737318275915459,0.01385815548794344
1691217815632798000,2.0457978515625,0.20346973171234128,0.010871824020380153,0.0036104273158125578
1691217815642837800,2.055837646484375,0.20646014569997787,0.0107328996068798,0.0027040439274627712
1691217815652878800,2.06587890625,0.21379063471853732,0.019053559573413804,-0.0006944120049476623
1691217815662919000,2.0759189453125,0.19987433756887912,0.015095140803838147,0.006239049653196707
1691217815672959000,2.085958984375,0.19867840578258036,0.007023395830765366,0.005694768442353233
1691217815682999800,2.095999755859375,0.2016740804672241,0.006532187380874529,0.013899683941574766
1691217815693039900,2.106039794921875,0.19104864155650136,0.008133110638335347,0.011188132561091333
1691217815703080000,2.116079833984375,0.191644269362092,0.01031900331005454,0.014166435985825955
1691217815713119700,2.12611962890625,0.1917880617469549,0.00812358475816436,0.019203991761617363
1691217815723160800,2.136160888671875,0.1935796213388443,0.007245970806572586,0.012722301592119038
1691217815733201000,2.146200927734375,0.19178689270317553,0.008505359750520438,0.005739822293631732
1691217815743272000,2.15627197265625,0.19583295322358607,0.006138694551261142,-0.0064076385525986546
1691217815753312000,2.16631201171875,0.20347148527801034,0.01216766338404268,-0.0014157028836663812
1691217815763351800,2.176351806640625,0.20407704995572565,0.007104205982014536,0.0030074381876736877
1691217815773393000,2.186392822265625,0.19779811581671236,0.007570736648375168,0.006118327616667375
1691217815783432700,2.1964326171875,0.1930126351058483,0.008534494513459502,0.014231144385645164
1691217815793472800,2.20647265625,0.19016952063441275,0.005411923779826611,0.011676107874279841
1691217815803512800,2.216512939453125,0.1991431006848812,0.008041340701654553,0.006399108186271041
1691217815813554000,2.226553955078125,0.20467501584887504,0.012918883610144257,-0.0023522622145712374
1691217815823593700,2.23659375,0.19509353303313254,0.007591249713441357,0.005873942667851224
1691217815833633800,2.2466337890625,0.19703706831634044,0.008035778610548005,0.008993079335382207
1691217815843675000,2.2566748046875,0.20287351938486098,0.007143460280168801,0.008635799463465809
1691217815853715000,2.26671484375,0.1964414405107498,0.003339063028525561,0.004639021444879472
1691217815863754800,2.276754638671875,0.19300328275561332,0.006612522608088329,0.004399002143926918
1691217815873794800,2.286794921875,0.19958967540860176,0.007612758292350918,0.012645692691951989
1691217815883865900,2.296865966796875,0.19240648590624332,0.004381685682944953,0.014759287312440573
1691217815893907000,2.306906982421875,0.1925555389881134,0.0008222396356984972,0.005469992376305162
1691217815903946800,2.31694677734375,0.18836743964850902,0.0022275124568957834,0.008014388762647286
1691217815913986800,2.32698681640625,0.19495441682338713,0.0025446338483598083,0.002967526302393526
1691217815924026600,2.337026611328125,0.2022895820170641,0.003620766046736389,0.006758443017955869
1691217815934067700,2.347067626953125,0.19795476768314837,0.010614789652545004,0.0012341357716824858
1691217815944107800,2.357107666015625,0.20229718080163,0.014989789866376666,0.00440931347538717
1691217815954147800,2.36714794921875,0.19601824666261672,0.010555195819260552,0.009191405785921961
1691217815964188000,2.37718798828125,0.19317688575685024,0.0072443633713759475,0.003217117149289697
1691217815974228700,2.387228759765625,0.1943710639774799,0.003966428546095266,0.0062926978028845035
1691217815984268800,2.397268798828125,0.1948158851355314,0.0021268833603244274,0.016063976702839135
1691217815994308900,2.407308837890625,0.19795242959558962,-0.0011689067820552736,0.0063080141030251976
1691217816004350000,2.417349853515625,0.1945066730558872,0.0010074508763384072,0.002040976908849552
1691217816014389800,2.4273896484375,0.19914485425055026,0.0057281957879196845,-0.0011629428321495651
1691217816024429800,2.437429931640625,0.1994441294580698,0.0004930990128777921,0.0016851674748118966
1691217816034500900,2.4475009765625,0.18972177686691283,0.005301001618104055,0.006634862304059788
1691217816044541000,2.457541015625,0.19151859715580938,0.011167053240444511,0.013850839831167831
1691217816054581800,2.467581787109375,0.19690671993494033,0.0014917181287892162,0.006806684340164065
1691217816064621800,2.477621826171875,0.18852993673384189,0.0010443396874703465,0.006304141645506024
1691217816074661600,2.48766162109375,0.19541209746301172,0.006005350495176389,0.009522007713466882
1691217816084701700,2.49770166015625,0.19421441211104393,0.005610442026611417,0.003374307871842757
1691217816094742800,2.50774267578125,0.1967564978092909,0.006081183077208697,0.0003315335093066096
1691217816104782800,2.517782958984375,0.20364041210412978,0.00432104153688997,0.0036848077262751754
1691217816114823000,2.527822998046875,0.20453940677046775,0.0026201650362927464,-0.0033601697486359623
1691217816124863700,2.53786376953125,0.1909253074377775,0.010072609067242591,-0.0024940087728202343
1691217816134903800,2.54790380859375,0.1970604491919279,0.013877453843457623,0.002539811542769894
1691217816144943900,2.55794384765625,0.1894271778345108,0.003857707474613562,0.01043552409550175
1691217816154983700,2.567983642578125,0.19496201560795307,0.001918346043024212,0.010837364628352225
1691217816165024800,2.578024658203125,0.193160519143939,0.005447780544497073,0.011920136630069463
1691217816175094800,2.5880947265625,0.17759411669969558,0.004748071309924125,0.007249012147029861
1691217816185135900,2.598135986328125,0.19330255796313284,0.004696395921614021,0.0036576365915592757
1691217816195176000,2.608176025390625,0.18911153601408004,0.0033227512145414945,0.0006354666256345808
1691217816205216000,2.618216064453125,0.19494857160449028,-0.0017668635420501231,0.0005424180473200976
1691217816215256800,2.6282568359375,0.19928981567919254,-0.00043131322250701483,-0.0019385942466091364
1691217816225296600,2.638296630859375,0.19046587323248385,-0.0016948212191462515,0.008539892207784578
1691217816235336700,2.648336669921875,0.19391221429407596,0.004458294583112001,0.006824658388271928
1691217816245376800,2.658376708984375,0.18972528399825095,0.00814913019137457,0.01727464940054342
1691217816255417900,2.66841796875,0.18553484657108782,0.0036497364128939805,0.017643309182999653
1691217816265458000,2.6784580078125,0.19047054940760136,0.011310462032817303,0.014626984435971825
1691217816275498000,2.688498046875,0.19495733943283558,0.011371562836598605,0.01265197630226612
1691217816285538800,2.698538818359375,0.19435645093023776,0.011258996707061306,0.00623110380875878
1691217816295579000,2.708578857421875,0.1986941878736019,0.014869287025555967,0.007085757009871303
1691217816305618700,2.71861865234375,0.1980962219804525,0.010820002501597627,0.008393350743409246
1691217816315689700,2.728689697265625,0.19630173977911472,0.009021063320850953,0.0036714185217395423
1691217816325729800,2.738729736328125,0.18896774362921714,0.0039163331935182216,0.005140915685566142
1691217816335771100,2.748771240234375,0.18926760335862636,0.003467274251766503,0.012460709780175237
1691217816345811200,2.758811279296875,0.1919587421387434,0.010960013760486617,0.010221589083876461
1691217816355851300,2.768851318359375,0.187466691416502,0.006407912547234445,0.0136347767945379
1691217816365891300,2.778891357421875,0.19659224715828894,0.00042556846830993887,0.011262038047518581
1691217816375932200,2.78893212890625,0.19599428126513957,-0.0016066588785033672,0.0005093925605528057
1691217816385972200,2.79897216796875,0.199587337321043,0.0007199574381578713,0.002105995835922658
1691217816396012000,2.809011962890625,0.19091069439053535,0.0006335395300295204,0.003370462813787162
1691217816406053000,2.81905322265625,0.19181085810065268,0.009288564283773303,0.008889755958225578
1691217816416093200,2.82909326171875,0.19345862530767916,0.006177903183642775,0.010253701255191117
1691217816426133200,2.83913330078125,0.19226093995571136,0.0135993218886666,0.013777774594957009
1691217816436173300,2.84917333984375,0.19136252981126306,0.017994405909301712,0.010354567813780158
1691217816446214100,2.859214111328125,0.1940548376351595,0.0032748112864326683,0.006716923697479069
1691217816456284200,2.8692841796875,0.19300211371183396,0.011613500100001692,0.01180898613948375
1691217816466325200,2.8793251953125,0.19599077413380145,0.00812250704593025,0.009468067302834242
1691217816476365000,2.889364990234375,0.19449264453053472,0.005318838668894022,0.007133249413408338
1691217816486405000,2.899405029296875,0.1977829182475805,0.006812282963888719,0.005182252342952415
1691217816496446200,2.9094462890625,0.19239771807789802,0.0027277992623858153,0.004506846432574093
1691217816506486300,2.919486328125,0.19150164602100847,-0.001468702579382807,0.008710526933800429
1691217816516526300,2.9295263671875,0.1934481039136648,0.0009997150944545865,0.014117938935291022
1691217816526566100,2.939566162109375,0.19389584768116472,0.012174458451010286,0.012580217107152566
1691217816536607200,2.949607177734375,0.19210019643604753,0.0029427297878544777,0.008629926845105364
1691217816546647000,2.95964697265625,0.18746376880705357,-0.0002678845554124564,0.008673437193268909
1691217816556687000,2.96968701171875,0.1859673927694559,0.004518683000840246,0.01137477770699188
1691217816566728200,2.979728271484375,0.19404840789437292,-0.001403245260892436,0.005463873162772507
1691217816576768300,2.989768310546875,0.1910562403410673,0.004039201521361247,0.0028070476442109793
1691217816586808300,2.999808349609375,0.1921060416549444,0.0032638149683829397,0.010273246205877513
1691217816596848000,3.00984814453125,0.19390403098762035,0.001066889445995912,0.012477176857786253
1691217816606919200,3.019919189453125,0.1961497640877962,0.005813417252805084,0.005518672089930623
1691217816616959000,3.029958984375,0.1922591863900423,0.0012671247258316724,0.006808858030941337
1691217816627000000,3.04,0.1841764176994562,0.005231945836730301,0.010320318484306335
1691217816637040000,3.0500400390625,0.19090543369352816,0.005401237989030778,0.01350002623265609
1691217816647080200,3.060080078125,0.1941933693230152,-0.001818986454932019,0.007404768964322283
1691217816657121300,3.070121337890625,0.1985328598320484,-0.004777196939708665,0.010234201970277353
1691217816667161300,3.080161376953125,0.19479308878183363,-0.0038914727468974887,0.012388429995253681
1691217816677201200,3.090201171875,0.1835714375436306,0.00643670025030151,0.011113085430348292
1691217816687241000,3.100240966796875,0.1877624594926834,0.005582905565714463,0.010970507755037396
1691217816697282000,3.110281982421875,0.18312427829802036,0.004530948827369138,0.0016368165547493844
1691217816707322000,3.120322021484375,0.18896248293220996,0.0016276377344503997,0.01080824813172221
1691217816717362200,3.130362060546875,0.1925555389881134,-0.0010972937174141407,0.01222869112258777
1691217816727403300,3.1404033203125,0.1968950294971466,0.0051209597429260605,0.008109693230129777
1691217816737443300,3.150443359375,0.19659633881151675,-0.0035611539471428837,0.010308226187713444
1691217816747514400,3.160514404296875,0.1962982326477766,0.009881771803414449,0.015172069364413619
1691217816757554200,3.17055419921875,0.19764730916917322,0.006336884004482999,0.007170430485485121
1691217816767594000,3.180593994140625,0.1814882015287876,0.0034556934118270873,0.009752912126202136
1691217816777635000,3.190635009765625,0.19390753811895847,0.004152178642852232,0.011196443731710314
1691217816787675100,3.200675048828125,0.18986673829555512,0.008541344379354268,0.00954615577403456
1691217816797715200,3.210715087890625,0.1852262190133333,0.011592932236008345,0.006487727184640244
1691217816807755300,3.22075537109375,0.19644494764208792,0.0010342932174913584,0.012250555894523858
1691217816817796400,3.23079638671875,0.19823709175586698,0.0004294409258291125,0.00818518788544461
1691217816827836200,3.240836181640625,0.19060498944222926,0.002075728561822325,0.004490068827709183
1691217816837876000,3.2508759765625,0.18895839127898215,0.0070345108798239376,0.008875243375683203
1691217816847917000,3.2609169921875,0.19150281506478786,0.005917516948096454,0.009628454629471525
1691217816857957000,3.27095703125,0.1898579704672098,0.000739228394208476,0.008593549490626901
1691217816867997200,3.2809970703125,0.19644553216397762,0.009904120632540434,0.009663471143925562
1691217816878037200,3.291037353515625,0.19046236610114572,0.0037719562867656346,0.008563273083372042
1691217816888108300,3.3011083984375,0.18762100519537925,0.0007677421026397496,0.009956490140594541
1691217816898148000,3.311148193359375,0.19046353514492512,0.006689469434972852,0.006781641230452805
1691217816908189200,3.321189208984375,0.1949514942139387,0.01397733402135782,0.0058254730167798694
1691217816918229000,3.33122900390625,0.19525252298712728,0.011980305852089077,0.0017061097981408238
1691217816928269000,3.34126904296875,0.19270926824510096,0.013279670613398775,0.011451304408768192
1691217816938310100,3.35131005859375,0.19465280352830885,0.0021151929225306956,-0.00119122821171768
1691217816948350200,3.36135009765625,0.19240940851569174,-0.00018248956059105693,0.004311972314445301
1691217816958390300,3.371390380859375,0.1974959179997444,0.0009434457294177263,0.009392928840545937
1691217816968430300,3.381430419921875,0.1957014357984066,0.0033339758614543825,0.012479396214336157
1691217816978471200,3.39147119140625,0.1841770022213459,0.003982502898061647,0.014377220059139653
1691217816988511000,3.401510986328125,0.18806465730965136,0.0010052497860975563,0.008901948719518259
1691217816998551000,3.411551025390625,0.1867167498320341,0.0025513101843185723,0.005951592747634276
1691217817008592100,3.421592041015625,0.18910919792652128,0.006224062146618962,-0.0019206841305829583
1691217817018632200,3.431632080078125,0.19584405913949013,0.0017839516741689294,-0.000891258884454146
1691217817028703200,3.441703125,0.1931529203593731,-0.005602377451164648,-0.0004124623915646225
1691217817038743300,3.451743408203125,0.1888163524597883,-0.002295545324962586,0.010319834427116438
1691217817048783000,3.461783203125,0.18987024542689324,-0.0032430370418354867,0.01571613137954846
1691217817058824000,3.471823974609375,0.19436463423669337,0.0004525934725534171,0.010575014764582738
1691217817068864000,3.481864013671875,0.1948164696574211,0.010475700842263177,0.010958543322607874
1691217817078904000,3.491904052734375,0.1930214029341936,-0.0003754457162693143,0.0021820932794362306
1691217817088944000,3.501944091796875,0.19152385785281656,0.007382977257622406,0.00648480457519181
1691217817098985200,3.511985107421875,0.18882862741947173,0.014229966208711265,0.013077800498902796
1691217817109025300,3.522025390625,0.19586042575240134,0.0021247096695471554,0.005832496412610634
1691217817119065300,3.5320654296875,0.19181787236332892,0.010996226718183606,0.006395701519632712
1691217817129105200,3.542105224609375,0.18238894976079462,0.015005498892161994,0.005210108464257792
1691217817139146000,3.55214599609375,0.1901683515906334,0.0062436253636144095,0.013193928558705374
1691217817149186000,3.56218603515625,0.19405892928838728,0.0003426028925925493,0.009660658132331445
1691217817159226000,3.57222607421875,0.189717685213685,0.004217882556514814,0.009073926019249483
1691217817169297200,3.582297119140625,0.19121464577317238,0.0034732016690541055,0.006307265184354037
1691217817179337200,3.592337158203125,0.18822130917608737,0.0059887007544748485,0.0004059321860782802
1691217817189378300,3.60237841796875,0.17999065644741058,0.0010124010460916906,0.00424914534445852
1691217817199418000,3.612418212890625,0.1790969224780798,0.005030696776742115,0.0021577351563144475
1691217817209458200,3.622458251953125,0.18553484657108782,0.0043211328684352335,0.0038247733193915337
1691217817219499000,3.6324990234375,0.18569032939374447,0.00858901944598183,0.004665717655560001
1691217817229539000,3.6425390625,0.18973346730470655,0.006859473973326384,0.004683317244332284
1691217817239579100,3.6525791015625,0.18584288960695267,0.009870327960792928,0.0013717998098582028
1691217817249619200,3.662619140625,0.19197744683921336,0.008994184447079896,0.00854975601467304
1691217817259660300,3.672660400390625,0.1933224317073822,0.007612383833015337,0.0015169530347455293
1691217817269700400,3.682700439453125,0.19601298596560954,0.009734116094186902,0.0072470850514248005
1691217817279740200,3.692740234375,0.18673253192305564,0.00334442419023253,0.005469590517506003
1691217817289781000,3.702781005859375,0.18553309300541876,0.0020307295094709843,0.005771587405074387
1691217817299821000,3.712821044921875,0.20244038866460323,0.0031673231908120212,0.006126109064323827
1691217817309861000,3.722861083984375,0.20139000282883643,0.0050409259098116305,0.009232605445990338
1691217817319932200,3.73293212890625,0.18911971932053565,0.0075625168093014505,0.007002818833617493
1691217817329972200,3.74297216796875,0.19076690200567245,0.003581740077445283,0.008669829597231
1691217817339984600,3.752984619140625,0.18657646457850932,0.010878472956875338,-0.0015986217025201767
1691217817350025700,3.763025634765625,0.18807751679122447,0.0015913151788990944,0.008864210525015369
1691217817360065500,3.7730654296875,0.1774532469242811,-0.006844915725011378,0.013685931593040004
1691217817370105600,3.783105712890625,0.19137246668338775,0.006581780409952625,0.011900281152129173
1691217817380146400,3.793146484375,0.19466683205366134,0.009234112416487186,0.005187659170432016
1691217817390186500,3.8031865234375,0.18464520425498485,0.008401862843427806,0.000026878873771056532
1691217817400226600,3.8132265625,0.17686872503459453,0.004238094227481633,0.006239405846223235
1691217817410266600,3.8232666015625,0.18166063548624514,0.002632184267649427,0.0057787660645321004
1691217817420307700,3.8333076171875,0.1918371615856886,0.00614137969869189,0.0006913889307994395
1691217817430347500,3.843347412109375,0.1897410660892725,0.009391211807494982,0.005743210693961009
1691217817440387600,3.8533876953125,0.18600012599527835,0.012542086187005043,0.0076864628493785855
1691217817450428400,3.863428466796875,0.1871960577815771,0.01609892015205696,0.008426705023739486
1691217817460498700,3.873498779296875,0.18839198956787584,0.01121197922755964,0.007267159725073725
1691217817470539500,3.88353955078125,0.1888385642915964,0.008218176839593798,0.010259838735032827
1691217817480579600,3.89357958984375,0.18808803818523884,0.006622952670557424,0.012758587615052237
1691217817490619600,3.90361962890625,0.19602000022828578,0.0029203900918830183,0.010536673781881108
1691217817500660700,3.91366064453125,0.19003508059978483,0.0033854411872103808,0.0028656642299611118
1691217817510700500,3.923700439453125,0.19587211619019507,0.002635810129996389,0.007100507054431364
1691217817520740600,3.93374072265625,0.1892915687561035,0.0006709489309694618,0.005519073948729783
1691217817530780700,3.94378076171875,0.18824585909545422,0.0003984521325211972,0.01044501344305463
1691217817540821500,3.953821533203125,0.18360943146646022,0.006194059733999893,0.00672999324160628
1691217817550861600,3.963861572265625,0.18570552696287632,0.006911916546616703,0.005178790877386927
1691217817560901600,3.973901611328125,0.1930389385908842,0.0021743300980888304,0.0010072042811661958
1691217817570941400,3.98394140625,0.19363865804970262,0.007756833805004134,0.0010160269084386526
1691217817580982500,3.993982421875,0.18555881196856497,0.00752257752455771,0.005428582653682679
1691217817591022600,4.004022705078125,0.19169103111326694,0.01115085102431476,0.007068815008224919
1691217817601093600,4.01409375,0.19617840566039085,0.015078655459918081,0.010453799537708983
1691217817611133700,4.0241337890625,0.20081658685505388,0.004127281663613393,0.0027624321843497455
1691217817621173500,4.034173583984375,0.19527648838460443,0.008070950388628989,0.004008669385779649
1691217817631214600,4.044214599609375,0.18434768261313436,0.010314190137619151,0.006644835708802565
1691217817641254700,4.054254638671875,0.18524258562624454,0.004414948631729931,0.00781935024773702
1691217817651294500,4.06429443359375,0.1865858169287443,0.004505558657785878,0.002601697797840461
1691217817661335600,4.07433544921875,0.19810732789635657,0.011855894021131097,0.004575737817166373
1691217817671375600,4.084375732421875,0.19242285251915453,0.011817260777484625,0.004489493438974023
1691217817681415700,4.094415771484375,0.19871055448651312,0.004464368130872026,0.001728814820293337
1691217817691455500,4.10445556640625,0.19168167876303194,0.0021785222160164265,0.006123926240392029
1691217817701496600,4.11449658203125,0.18973931252360343,-0.003048491717269644,0.005579060507658868
1691217817711536600,4.12453662109375,0.18345570220947263,0.0026313440174330024,0.0052139169896952805
1691217817721576400,4.134576416015625,0.18689853613972662,0.0035442758775781837,0.01648011975567788
1691217817731617500,4.144617431640625,0.1860018795609474,0.005748389192577451,0.007479021510621533
1691217817741687600,4.1546875,0.1924374655663967,0.0032757246018853036,0.0011721307856030763
1691217817751728600,4.164728759765625,0.19542846407592296,0.008156482380768285,0.007948913177847862
1691217817761768700,4.174768798828125,0.1891431001961231,0.007799092910997569,0.008063397269835695
1691217817771808500,4.18480859375,0.18539982201457023,0.005299677310697734,0.0059345411481335755
1691217817781848300,4.194848388671875,0.1816542057454586,0.004685216940473765,0.008549564218427985
1691217817791889400,4.204889404296875,0.1925724901229143,0.001693250316567719,0.006669212098233401
1691217817801929500,4.214929443359375,0.19376959095299243,0.00583641453590244,-0.00044554267725907266
1691217817811969500,4.224969482421875,0.18359306485354898,0.003953413800895214,0.003589165332075208
1691217817822010600,4.2350107421875,0.1895791535258293,-0.003032170770131051,0.002308021214045584
1691217817832050700,4.24505078125,0.18748539611697196,-0.0027850641412660478,0.010053100649174302
1691217817842090500,4.255090576171875,0.1840460693180561,0.004045558196911588,0.0017118271528743206
1691217817852130600,4.265130615234375,0.18973522087037561,0.0014035466549918055,0.00833138228994794
1691217817862171600,4.275171630859375,0.19782032764852045,-0.0004722754205577075,0.011824138042842968
1691217817872211500,4.28521142578125,0.19677403346598146,0.004851504284935072,0.0065449281314387915
1691217817882251500,4.29525146484375,0.1909387514412403,0.007142117706453427,0.006029726884607225
1691217817892322600,4.305322509765625,0.19512685078084469,0.008352562075294554,0.006738697137869894
1691217817902362600,4.315362548828125,0.19916648156046865,0.005090893398225307,0.004351856800261885
1691217817912403500,4.325403564453125,0.18405249905884266,0.011079037030274047,0.009754674825025721
1691217817922443500,4.335443603515625,0.18509820871949195,0.00548675171486102,0.011009040533984079
1691217817932483300,4.3454833984375,0.18763970989584922,0.011472301531024277,0.006084142219275236
1691217817942524400,4.3555244140625,0.18778642489016054,0.00900950074722059,0.006051756053324788
1691217817952564500,4.365564453125,0.18165069861412048,0.011134036886831745,0.009381959921959787
1691217817962604500,4.3756044921875,0.18224924902915954,0.005367390518356115,0.010050543365906923
1691217817972644600,4.38564453125,0.17985387832522393,0.012358637645188719,0.0019401286165695636
1691217817982685400,4.395685546875,0.1823953795015812,0.008920918281469493,0.007049525785865262
1691217817992725500,4.4057255859375,0.18493746519982815,0.005810065385093912,0.007151040798425674
1691217818002765600,4.415765625,0.20667349618971348,0.016247909301845356,0.04084196007135324
1691217818012806700,4.425806640625,0.042163317468762396,-0.09294451515180989,-0.19924049664475021
1691217818022846500,4.435846435546875,0.16379530844986437,-0.5282392633093521,-0.42121593565624205
1691217818032917500,4.44591748046875,0.1904120972186327,-0.27138006937801834,-0.12979102151198313
1691217818042957600,4.45595751953125,0.21969781293570995,-0.29883400309067215,-0.3005991495996713
1691217818052997600,4.46599755859375,0.26479776837825775,-0.27626174047235397,-0.454701989139989
1691217818063037700,4.47603759765625,0.19944237589240074,-0.1999811041452922,-0.373401898949407
1691217818073078500,4.48607861328125,0.27009119861125946,-0.14345245798458345,-0.5574876426907256
1691217818083118300,4.496118408203125,0.20623452025055883,-0.14374961430025285,-0.3131614017918706
1691217818093158400,4.506158447265625,0.22401041543781755,-0.3414070704041049,-0.2720137824379839
1691217818103199500,4.516199462890625,0.14083353505730628,-0.21486186241293326,-0.17817893085032702
1691217818113239600,4.526239501953125,0.192054603728652,-0.34631946543026715,0.02620253627891652
1691217818123279600,4.536279541015625,0.17568799081742761,-0.5831782199926674,-0.15500773422447964
1691217818133319700,4.546319580078125,0.06936462812721729,-0.4142704638998955,-0.09612663405295462
1691217818143360500,4.556360595703125,0.15120996764302252,-0.36132637082822616,-0.24875655149649828
1691217818153400600,4.566400634765625,0.16978607329726217,-0.21436710116593166,-0.28398599631516264
1691217818163440400,4.5764404296875,0.20567922445535658,-0.10448737943470478,-0.31864235395360735
1691217818173511400,4.586511474609375,0.3740519238233566,-0.4388222098976373,-0.20577862970922142
1691217818183551500,4.596551513671875,0.2999789718747139,-0.8074347922112792,-0.06454782069632783
1691217818193592600,4.606592529296875,0.1708171699106693,-0.347262445368804,-0.0005847410853952169
1691217818203632600,4.616632568359375,0.1265805532991886,-0.38515517284628004,0.104880123345647
1691217818213672700,4.626672607421875,0.05737140799462795,-0.4481952741270885,0.18047398298494516
1691217818223712500,4.63671240234375,0.2568991240829229,-0.5584074974820018,0.32130824869461355
1691217818233753300,4.64675341796875,0.20509236447811124,-1.0946010442640632,0.1552389126318507
1691217818243793400,4.65679345703125,0.2149374666661024,-0.7217409605737776,0.1287134554083459
1691217818253833500,4.66683349609375,0.1998784292221069,-0.5899666380237788,-0.11693725729361176
1691217818263874600,4.67687451171875,0.10549977134764194,-0.5824092814467847,-0.20593067846577615
1691217818273914600,4.68691455078125,0.23243805204331874,-0.3669974387345835,-0.2114391396889463
1691217818283954700,4.69695458984375,0.1409410870850086,-0.3642272433688864,-0.20084290860639883
1691217818293994800,4.706994873046875,-0.008383212941884995,-0.14958552651265636,-0.10630189977707341
1691217818304035600,4.71703564453125,0.30429274342060086,-0.09190691573238,0.2001213711325079
1691217818314106400,4.7271064453125,0.052426352807879446,-0.777154439433664,0.16830016385475172
1691217818324146400,4.737146484375,0.1252829147040844,-0.35407837246134877,0.16197337198602035
1691217818334186500,4.7471865234375,0.2882265747606754,-0.1670840660632588,0.3551467323452234
1691217818344221000,4.757220947265625,0.20781506744027137,-1.1424044865116476,0.3689915716938674
1691217818354261800,4.76726171875,0.20676818873584268,-0.5157954498650505,0.1582764171642251
1691217818364301800,4.7773017578125,0.3891746741533279,-0.5740883200861513,0.5829892732918263
1691217818374342000,4.787341796875,0.06660393124222755,-0.7099472085360438,0.15324580258587375
1691217818384383000,4.797383056640625,0.2525380062639713,-0.5571690782608464,0.47953415951430794
1691217818394423000,4.807423095703125,0.33684067580401894,-0.7609813032679259,0.3767028036583215
1691217818404462800,4.817462890625,0.03531213639974594,-0.9029992988694459,0.2228838956259191
1691217818414503000,4.8275029296875,0.2775362539201975,-0.8100334304023533,0.3237675149476155
1691217818424543700,4.837543701171875,0.08686170637309551,-1.0282366208661347,0.28777676690025256
1691217818434583800,4.847583740234375,0.12174655727148055,-0.988426734655723,0.1282378189869225
1691217818444624000,4.857623779296875,0.3292278627127409,-0.9867525178331881,0.3152868329806253
1691217818454695000,4.86769482421875,0.08703238676488399,-1.058857676840201,0.3177959297247231
1691217818464735000,4.87773486328125,0.27254794411361216,-1.1024302035197615,0.5045918822728097
1691217818474776000,4.887776123046875,0.10649988830089568,-1.0442623113851994,0.6835623288270085
1691217818484816000,4.89781591796875,0.10247603961229323,-1.1186902873165905,0.6883467866245657
1691217818494856000,4.90785595703125,0.2141185514986515,-1.1142718863524497,0.8815024834629148
1691217818504896000,4.91789599609375,0.12122048757076263,-1.3124839897975324,0.8679810308497399
1691217818514936800,4.927936767578125,0.13140285888910294,-1.0108920297682285,0.8154098627436905
1691217818524977000,4.937976806640625,0.2728349443614483,-1.3314730601668356,0.8684742942593991
1691217818535017000,4.948016845703125,0.05770516999363899,-1.2154631468512118,0.7626689640939235
1691217818545058000,4.95805810546875,0.2757604764193296,-1.2909632089935243,0.8515484400302171
1691217818555097900,4.968097900390625,0.17257716532051562,-1.510546309508383,0.7886082919925451
1691217818565138000,4.978137939453125,0.11790683297812939,-1.4556987209029495,0.8620213187277317
1691217818575178000,4.988177978515625,0.19406477450728415,-1.5561960077881811,0.9744115802414715
1691217818585218800,4.99821875,0.10331599756777286,-1.596614089024812,0.9789416248865425
1691217818595289900,5.008289794921875,0.16817630001306533,-1.7804215272814035,1.0827566580176353
1691217818605330000,5.018329833984375,0.06348141530752181,-1.4592266027681529,1.0715223664935678
1691217818615370000,5.028369873046875,0.18622341335713863,-1.900629330678284,1.0592089014306665
1691217818625409800,5.038409912109375,0.16775778234004973,-1.6824838617511093,1.0858238635685293
1691217818635451000,5.048450927734375,0.21171616653203962,-1.6142391775645315,1.1123596960555762
1691217818645491000,5.058490966796875,0.17849311136603355,-1.8700035985291004,1.1764128468364476
1691217818655531000,5.068531005859375,0.17710370283424853,-1.8661643126271663,1.227881606658548
1691217818665571800,5.07857177734375,0.2288011568456888,-1.7690962695382535,1.1533121033646165
1691217818675612000,5.08861181640625,0.08806348337829112,-1.7839223750092088,1.2802175047039985
1691217818685652000,5.09865185546875,0.17452245416939258,-2.060317203809321,1.2863998466007411
1691217818695691800,5.10869189453125,0.1090174240797758,-2.0642320391654967,1.491529182088375
1691217818705732900,5.11873291015625,0.11996142742037773,-2.055972744864225,1.4804415324933826
1691217818715773000,5.12877294921875,0.11474106242358684,-2.142643897101283,1.5131252200856804
1691217818725813000,5.13881298828125,0.13570435547530652,-2.486815061923861,1.3420933845110237
1691217818735853000,5.14885302734375,0.24829613091051578,-2.4521318710774183,1.4916773583874106
1691217818745924000,5.158924072265625,0.09720423668920994,-2.5890248518154024,1.3832296970196067
1691217818755965000,5.16896484375,0.1723947944909334,-2.7805682911515235,1.6422770851776003
1691217818766005000,5.1790048828125,0.21836744111478326,-2.7144071352407333,1.4847522352993487
1691217818776044800,5.189044921875,0.10089432337880135,-2.6803169418513773,1.5268088775232433
1691217818786084900,5.1990849609375,0.1251291854470968,-2.7846865401253105,1.94876324698925
1691217818796126000,5.2091259765625,0.1578250018686056,-2.7088790194690224,1.8457801346376537
1691217818806166000,5.219166015625,-0.05586743317246437,-2.732021702386439,1.707272266048938
1691217818816206000,5.2292060546875,0.1619774453729391,-2.9952675651475786,2.0232433184340595
1691217818826247000,5.239246826171875,0.12451719102859496,-2.8441777167528866,1.744239330048859
1691217818836287000,5.249286865234375,0.08601531867682934,-2.9628482275798915,1.9574922046288847
1691217818846326800,5.259326904296875,0.2248591412216425,-3.061408555053174,1.9581193966165185
1691217818856366800,5.269366943359375,0.10393149911761283,-2.7407313708037138,1.988913178808987
1691217818866408000,5.279407958984375,0.20204408282339573,-2.9983824822977185,2.1138120626315473
1691217818876448000,5.289447998046875,0.28559739530086514,-3.4676495148196813,2.2798645023584365
1691217818886519000,5.29951904296875,0.04852642275989055,-2.856384579636156,2.343727025938034
1691217818896559000,5.30955908203125,0.0761877521455288,-3.2127053241968153,2.408010843669623
1691217818906599000,5.319598876953125,0.13438976574540137,-3.7040649460613726,2.270289303153008
1691217818916639700,5.3296396484375,0.018247604352235793,-2.9309660656288266,2.521333125336468
1691217818926679800,5.3396796875,-0.06891805340349674,-2.618789290960133,2.1431283196173605
1691217818936720000,5.349719970703125,0.30891631156802174,-3.7981846607387064,2.130851460237801
1691217818946760000,5.359760009765625,0.27641397189199923,-3.812228675921261,2.208243181345612
1691217818956801000,5.369801025390625,0.15948329046964643,-3.211450647960603,2.2931309572972354
1691217818966841000,5.379841064453125,0.20223872861266134,-3.932784269842505,2.4464346823491154
1691217818976881200,5.389881103515625,-0.009786649999022482,-3.783201318879425,2.486996555970609
1691217818986922000,5.399921875,0.1877712273210287,-3.717933896937966,2.9503622554942965
1691217818996961800,5.4099619140625,-0.08289923248291015,-3.8409789695873853,2.8510262674733995
1691217819007001900,5.420001953125,0.04384147981405258,-3.931408305314183,2.990305558826029
1691217819017042000,5.4300419921875,0.09393208315074443,-3.8288361118510363,3.0049820266932246
1691217819027113000,5.440113037109375,-0.016245032358169556,-4.09182332367599,2.8023478690221904
1691217819037154000,5.450154052734375,0.16926292620599268,-3.9274961003065108,2.7704619076788424
1691217819047194000,5.460194091796875,0.2733089916139841,-4.142371607652306,2.8642358776584267
1691217819057234000,5.47023388671875,0.1191390051215887,-4.235429830577969,2.7772540520370006
1691217819067273700,5.480273681640625,0.3442190956175327,-4.2219525093674655,3.2180522381827235
1691217819077314800,5.490314697265625,0.09087678723335266,-4.560635305906832,3.2460587277442214
1691217819087355000,5.50035498046875,-0.08449906889498233,-4.376760209241509,3.4829239485800265
1691217819097395000,5.51039501953125,0.09166413821876049,-4.6011982024416325,3.423882561546564
1691217819107436000,5.52043603515625,-0.06607669249773025,-4.852153031167387,3.4978418239876627
1691217819117476000,5.53047607421875,-0.06402852779626846,-4.751094749398529,3.534014668869972
1691217819127516000,5.540515869140625,0.13466566007733344,-4.630535356085002,3.4302217014402148
1691217819137555700,5.5505556640625,0.07881926969289779,-4.628078902843594,3.394082758827507
1691217819147596800,5.5605966796875,0.09012450756132602,-4.756863103666901,3.4409143603682515
1691217819157636900,5.570636962890625,0.36970600357353683,-5.434505760121345,3.6476577069237828
1691217819167708000,5.5807080078125,0.07914367934167385,-5.0907326547056435,3.809673438480496
1691217819177748000,5.590748046875,0.11243570809066294,-4.771737432193756,3.900390943498909
1691217819187788000,5.6007880859375,0.1170955165952444,-5.372378097510338,3.7864293410152197
1691217819197829000,5.6108291015625,0.04627952061593532,-5.167666841304302,4.04596173621118
1691217819207869000,5.620868896484375,0.11983809330165386,-5.213793217185139,3.995704251874983
1691217819217908700,5.63090869140625,-0.07203998481631278,-5.441955491605401,4.13381333040446
1691217819227948800,5.64094873046875,0.059070028606057166,-5.528593326094747,4.2388609740704295
1691217819237990000,5.650989990234375,0.1003945571631193,-5.510547966316342,4.176537788887321
1691217819248030000,5.661030029296875,-0.14133622388243675,-5.89302811126709,3.841540987384319
1691217819258070000,5.671070068359375,0.17258768671452998,-5.66773350123763,4.231600335417688
1691217819268111000,5.681111083984375,0.04272036682963371,-5.189138668400049,4.044124583911896
1691217819278151000,5.69115087890625,0.179083478474617,-6.0446197717040775,4.083681810535491
1691217819288190700,5.701190673828125,0.19706103371381758,-6.010051731669902,4.507536168403924
1691217819298230800,5.711230712890625,0.0282031811773777,-5.764847721555829,4.398718066288531
1691217819308301800,5.7213017578125,0.018985855498909947,-6.141230134153366,4.712689323158562
1691217819318343000,5.731343017578125,-0.07116320198178291,-5.924158578068018,4.636520567974448
1691217819328383000,5.741383056640625,0.12932020739614963,-6.027523090952634,4.924983874100446
1691217819338448100,5.7514482421875,-0.014593758019804953,-6.131869600611925,4.404442289154232
1691217819348488200,5.76148828125,0.12235095290541648,-6.238236217921972,4.678311252738535
1691217819358529000,5.771529052734375,0.0028039515048265454,-6.248536662662029,4.676643319526314
1691217819368569000,5.781569091796875,0.09869009133279323,-6.512707239052653,4.654274251329898
1691217819378609200,5.791609130859375,0.0941337432026863,-6.448481142857671,4.990291335791349
1691217819388649000,5.80164892578125,-0.017244564789533613,-6.684153939038515,4.7311441405206915
1691217819398690000,5.81168994140625,0.02376198385953903,-6.69600512035191,4.90364181086421
1691217819408730000,5.821730224609375,0.0964998878121376,-7.026106258767843,4.806786826004088
1691217819418770200,5.831770263671875,0.1499567527115345,-6.927717780730128,5.079816123893857
1691217819428811000,5.84181103515625,0.11464812344312666,-7.411676770949363,5.321400774466991
1691217819438851000,5.85185107421875,-0.044103345620632166,-7.213928924015164,5.5266947989970445
1691217819448922000,5.861922119140625,-0.08310089253485202,-7.168064998462796,5.508768097162246
1691217819458962200,5.871962158203125,-0.06639058075249195,-7.346963183498382,5.666047740107774
1691217819469002000,5.882001953125,-0.024402035328745842,-7.562725410550832,5.6689288485020395
1691217819479043000,5.89204296875,0.053066404277086254,-7.534824427190423,5.745837900659442
1691217819489083100,5.902083251953125,0.0026034604966640473,-7.6686799399286505,5.765209540605545
1691217819499123200,5.912123291015625,0.03026888153553009,-7.7106392592579125,5.824776412817836
1691217819509163300,5.922163330078125,0.07383622058331966,-7.663359621688723,5.805069841828942
1691217819519204000,5.9322041015625,0.053635728597640986,-7.9156977214664215,5.835404189816117
1691217819529244200,5.942244140625,0.07323533208072185,-7.672192916485667,6.082295130103827
1691217819539284000,5.952283935546875,0.147115391805768,-7.84759098444581,6.224317582684755
1691217819549325000,5.962324951171875,0.002395370703935623,-8.049756063300372,6.155425248244405
1691217819559365000,5.972365234375,-0.11661270151436329,-7.961837541350722,6.520174506193399
1691217819569405200,5.9824052734375,-0.11227145743966102,-8.311819438278675,6.298387027502059
1691217819579445200,5.9924453125,-0.22034254058003425,-8.250404307851195,6.207608439946174
1691217819589516300,6.002516357421875,0.04503098185956478,-7.987408620458841,6.193726045066118
1691217819599556000,6.01255615234375,-0.10594751511514186,-8.16949069622755,6.197948046675324
1691217819609597200,6.02259716796875,0.26230361347496506,-8.716600262364745,6.094542032736539
1691217819619637000,6.032636962890625,0.09395487950444222,-8.60575445381403,6.377414971509576
1691217819629677000,6.042677001953125,0.05289806197285652,-8.598792213585972,6.40478403995037
1691217819639718100,6.05271826171875,0.07154957095086574,-8.979550941571592,6.4879907309472555
1691217819649758200,6.06275830078125,-0.008754384341835975,-8.703138723245262,7.018095386269688
1691217819659798300,6.07279833984375,0.011029343536496162,-8.986448299869894,7.040407755842804
1691217819669838000,6.082838134765625,-0.23258009086251258,-8.886485119861364,7.09578828228116
1691217819679879200,6.092879150390625,-0.275761645463109,-9.130427731737495,7.333412212529778
1691217819689919000,6.1029189453125,-0.10634382095634937,-9.029664925783871,7.065328846609592
1691217819699959000,6.112958984375,-0.136335639116168,-9.087329179245232,6.823472393357753
1691217819710000000,6.123000244140625,0.09673545013368129,-9.499194993156195,6.8685513060122725
1691217819720040200,6.133040283203125,0.1798544628471136,-9.461147878834606,6.776784876462817
1691217819730080000,6.143080078125,0.14180793304741382,-9.57568728120625,7.185465046074986
1691217819740151000,6.153151123046875,0.0589595539689064,-9.94189901292324,7.324255677127837
1691217819750190800,6.16319091796875,-0.05380582446753979,-9.563969370883703,7.61161189879477
1691217819760232000,6.17323193359375,-0.12053659695982932,-9.920111544007062,7.804443916636705
1691217819770272000,6.18327197265625,-0.050445992645621295,-10.725803657269477,7.952341983252763
1691217819780312000,6.19331201171875,-0.31507424967586994,-9.710988316577673,8.242179500341415
1691217819790352100,6.20335205078125,-0.21139584853649138,-9.780193370229005,7.742769258490204
1691217819800393200,6.213393310546875,-0.046446693876385683,-10.672453175354002,7.745584315910935
1691217819810433000,6.22343310546875,-0.09173661893308162,-10.508539208960533,7.779948942327499
1691217819820473000,6.23347314453125,0.11965572247207164,-10.128963553279638,7.9057240244627
1691217819830514200,6.24351416015625,-0.03467559206187725,-10.125756866192818,7.721096355864405
1691217819840554000,6.253553955078125,0.18305881184637546,-10.761631341975926,8.501794313123822
1691217819850594000,6.263593994140625,0.06039338616430759,-10.90254437201023,8.403014789941906
1691217819860634000,6.273634033203125,-0.5295318238705397,-10.25012675770521,8.249744967159629
1691217819870675200,6.28367529296875,0.04101414743363857,-10.862658936345577,9.211752262249588
1691217819880745200,6.2937451171875,-0.3526642678797245,-11.08675176936984,8.18685274991691
1691217819890786000,6.3037861328125,-0.28415011910200116,-9.384117830646037,8.614113701358438
1691217819900825900,6.313825927734375,-0.014490297645330429,-10.836380001229047,7.826344782799482
1691217819910866000,6.323865966796875,-0.02717617621719837,-11.864542314749956,8.17642780201435
1691217819920907000,6.333906982421875,0.3492927456200123,-10.581457145655154,8.563328686016797
1691217819930947000,6.343947021484375,-0.08744096756577491,-11.48946163240075,8.360590775710344
1691217819940987100,6.353987060546875,-0.24701661249399184,-11.126392874884605,8.15464325570762
1691217819951027200,6.364027099609375,0.23483400726914405,-11.456202336877583,9.433546170681714
1691217819961068000,6.374068115234375,-0.08603051624596118,-11.89543546566367,8.904978223407268
1691217819971108000,6.384108154296875,-0.4112438826203346,-12.011846507126092,9.011811873707174
1691217819981148000,6.39414794921875,-0.2956424039751291,-12.061074940675496,9.381873266589642
1691217819991189000,6.40418896484375,-0.20402678107321262,-11.811291201555727,9.171044988808035
1691217820001229000,6.41422900390625,-0.12896949426233767,-11.690645883524418,8.916563447260856
1691217820011269000,6.42426904296875,0.01623568000793457,-12.215189982110262,8.992975655812025
1691217820021340200,6.434340087890625,0.05504734896123409,-12.179862648141384,9.044635700422525
1691217820031380200,6.444380126953125,0.14195464804172514,-12.972466147249936,9.533324641773104
1691217820041420000,6.454419921875,-0.1365191789895296,-13.043939145833253,9.462031091409921
1691217820051460900,6.4644609375,-0.056444356277585025,-12.172640295672416,10.37308795146346
1691217820061501000,6.4745009765625,-0.11930091768503188,-12.84176120749712,10.053960042482615
1691217820071541000,6.484541015625,-0.3555389465332031,-12.607823856806755,10.353397747087477
1691217820081582000,6.49458203125,-0.3255062118411064,-13.054381044870615,10.711860472112894
1691217820091622100,6.5046220703125,-0.3409919502645731,-13.104978428685664,9.800060684737563
1691217820101662200,6.514662109375,-0.28019758208394047,-11.793505369496344,10.46412139056325
1691217820111702300,6.524702392578125,-0.025090017592906952,-11.772487131386995,9.77400971315801
1691217820121743000,6.5347431640625,0.19986790782809255,-13.703140721189975,9.354547452768683
1691217820131783000,6.544782958984375,-0.012341010656952858,-13.322417064517735,9.9830423396945
1691217820141823000,6.554822998046875,0.24598317779302595,-12.431055085015297,10.88415648240447
1691217820151864000,6.564864013671875,-0.193610016477108,-13.011963460379839,10.338933168405294
1691217820161934000,6.57493408203125,-0.6818401081442833,-13.200434360402822,10.73977022330165
1691217820171975200,6.58497509765625,-0.3383183471411466,-13.158314882075786,11.126148544734717
1691217820182015200,6.59501513671875,-0.45874622302949425,-12.910305751413107,10.206253713709115
1691217820192055000,6.605054931640625,-0.42758594561219215,-13.388793032222985,10.013894574075938
1691217820202095900,6.615095947265625,0.065394555452466,-13.459455883467196,9.828296014618873
1691217820212136000,6.625135986328125,-0.005451835665106773,-13.83526604913473,9.807782803422212
1691217820222176000,6.635176025390625,0.08973989215791225,-14.349119242358206,9.921557651162146
1691217820232216000,6.645216064453125,0.25292963593006135,-14.581850139868259,10.942932496500015
1691217820242257200,6.655257080078125,-0.3306108415037393,-14.046239872866868,10.900899527412653
1691217820252297200,6.665297119140625,-0.013111410507559776,-15.219247879695892,11.569399676990509
1691217820262337300,6.675337158203125,-0.647302463248372,-14.826061047291756,11.463064623862504
1691217820272378000,6.685378173828125,-0.38766543863415714,-13.8426357011199,12.000319735461472
1691217820282418000,6.69541796875,-0.3191793469071388,-14.266430437755584,11.316841796982288
1691217820292458000,6.7054580078125,-0.3230558960795402,-15.064171884274481,11.346792698609828
1691217820302529000,6.715529052734375,-0.10018471380472183,-15.038914693421125,10.804397301512957
1691217820312569000,6.725569091796875,-0.013656184908747673,-13.794582156568765,11.879582062971592
1691217820322609200,6.735609130859375,-0.09083937783241272,-14.828841033399105,10.88514315535426
1691217820332650200,6.745650146484375,0.054100423499941826,-16.32031410138607,11.738678385287523
1691217820342666800,6.755666748046875,-0.4114572331100702,-14.795530299949645,11.888314820003508
1691217820352706600,6.76570654296875,0.07018295877277851,-14.862974773669242,12.17964286791086
1691217820362747400,6.775747314453125,-0.17949731997251508,-15.31835707322359,11.944855622392891
1691217820372787500,6.785787353515625,-0.3624976796299219,-15.195300017875432,12.445285854941606
1691217820382827500,6.79582763671875,-0.2367524081110954,-15.129464148396252,12.493279778259993
1691217820392867600,6.80586767578125,-0.5203174208015203,-15.053039080363511,12.142594701498746
1691217820402908700,6.81590869140625,-0.3812456347197294,-15.45063905303478,12.209202139872312
1691217820412948700,6.82594873046875,-0.1600824254065752,-15.575752456390857,12.089354109698533
1691217820422988500,6.835988525390625,-0.3159083624124527,-15.22883754581809,11.557792241305112
1691217820433029600,6.846029541015625,0.07206687282323837,-15.98216818820238,11.91662204607725
1691217820443099400,6.856099365234375,0.13069675644636153,-16.64719744679928,12.149039639854431
1691217820453140500,6.866140380859375,-0.2942968345850706,-15.832524739223718,12.678092740297316
1691217820463180500,6.8761806640625,-0.16124854657649992,-16.150288374114037,12.803838596338032
1691217820473220600,6.886220703125,-0.36877661376893517,-17.415796969985962,13.029869703948497
1691217820483260700,6.8962607421875,-0.5745382558107376,-16.137788958024977,13.556225820392369
1691217820493301500,6.906301513671875,-0.4032493767350912,-15.967181046950817,13.155712590622901
1691217820503341300,6.91634130859375,-0.19749416443407533,-17.368320933061838,13.487600612455605
1691217820513381400,6.92638134765625,-0.6528033987522125,-16.438156052434444,12.609834612107276
1691217820523422500,6.93642236328125,-0.10218787032067775,-14.687918651014565,13.211174365603924
1691217820533462500,6.946462646484375,-0.23247721500992774,-16.902416070449352,12.49839434479475
1691217820543502600,6.956502685546875,0.028205519264936446,-18.561517156916857,13.070317449671029
1691217820553542700,6.966542724609375,-0.3861000890135765,-15.459839427578448,13.720857579666376
1691217820563583500,6.97658349609375,-0.1381833128094673,-17.005953601813314,13.906356770402192
1691217820573623600,6.98662353515625,-0.668880673328042,-16.635329314351083,12.907449777460098
1691217820583694300,6.9966943359375,-0.34949615923762317,-17.206830394423008,14.205014722806215
1691217820593734400,7.006734375,-0.4734305819422006,-16.702944468462466,13.120737138831615
1691217820603774500,7.0167744140625,-0.34592648405730725,-16.696264552307127,13.322329386234284
1691217820613815600,7.026815673828125,-0.4900555535286665,-18.162431329602,13.002645012414455
1691217820623855600,7.036855712890625,-0.14876082092523574,-16.848064887058733,13.342248723191021
1691217820633895700,7.046895751953125,-0.19800386752188204,-18.08466303026676,13.09956107981205
1691217820643936500,7.0569365234375,-0.13030454225838184,-18.45450873457193,13.76540399287939
1691217820653976300,7.066976318359375,-0.26043138986229897,-17.822868535357713,13.853933340203762
1691217820664016400,7.077016357421875,-0.35799861464500427,-17.728945220035314,14.1973189076066
1691217820674056400,7.087056396484375,-0.3478694348186254,-19.08619101936221,14.186991574859618
1691217820684097500,7.09709765625,-0.5572065972596406,-18.60502078307867,14.359098200058936
1691217820694137600,7.1071376953125,-0.453427658355236,-18.45281479013562,14.971860680323838
1691217820704177700,7.117177734375,-0.15647358725965022,-18.930862510484456,15.196425807034968
1691217820714218500,7.127218505859375,-0.7092781501680612,-17.433410952609776,13.766512246382236
1691217820724258600,7.137258544921875,-0.17801029628515241,-17.51850681835413,15.001636225384473
1691217820734329300,7.147329345703125,-0.31840310183763504,-19.6129598082602,14.0176053145349
1691217820744369400,7.157369384765625,-0.12861410495340822,-19.040987603545187,14.506030636513232
1691217820754409500,7.167409423828125,-0.2514759299904108,-18.291431803524492,15.475561897367237
1691217820764449500,7.177449462890625,-0.15349603275358675,-18.87287092476487,14.917906971818208
1691217820774490600,7.18749072265625,-0.5695838482737541,-18.35183045038581,15.323173533594607
1691217820784530700,7.19753076171875,-0.7709101382166147,-19.18011667277217,15.284632498276233
1691217820794570500,7.207570556640625,-0.27167466841042043,-18.25568828997016,15.402773724532127
1691217820804611300,7.217611328125,-0.6967641210317611,-19.082682718980312,14.507667297804355
1691217820814651400,7.2276513671875,-0.43701311464905734,-18.79006287769675,14.87217164108157
1691217820824691500,7.23769140625,-0.00965045639872551,-19.19635702895522,14.528381584531068
1691217820834731500,7.2477314453125,-0.2276508177667856,-20.013234553098677,14.941908609652518
1691217820844772600,7.257772705078125,-0.36439562220573424,-19.706725302672385,15.374556514829397
1691217820854812700,7.267812744140625,-0.4639204107969999,-19.189985740357635,15.485337441450357
1691217820864852500,7.2778525390625,-0.5450263301223516,-20.126779099214076,15.553412029767035
1691217820874923500,7.287923583984375,-0.6027186406344175,-20.62556565620899,15.898006388437746
1691217820884963600,7.297963623046875,-0.33430911149978637,-20.025773716676234,16.103442451786993
1691217820895004400,7.30800439453125,-0.5811059437632561,-19.48162592295408,16.21632298103571
1691217820905044500,7.31804443359375,-0.5344131661713123,-18.83885525791645,15.385526821655034
1691217820915084500,7.32808447265625,-0.5737082347273826,-20.49389625533819,15.389972695147991
1691217820925125600,7.338125732421875,-0.4321557377457618,-21.178591168391705,15.945992128449678
1691217820935165700,7.348165771484375,-0.06930500689446925,-19.37291887999773,15.950565427714585
1691217820945205500,7.35820556640625,-0.20962357816696164,-20.71546278475523,15.842949102604388
1691217820955245600,7.36824560546875,-0.6278986745983361,-20.548829622530935,16.075690521508456
1691217820965286400,7.378286376953125,-0.13367138834297657,-20.510711781060696,16.832043142062425
1691217820975326500,7.388326416015625,-0.8023743670165538,-20.465076988089084,16.236524057543278
1691217820985366500,7.398366455078125,-0.6774585320591926,-20.78203982799053,16.675414656502006
1691217820995406600,7.408406494140625,-0.5229670585274696,-20.88571530652046,16.15363300836682
1691217821005447700,7.41844775390625,-0.5182575656622648,-20.268041673338413,16.04569285812974
1691217821015518700,7.428518798828125,-0.09855272868871688,-21.709316001439092,15.935552567499876
1691217821025558500,7.43855859375,-0.3444575805485248,-21.82674411098957,16.655213579994438
1691217821035598600,7.4485986328125,-0.4530184930324554,-20.86873143849373,16.822568042230603
1691217821045638700,7.458638671875,-0.21436463521420954,-21.674702953219413,16.933103469657897
1691217821055679500,7.468679443359375,-0.7325105571955443,-22.358930248761176,17.252917607337235
1691217821065719600,7.478719482421875,-0.6944459072172642,-21.436426112020015,17.39309881596565
1691217821075759600,7.488759521484375,-0.1820551877617836,-21.790646377170084,18.200396026337145
1691217821085800700,7.49880078125,-0.9831523744493722,-21.17703400207758,17.04610090328455
1691217821095840500,7.508840576171875,-0.48060149648487566,-19.922467655980586,17.081835064488647
1691217821105880600,7.518880615234375,-0.5297095185250044,-22.67138759393692,16.829861706370114
1691217821115920600,7.528920654296875,-0.4827285716414451,-22.033620436275005,17.14541000329852
1691217821125961500,7.53896142578125,-0.1251613341510296,-21.020134298360347,17.945473170763254
1691217821136001500,7.54900146484375,-0.6231845055580139,-21.99748061687946,16.59359094429612
1691217821146041600,7.55904150390625,-0.43805940883159633,-21.95218017042875,17.900547987365723
1691217821156112400,7.5691123046875,-0.635455958110094,-22.090092265081406,17.571560363149644
1691217821166152400,7.57915234375,-0.7434533914923668,-21.904600088608262,17.471591922444105
1691217821176193500,7.589193603515625,-0.8222229768246412,-22.629804706704615,17.420812167799472
1691217821186233600,7.599233642578125,-0.5217904159635305,-22.30495315937996,17.580562000250815
1691217821196273700,7.609273681640625,-0.400278836491704,-22.884899411714077,17.273359506863354
1691217821206313700,7.619313720703125,-0.6064806235164404,-23.12022091023922,17.81479394997358
1691217821216354600,7.6293544921875,-0.4156318884462118,-22.858324708521366,17.79543926116228
1691217821226394600,7.63939453125,-0.5283481670439243,-23.075341319549082,18.032489775437117
1691217821236434400,7.649434326171875,-0.6639362026631832,-23.44058566753864,18.47342386292219
1691217821246475500,7.6594755859375,-0.44042555344104767,-23.644193346416948,18.753557147598265
1691217821256515600,7.669515625,-0.7074333990842103,-23.649353505659104,18.82340985150337
1691217821266555600,7.6795556640625,-0.9918693493902683,-21.505986554980275,18.72532941650152
1691217821276595700,7.689595703125,-0.336792160487175,-22.09905181660652,18.130955994886158
1691217821286636500,7.699636474609375,-0.7573094828873872,-24.87557989245653,17.707509633296727
1691217821296707600,7.70970751953125,-0.6080535719215869,-22.474153541743753,19.269522802931068
1691217821306747400,7.719747314453125,-0.36628245886564254,-23.470181179857253,18.61278323377371
1691217821316787500,7.729787353515625,-0.7879846071362495,-22.71743155223131,18.102331957948206
1691217821326827500,7.73982763671875,-0.5778109938710928,-24.64167527499199,19.19838882704377
1691217821336868600,7.74986865234375,-0.6727659903287887,-22.721043897509574,18.748819013160468
1691217821346896000,7.759895751953125,-0.6617986061125993,-23.598698838698862,18.35896980074644
1691217821356936000,7.76993603515625,-0.6575894639849662,-25.146243922519684,18.921451708060502
1691217821366977000,7.77997705078125,-0.6103273620724677,-23.817873504543304,19.27057961850762
1691217821377017000,7.79001708984375,-0.7023018814146518,-24.400199930012224,19.067365907382964
1691217821387057000,7.800056884765625,-0.890917158344388,-24.750999573063847,19.372528419375417
1691217821397097000,7.810096923828125,-0.5778583401441574,-24.330772758042812,19.412935248565674
1691217821407137800,7.8201376953125,-0.5292161820501089,-24.523047726523874,19.21673930724859
1691217821417177900,7.830177734375,-0.6784960584133863,-24.61660396209955,19.698983894765377
1691217821427218000,7.840218017578125,-0.6466653343886136,-24.841623846840857,19.682591562891005
1691217821437289000,7.8502890625,-1.020208724167943,-24.03117957061529,19.688242720520496
1691217821447328800,7.860328857421875,-0.7213169630080462,-24.780141496396062,19.8835361600399
1691217821457369900,7.870369873046875,-0.5404045155405998,-24.233508315598964,19.59906689198613
1691217821467410000,7.880409912109375,-0.7997673993885517,-24.666094261455534,19.693914920938013
1691217821477450000,7.890449951171875,-0.7415314835190773,-24.5038333229661,19.705797081911562
1691217821487490000,7.900489990234375,-0.5034545488059521,-24.733571468400953,20.050068784499167
1691217821497531000,7.91053076171875,-1.0571563528150318,-25.013730472040177,19.553447296583652
1691217821507571000,7.920571044921875,-0.726117641288042,-24.611357293617726,19.880332980084418
1691217821517611000,7.930611083984375,-0.4454945272684097,-25.994109290122985,19.655263995504377
1691217821527652000,7.940652099609375,-0.8231564582824706,-25.824784989118573,20.293120000493523
1691217821537692000,7.95069189453125,-0.6523579930722713,-25.85116563104391,20.512818397951126
1691217821547732000,7.96073193359375,-0.856731395626068,-26.040906112611292,20.51377701385021
1691217821557772000,7.97077197265625,-1.0027776968955993,-26.09691733816862,20.611983705580233
1691217821567812900,7.980812744140625,-0.4745908578932285,-26.153903546237945,20.869152294254302
1691217821577884000,7.9908837890625,-0.9248737884819507,-25.72150698547363,20.691071855342386
1691217821587924000,8.000924072265626,-0.7712006455957889,-25.4230875180006,20.493699855983255
1691217821597963800,8.0109638671875,-0.9114484897196292,-26.427420043122765,20.42728180270195
1691217821608003800,8.02100390625,-0.767162768381834,-26.074972048342225,21.110398506653308
1691217821618045000,8.031044921875,-0.627149317535758,-25.42385908689499,20.84034237935543
1691217821628085000,8.0410849609375,-0.8230150039851665,-25.777843205201624,20.55078192564249
1691217821638125000,8.051125,-1.0233756637662648,-26.069229705297946,20.71319951599836
1691217821648164900,8.061164794921876,-0.6047744041204453,-25.930553056013583,21.242619696187973
1691217821658206000,8.0712060546875,-1.143056520679593,-25.899292825353143,20.400300272274016
1691217821668246000,8.08124609375,-0.912446853107214,-26.346054596078396,20.790499028778076
1691217821678285800,8.091285888671875,-0.5872855091810226,-27.078806560814378,20.931717179238795
1691217821688327000,8.101326904296876,-0.821650729894638,-26.799451859295367,21.064225953543186
1691217821698367000,8.111366943359375,-0.8326175295889378,-27.558322600150106,21.411848135602472
1691217821708407000,8.121406982421876,-0.867471985349059,-27.19948461207151,21.487784543335437
1691217821718478000,8.13147802734375,-0.8391144903928041,-27.52709276462793,21.63013666626215
1691217821728518000,8.141517822265625,-0.7628279540479183,-27.966349274289605,21.88077030020952
1691217821738559000,8.15155908203125,-1.0257301179379223,-27.11662980325222,22.129054156160354
1691217821748598800,8.161598876953125,-1.0284347007215022,-26.70095524470806,21.186512609040737
1691217821758638800,8.171638916015626,-0.8647165491610765,-27.923379901134965,21.552640754127502
1691217821768679000,8.181678955078125,-0.7793658318728208,-27.83031232585907,21.678885791862008
1691217821778720000,8.191719970703126,-0.5580108993798494,-26.98415376217365,22.129140665400026
1691217821788760000,8.201760009765625,-1.0388292534857988,-27.5031717908144,21.350426575434206
1691217821798800000,8.2117998046875,-0.7807792058020829,-27.549772213947772,22.223807492566106
1691217821808841000,8.221841064453125,-0.8759060516953467,-27.609776893055436,22.21030036073923
1691217821818881000,8.231881103515626,-1.1288169829249382,-26.95836465640068,21.59755307804346
1691217821828920800,8.2419208984375,-0.6473387036055326,-28.40390599429607,22.179049482429026
1691217821838961000,8.2519609375,-0.8537035722374916,-28.318364722871777,22.342722625803948
1691217821849002000,8.262001953125,-0.8652928877443075,-28.207272830605504,22.712421030592918
1691217821859042000,8.2720419921875,-1.0667027643173932,-28.548907170426844,22.764936815249918
1691217821869113000,8.282113037109376,-0.9196616067916155,-28.427770854008195,22.764801206171512
1691217821879153000,8.29215283203125,-0.7614204253375529,-28.870548523533344,22.927822023117542
1691217821889192700,8.302192626953126,-0.9046259502232075,-28.59106288911104,23.139802393543718
1691217821899233800,8.31223388671875,-1.1374252367943525,-28.226704676306245,22.538981695485113
1691217821909273900,8.32227392578125,-0.9951958634644746,-29.039919586288928,23.06704578489065
1691217821919314000,8.33231396484375,-0.9967641356945037,-28.7320916544795,22.747688743329046
1691217821929354000,8.34235400390625,-0.6952309201151132,-28.29023752954006,23.19254263460636
1691217821939395000,8.35239501953125,-1.1149351725667715,-28.50948935227394,22.300821758663652
1691217821949435000,8.362434814453126,-0.995890859991312,-28.815486561524867,23.078792336785792
1691217821959475000,8.372474853515625,-1.0022048654437063,-28.6951335044384,23.09163311365843
1691217821969516000,8.38251611328125,-1.2511428013890982,-28.06501890735626,22.42524075001478
1691217821979555800,8.392555908203125,-0.7401566880345344,-29.402290424668788,22.67687040926218
1691217821989596000,8.402595947265626,-1.0039286204963922,-29.534895060563084,23.12171027201414
1691217821999636000,8.412635986328125,-0.7731178773939609,-29.221558594465254,23.49860998648405
1691217822009707000,8.42270703125,-1.253960781419277,-29.894476560485362,23.572189601957795
1691217822019748000,8.432748046875,-1.0730769755244254,-29.436281541597843,24.089486798155306
1691217822029788000,8.442787841796875,-1.0344447547912596,-29.977628306424617,23.995486325943467
1691217822039827700,8.45282763671875,-1.3380693896919489,-28.654633151745795,23.778385543763637
1691217822049867800,8.46286767578125,-1.0834645140260457,-29.517198075830933,23.308605301022528
1691217822059908900,8.472908935546876,-0.9736854579240083,-30.726917564463612,23.50368129839897
1691217822069949000,8.482948974609375,-1.037592405167222,-29.217305613195894,24.166664730381964
1691217822079989000,8.492989013671876,-0.930822467753291,-29.697120927739142,23.538060537862776
1691217822090030000,8.503030029296875,-1.182947217041254,-29.758844101202484,23.5316378113389
1691217822100070000,8.51306982421875,-1.3052677748084067,-30.132851601362226,23.97659224038124
1691217822110109700,8.523109619140625,-1.2298843247830866,-29.43399255387783,23.565614899742602
1691217822120149800,8.533149658203126,-1.2733359284967183,-29.762538279545307,23.143564376425743
1691217822130190800,8.54319091796875,-0.9257178380906581,-30.776800662529467,23.636292948555944
1691217822140231000,8.55323095703125,-1.0132973373442888,-30.06835311796665,23.62178979142904
1691217822150302000,8.563302001953126,-1.0621703815847634,-31.000899340772627,24.01103227012157
1691217822160342000,8.573342041015625,-1.1315841095507144,-30.546272243499754,24.193281519150734
1691217822170382000,8.583382080078126,-1.0260837536811829,-31.126739889359474,24.778759686648844
1691217822180423000,8.5934228515625,-1.3136597555786371,-30.70916914180517,24.601469521331786
1691217822190462700,8.603462646484376,-1.4927011484771966,-29.83050882296562,24.554731151032446
1691217822200502800,8.613502685546875,-1.0400760386765002,-30.884899802720543,24.02834113231897
1691217822210542800,8.62354296875,-1.1800596789062023,-31.575339396905896,24.371796842348573
1691217822220584000,8.633583984375,-0.8637503344774246,-30.57427551819086,24.795563521933556
1691217822230624000,8.6436240234375,-1.050499817535281,-30.89371673090458,24.516409895944594
1691217822240664000,8.6536640625,-1.3069453526318073,-31.179477792334556,24.59061144270897
1691217822250705000,8.663704833984376,-1.2154752756804228,-31.346094587945935,25.237922673785686
1691217822260744700,8.67374462890625,-1.377068105649948,-30.550873599815368,24.28787820369005
1691217822270784800,8.68378466796875,-1.0405915869832039,-31.601661586642262,24.59030281515121
1691217822280824800,8.693824951171875,-1.1797504668265582,-31.94294521332979,24.551174919855594
1691217822290896000,8.703895751953125,-0.8429302492886781,-31.70434103987217,25.300253750014303
1691217822300936000,8.71393603515625,-1.520621421059966,-31.85896578439474,25.00733814065456
1691217822310977000,8.72397705078125,-0.9542653026610612,-31.637336126613615,25.319292797005176
1691217822321017000,8.73401708984375,-1.3097054649949074,-32.17558726351261,25.370913094127175
1691217822331057000,8.744056884765625,-1.177690027165413,-31.19436907199621,25.469493879866597
1691217822341100000,8.75410009765625,-1.5755816762596369,-31.67723792889118,24.93264793359041
1691217822351140000,8.76414013671875,-1.1667191358178852,-32.39256646513939,25.417616393113136
1691217822361180000,8.774179931640624,-1.1055898365944623,-31.462077759385107,25.48493461010456
1691217822371220000,8.784219970703125,-0.9766226804196834,-31.593810288619995,25.365904910576344
1691217822381260800,8.7942607421875,-1.3685218111008406,-32.03095550521612,25.278394969427584
1691217822391300900,8.80430078125,-1.3249182316958903,-32.175070546162125,26.152472636651993
1691217822401341000,8.8143408203125,-1.4897165797084568,-31.46815444895029,25.303884799993035
1691217822411382000,8.824382080078125,-1.2913929787129164,-32.24352039753198,25.38689392259121
1691217822421422000,8.834422119140624,-1.1574819363951683,-33.01526464848518,25.51065123516321
1691217822431492900,8.844492919921874,-1.000273605120182,-32.43429665188789,25.969673937046526
1691217822441533000,8.854532958984375,-1.5039906042546034,-33.28379634269476,25.985376533091067
1691217822451573000,8.864572998046874,-1.1571288851737975,-32.68977480325699,26.540389419698712
1691217822461613800,8.87461376953125,-1.523724647772312,-33.029244073998925,26.157590710318086
1691217822471654000,8.88465380859375,-1.5934282985955477,-31.606022119939325,26.068881330251692
1691217822481694000,8.89469384765625,-1.163504265424609,-33.14232334069013,25.404948634719847
1691217822491734000,8.904734130859374,-1.366286599394679,-33.176709594416614,25.86074945194721
1691217822501775000,8.914775146484375,-1.263815820479393,-32.290413081610204,26.201698732113837
1691217822511815000,8.92481494140625,-1.2183259889364242,-32.56070769383907,25.812902828145024
1691217822521855000,8.93485498046875,-1.5748767428606747,-32.82755128883123,25.931076787626743
1691217822531895800,8.944895751953124,-1.538982422658801,-32.933361441302296,26.334118659090993
1691217822541935900,8.954935791015625,-1.4762375049322842,-32.175944990909095,25.819767453217505
1691217822551976000,8.964975830078124,-1.369919402939081,-33.07591463975906,25.664111612081527
1691217822562016000,8.97501611328125,-1.126100125181675,-33.821619609570504,26.275446689891815
1691217822572086800,8.985086669921875,-1.2979869701504707,-33.14974209251404,26.497008543133735
1691217822582126800,8.995126953125,-1.5104647687047719,-33.95460301564932,26.446124743592737
1691217822592168000,9.00516796875,-1.285914255040884,-33.98751627421379,27.336185577368735
1691217822602208000,9.0152080078125,-1.6977116798907517,-33.616613754332064,26.79977919155359
1691217822612248000,9.025248046875,-1.6346359227746725,-32.941904813241955,26.61156080498695
1691217822622289000,9.035288818359374,-1.3071551959902048,-34.504275710272786,26.168525945830343
1691217822632329000,9.045328857421875,-1.2215747615993022,-33.901025739240644,26.668217342710495
1691217822642369000,9.055369140625,-1.212351006180048,-33.766931741571426,26.563566881668567
1691217822652408800,9.065408935546875,-1.4476894558399915,-33.97901732593775,26.68767490737438
1691217822662450000,9.075449951171874,-1.61104812643826,-33.97627942540645,26.962664399421215
1691217822672490000,9.085489990234375,-1.6568103451818226,-33.830511356556414,26.896419364619252
1691217822682530000,9.095530029296874,-1.5592109716951845,-33.53700654913187,26.47411165167093
1691217822692571000,9.10557080078125,-1.187415886887908,-34.23573700180054,26.576010183656216
1691217822702611000,9.11561083984375,-1.1663327668488026,-34.448400093793865,26.82029590988159
1691217822712682000,9.125681884765624,-1.2961889808177947,-34.51869235816002,27.419297575819492
1691217822722721800,9.1357216796875,-1.611639078068733,-34.27471058331728,27.565042263793945
1691217822732761900,9.145761962890624,-1.4208271678775548,-34.660322012031074,27.724235631406305
1691217822742802000,9.155802001953125,-1.6818594462424517,-34.0792113920927,27.734415664637087
1691217822752843000,9.165843017578124,-1.5370879872143268,-34.254605368399616,27.01204247057438
1691217822762883000,9.175883056640625,-1.586778777578473,-34.95245202397108,27.482519463407993
1691217822772923000,9.1859228515625,-1.26467915931046,-34.75764256857634,27.176931419479846
1691217822782964000,9.1959638671875,-1.2131634916067122,-34.532215856599805,27.77001538580656
1691217822793004000,9.206004150390624,-1.5130612149387597,-34.76764490715265,27.13909882469177
1691217822803043800,9.2160439453125,-1.647456825903058,-35.09175528072119,28.090041120409964
1691217822813084000,9.226083984375,-1.8581652766972778,-34.57432948970794,27.361977021229265
1691217822823125000,9.236125,-1.5320938321888447,-34.624977142405506,27.424897295522687
1691217822833165000,9.2461650390625,-1.2165268305599688,-35.46042492698431,27.175979817843437
1691217822843204900,9.256204833984375,-1.3043401385694742,-35.352748980641366,27.748593827593325
1691217822853276000,9.26627587890625,-1.5534019931554794,-35.43690142805576,27.96543040587902
1691217822863315700,9.276315673828124,-1.4518161803811789,-35.41982871270179,28.468360054028032
1691217822873356800,9.286356689453125,-1.8298773398458956,-35.291109978330134,28.204121088576315
1691217822883396900,9.29639697265625,-1.7567010444760323,-34.150726476252075,28.18439932001829
1691217822893437000,9.30643701171875,-1.4121516939908265,-35.52482754878998,27.25995223251581
1691217822903478000,9.31647802734375,-1.5209721341937779,-35.5577548358798,28.128687369668484
1691217822913517800,9.326517822265625,-1.4652777195006608,-34.84675643779039,27.97159828085899
1691217822923558000,9.336557861328124,-1.5581372049838305,-35.279344721734525,28.072009789156912
1691217822933597700,9.34659765625,-1.7799363741129637,-35.50331480516195,28.04256625252962
1691217822943639000,9.35663916015625,-1.81271110098958,-35.50902675306797,28.4075884822011
1691217822953678800,9.366678955078125,-1.651496456682682,-34.925517255294324,27.709316294693945
1691217822963719000,9.376718994140624,-1.4169634781867264,-35.918294951701164,27.841766616809366
1691217822973760000,9.386760009765625,-1.342000299400091,-36.361025859475134,28.021291993832588
1691217822983799800,9.3967998046875,-1.576921984952688,-36.1020359005928,28.58346878072023
1691217822993870800,9.406870849609374,-1.5652666184723376,-36.364049006688596,28.544661203420162
1691217823003911000,9.416910888671875,-1.7626415404409168,-36.596034054267406,29.13615293211937
1691217823013950700,9.42695068359375,-2.0609885271996258,-35.39070783215761,28.343676858782768
1691217823023990800,9.43699072265625,-1.5288339536100626,-36.07186288064718,28.015937773323056
1691217823034031900,9.447031982421874,-1.3817442807674407,-36.87043902442455,28.277396752667425
1691217823044072000,9.457072021484375,-1.3943506643623114,-35.64577681820393,28.36895859955549
1691217823054112000,9.467112060546874,-1.4081412893056868,-36.542569006061555,28.566435812854767
1691217823064152800,9.47715283203125,-1.863572104176879,-36.075398069036005,28.75682862085104
1691217823074193000,9.48719287109375,-1.9037118068635464,-36.43255497215986,29.066985287868974
1691217823084232700,9.497232666015625,-1.8502414979606865,-35.61460543487072,28.495061013948916
1691217823094272800,9.507272705078124,-1.4667249956995247,-36.341631423175336,28.456344622063636
1691217823104313900,9.51731396484375,-1.261473056745529,-36.80642452515364,28.60056020077467
1691217823114354000,9.52735400390625,-1.4504665193378925,-36.91289869449138,29.30189528298378
1691217823124394000,9.53739404296875,-1.8113544256836174,-36.664416101098055,29.271439354443547
1691217823134434800,9.547434814453124,-1.5802917536467314,-37.13492816524506,29.762334865927695
1691217823144505000,9.557505126953124,-2.021559603130817,-36.50620239217281,29.344177258396147
1691217823154546000,9.5675458984375,-1.6819827803611755,-36.57704176902771,28.886849669992923
1691217823164585700,9.577585693359374,-1.7702093453466892,-37.29181617852449,28.881895262455938
1691217823174625800,9.587625732421875,-1.4606155729085206,-37.20535837677717,28.92993828561306
1691217823184667000,9.5976669921875,-1.3994067787081002,-36.76431556822061,29.24926259394884
1691217823194707000,9.60770703125,-1.7276695957809685,-37.133656245613096,28.777237787151336
1691217823204747000,9.6177470703125,-1.8379226991355417,-37.3270511580348,29.785124205362795
1691217823214787000,9.627787109375,-1.9764280835062265,-36.71057462568283,29.02650130178928
1691217823224828000,9.637827880859374,-1.6712041967153548,-36.73504505007267,29.09215713852644
1691217823234867700,9.64786767578125,-1.4054191708654165,-37.75774325296879,28.864123458921906
1691217823244907800,9.65790771484375,-1.4487252286285162,-37.485963955140114,29.902956804060935
1691217823254947800,9.66794775390625,-1.7886410740941763,-37.381512231540675,29.595414118933675
1691217823264989000,9.677989013671874,-1.6370774707078932,-37.86738085477352,30.66813804323673
1691217823275029000,9.688029052734375,-2.2262813807308675,-36.77387600824833,29.680349825680253
1691217823285100000,9.69810009765625,-1.7137439462810753,-36.80345281586647,29.906641630053517
1691217823295140000,9.70814013671875,-1.5247867240458726,-37.93401635019779,29.077672686100005
1691217823305180000,9.718179931640625,-1.753713553097844,-37.41807056860924,30.08413754707575
1691217823315220700,9.728220703125,-1.4880951159864664,-37.24649235119819,29.590260973954198
1691217823325260800,9.7382607421875,-2.0332395195305346,-37.63742760528326,29.63279780091047
1691217823335300900,9.74830078125,-2.0069670141547915,-37.85400933202505,30.009367845034596
1691217823345343700,9.75834375,-1.9638842437535524,-37.26727561150789,29.519323397421836
1691217823355383800,9.7683837890625,-1.7136054145932196,-37.34950147477388,29.299442629134653
1691217823365423600,9.778423583984376,-1.4472066407591104,-38.38504045454263,29.270901594305037
1691217823375463700,9.788463623046875,-1.6260007808983326,-38.235353750944135,29.95007628263235
1691217823385504800,9.7985048828125,-1.8156699507951735,-38.170184236419196,29.915325287246702
1691217823395544800,9.808544921875,-1.807953677329421,-38.547420635497566,30.79249858239889
1691217823405585000,9.8185849609375,-2.377196164819598,-37.46390409902334,29.84961099832058
1691217823415625700,9.828625732421875,-1.721439761480689,-37.70531631563902,29.738201126146315
1691217823425696000,9.838696044921875,-1.5476725095927715,-38.87987798165083,29.515238758456704
1691217823435736800,9.84873681640625,-1.5450596967458725,-37.516429236030575,30.08939356790781
1691217823445776600,9.858776611328125,-1.489753989109397,-38.473976629102225,29.765762502288815
1691217823455816700,9.868816650390626,-2.1247703867584464,-38.335054480624194,30.38122664272785
1691217823465856800,9.878856689453125,-2.045672884646058,-38.515365455067155,30.78037559840679
1691217823475897900,9.88889794921875,-2.018670895951986,-37.7121692502737,30.16749504472017
1691217823485938000,9.89893798828125,-1.7872621869564056,-38.15887958307266,29.953747080099582
1691217823495978000,9.90897802734375,-1.3439075943261385,-39.11518778973818,30.102196935379503
1691217823506018800,9.919018798828125,-1.5182149444401263,-38.83724295501709,30.67981211441755
1691217823516058600,9.92905859375,-2.086150440984964,-38.9152111608386,30.70356942210197
1691217823526098700,9.9390986328125,-1.573302040889859,-39.07476927011013,31.49590521018505
1691217823536138800,9.949138671875,-2.324198149603605,-38.199286412262914,30.466134292423725
1691217823546179800,9.959179931640625,-1.8252561097860336,-38.755468342649934,30.365163981199263
1691217823556220000,9.969219970703126,-1.8697949242144822,-39.10579335392713,30.31067017446756
1691217823566291000,9.979291015625,-1.5552841536402702,-38.736871194207666,30.278023457884785
1691217823576331000,9.9893310546875,-1.5864759952396152,-38.83274447455406,30.520144115030764
1691217823586370800,9.999370849609376,-1.975733086979389,-38.87622121270895,30.373221030926704
1691217823596411600,10.00941162109375,-1.9963409907221792,-39.10187004300356,31.227558224892615
1691217823606451700,10.01945166015625,-2.1626842300891873,-38.37674258179664,30.353258439350128
1691217823616491800,10.02949169921875,-1.7562831113249062,-38.61694366905689,30.68432462340593
1691217823626532900,10.039532958984376,-1.450312790080905,-39.58146090114116,30.36188832052946
1691217823636573000,10.049572998046875,-1.7499609225660562,-39.36283100969791,31.445168710160253
1691217823646613000,10.059613037109376,-1.923237176066637,-39.24957872452735,31.39045512319803
1691217823656652800,10.06965283203125,-2.067665520745516,-39.40564139289856,31.90411659324169
1691217823666693600,10.079693603515626,-2.157282078784704,-38.29403741058111,31.000349890196322
1691217823676733700,10.089733642578125,-1.8327777374625205,-39.44075479185581,30.791039615762234
1691217823686773800,10.099773681640626,-1.7321236525803803,-39.38447702431679,31.059145778036115
1691217823696814800,10.10981494140625,-1.8293682212799787,-39.08710502007008,30.72946140372753
1691217823706884900,10.119884765625,-1.897738577672839,-39.484121639895434,31.22898445830345
1691217823716926000,10.129926025390626,-2.1514362753659486,-39.31208515732288,30.805902838373182
1691217823726966000,10.139966064453125,-2.2399907571315762,-39.60786258585453,31.27760498908758
1691217823737005800,10.150005859375,-2.007746181833744,-38.751937830436226,30.440560290706156
1691217823747045600,10.160045654296875,-1.6453917100667952,-39.51348801963329,30.634499977529046
1691217823757086700,10.170086669921876,-1.51481361156404,-40.184790367150306,30.664803930377957
1691217823767126800,10.180126708984375,-1.9930904644936323,-39.844448989748955,31.497721904218196
1691217823777166800,10.190166748046876,-1.785192979466915,-39.8988095254898,31.890179253304
1691217823787208000,10.2002080078125,-2.596099027985334,-39.63950158669948,31.518320455610752
1691217823797248000,10.210248046875,-2.1400211473822592,-38.90395093115568,31.22307377295494
1691217823807287800,10.220287841796875,-1.6752262918382883,-40.412824046754835,30.59597764691114
1691217823817327600,10.23032763671875,-1.6494266646713018,-39.42940103867054,31.47531834923029
1691217823827368700,10.24036865234375,-1.5816531051278113,-39.930602840113636,30.85708825120926
1691217823837408800,10.25040869140625,-2.124922362449765,-40.20998092250824,31.698989157450196
1691217823847479800,10.260479736328126,-2.2599504260987042,-40.14482309842109,31.97713272961378
1691217823857519900,10.270519775390625,-2.2774212008595467,-39.83145389909744,31.70560360715389
1691217823867560000,10.280559814453126,-2.078722336810827,-39.35594300374984,31.145998716580866
1691217823877601000,10.29060107421875,-1.4737234762847422,-40.59923976781368,31.281020935010908
1691217823887640800,10.300640869140626,-1.5631009648710488,-40.74347171313762,31.53098353782892
1691217823897680600,10.3106806640625,-2.1296733563691377,-40.481348716926576,32.06877874765396
1691217823907720700,10.320720703125,-1.8807827666968107,-40.5224429438591,32.63424756182432
1691217823917761800,10.33076171875,-2.3930536591649054,-39.68715648732185,31.66251966770887
1691217823927801900,10.3408017578125,-2.0793296550542113,-40.32889605574608,31.548748327100274
1691217823937842000,10.350842041015625,-1.9602567009061573,-40.45290821986198,31.496153047466276
1691217823947883000,10.360883056640626,-1.6849691026955842,-39.96299938132763,31.31667677028179
1691217823957922800,10.3709228515625,-1.8169833714812993,-40.571421202039716,31.598594015765187
1691217823967962600,10.380962646484376,-2.128964331316948,-40.206889970755576,31.69266229251623
1691217823978002700,10.391002685546875,-2.170378291723132,-40.55277261567115,32.32583277003765
1691217823988073700,10.40107373046875,-2.3694810603976246,-39.883018082118035,31.53233027626276
1691217823998114800,10.41111474609375,-1.8146978908926248,-40.1309769438982,31.873186032927034
1691217824008155000,10.42115478515625,-1.5772650993019341,-40.98584254565239,31.43972564232349
1691217824018195000,10.43119482421875,-2.004342510870099,-41.07469922523498,32.44987532929182
1691217824028234800,10.44123486328125,-1.9447744696140288,-40.804608026623725,32.90265066121817
1691217824038275800,10.45127587890625,-2.344976733738184,-40.627619474601744,32.515914612388606
1691217824048315600,10.461315673828125,-2.2415748114526273,-40.10859209361076,32.230658577871324
1691217824058355700,10.471355712890626,-1.9488351431816815,-41.11864591898918,31.672730096077917
1691217824068396800,10.481396728515625,-1.8574135815471409,-40.57353015701771,32.23778506875038
1691217824078436900,10.491436767578126,-1.8254221140027045,-40.941863118672366,31.542503295230862
1691217824088477000,10.501476806640625,-2.2212147449910637,-40.889924841642376,32.37309954812527
1691217824098516700,10.511516845703126,-2.2100901243865487,-40.89262299468517,32.021617183506486
1691217824108557800,10.521557861328125,-2.473387425073981,-40.87828116559982,32.098689901793
1691217824118597600,10.53159765625,-2.0373124680578707,-40.30436951725483,31.70765410994291
1691217824128668700,10.541668701171876,-1.6136930879890918,-40.91039246013164,31.695708820605276
1691217824138708700,10.551708740234375,-1.7739800960570573,-41.769003678154945,31.932980284154414
1691217824148748800,10.561748779296876,-2.024505008932948,-41.14436955831051,32.80141614609956
1691217824158790000,10.571789794921875,-2.236151617360115,-41.24775043780804,33.244111982560156
1691217824168829700,10.58182958984375,-2.590406953823566,-40.46217172276973,32.25134597659111
1691217824178869800,10.591869873046875,-2.060113497930765,-41.160100211405755,32.24308551324606
1691217824188909800,10.601909912109376,-1.8016297350049018,-41.41880492360592,32.21331230627298
1691217824198950700,10.61195068359375,-1.72505619841218,-40.5281385251522,32.102704398131365
1691217824208990700,10.62199072265625,-1.8954191948145627,-42.026852650308605,32.26665343583822
1691217824219030800,10.63203076171875,-2.389988426375389,-41.213726587653156,32.92905234593153
1691217824229072000,10.64207177734375,-2.3913901098668573,-41.5990293888092,32.995601332116124
1691217824239112000,10.65211181640625,-2.359505025306344,-40.80036673579216,32.305208499681946
1691217824249151700,10.66215185546875,-1.8882763373225926,-41.16852200279236,32.38345961409807
1691217824259191800,10.67219189453125,-1.4803507854700089,-42.05490502483845,32.13340114969015
1691217824269262800,10.682262939453125,-2.116957082659006,-41.969050449681276,32.788715654480455
1691217824279303700,10.6923037109375,-2.0524153446435927,-41.77681289060116,33.5874461120367
1691217824289343700,10.70234375,-2.3187574198544025,-41.2242433054924,32.98606193487644
1691217824299383800,10.7123837890625,-2.495144498851895,-40.91934733548164,32.57031957179308
1691217824309423600,10.722423583984375,-1.9438783975571392,-42.1499529602766,32.196134376978875
1691217824319464700,10.732464599609376,-1.9965695387810467,-40.94595944807529,32.82243789134025
1691217824329504800,10.7425048828125,-1.7076655031502246,-41.7082835442543,31.932080120444297
1691217824339544800,10.752544921875,-2.268830482646823,-41.71503126494884,32.979057024550436
1691217824349571600,10.762571533203126,-2.2869646897524594,-41.602503786921496,33.02858473330736
1691217824359611400,10.772611328125,-2.553614807999134,-41.4666234903574,32.740866692590714
1691217824369651500,10.7826513671875,-2.1180004542320967,-41.11818765382767,32.65743671423196
1691217824379691500,10.79269140625,-1.5772440565139054,-42.002471073246,32.593043444776534
1691217824389732600,10.802732666015626,-1.9816367580652237,-42.48031537997722,32.8023209859848
1691217824399772700,10.812772705078125,-2.2032646622806786,-42.222602016901966,33.845236632001395
1691217824409843500,10.822843505859375,-2.3279437658727167,-41.900427579832076,33.7118557510376
1691217824419883500,10.832883544921875,-2.2799457509011027,-41.21354421682358,32.77431303511858
1691217824429923600,10.842923583984375,-2.2758903380304574,-42.554227003884314,32.75555923480987
1691217824439964400,10.85296435546875,-1.8571014468580482,-41.78533755784034,33.09902897336483
1691217824450004500,10.86300439453125,-1.9531302100270986,-41.95976356589794,32.32201233496666
1691217824460044500,10.87304443359375,-2.2925556416273114,-42.4695087392807,33.12107947713137
1691217824470084400,10.88308447265625,-2.2703777120888233,-41.944734339070315,33.094553873777386
1691217824480125700,10.893125732421876,-2.525033441159129,-42.05076193368435,33.00263897566795
1691217824490165500,10.90316552734375,-2.2062287727832794,-41.671687797784806,32.633548473644254
1691217824500205600,10.91320556640625,-1.7328841155588626,-41.97796323945522,32.84293356688023
1691217824510246400,10.923246337890625,-1.7724059786081312,-42.72615125825405,32.74079421187639
1691217824520286500,10.933286376953125,-2.2718974690020084,-42.58227937841415,33.64585387734174
1691217824530326500,10.943326416015625,-2.148826385128498,-42.35725715558529,34.46107019027471
1691217824540366600,10.95336669921875,-2.7398142559587955,-41.52416382517814,33.07457959176302
1691217824550407700,10.96340771484375,-2.143975437965989,-42.39778088915348,33.17729645439386
1691217824560477400,10.9734775390625,-2.006465494373441,-42.6558870509386,33.17042481505871
1691217824570518500,10.9835185546875,-1.789928191295266,-41.49274928073883,33.047340871703625
1691217824580558600,10.99355859375,-1.9602812508255243,-43.30305098249912,32.97927680478096
1691217824590598700,11.0035986328125,-2.5493197411537167,-42.42533291294575,33.87792777224779
1691217824600639500,11.013639404296875,-2.4394524222463367,-42.64178838295936,33.910817649936675
1691217824610679600,11.023679443359375,-2.472831544756889,-41.87109393332004,33.04683116861582
1691217824620719400,11.03371923828125,-2.003999396520853,-42.322527202987665,33.29641967742443
1691217824630759400,11.043759521484375,-1.605579924160242,-43.035929155087466,32.928573037981984
1691217824640800500,11.053800537109375,-2.239456504124403,-43.10740916793346,33.63311130014658
1691217824650840600,11.063840576171875,-2.1731039172947404,-42.78414050588608,34.58309030379057
1691217824660880600,11.073880615234375,-2.447141807705164,-41.95390431847572,33.5519048430562
1691217824670921500,11.08392138671875,-2.5459353594124314,-42.249588223505015,33.247457785856724
1691217824680961500,11.09396142578125,-2.1057997288286683,-43.18899907138347,33.17700185536146
1691217824691001600,11.104001708984375,-2.016728529712558,-41.76273292732238,33.469908112370966
1691217824701072400,11.114072265625,-1.92433198556602,-42.96942459256649,32.83743672302961
1691217824711112400,11.124112548828125,-2.496517540770769,-42.69001845312118,33.80934464988708
1691217824721153500,11.134153564453126,-2.4061568863660097,-42.73856182701587,33.90147932822704
1691217824731193600,11.144193603515625,-2.634408592635393,-42.31688305962086,33.318963517665864
1691217824741233700,11.154233642578125,-2.123437676849961,-42.33790246677398,33.459744445753095
1691217824751273700,11.164273681640625,-1.615667602932453,-43.26033412280083,33.24427798677683
1691217824761314600,11.174314453125,-2.2438351576000453,-43.54438838031292,33.75842811712026
1691217824771354400,11.184354248046875,-2.3201199403792616,-43.24802642989158,34.894121415555475
1691217824781394400,11.19439453125,-2.4370190576195716,-42.54159665489197,33.92529742618799
1691217824791435500,11.204435546875,-2.463292732039094,-42.71663056571484,33.4303804041028
1691217824801475600,11.2144755859375,-2.2661364212572574,-43.63149617040157,33.48266238000393
1691217824811515600,11.224515625,-1.9344518130421637,-42.52875587801933,33.664603001475335
1691217824821555700,11.2345556640625,-1.960041012328863,-43.455382063126564,33.03580007151365
1691217824831596500,11.244596435546875,-2.5450422099649903,-43.368732538199424,33.9701442836523
1691217824841666600,11.25466650390625,-2.3449627052128315,-43.11532593240738,34.09619993629455
1691217824851707400,11.264707275390625,-2.654336112898588,-42.80754008617401,33.47255950366259
1691217824861747500,11.27474755859375,-2.1789491361916062,-42.87887046141624,33.63223451731205
1691217824871787500,11.28478759765625,-1.653859678682685,-43.17353028409481,33.578493574774264
1691217824881828600,11.29482861328125,-2.151606955757737,-43.87986185941696,33.758292508041855
1691217824891868700,11.30486865234375,-2.1188924346357583,-43.50560418388843,34.975435424673556
1691217824901908700,11.31490869140625,-2.7430910856723782,-43.12212509102821,34.704570319080354
1691217824911948500,11.324948486328125,-2.4952117188692093,-42.514124126076695,33.96567386023998
1691217824921989400,11.3349892578125,-2.2871008833527564,-44.010046574687955,33.7041587667942
1691217824932029400,11.345029541015625,-1.9314362646132706,-42.81040658152103,34.427401729428766
1691217824942069500,11.355069580078125,-1.8556600158780812,-43.18862030119896,33.25331703327894
1691217824952110600,11.365110595703126,-2.4693355193346735,-44.155204402685165,34.26594976923465
1691217824962150700,11.375150634765625,-2.483617727187276,-43.3421812158823,34.79573001490831
1691217824972190700,11.385190673828125,-2.65291514018476,-43.24290601813793,34.14531380355358
1691217824982261800,11.39526171875,-2.423174656662345,-42.78586601450443,33.812176073920725
1691217824992301600,11.405301513671875,-1.8042437168955803,-43.73872086584568,33.93102340261936
1691217825002342400,11.41534228515625,-1.9377309808433054,-43.874540372133254,33.92078491719961
1691217825012382500,11.425382568359375,-2.4132214179247615,-43.841255357646936,34.82388994146585
1691217825022422500,11.435422607421875,-2.4423025509804486,-43.36692753460407,34.96595447962284
1691217825032462600,11.445462646484375,-2.711050518289208,-42.302583316111566,33.933258614325524
1691217825042503700,11.455503662109376,-2.1814643338829276,-44.23183288433552,33.511257190847395
1691217825052543700,11.465543701171875,-2.3877327564030884,-43.090841479492184,34.56989881378412
1691217825062583600,11.47558349609375,-1.8043202892631292,-43.09626116645336,33.32786461700201
1691217825072623600,11.48562353515625,-2.5199708970725534,-43.97118755946159,34.25111694176197
1691217825082664400,11.49566455078125,-2.6385312255233524,-43.63102387671471,34.49414243879318
1691217825092704500,11.50570458984375,-2.6295272503346205,-43.36198949368,34.41466850458384
1691217825102744600,11.51574462890625,-2.4685785634875295,-42.842031553840634,33.7088232514739
1691217825112785700,11.52578564453125,-1.7539526225507258,-44.13482095534801,34.07309729312658
1691217825122855700,11.535855712890625,-2.0939269202053548,-44.267858137440676,34.08192357366085
1691217825132896800,11.545896728515626,-2.418709493947029,-44.24366360738277,35.21449786329269
1691217825142936600,11.5559365234375,-2.6056395942687987,-43.73158034644127,34.923564952182765
1691217825152976600,11.5659765625,-2.4471353779643774,-43.12390671374798,34.046742370164395
1691217825163017500,11.576017578125,-2.474018124192953,-44.55455911006927,33.90590065180063
1691217825173057500,11.5860576171875,-2.0863567772120235,-43.69649500453472,34.387266118395324
1691217825183097600,11.59609765625,-1.9964315916150808,-43.949840820050234,33.58149801728725
1691217825193137700,11.6061376953125,-2.4797376708835364,-44.42556681945324,34.36609005937576
1691217825203178800,11.6161787109375,-2.4860557679891584,-44.089873560118676,34.671787993419166
1691217825213218600,11.626218505859375,-2.6903467529565095,-43.77532128849029,34.39448145660162
1691217825223258400,11.63625830078125,-2.3390789078712464,-43.58241036019325,34.1083883867383
1691217825233299500,11.646299560546876,-1.8190321207046507,-44.040769045209885,34.30344801750183
1691217825243339500,11.656339599609375,-2.05225226303637,-44.59580765078068,34.33123385004997
1691217825253379600,11.666379638671875,-2.2756676351904868,-44.43607886111736,35.33604334503412
1691217825263450600,11.67645068359375,-2.6479963884830475,-44.14344849843979,35.708874787151814
1691217825273490400,11.686490478515625,-2.6244530158102513,-43.20558546452522,34.667806230306624
1691217825283530500,11.696530517578125,-2.3455367057085037,-44.619478449225426,34.36284479384422
1691217825293571600,11.706571533203125,-2.1193273189216852,-44.06032480955124,35.0420498773098
1691217825303611400,11.716611328125,-1.960940006995201,-43.50292473554611,34.06751160194874
1691217825313651500,11.7266513671875,-2.404928805875778,-45.08056334433555,34.66150976051092
1691217825323692500,11.736692626953126,-2.628655143675208,-44.13201525027752,35.316712037098405
1691217825333732600,11.746732666015625,-2.73180513702631,-44.089251628828045,35.017471900892254
1691217825343768800,11.756768798828125,-2.483132574018836,-43.368872823452946,34.291802003371714
1691217825353809000,11.766808837890625,-1.9953420428127049,-44.50734376990795,34.50579079101085
1691217825363850000,11.77685009765625,-1.9675982958406208,-44.55389976937771,34.5716173081398
1691217825373890000,11.78689013671875,-2.5040385839253663,-44.4569953924179,35.24517824823856
1691217825383929900,11.796929931640625,-2.6331577157914636,-44.19097246615886,35.529742208838464
1691217825393970700,11.806970703125,-2.6899446018964053,-42.99539606916904,34.519124904358385
1691217825404040700,11.817040771484375,-2.2691923016965387,-44.886282296729085,33.98212464430332
1691217825414081800,11.827081787109375,-2.4953449898600577,-43.91170193579197,35.117291873037814
1691217825424121900,11.837121826171876,-1.8748674051731824,-43.833020613265035,33.865797773993016
1691217825434162000,11.847161865234375,-2.59043734896183,-44.658533863806724,34.81654133226871
1691217825444203000,11.857203125,-2.7745518073409796,-44.4462729228735,34.92163369185924
1691217825454243000,11.8672431640625,-2.7106875301957127,-44.08530493702888,35.09188153744936
1691217825464282600,11.87728271484375,-2.5414339563399553,-43.482447764706606,34.16108888031244
1691217825474322700,11.88732275390625,-1.7750468485057354,-44.843406447076795,34.58965097748041
1691217825484363800,11.89736376953125,-2.1534762567609547,-45.06905060119629,34.55902670663595
1691217825494403800,11.90740380859375,-2.4860820714741942,-44.936120971131324,35.740518464171885
1691217825504444000,11.91744384765625,-2.6854940522283313,-44.46880273458957,35.4148859956026
1691217825514484000,11.92748388671875,-2.5068764376997947,-43.830210232019425,34.53011859205961
1691217825524524800,11.93752490234375,-2.5656360851824282,-45.39159913227558,34.40265307261944
1691217825534564600,11.947564697265625,-2.1775041980803014,-44.274241116476055,34.96862691370249
1691217825544635600,11.9576357421875,-1.9996084680855273,-44.81423179051876,33.985676199305054
1691217825554675700,11.96767578125,-2.58456290397048,-45.13299261975288,34.941032804334164
1691217825564715800,11.9777158203125,-2.519811322596669,-44.918847180247305,35.25583057515621
1691217825574756900,11.9877568359375,-2.744548298743367,-44.36245248389244,34.92984973154068
1691217825584797000,11.997796875,-2.4209014510333535,-44.29710293662548,34.70400216380357
1691217825594837000,12.0078369140625,-1.847771308454871,-44.81711231439113,34.933504162394996
1691217825604877800,12.0178779296875,-2.192891152304411,-45.28431364655494,34.89101175910234
1691217825614917600,12.027917724609376,-2.2963830909609793,-45.14249460759163,36.07450491958856
1691217825624957700,12.037957763671875,-2.845263758423924,-44.61961873447895,35.938863107955456
1691217825634997800,12.047997802734375,-2.545101246675849,-43.95743025226593,35.19861757259369
1691217825645038800,12.058038818359375,-2.459314476057887,-45.51371276929378,34.779361063909526
1691217825655079000,12.068078857421876,-2.18203891890049,-44.409289053869244,35.77966272608042
1691217825665119000,12.078118896484375,-1.9779659605979918,-44.47480226726532,34.39949431632757
1691217825675159800,12.088159912109376,-2.6619687997341153,-45.66800784347057,35.34498886803389
1691217825685229800,12.098229736328125,-2.6538427764236925,-44.84067088463306,35.89556172636747
1691217825695270700,12.108270751953125,-2.754944605073333,-44.55352099919319,35.308825667762754
1691217825705310700,12.118310791015626,-2.5043945577561852,-44.129317097234726,34.80552660177946
1691217825715350800,12.128350830078125,-1.938311995601654,-45.32351869874,35.05695284740925
1691217825725390800,12.138390869140625,-2.139744084006548,-45.13806159358025,35.16082940146923
1691217825735432000,12.148431884765625,-2.5728309651225802,-45.12965383071899,36.09768004347086
1691217825745472000,12.158471923828126,-2.737510070669651,-44.52109640092849,35.69842119767666
1691217825755511800,12.16851171875,-2.740144510826468,-43.77303931503295,34.941133342099185
1691217825765552600,12.178552734375,-2.2822417528837917,-45.69658394961357,34.468905121684074
1691217825775592700,12.1885927734375,-2.524223878341913,-44.15325443766117,35.59720772534609
1691217825785632800,12.1986328125,-1.9368717336654662,-44.786053159260746,34.33216440889835
1691217825795672800,12.2086728515625,-2.8578374087929723,-45.206651730203625,35.39771040439606
1691217825805714000,12.2187138671875,-2.8443331995755434,-45.08958836231231,35.64576746585369
1691217825815754000,12.22875390625,-2.7494746492296454,-44.422775142908094,35.19260634948015
1691217825825824800,12.23882470703125,-2.473010408455133,-44.21189367363453,34.75252449491024
1691217825835864800,12.24886474609375,-1.7164666492432354,-45.79935692634582,34.94126193691492
1691217825845905000,12.25890478515625,-2.4429589690625666,-45.47120633747577,35.23430380300283
1691217825855945700,12.26894580078125,-2.77714357739985,-45.56139105079174,36.34807285439968
1691217825865985800,12.27898583984375,-2.4997522849082947,-44.666497390031815,35.44246373835802
1691217825876025900,12.28902587890625,-2.7067197956085205,-44.97518106188774,34.824490829968454
1691217825886067000,12.29906689453125,-2.5297546244621274,-45.87077614891529,35.13196804864406
1691217825896106800,12.309106689453126,-2.169163655236363,-44.71175341281891,34.96767765015363
1691217825906146800,12.319146728515625,-2.1368483625650403,-45.81936160349846,34.64291962633133
1691217825916187000,12.329186767578125,-2.7447528814047573,-45.66194284434318,35.435477532732484
1691217825926227700,12.339227783203125,-2.578163558322191,-45.42709130141735,35.83686871438026
1691217825936267800,12.349267822265626,-2.751269131430983,-44.7777529484272,35.080791988158225
1691217825946307800,12.359307861328125,-2.29947754984498,-45.16362624294758,35.36175997009277
1691217825956349000,12.369348876953126,-1.8257278189510107,-45.61577496740818,35.30319087674618
1691217825966418700,12.379418701171875,-2.440401685795188,-45.84724095954895,35.589024418890475
1691217825976459800,12.389459716796875,-2.4471254410922527,-45.65927742452621,36.929106317448614
1691217825986499800,12.399499755859376,-2.824195251432061,-44.71526989650726,35.821565931308264
1691217825996540000,12.409539794921875,-2.539285838395357,-45.15220234713554,35.508215436685084
1691217826006580000,12.419580078125,-2.4967145246475932,-46.075054858922954,35.6350777295351
1691217826016620800,12.429620849609375,-2.1349720472991467,-44.3146713265419,35.756723749041555
1691217826026660900,12.439660888671876,-2.1861434316098687,-46.05055170130729,35.064446418035025
1691217826036700700,12.44970068359375,-2.8717355857640503,-45.71980583524704,36.025580437421794
1691217826046741800,12.45974169921875,-2.747951969707012,-45.5150267745018,36.403043630993366
1691217826056781800,12.46978173828125,-2.7276117769896984,-44.568723244500156,35.24927691572904
1691217826066822000,12.47982177734375,-2.3446377110421657,-45.313867073297494,35.490097596192356
1691217826076862000,12.489862060546875,-1.8977116896659134,-45.89506887865066,35.488594205892085
1691217826086902800,12.49990283203125,-2.511329325455427,-45.63094915566444,35.910076573932166
1691217826096942800,12.50994287109375,-2.8479958137363193,-45.57899217393398,36.67591715379953
1691217826106983000,12.51998291015625,-2.781365579009056,-44.30107768547535,35.61705341254473
1691217826117053700,12.5300537109375,-2.431190205335617,-45.48807797729969,34.89417986774444
1691217826127093800,12.54009375,-2.6230840655446053,-45.6892937926054,35.71150981183052
1691217826137134800,12.550134765625,-2.090920139604807,-44.622064374065395,35.14822477144003
1691217826147175000,12.5601748046875,-2.4368793568879363,-45.8562893584013,35.327114188647265
1691217826157215000,12.570215087890626,-3.100016518127918,-45.686184136152264,35.883104395854474
1691217826167255000,12.580255126953125,-2.8375603444397446,-45.44484206216335,36.17380817438364
1691217826177296000,12.5902958984375,-2.7000030545741316,-44.505211434054374,35.03410271769762
1691217826187335700,12.600335693359375,-2.1137229230433703,-45.473217092776295,35.45402791942358
1691217826197375700,12.610375732421875,-2.055376532536745,-46.43987133688926,35.1982598451972
1691217826207416800,12.620416748046875,-2.5285592771977186,-45.999847934508324,36.414474541068074
1691217826217457000,12.630456787109376,-2.9903035129994153,-45.852281876325605,36.305858683526516
1691217826227497000,12.6404970703125,-2.4259072964966295,-44.822260783195496,35.53199846333265
1691217826237537000,12.650537109375,-2.8616251106381414,-46.46370580146313,35.07082705898285
1691217826247577900,12.660577880859375,-2.385609188377857,-45.69430197615623,35.89498421874046
1691217826257649000,12.67064892578125,-2.11752757602334,-45.719656197643275,34.81529279351234
1691217826267688700,12.680688720703126,-2.5827503015905617,-46.462532081508634,35.55519229191542
1691217826277728800,12.690728759765625,-2.664941678065061,-46.12844742641449,36.17815701724291
