time,seconds_elapsed,z,y,x
1691217813795026200,0.208026123046875,0.031014101579785347,0.009658010676503181,0.17824800312519073
1691217813805066200,0.218066162109375,0.027733255177736282,-0.017997242510318756,0.14810478687286377
1691217813815106300,0.228106201171875,0.011653886176645756,-0.035798076540231705,0.049968358129262924
1691217813825146400,0.238146484375,-0.00974707119166851,-0.03726175054907799,0.036229297518730164
1691217813835187500,0.2481875,-0.020379740744829178,-0.02561148814857006,-0.017573216930031776
1691217813845227300,0.258227294921875,-0.01880044676363468,-0.007765606977045536,-0.07257683575153351
1691217813855298300,0.26829833984375,-0.007399455178529024,0.013053121976554394,-0.07004976272583008
1691217813865338400,0.27833837890625,0.01074127946048975,0.0239719245582819,-0.11965634673833847
1691217813875378400,0.28837841796875,0.020370204001665115,0.022429954260587692,-0.11999908834695816
1691217813885419300,0.298419189453125,0.022828392684459686,0.004774176515638828,-0.0925498828291893
1691217813895459300,0.308459228515625,0.015581400133669376,-0.015681298449635506,-0.12220284342765808
1691217813905499100,0.3184990234375,0.005510563496500254,-0.028455592691898346,-0.09680623561143875
1691217813915539200,0.328539306640625,-0.004903727676719427,-0.03234940022230148,-0.05948123335838318
1691217813925580300,0.338580322265625,-0.009846555069088936,-0.024822507053613663,-0.07986587285995483
1691217813935620400,0.348620361328125,-0.008636148646473885,-0.011471814475953579,-0.04763443022966385
1691217813945660400,0.358660400390625,-0.0005533336661756039,0.004404232371598482,-0.03714433312416077
1691217813955701200,0.368701171875,0.0073224324733018875,0.01701856032013893,-0.041516710072755814
1691217813965741300,0.3787412109375,0.011296192184090614,0.025618111714720726,-0.005732724443078041
1691217813975781400,0.388781494140625,0.007234338670969009,0.022655878216028214,-0.01173948310315609
1691217813985821200,0.3988212890625,0.0004427451640367508,0.00816881563514471,-0.002567291259765625
1691217813995862300,0.4088623046875,-0.007198662962764502,-0.0072375712916255,0.02213698998093605
1691217814005933300,0.418933349609375,-0.008960213512182236,-0.01843707077205181,0.003058759495615959
1691217814015973400,0.428973388671875,-0.0072733680717647076,-0.020328182727098465,0.02063269354403019
1691217814026013400,0.439013427734375,-0.0020459098741412163,-0.016720328480005264,0.01663304679095745
1691217814036053500,0.449053466796875,0.007313503418117762,-0.0023397901095449924,-0.0007962770760059357
1691217814046094300,0.45909423828125,0.007849598303437233,0.010434062220156193,0.01334910374134779
1691217814056134100,0.469134033203125,0.005644233897328377,0.018407300114631653,-0.00978524424135685
1691217814066174200,0.47917431640625,0.0017896825447678566,0.021971004083752632,-0.009125886484980583
1691217814076215300,0.48921533203125,-0.0046535697765648365,0.013018789701163769,-0.004674678668379784
1691217814086255400,0.49925537109375,-0.006879320368170738,-0.001149080810137093,-0.019814383238554
1691217814096295400,0.50929541015625,-0.003545043058693409,-0.014488056302070618,-0.006478073075413704
1691217814106335500,0.51933544921875,0.0003212462179362774,-0.02232610434293747,-0.009040171280503273
1691217814116376300,0.529376220703125,0.0035913418978452682,-0.022044874727725983,-0.010870030149817467
1691217814126416400,0.53941650390625,0.00668377336114645,-0.012643430382013321,0.000030860304832458496
1691217814136456200,0.549456298828125,0.003564146813005209,0.0004950085422024131,-0.007287772372364998
1691217814146527200,0.55952734375,-0.0006128628738224506,0.010083590634167194,0.00006072968244552612
1691217814156567300,0.5695673828125,-0.005560483783483505,0.018720487132668495,0.0017031002789735794
1691217814166608400,0.5796083984375,-0.005574947223067284,0.02014138177037239,0.0033920183777809143
1691217814176648400,0.5896484375,-0.004229252226650715,0.010250401683151722,0.00938519649207592
1691217814186688500,0.5996884765625,0.0015395039226859808,-0.0010944959940388799,0.007155922241508961
1691217814196728300,0.609728271484375,0.0030077046249061823,-0.014077938161790371,0.008806816302239895
1691217814206769200,0.61976904296875,0.0037875811103731394,-0.02010607346892357,0.009316956624388695
1691217814216809200,0.629809326171875,0.0016067184042185545,-0.015820780768990517,0.0015067048370838165
1691217814226849300,0.639849365234375,-0.00134619465097785,-0.006526880897581577,0.005042849108576775
1691217814236890400,0.649890380859375,-0.006959072779864073,0.005063195712864399,-0.007174668833613396
1691217814246930400,0.659930419921875,-0.004042343236505985,0.013862259685993195,-0.007720308378338814
1691217814256970500,0.669970458984375,-0.0008771759457886219,0.016827955842018127,-0.007704330608248711
1691217814267010600,0.680010498046875,0.001327424542978406,0.011779115535318851,-0.013467904180288315
1691217814277051400,0.690051513671875,0.0036494345404207706,0.004730793181806803,-0.006605468690395355
1691217814287091200,0.70009130859375,0.005178628023713827,-0.0074958959594368935,-0.003838527947664261
1691217814297162200,0.710162353515625,0.001220637932419777,-0.014076566323637962,-0.004146656021475792
1691217814307202300,0.720202392578125,-0.0014033019542694092,-0.017628144472837448,0.0029106102883815765
1691217814317242400,0.730242431640625,-0.004618803039193153,-0.010815777815878391,-0.0008351244032382965
1691217814327283500,0.740283447265625,-0.0026451339945197105,-0.0011200077133253217,0.003147365525364876
1691217814337324500,0.750324462890625,-0.00019422685727477074,0.008937686681747437,0.00585207249969244
1691217814347364600,0.760364501953125,0.002579223131760955,0.01634504832327366,0.0060052284970879555
1691217814357404400,0.770404296875,0.003538227640092373,0.014103733003139496,0.005958355963230133
1691217814367445500,0.780445556640625,0.0026295569259673357,0.008033056743443012,0.004950350150465965
1691217814377485600,0.790485595703125,0.00030701421201229095,-0.0019412805559113622,0.003258444368839264
1691217814387525600,0.800525634765625,-0.0012270803563296795,-0.01203746534883976,0.004395227879285812
1691217814397566500,0.81056640625,-0.005203979089856148,-0.013507263734936714,-0.0005686376243829727
1691217814407606500,0.8206064453125,-0.004214915446937084,-0.01588791236281395,-0.0014118123799562454
1691217814417646600,0.830646484375,-0.0018598823808133602,-0.005773759912699461,-0.005811356008052826
1691217814427686400,0.840686279296875,0.00010415725409984589,0.0005995355313643813,-0.0066966284066438675
1691217814437757400,0.85075732421875,0.0033806441351771355,0.008357057347893715,-0.008721962571144104
1691217814447798500,0.860798583984375,0.0041556269861757755,0.012687165290117264,-0.007084161043167114
1691217814457838600,0.870838623046875,0.0009454526007175446,0.011419766582548618,-0.005579207092523575
1691217814467878700,0.880878662109375,-0.0012142057530581951,0.003211581613868475,-0.002325296401977539
1691217814477918700,0.890918701171875,-0.003308249171823263,-0.008236815221607685,-0.00016973353922367096
1691217814487959600,0.90095947265625,-0.0021034064702689648,-0.011100878939032555,0.004837377928197384
1691217814497999400,0.910999267578125,-0.0008802167139947414,-0.0123080899938941,0.0032029952853918076
1691217814508039400,0.921039306640625,0.0017912329640239477,-0.007495852652937174,0.006914457306265831
1691217814518080500,0.93108056640625,0.002954501658678055,0.0002779149217531085,0.006118171848356724
1691217814528120600,0.94112060546875,0.0007198518142104149,0.007131108548492193,0.002925243228673935
1691217814538160600,0.95116064453125,0.0002609891816973686,0.011687777936458588,0.0035500209778547287
1691217814548200700,0.96120068359375,-0.003499755170196295,0.008840279653668404,-0.0005679968744516373
1691217814558241500,0.971241455078125,-0.0025514038279652596,0.006488442420959473,-0.0009959675371646881
1691217814568281600,0.981281494140625,-0.0028871027752757072,-0.0022126887924969196,-0.0022627729922533035
1691217814578321400,0.9913212890625,-0.0006167576648294926,-0.010089520364999771,-0.0028036609292030334
1691217814588392400,1.001392333984375,0.0018112065736204386,-0.014852302148938179,-0.0030638743191957474
1691217814598432500,1.0114326171875,0.0007134517654776573,-0.009549415670335293,-0.006002139300107956
1691217814608473600,1.0214736328125,0.0019509613048285246,-0.007831215858459473,-0.006558123975992203
1691217814618513700,1.031513671875,-0.0016815904527902603,0.004794830922037363,-0.004869680851697922
1691217814628553700,1.0415537109375,-0.0018306844867765903,0.00918557308614254,-0.005334125831723213
1691217814638593500,1.051593505859375,-0.0030546733178198338,0.012480169534683228,-0.001097302883863449
1691217814648634400,1.06163427734375,0.0006459672003984451,0.0057569826021790504,-0.0004759933799505234
1691217814658674400,1.07167431640625,0.0008726022206246853,0.00193028652574867,0.002396492287516594
1691217814668714500,1.081714599609375,0.0014382118824869394,-0.006120441481471062,0.005283632315695286
1691217814678755600,1.091755615234375,0.00026801880449056625,-0.009037401527166367,0.004935290664434433
1691217814688795600,1.101795654296875,0.0007702698931097984,-0.01243143156170845,0.005720515735447407
1691217814698835700,1.111835693359375,-0.0003967271186411381,-0.007126947864890099,0.00414685346186161
1691217814708875800,1.121875732421875,-0.00008596014231443405,0.0021787763107568026,0.0036737527698278427
1691217814718916600,1.13191650390625,-0.0003205845132470131,0.005918919574469328,0.000685153529047966
1691217814728987400,1.1419873046875,0.00008450914174318314,0.00993294082581997,-0.0012050475925207138
1691217814739027500,1.15202734375,0.0012118250597268343,0.006867376156151295,-0.0033765900880098343
1691217814749067500,1.162067626953125,0.002195973414927721,0.0025547887198626995,-0.004250233992934227
1691217814759107600,1.172107666015625,0.001279846066609025,-0.004878360312432051,-0.0046289339661598206
1691217814769148700,1.182148681640625,-0.00037718750536441803,-0.008375236764550209,-0.005396360531449318
1691217814779188700,1.192188720703125,-0.0010408470407128334,-0.01012919470667839,-0.0013757869601249695
1691217814789228500,1.202228515625,-0.0009154439903795719,-0.009427562355995178,-0.0025364812463521957
1691217814799269400,1.212269287109375,0.00008750241249799728,-0.003222930245101452,-0.002144996076822281
1691217814809309400,1.222309326171875,0.000679834745824337,0.0027157010044902563,-0.0015170276165008545
1691217814819349500,1.232349609375,0.000914459116756916,0.009638854302465916,0.0021283086389303207
1691217814829389600,1.2423896484375,0.00042960839346051216,0.00943680014461279,0.0010756943374872208
1691217814839430700,1.2524306640625,0.0008682312909513712,0.007024775259196758,0.0030171386897563934
1691217814849470700,1.262470703125,-0.0005712322890758514,0.0005497303791344166,0.002631658688187599
1691217814859510800,1.2725107421875,-0.0021009519696235657,-0.003501470200717449,0.0031690839678049088
1691217814869550600,1.282550537109375,-0.0013823420740664005,-0.009087469428777695,0.005002934485673904
1691217814879621600,1.29262158203125,-0.00012719398364424706,-0.006380366161465645,0.0019477568566799164
1691217814889662500,1.302662353515625,0.00015601050108671188,-0.002455528825521469,-0.0011272616684436798
1691217814899702500,1.31270263671875,0.0005847797729074955,0.000608171452768147,-0.004125181585550308
1691217814909742600,1.32274267578125,-0.00023229792714118958,0.004303744062781334,-0.002829965204000473
1691217814919782700,1.33278271484375,0.0011373655870556831,0.00686783529818058,-0.004630262032151222
1691217814929823700,1.34282373046875,-0.0008444935083389282,0.005322490818798542,-0.0054405201226472855
1691217814939863600,1.352863525390625,-0.0004034736193716526,0.0007724800379946828,-0.004003746435046196
1691217814949903600,1.362903564453125,-0.0016107955016195774,-0.005109780002385378,-0.0034944210201501846
1691217814959944400,1.3729443359375,-0.00002062227576971054,-0.007565746549516916,-0.001714363694190979
1691217814969984500,1.382984619140625,0.00007407646626234055,-0.007802107371389866,-0.00035815127193927765
1691217814980024600,1.393024658203125,0.00014438387006521225,-0.004997266456484795,0.0016762372106313705
1691217814990064600,1.403064697265625,0.0010124500840902328,-0.001953823259100318,0.0026146937161684036
1691217815000105700,1.413105712890625,0.0005280212499201298,0.0039818305522203445,0.0021574292331933975
1691217815010145800,1.423145751953125,-0.0008139554411172867,0.006691341288387775,0.004345245659351349
1691217815020216600,1.433216552734375,-0.0003761318512260914,0.00843810848891735,0.003948700614273548
1691217815030256400,1.44325634765625,-0.0009906762279570103,0.002368208719417453,0.0023262053728103638
1691217815040296400,1.45329638671875,0.0007172087207436562,-0.0004813737468793988,0.0031206272542476654
1691217815050337500,1.463337646484375,0.0002718665637075901,-0.0056652044877409935,0.0013187993317842484
1691217815060377600,1.473377685546875,0.0015065078623592854,-0.006834864616394043,-0.0004604589194059372
1691217815070417700,1.483417724609375,0.00004933355376124382,-0.007041520904749632,-0.002480180934071541
1691217815080457500,1.49345751953125,-0.0006619966588914394,-0.0020704646594822407,-0.002789907157421112
1691217815090498600,1.50349853515625,-0.0014526676386594772,0.002301409374922514,-0.005480464547872543
1691217815100538400,1.513538330078125,-0.0003748866729438305,0.004784008022397757,-0.003940625116229057
1691217815110578400,1.523578369140625,-0.00012352177873253822,0.005901571363210678,-0.005564529448747635
1691217815120619500,1.53361962890625,-0.0007421737536787987,0.004018982872366905,-0.0016416925936937332
1691217815130659600,1.54365966796875,0.0008040997199714184,-0.00009999156463891268,-0.00035764090716838837
1691217815140699600,1.55369970703125,0.00008264929056167603,-0.004445205442607403,0.0016953889280557632
1691217815150739500,1.563739501953125,0.00001966441050171852,-0.007607051637023687,0.001837708055973053
1691217815160810500,1.573810546875,-0.0004549110308289528,-0.004208591766655445,0.0038092471659183502
1691217815170851600,1.5838515625,0.0001722937449812889,-0.0026539680548012257,0.003383282572031021
1691217815180891400,1.593891357421875,0.00003380933776497841,-0.0007996091153472662,0.0024650245904922485
1691217815190931500,1.603931396484375,-0.0004452350549399853,0.004206985235214233,0.0008626226335763931
1691217815200971500,1.613971435546875,0.0005952618084847927,0.003772357478737831,0.0017284154891967773
1691217815211012600,1.6240126953125,0.0013526147231459618,0.004861457739025354,-0.0007428824901580811
1691217815221052700,1.634052734375,0.00048309285193681717,-0.0006390351336449385,-0.0012640636414289474
1691217815231092500,1.644092529296875,0.0006261654198169708,-0.0019130767323076725,-0.0015984270721673965
1691217815241133600,1.654133544921875,-0.000227377749979496,-0.0073086414486169815,-0.0017318520694971085
1691217815251173400,1.66417333984375,-0.0003413688391447067,-0.00604041013866663,-0.0037310346961021423
1691217815261213400,1.67421337890625,0.0006895409896969795,-0.005245456472039223,-0.0026636384427547455
1691217815271253500,1.68425341796875,0.0003465348854660988,0.001268868101760745,-0.0042693112045526505
1691217815281294600,1.694294677734375,-0.000460935290902853,-0.00029121176339685917,-0.002427203580737114
1691217815291334700,1.704334716796875,-0.0004716310650110245,0.004080751445144415,-0.002242889255285263
1691217815301374500,1.71437451171875,0.0005611428059637547,0.003672755090519786,0.0007702112197875977
1691217815311445500,1.724445556640625,-0.000593449454754591,0.00013689289335161448,0.0007096119225025177
1691217815321485600,1.734485595703125,-0.00007999222725629807,-0.0035425303503870964,0.0015098918229341507
1691217815331526400,1.7445263671875,-0.0014590644277632236,-0.0019281393615528941,0.003541193902492523
1691217815341569000,1.754569091796875,0.000053344760090112686,-0.003530296962708235,0.003540394827723503
1691217815351608800,1.76460888671875,0.00014905445277690887,-0.002861174289137125,0.0013565495610237122
1691217815361649000,1.77464892578125,-0.0009822561405599117,-0.001796709024347365,0.0014114100486040115
1691217815371689700,1.784689697265625,-0.0004875953309237957,0.0041607883758842945,-0.00021786242723464966
1691217815381729800,1.794729736328125,-0.0007342039607465267,0.00568198598921299,0.0003600437194108963
1691217815391769900,1.804769775390625,-0.0006232978776097298,0.003460509469732642,-0.002894483506679535
1691217815401811000,1.81481103515625,-0.0006256946362555027,0.00013235700316727161,-0.0016760863363742828
1691217815411851000,1.82485107421875,-0.00037169037386775017,-0.003207253757864237,-0.0037642009556293488
1691217815421890800,1.834890869140625,0.0005191368982195854,-0.0048570819199085236,-0.004164474084973335
1691217815431931000,1.844930908203125,0.00016390951350331306,-0.007681099697947502,-0.0012958701699972153
1691217815441971700,1.8549716796875,0.00004992634057998657,-0.006077876314520836,-0.0027060136198997498
1691217815452042000,1.8650419921875,0.0003768014721572399,-0.000029571354389190674,-0.0026743225753307343
1691217815462082800,1.875082763671875,-0.00014730868861079216,-0.0014279973693192005,-0.0002745483070611954
1691217815472123000,1.885122802734375,-0.0006975955329835415,0.004047994501888752,0.0008402522653341293
1691217815482163000,1.895162841796875,-0.0007002586498856544,0.0043878136202692986,0.0009680837392807007
1691217815492204000,1.9052041015625,0.000530315563082695,0.0025046938098967075,0.0022397730499505997
1691217815502243800,1.915243896484375,-0.0020686634816229343,0.0022311871871352196,0.0027660131454467773
1691217815512284000,1.925283935546875,-0.0010985895060002804,-0.002004418056458235,0.0036775805056095123
1691217815522324000,1.935323974609375,0.0008646927308291197,-0.0035186917521059513,0.0014285407960414886
1691217815532364800,1.94536474609375,-0.0005906480364501476,-0.0037073970306664705,0.0024820175021886826
1691217815542404900,1.95540478515625,0.0005545113235712051,-0.0009547534864395857,0.0005030222237110138
1691217815552445000,1.96544482421875,-0.0002980581484735012,-0.0013391718966886401,-0.0021806135773658752
1691217815562486000,1.975486083984375,-0.00010631047189235687,0.0010313077364116907,-0.0025651734322309494
1691217815572525800,1.98552587890625,-0.0002000122331082821,0.0032280241139233112,-0.0027508996427059174
1691217815582566000,1.99556591796875,0.000048727262765169144,-0.0008146545151248574,-0.002550896257162094
1691217815592606000,2.00560595703125,0.000287806149572134,-0.0010346261551603675,-0.0025679264217615128
1691217815602677000,2.015677001953125,0.0009655805770307779,-0.004568907432258129,-0.0029828455299139023
1691217815612717800,2.0257177734375,-0.0009453203529119492,-0.003940022550523281,-0.0008774865418672562
1691217815622758000,2.0357578125,0.0005817362107336521,-0.004228442907333374,-0.001490280032157898
1691217815632798000,2.0457978515625,-0.0018120957538485527,-0.0032710370142012835,-0.0000888090580701828
1691217815642837800,2.055837646484375,-0.00048477621749043465,-0.0005783149972558022,-0.00018761307001113892
1691217815652878800,2.06587890625,-0.0009072157554328442,0.0016179945087060332,0.0026129987090826035
1691217815662919000,2.0759189453125,0.000792413717135787,0.0029104265850037336,0.002962671220302582
1691217815672959000,2.085958984375,0.000395351555198431,0.0003110469551756978,0.00035175494849681854
1691217815682999800,2.095999755859375,0.0018885857425630093,0.0011251752730458975,0.0020740218460559845
1691217815693039900,2.106039794921875,0.0004351045936346054,-0.0022113649174571037,0.0013479981571435928
1691217815703080000,2.116079833984375,0.0019365949556231499,-0.0027967276982963085,0.0008574426174163818
1691217815713119700,2.12611962890625,-0.0010016588494181633,-0.005634060129523277,0.00009494833648204803
1691217815723160800,2.136160888671875,0.0005522957071661949,-0.0002677903976291418,-0.0009194500744342804
1691217815733201000,2.146200927734375,-0.00023649586364626884,0.001895231194794178,-0.00280783511698246
1691217815743272000,2.15627197265625,0.0006687124259769917,0.000910394242964685,-0.004161786288022995
1691217815753312000,2.16631201171875,0.0005391696467995644,0.003772357478737831,-0.0021691936999559402
1691217815763351800,2.176351806640625,0.0006278529763221741,0.0007507348200306296,-0.002905556932091713
1691217815773393000,2.186392822265625,0.0005651195533573627,0.0012846998870372772,-0.0018532387912273407
1691217815783432700,2.1964326171875,-0.00018535926938056946,-0.0016519678756594658,0.0006743669509887695
1691217815793472800,2.20647265625,0.0004206821322441101,-0.002403771271929145,0.0010374076664447784
1691217815803512800,2.216512939453125,-0.00038732122629880905,-0.002672750735655427,0.0026997532695531845
1691217815813554000,2.226553955078125,0.00023830775171518326,-0.0015526332426816225,0.002177085727453232
1691217815823593700,2.23659375,-0.00021496228873729706,-0.0014785972889512777,0.002365371212363243
1691217815833633800,2.2466337890625,0.000843903748318553,0.0017279874300584197,0.0015541799366474152
1691217815843675000,2.2566748046875,0.0006614774465560913,0.002234520623460412,0.0016958601772785187
1691217815853715000,2.26671484375,0.001922238152474165,0.00007735565304756165,0.0008517038077116013
1691217815863754800,2.276754638671875,0.00122342468239367,0.004177291877567768,-0.0011704359203577042
1691217815873794800,2.286794921875,-0.00019557494670152664,-0.0009329142048954964,0.0004313420504331589
1691217815883865900,2.296865966796875,-0.0003487067297101021,-0.0024831402115523815,-0.0014973189681768417
1691217815893907000,2.306906982421875,-0.0012118951417505741,-0.0034251022152602673,-0.002177145332098007
1691217815903946800,2.31694677734375,0.000350048765540123,-0.00010387401562184095,-0.0031678415834903717
1691217815913986800,2.32698681640625,0.000621916726231575,-0.0012133413692936301,-0.0031480398029088974
1691217815924026600,2.337026611328125,0.0016107482369989157,-0.0005390289006754756,-0.0017424244433641434
1691217815934067700,2.347067626953125,-0.0004512770101428032,0.0012348988093435764,-0.0007669366896152496
1691217815944107800,2.357107666015625,-0.00012930110096931458,0.0025374507531523705,-0.0006822478026151657
1691217815954147800,2.36714794921875,0.00207306700758636,0.0017202593153342605,-0.00003101862967014313
1691217815964188000,2.37718798828125,-0.0011179326102137566,-0.00044808629900217056,0.001238243654370308
1691217815974228700,2.387228759765625,0.0004548211582005024,-0.002846130635589361,0.0001720637083053589
1691217815984268800,2.397268798828125,0.00005321670323610306,-0.0022423919290304184,0.0014344025403261185
1691217815994308900,2.407308837890625,0.0004119104705750942,-0.0012636807514354587,0.0022405069321393967
1691217816004350000,2.417349853515625,-0.0006725289858877659,0.00022662419360131025,0.000864984467625618
1691217816014389800,2.4273896484375,0.0011376128531992435,0.004334829747676849,0.0023177359253168106
1691217816024429800,2.437429931640625,-0.000838985200971365,0.0009193258010782301,-0.0020666252821683884
1691217816034500900,2.4475009765625,0.000026347115635871887,0.002169152954593301,0.0004870221018791199
1691217816044541000,2.457541015625,-0.0002048150636255741,-0.001989639364182949,-0.0010695941746234894
1691217816054581800,2.467581787109375,0.0013616140931844711,0.0006403455045074224,-0.0003863181918859482
1691217816064621800,2.477621826171875,-0.0005492041818797588,-0.002531745471060276,-0.003414066508412361
1691217816074661600,2.48766162109375,0.0004940349608659744,-0.0032096486538648605,-0.0035762228071689606
1691217816084701700,2.49770166015625,-0.0004431311972439289,-0.0006362362764775753,-0.004049466922879219
1691217816094742800,2.50774267578125,-0.00176924467086792,-0.001137441722676158,-0.0019280388951301575
1691217816104782800,2.517782958984375,0.002005519811064005,-0.0013747294433414936,-0.0027014221996068954
1691217816114823000,2.527822998046875,0.0008553671650588512,0.0013082686346024275,-0.0006993226706981659
1691217816124863700,2.53786376953125,-0.0002112286165356636,0.0010882916394621134,-0.0001171547919511795
1691217816134903800,2.54790380859375,-0.0006971182301640511,-0.0007029508706182241,0.0015274621546268463
1691217816144943900,2.55794384765625,0.0007543046958744526,0.0006960076279938221,0.001533322036266327
1691217816154983700,2.567983642578125,0.0018962526228278875,-0.0005877570947632194,0.0011251717805862427
1691217816165024800,2.578024658203125,0.0009004967287182808,-0.001327849575318396,0.00153450109064579
1691217816175094800,2.5880947265625,-0.00021019484847784042,-0.0011946914019063115,0.0006175730377435684
1691217816185135900,2.598135986328125,0.0007986102718859911,-0.0006423519225791097,0.001030096784234047
1691217816195176000,2.608176025390625,0.0005510789342224598,-0.0004769741790369153,-0.0011536423116922379
1691217816205216000,2.618216064453125,-0.0018825177103281021,-0.0011760540073737502,-0.0008638910949230194
1691217816215256800,2.6282568359375,0.0002791238948702812,-0.00021212990395724773,-0.002928387373685837
1691217816225296600,2.638296630859375,0.0005169440992176533,0.00007256201934069395,-0.0009720288217067719
1691217816235336700,2.648336669921875,0.0009396248497068882,0.001605078112334013,-0.0031557921320199966
1691217816245376800,2.658376708984375,-0.0005080695264041424,-0.002381407655775547,-0.001755768433213234
1691217816255417900,2.66841796875,0.00009555695578455925,-0.0029520774260163307,-0.0006967410445213318
1691217816265458000,2.6784580078125,-0.0010285633616149426,-0.0024269018322229385,-0.0019942335784435272
1691217816275498000,2.688498046875,-0.0006828806363046169,-0.0021282744128257036,0.00012146495282649994
1691217816285538800,2.698538818359375,-0.000055439770221710205,-0.0018478434067219496,-0.0017882883548736572
1691217816295579000,2.708578857421875,-0.000752763357013464,0.0014902959810569882,0.0015615876764059067
1691217816305618700,2.71861865234375,-0.0008054939098656178,0.0026008342392742634,0.0008926019072532654
1691217816315689700,2.728689697265625,0.00022631045430898666,-0.00011478422675281763,0.0007941927760839462
1691217816325729800,2.738729736328125,0.0004010139964520931,-0.0001872222637757659,0.0011665038764476776
1691217816335771100,2.748771240234375,0.0015786918811500072,0.0004716388648375869,0.0005950853228569031
1691217816345811200,2.758811279296875,0.0005927896127104759,-0.003332686610519886,0.0001348927617073059
1691217816355851300,2.768851318359375,-0.00006555207073688507,-0.0036634502466768026,0.0022461991757154465
1691217816365891300,2.778891357421875,-0.0018213745206594467,-0.003927902318537235,-0.0011256281286478043
1691217816375932200,2.78893212890625,0.000549650751054287,0.000007375609129667282,-0.001481030136346817
1691217816385972200,2.79897216796875,-0.000801104586571455,0.0005607805214822292,-0.0005422662943601608
1691217816396012000,2.809011962890625,-0.0013060662895441055,0.00023562810383737087,-0.0008318610489368439
1691217816406053000,2.81905322265625,-0.0004578493535518646,-0.0006866245530545712,-0.000352226197719574
1691217816416093200,2.82909326171875,0.0005112760700285435,-0.000401416327804327,-0.0007296670228242874
1691217816426133200,2.83913330078125,0.0007248613983392715,-0.0013377838768064976,0.0005555730313062668
1691217816436173300,2.84917333984375,-0.0011027823202311993,-0.0009681163355708122,0.0005725603550672531
1691217816446214100,2.859214111328125,0.0006575672887265682,-0.0034853359684348106,-0.0003094784915447235
1691217816456284200,2.8692841796875,-0.0004971488378942013,-0.0035362299531698227,0.0020720362663269043
1691217816466325200,2.8793251953125,-0.0008862367831170559,0.0002925966400653124,0.00029171258211135864
1691217816476365000,2.889364990234375,-0.0007270192727446556,0.00013915798626840115,0.0010427460074424744
1691217816486405000,2.899405029296875,-0.0008407360874116421,-0.0003601845819503069,0.0013636574149131775
1691217816496446200,2.9094462890625,0.002320452593266964,0.002820830326527357,0.0011994261294603348
1691217816506486300,2.919486328125,0.00031429342925548553,-0.00010172254405915737,-0.00015718862414360046
1691217816516526300,2.9295263671875,-0.0005832170136272907,0.0009255812037736177,-0.0007762555032968521
1691217816526566100,2.939566162109375,-0.0003619086928665638,-0.0018113492988049984,-0.0004452243447303772
1691217816536607200,2.949607177734375,-0.0008439784869551659,-0.000949721084907651,-0.0013819169253110886
1691217816546647000,2.95964697265625,-0.00030602002516388893,-0.0023260428570210934,-0.0006098672747612
1691217816556687000,2.96968701171875,0.0009259229991585016,-0.0007946027908474207,-0.0012308526784181595
1691217816566728200,2.979728271484375,-0.0010799700394272804,-0.0023072781041264534,-0.0014897119253873825
1691217816576768300,2.989768310546875,0.0005835513584315777,0.0007314742542803288,-0.00023387186229228973
1691217816586808300,2.999808349609375,-0.0007533552125096321,0.0018169786781072617,-0.00040910765528678894
1691217816596848000,3.00984814453125,-0.0007233633659780025,0.0006497430149465799,0.0005983170121908188
1691217816606919200,3.019919189453125,-0.0016062012873589993,0.0005117913242429495,0.0002963133156299591
1691217816616959000,3.029958984375,-0.0017462102696299553,-0.0018887424375861883,0.0011093802750110626
1691217816627000000,3.04,-0.0005786805413663387,-0.0015233566518872976,0.0001501087099313736
1691217816637040000,3.0500400390625,-0.0015965919010341167,-0.003692836267873645,0.0019779596477746964
1691217816647080200,3.060080078125,-0.00015608780086040497,-0.0000019613653421401978,0.0009222831577062607
1691217816657121300,3.070121337890625,-0.0010952982120215893,0.0023629884235560894,0.003153197467327118
1691217816667161300,3.080161376953125,-0.0008697281591594219,-0.00009617465548217297,0.0011342540383338928
1691217816677201200,3.090201171875,0.00010370463132858276,0.001319129136390984,-0.0007622092962265015
1691217816687241000,3.100240966796875,0.0008965276647359133,-0.0004992771428078413,-0.0005089417099952698
1691217816697282000,3.110281982421875,0.0005200011655688286,0.00035944138653576374,-0.0012072566896677017
1691217816707322000,3.120322021484375,0.0008169433567672968,-0.0010067601688206196,-0.001777971163392067
1691217816717362200,3.130362060546875,0.0015668408013880253,-0.0014465604908764362,-0.0023526903241872787
1691217816727403300,3.1404033203125,-0.00009870016947388649,-0.0019475012086331844,-0.0007846206426620483
1691217816737443300,3.150443359375,0.0001066070981323719,-0.0007425949443131685,-0.002854062244296074
1691217816747514400,3.160514404296875,0.0013172801118344069,-0.0007282139267772436,-0.001908106729388237
1691217816757554200,3.17055419921875,0.0006802310235798359,0.0011668205261230469,0.0001018233597278595
1691217816767594000,3.180593994140625,0.0008306996896862984,0.00028984155505895615,0.000353492796421051
1691217816777635000,3.190635009765625,-0.002002761233597994,0.0012403271393850446,0.00159546360373497
1691217816787675100,3.200675048828125,-0.0010845032520592213,0.0007790676318109035,0.002209588885307312
1691217816797715200,3.210715087890625,0.00205204333178699,-0.002207476645708084,0.0008353963494300842
1691217816807755300,3.22075537109375,-0.0007812934927642345,-0.0015086629427969456,0.0026250407099723816
1691217816817796400,3.23079638671875,-0.0005364129319787025,0.0018093758262693882,0.002886466681957245
1691217816827836200,3.240836181640625,0.0009757296647876501,0.0004359837621450424,0.0002802964299917221
1691217816837876000,3.2508759765625,-0.0009982255287468433,-0.0011841743253171444,0.0007668249309062958
1691217816847917000,3.2609169921875,-0.0005161934532225132,0.000013715587556362152,-0.0012566447257995605
1691217816857957000,3.27095703125,-0.0013920986093580723,-0.00013976171612739563,-0.00024104677140712738
1691217816867997200,3.2809970703125,0.00045640161260962486,0.00037156534381210804,-0.00009590387344360352
1691217816878037200,3.291037353515625,-0.000020348932594060898,-0.0008363560773432255,-0.002459302544593811
1691217816888108300,3.3011083984375,-0.00046056928113102913,-0.0026497025974094868,-0.0026718229055404663
1691217816898148000,3.311148193359375,-0.0003798985853791237,-0.001625571632757783,-0.0012120772153139114
1691217816908189200,3.321189208984375,-0.0007689865306019783,-0.0006937317084521055,-0.0018206089735031128
1691217816918229000,3.33122900390625,-0.000286102294921875,0.0013216858496889472,-0.000815192237496376
1691217816928269000,3.34126904296875,-0.0006786524318158627,0.0012817385140806437,0.0019089560955762863
1691217816938310100,3.35131005859375,-0.0005322881042957306,0.0003579941112548113,0.0026457663625478745
1691217816948350200,3.36135009765625,-0.00176133681088686,0.0008738483302295208,0.0021309778094291687
1691217816958390300,3.371390380859375,-0.0003150668926537037,0.0038029616698622704,0.001361912116408348
1691217816968430300,3.381430419921875,-0.0006407713517546654,0.00080370984505862,0.001665513962507248
1691217816978471200,3.39147119140625,-0.0008361823856830597,-0.001459603663533926,0.0016545318067073822
1691217816988511000,3.401510986328125,0.0005318834446370602,-0.0012542738113552332,0.0010521262884140015
1691217816998551000,3.411551025390625,0.00023679807782173157,0.0002753031440079212,0.001944931223988533
1691217817008592100,3.421592041015625,0.0017537344247102737,0.0006316341459751129,0.0008064284920692444
1691217817018632200,3.431632080078125,0.000022494234144687653,0.0012583844363689423,-0.002683032304048538
1691217817028703200,3.441703125,-0.0010227966122329235,0.0008415997726842761,-0.001988746225833893
1691217817038743300,3.451743408203125,-0.0020773857831954956,0.0007819901220500469,-0.0010132435709238052
1691217817048783000,3.461783203125,0.0005982918664813042,0.001469884649850428,-0.0024859718978405
1691217817058824000,3.471823974609375,0.0004469640552997589,0.001156725105829537,-0.0010364390909671783
1691217817068864000,3.481864013671875,0.0006613484583795071,-0.0009519658051431179,-0.0002710465341806412
1691217817078904000,3.491904052734375,-0.00020883791148662567,-0.0005708774551749229,-0.0011944100260734558
1691217817088944000,3.501944091796875,0.000965882558375597,0.0002523055300116539,0.0001760534942150116
1691217817098985200,3.511985107421875,0.0006523765623569489,0.00030253082513809204,0.001550871878862381
1691217817109025300,3.522025390625,0.0005863304249942303,0.0008567345794290304,0.0014328937977552414
1691217817119065300,3.5320654296875,0.00015274062752723694,0.0008941522100940347,0.0023801103234291077
1691217817129105200,3.542105224609375,0.001042236341163516,0.002224933821707964,0.0029074158519506454
1691217817139146000,3.55214599609375,0.0005503427237272263,0.00023691868409514427,0.0025545507669448853
1691217817149186000,3.56218603515625,0.0004691164940595627,-0.0009018490090966225,0.0016794353723526
1691217817159226000,3.57222607421875,-0.0007085008546710014,0.00019939453341066837,-0.0010307691991329193
1691217817169297200,3.582297119140625,-0.0009074388071894646,-0.0007795833516865969,-0.00011757202446460724
1691217817179337200,3.592337158203125,-0.0014197342097759247,-0.00011692172847688198,0.0008555687963962555
1691217817189378300,3.60237841796875,0.00019467389211058617,0.0000681679230183363,-0.003015071153640747
1691217817199418000,3.612418212890625,-0.00016929768025875092,-0.0014877538196742535,-0.0024206675589084625
1691217817209458200,3.622458251953125,0.0004277830012142658,0.0009074930567294359,-0.0011639222502708435
1691217817219499000,3.6324990234375,-0.0003414931707084179,0.0017872978933155537,-0.002585727721452713
1691217817229539000,3.6425390625,0.0006172447465360165,0.0008027271833270788,-0.0002282988280057907
1691217817239579100,3.6525791015625,-0.001687019132077694,0.00009170686826109886,-0.00016130320727825165
1691217817249619200,3.662619140625,-0.00086623290553689,0.0006701454985886812,0.0018054414540529251
1691217817259660300,3.672660400390625,0.0007045227102935314,-0.0019103235099464655,0.002031264826655388
1691217817269700400,3.682700439453125,0.0005442001856863499,-0.00027647404931485653,0.0016158130019903183
1691217817279740200,3.692740234375,-0.0004964172840118408,0.00034333975054323673,0.0028242357075214386
1691217817289781000,3.702781005859375,-0.0008618026040494442,-0.00028809579089283943,0.003027169033885002
1691217817299821000,3.712821044921875,0.0008682934567332268,0.00000748317688703537,0.0020868200808763504
1691217817309861000,3.722861083984375,0.00043606245890259743,0.0018855442758649588,0.0026269108057022095
1691217817319932200,3.73293212890625,-0.0009488495998084545,-0.00001757475547492504,0.001948770135641098
1691217817329972200,3.74297216796875,0.0008967211470007896,0.0006847009062767029,-0.0007633939385414124
1691217817339984600,3.752984619140625,0.00046333763748407364,-0.00039178342558443546,-0.0024273376911878586
1691217817350025700,3.763025634765625,-0.00008846912533044815,-0.001012033550068736,-0.002951713278889656
1691217817360065500,3.7730654296875,0.000033461954444646835,0.0008847302524372935,-0.001049492508172989
1691217817370105600,3.783105712890625,-0.00019530346617102623,0.0005827278364449739,-0.0017799977213144302
1691217817380146400,3.793146484375,-0.0003480385057628155,-0.0006545600481331348,-0.0018007047474384308
1691217817390186500,3.8031865234375,-0.00044870609417557716,0.001111914636567235,-0.0022513121366500854
1691217817400226600,3.8132265625,0.00014946376904845238,0.0015553353587165475,-0.0010171923786401749
1691217817410266600,3.8232666015625,0.00024081021547317505,0.0004764888435602188,-0.0007759109139442444
1691217817420307700,3.8333076171875,0.0004080147482454777,0.0006927972426638007,0.00014753453433513641
1691217817430347500,3.843347412109375,0.0010586250573396683,0.000946596497669816,0.000979771837592125
1691217817440387600,3.8533876953125,0.00029295170679688454,-0.00006968295201659203,0.0005570650100708008
1691217817450428400,3.863428466796875,0.00043037068098783493,-0.001055052736774087,0.0018992982804775238
1691217817460498700,3.873498779296875,0.0004122215323150158,-0.001627620542421937,0.000355452299118042
1691217817470539500,3.88353955078125,-0.0010543810203671455,0.0005660252645611763,0.0025056879967451096
1691217817480579600,3.89357958984375,-0.0010712253861129284,0.001271295826882124,0.0021508168429136276
1691217817490619600,3.90361962890625,-0.0009386003948748112,0.0006225497927516699,-0.000046292319893836975
1691217817500660700,3.91366064453125,0.00035576894879341125,0.0014181003207340837,0.0014107227325439453
1691217817510700500,3.923700439453125,0.000024205073714256287,0.0013083780650049448,-0.002103317528963089
1691217817520740600,3.93374072265625,0.0009986462537199259,0.0024112281389534473,-0.0002949517220258713
1691217817530780700,3.94378076171875,-0.0008495873771607876,-0.0010175916831940413,-0.00023023784160614014
1691217817540821500,3.953821533203125,-0.0005968082696199417,0.0001712010707706213,-0.0010299067944288254
1691217817550861600,3.963861572265625,-0.0004977388307452202,-0.002173445653170347,-0.00011883862316608429
1691217817560901600,3.973901611328125,0.000858295476064086,-0.0018590388353914022,-0.00037014856934547424
1691217817570941400,3.98394140625,-0.0001896582543849945,0.00007335073314607143,-0.0012692324817180634
1691217817580982500,3.993982421875,-0.00012510688975453377,-0.0017383159138262272,0.0021218489855527878
1691217817591022600,4.004022705078125,-0.0010441639460623264,0.0014798478223383427,0.0017721764743328094
1691217817601093600,4.01409375,-0.001081428024917841,0.000499689718708396,0.0020059440284967422
1691217817611133700,4.0241337890625,-0.00211233738809824,0.0005806498229503632,0.0016490798443555832
1691217817621173500,4.034173583984375,-0.0020316224545240402,0.0011591202346608043,0.004879145883023739
1691217817631214600,4.044214599609375,-0.0008888598531484604,-0.0015786094591021538,0.0014793556183576584
1691217817641254700,4.054254638671875,-0.0004371907562017441,-0.0009275244083255529,0.0008770693093538284
1691217817651294500,4.06429443359375,-0.00026967795565724373,-0.001299567986279726,0.0018387362360954285
1691217817661335600,4.07433544921875,0.0008827222045511007,0.0006848206976428628,0.00016148202121257782
1691217817671375600,4.084375732421875,0.001498977653682232,-0.0009628769475966692,-0.00007420778274536133
1691217817681415700,4.094415771484375,-0.00030198926106095314,0.0009329771855846047,-0.002496737986803055
1691217817691455500,4.10445556640625,0.00016193324699997902,0.0005710534751415253,-0.002882096916437149
1691217817701496600,4.11449658203125,-0.000946966465562582,-0.002324699889868498,-0.002119552344083786
1691217817711536600,4.12453662109375,-0.00000820215791463852,-0.00034623732790350914,-0.001788254827260971
1691217817721576400,4.134576416015625,-0.0005777743645012379,0.00027359090745449066,-0.00014072470366954803
1691217817731617500,4.144617431640625,0.0019807242788374424,-0.0002806128468364477,-0.002691766247153282
1691217817741687600,4.1546875,0.0006811185739934444,0.0017287724185734987,0.0014086812734603882
1691217817751728600,4.164728759765625,0.0006504920311272144,0.00006243260577321053,0.0006997473537921906
1691217817761768700,4.174768798828125,-0.0005251406691968441,0.0008932307828217745,0.0018590912222862244
1691217817771808500,4.18480859375,-0.0009105000644922256,-0.00006470829248428345,0.003014104440808296
1691217817781848300,4.194848388671875,-0.0006096521392464638,-0.0006197204347699881,0.003171674907207489
1691217817791889400,4.204889404296875,0.0006966283544898033,0.0014900359092280269,0.0029210709035396576
1691217817801929500,4.214929443359375,0.0015281063970178366,0.0008611929370090365,0.0010990407317876816
1691217817811969500,4.224969482421875,-0.00009402493014931679,0.00035199662670493126,0.0011762715876102448
1691217817822010600,4.2350107421875,0.0020159445703029633,-0.000017660437151789665,0.0007422566413879395
1691217817832050700,4.24505078125,-0.0007524113170802593,0.0012356232618913054,-0.0004921182990074158
1691217817842090500,4.255090576171875,0.00008241785690188408,-0.0010515791364014149,-0.0030463095754384995
1691217817852130600,4.265130615234375,-0.0007721902802586555,0.00018466031178832054,-0.002549629658460617
1691217817862171600,4.275171630859375,-0.0010875975713133812,0.0017688260413706303,-0.0014122650027275085
1691217817872211500,4.28521142578125,-0.0012551103718578815,-0.0019742469303309917,-0.001046082004904747
1691217817882251500,4.29525146484375,-0.0005512279458343983,-0.0002757457550615072,-0.001802980899810791
1691217817892322600,4.305322509765625,-0.00016506947576999664,0.00021347682923078537,0.0007925350219011307
1691217817902362600,4.315362548828125,0.0006243637762963772,-0.001054699532687664,0.00039623863995075226
1691217817912403500,4.325403564453125,0.000019027385860681534,0.00026223366148769855,0.00045243091881275177
1691217817922443500,4.335443603515625,0.0019258277025073767,-0.0017548773903399706,0.002407623454928398
1691217817932483300,4.3454833984375,-0.000685401726514101,0.00038630422204732895,0.002195369452238083
1691217817942524400,4.3555244140625,-0.0011168005876243114,-0.00019889045506715775,0.0004426185041666031
1691217817952564500,4.365564453125,-0.0008371686562895775,-0.0008899806998670101,0.0015574172139167786
1691217817962604500,4.3756044921875,-0.00045769941061735153,0.000045577529817819595,0.0009734444320201874
1691217817972644600,4.38564453125,0.0002861213870346546,-0.0007754750549793243,0.00041231513023376465
1691217817982685400,4.395685546875,0.0007935105822980404,-0.002037609927356243,0.0002480223774909973
1691217817992725500,4.4057255859375,0.0019599751103669405,-0.0032711857929825783,0.0005500242114067078
1691217818002765600,4.415765625,0.18233951926231384,0.014456802979111671,-0.02830401062965393
1691217818012806700,4.425806640625,0.40638968348503113,-0.06683085858821869,0.013475662097334862
1691217818022846500,4.435846435546875,0.5743964314460754,-0.11965174227952957,0.01872883178293705
1691217818032917500,4.44591748046875,0.7455183863639832,-0.10979485511779785,0.034469179809093475
1691217818042957600,4.45595751953125,0.9158791899681091,-0.08135516196489334,0.03669203072786331
1691217818052997600,4.46599755859375,1.089834213256836,-0.026408560574054718,0.013672731816768646
1691217818063037700,4.47603759765625,1.271060824394226,0.057036153972148895,-0.0038077309727668762
1691217818073078500,4.48607861328125,1.4484410285949707,0.09718463569879532,-0.021779540926218033
1691217818083118300,4.496118408203125,1.6433840990066528,0.1019013524055481,-0.0007618088275194168
1691217818093158400,4.506158447265625,1.8327031135559082,0.06989441812038422,0.023670030757784843
1691217818103199500,4.516199462890625,1.9943594932556152,0.007187820039689541,0.050119154155254364
1691217818113239600,4.526239501953125,2.173539400100708,-0.029219988733530045,0.08155883848667145
1691217818123279600,4.536279541015625,2.3651013374328613,-0.08452856540679932,0.07498225569725037
1691217818133319700,4.546319580078125,2.547027349472046,-0.08553710579872131,0.05221729353070259
1691217818143360500,4.556360595703125,2.7076926231384277,-0.034767769277095795,-0.0036418288946151733
1691217818153400600,4.566400634765625,2.864300489425659,0.019584152847528458,-0.039576392620801926
1691217818163440400,4.5764404296875,2.9720053672790527,0.08391688764095306,-0.03462586551904678
1691217818173511400,4.586511474609375,3.1054952144622803,0.0963280126452446,0.021729016676545143
1691217818183551500,4.596551513671875,3.2520883083343506,0.106721431016922,0.03580239787697792
1691217818193592600,4.606592529296875,3.389392852783203,0.08070793747901917,0.0270850732922554
1691217818203632600,4.616632568359375,3.5221080780029297,0.018670273944735527,0.037325553596019745
1691217818213672700,4.626672607421875,3.653416633605957,-0.027087893337011337,0.07369554787874222
1691217818223712500,4.63671240234375,3.797609806060791,-0.08795399963855743,0.1419604867696762
1691217818233753300,4.64675341796875,3.9310123920440674,-0.08105907589197159,0.16022977232933044
1691217818243793400,4.65679345703125,4.108904838562012,-0.036294836550951004,0.1546834260225296
1691217818253833500,4.66683349609375,4.309789657592773,-0.030402859672904015,0.10729008913040161
1691217818263874600,4.67687451171875,4.494235038757324,0.023772401735186577,0.057674191892147064
1691217818273914600,4.68691455078125,4.677678108215332,0.07112713903188705,0.004989941604435444
1691217818283954700,4.69695458984375,4.848041534423828,0.10345537215471268,-0.079010508954525
1691217818293994800,4.706994873046875,4.961744785308838,0.0962778851389885,-0.12407812476158142
1691217818304035600,4.71703564453125,5.103673458099365,0.050626736134290695,-0.10558483004570007
1691217818314106400,4.7271064453125,5.283858299255371,-0.011406274512410164,-0.11684413254261017
1691217818324146400,4.737146484375,5.424506187438965,-0.027374543249607086,-0.11343133449554443
1691217818334186500,4.7471865234375,5.552706241607666,-0.008518830873072147,-0.052968256175518036
1691217818344221000,4.757220947265625,5.692893981933594,-0.053753867745399475,-0.0012641120702028275
1691217818354261800,4.76726171875,5.840585708618164,-0.03635090962052345,0.07190278172492981
1691217818364301800,4.7773017578125,6.010460376739502,-0.13398343324661255,0.10433993488550186
1691217818374342000,4.787341796875,6.159339904785156,-0.15965819358825684,0.1732761263847351
1691217818384383000,4.797383056640625,6.2721710205078125,-0.06601395457983017,0.23734790086746216
1691217818394423000,4.807423095703125,6.442477226257324,-0.09530632942914963,0.21777980029582977
1691217818404462800,4.817462890625,6.589920520782471,-0.18848375976085663,0.25397491455078125
1691217818414503000,4.8275029296875,6.735909461975098,-0.12520359456539154,0.23192793130874634
1691217818424543700,4.837543701171875,6.916712284088135,-0.04669501259922981,0.1767711639404297
1691217818434583800,4.847583740234375,7.078169345855713,0.0022693336941301823,0.18940359354019165
1691217818444624000,4.857623779296875,7.249900817871094,0.08145486563444138,0.10103718936443329
1691217818454695000,4.86769482421875,7.3839192390441895,0.0561756007373333,0.090671107172966
1691217818464735000,4.87773486328125,7.511804580688477,0.08388405293226242,0.09863919019699097
1691217818474776000,4.887776123046875,7.635207653045654,0.024475324898958206,0.061447083950042725
1691217818484816000,4.89781591796875,7.750013828277588,-0.03723732754588127,0.10742777585983276
1691217818494856000,4.90785595703125,7.897579193115234,-0.05745178461074829,0.1472092717885971
1691217818504896000,4.91789599609375,8.049934387207031,-0.1127728670835495,0.11890070140361786
1691217818514936800,4.927936767578125,8.169739723205566,-0.1218196302652359,0.21451511979103088
1691217818524977000,4.937976806640625,8.296455383300781,-0.1228138729929924,0.1588202267885208
1691217818535017000,4.948016845703125,8.43464183807373,-0.06517321616411209,0.1799742430448532
1691217818545058000,4.95805810546875,8.580967903137207,-0.04723067954182625,0.2093980312347412
1691217818555097900,4.968097900390625,8.752581596374512,-0.02263559028506279,0.1312188059091568
1691217818565138000,4.978137939453125,8.913935661315918,-0.0026111644692718983,0.17160853743553162
1691217818575178000,4.988177978515625,9.046407699584961,-0.006598982028663158,0.13943250477313995
1691217818585218800,4.99821875,9.205092430114746,-0.014665927737951279,0.12422347813844681
1691217818595289900,5.008289794921875,9.336809158325195,-0.05479337275028229,0.11121926456689835
1691217818605330000,5.018329833984375,9.489187240600586,-0.05484665930271149,0.10607606917619705
1691217818615370000,5.028369873046875,9.662144660949707,-0.038894858211278915,0.08784087002277374
1691217818625409800,5.038409912109375,9.81583309173584,-0.034991759806871414,0.11745224893093109
1691217818635451000,5.048450927734375,9.969498634338379,-0.033918771892786026,0.11655716598033905
1691217818645491000,5.058490966796875,10.109051704406738,-0.062400221824645996,0.17652687430381775
1691217818655531000,5.068531005859375,10.280367851257324,-0.07835255563259125,0.2068227380514145
1691217818665571800,5.07857177734375,10.456463813781738,-0.05664519593119621,0.1661028414964676
1691217818675612000,5.08861181640625,10.630640983581543,-0.0888337567448616,0.22829005122184753
1691217818685652000,5.09865185546875,10.760040283203125,-0.1292557567358017,0.22718945145606995
1691217818695691800,5.10869189453125,10.905231475830078,-0.12680111825466156,0.22066523134708405
1691217818705732900,5.11873291015625,11.031662940979004,-0.09323042631149292,0.20702937245368958
1691217818715773000,5.12877294921875,11.18686580657959,-0.1305607557296753,0.18808524310588837
1691217818725813000,5.13881298828125,11.353604316711426,-0.06383772194385529,0.17955322563648224
1691217818735853000,5.14885302734375,11.487383842468262,-0.04275134578347206,0.21910223364830017
1691217818745924000,5.158924072265625,11.656671524047852,-0.08454679697751999,0.2125537395477295
1691217818755965000,5.16896484375,11.796010971069336,-0.10789366811513901,0.2614232897758484
1691217818766005000,5.1790048828125,11.962041854858398,-0.06833161413669586,0.2665752172470093
1691217818776044800,5.189044921875,12.102834701538086,0.011557355523109436,0.23789538443088531
1691217818786084900,5.1990849609375,12.223734855651855,-0.054072342813014984,0.24084782600402832
1691217818796126000,5.2091259765625,12.337442398071289,-0.1349882334470749,0.20929469168186188
1691217818806166000,5.219166015625,12.479034423828125,-0.06813956797122955,0.1668344885110855
1691217818816206000,5.2292060546875,12.62037181854248,-0.03292218595743179,0.18644653260707855
1691217818826247000,5.239246826171875,12.74932861328125,-0.05691045895218849,0.13525819778442383
1691217818836287000,5.249286865234375,12.87865924835205,-0.03542966768145561,0.14331984519958496
1691217818846326800,5.259326904296875,12.98394775390625,-0.031331177800893784,0.14546450972557068
1691217818856366800,5.269366943359375,13.109169006347656,-0.07792051881551743,0.12800481915473938
1691217818866408000,5.279407958984375,13.228032112121582,-0.07660949975252151,0.23917780816555023
1691217818876448000,5.289447998046875,13.358560562133789,-0.12901359796524048,0.23556630313396454
1691217818886519000,5.29951904296875,13.465167999267578,-0.15492263436317444,0.28176623582839966
1691217818896559000,5.30955908203125,13.618861198425293,-0.20813553035259247,0.34796950221061707
1691217818906599000,5.319598876953125,13.747217178344727,-0.20045100152492523,0.3515375852584839
1691217818916639700,5.3296396484375,13.856366157531738,-0.13951174914836884,0.2582334578037262
1691217818926679800,5.3396796875,13.970824241638184,-0.10767167806625366,0.254122793674469
1691217818936720000,5.349719970703125,14.119171142578125,-0.038610052317380905,0.2990545630455017
1691217818946760000,5.359760009765625,14.272953987121582,0.01768815703690052,0.2554020881652832
1691217818956801000,5.369801025390625,14.405349731445312,-0.016647977754473686,0.27347084879875183
1691217818966841000,5.379841064453125,14.553998947143555,-0.1023721769452095,0.2581990361213684
1691217818976881200,5.389881103515625,14.690596580505371,-0.07925300300121307,0.29324543476104736
1691217818986922000,5.399921875,14.822583198547363,-0.02857672981917858,0.26353827118873596
1691217818996961800,5.4099619140625,14.937807083129883,-0.12598957121372223,0.2701879143714905
1691217819007001900,5.420001953125,15.072449684143066,-0.15704382956027985,0.27347254753112793
1691217819017042000,5.4300419921875,15.207772254943848,-0.16584450006484985,0.2532293200492859
1691217819027113000,5.440113037109375,15.356758117675781,-0.15825925767421722,0.25476524233818054
1691217819037154000,5.450154052734375,15.469903945922852,-0.10655319690704346,0.28280726075172424
1691217819047194000,5.460194091796875,15.588353157043457,-0.07585453242063522,0.29639533162117004
1691217819057234000,5.47023388671875,15.721445083618164,0.027161864563822746,0.32524722814559937
1691217819067273700,5.480273681640625,15.83961009979248,0.013119212351739407,0.39359715580940247
1691217819077314800,5.490314697265625,15.956195831298828,-0.05483906716108322,0.35458555817604065
1691217819087355000,5.50035498046875,16.08393096923828,-0.11196558177471161,0.35723569989204407
1691217819097395000,5.51039501953125,16.218503952026367,-0.12484303116798401,0.3184123933315277
1691217819107436000,5.52043603515625,16.321636199951172,-0.16352561116218567,0.2635849714279175
1691217819117476000,5.53047607421875,16.430160522460938,-0.1208505928516388,0.2266988754272461
1691217819127516000,5.540515869140625,16.5684871673584,-0.04798019677400589,0.1394881010055542
1691217819137555700,5.5505556640625,16.692764282226562,-0.018346136435866356,0.12162575125694275
1691217819147596800,5.5605966796875,16.793880462646484,-0.05235126614570618,0.23328426480293274
1691217819157636900,5.570636962890625,16.92949676513672,-0.03325826674699783,0.2579749822616577
1691217819167708000,5.5807080078125,17.064672470092773,-0.05491826310753822,0.2583196759223938
1691217819177748000,5.590748046875,17.20497703552246,-0.1390128880739212,0.32254207134246826
1691217819187788000,5.6007880859375,17.347261428833008,-0.14607755839824677,0.26786354184150696
1691217819197829000,5.6108291015625,17.51829719543457,-0.16790908575057983,0.3412805199623108
1691217819207869000,5.620868896484375,17.660476684570312,-0.1988690346479416,0.3304343521595001
1691217819217908700,5.63090869140625,17.791915893554688,-0.2429123967885971,0.328498512506485
1691217819227948800,5.64094873046875,17.924320220947266,-0.1650582253932953,0.35237446427345276
1691217819237990000,5.650989990234375,18.05735969543457,-0.2001299262046814,0.3081553280353546
1691217819248030000,5.661030029296875,18.170913696289062,-0.18137428164482117,0.31484270095825195
1691217819258070000,5.671070068359375,18.29603385925293,-0.11241971701383591,0.2547071874141693
1691217819268111000,5.681111083984375,18.417133331298828,-0.08529607206583023,0.21757549047470093
1691217819278151000,5.69115087890625,18.527427673339844,-0.10164441913366318,0.26669907569885254
1691217819288190700,5.701190673828125,18.65613555908203,-0.12230806797742844,0.29369765520095825
1691217819298230800,5.711230712890625,18.780982971191406,-0.17591804265975952,0.34171628952026367
1691217819308301800,5.7213017578125,18.893720626831055,-0.266383558511734,0.36551734805107117
1691217819318343000,5.731343017578125,18.985872268676758,-0.20887154340744019,0.38821786642074585
1691217819328383000,5.741383056640625,19.104793548583984,-0.29366347193717957,0.3586784899234772
1691217819338448100,5.7514482421875,19.192773818969727,-0.2611939609050751,0.40684041380882263
1691217819348488200,5.76148828125,19.30915641784668,-0.15625862777233124,0.3930562436580658
1691217819358529000,5.771529052734375,19.434608459472656,-0.206728994846344,0.427370548248291
1691217819368569000,5.781569091796875,19.558698654174805,-0.1577504575252533,0.4366370439529419
1691217819378609200,5.791609130859375,19.681541442871094,-0.20912975072860718,0.4300142824649811
1691217819388649000,5.80164892578125,19.83744239807129,-0.17429393529891968,0.44508299231529236
1691217819398690000,5.81168994140625,19.97748374938965,-0.10778415203094482,0.42780253291130066
1691217819408730000,5.821730224609375,20.124113082885742,-0.06602383404970169,0.41438406705856323
1691217819418770200,5.831770263671875,20.249860763549805,-0.03829313442111015,0.44958066940307617
1691217819428811000,5.84181103515625,20.361618041992188,-0.04951959848403931,0.4134572446346283
1691217819438851000,5.85185107421875,20.48086929321289,-0.0931088849902153,0.36837658286094666
1691217819448922000,5.861922119140625,20.6152286529541,-0.10821378976106644,0.32016369700431824
1691217819458962200,5.871962158203125,20.724340438842773,-0.13717646896839142,0.29861924052238464
1691217819469002000,5.882001953125,20.844947814941406,-0.17009328305721283,0.3196696639060974
1691217819479043000,5.89204296875,20.970874786376953,-0.20171619951725006,0.3161463141441345
1691217819489083100,5.902083251953125,21.07908058166504,-0.19728244841098785,0.3305177092552185
1691217819499123200,5.912123291015625,21.191776275634766,-0.1918453425168991,0.3216845393180847
1691217819509163300,5.922163330078125,21.302654266357422,-0.16254325211048126,0.33583736419677734
1691217819519204000,5.9322041015625,21.3836727142334,-0.13063858449459076,0.3154436945915222
1691217819529244200,5.942244140625,21.510597229003906,-0.042223162949085236,0.3514525294303894
1691217819539284000,5.952283935546875,21.628963470458984,-0.1594235599040985,0.3790537714958191
1691217819549325000,5.962324951171875,21.73419952392578,-0.3109244406223297,0.41569650173187256
1691217819559365000,5.972365234375,21.862367630004883,-0.3591340482234955,0.43568113446235657
1691217819569405200,5.9824052734375,21.986772537231445,-0.342935174703598,0.4296267032623291
1691217819579445200,5.9924453125,22.123838424682617,-0.2914554476737976,0.3922702670097351
1691217819589516300,6.002516357421875,22.264636993408203,-0.2507464289665222,0.34902358055114746
1691217819599556000,6.01255615234375,22.36697006225586,-0.15143954753875732,0.3604053854942322
1691217819609597200,6.02259716796875,22.48211097717285,-0.12238305807113647,0.3756710886955261
1691217819619637000,6.032636962890625,22.58989715576172,-0.09189359098672867,0.36530792713165283
1691217819629677000,6.042677001953125,22.69843864440918,-0.1461874395608902,0.4606500566005707
1691217819639718100,6.05271826171875,22.811233520507812,-0.11567720025777817,0.44214028120040894
1691217819649758200,6.06275830078125,22.908782958984375,-0.1651337593793869,0.5299882292747498
1691217819659798300,6.07279833984375,23.011363983154297,-0.2362462878227234,0.5151424407958984
1691217819669838000,6.082838134765625,23.119117736816406,-0.3089582324028015,0.48457589745521545
1691217819679879200,6.092879150390625,23.19559669494629,-0.34118354320526123,0.47992441058158875
1691217819689919000,6.1029189453125,23.31383514404297,-0.33033037185668945,0.40775585174560547
1691217819699959000,6.112958984375,23.42788314819336,-0.232544407248497,0.3790389895439148
1691217819710000000,6.123000244140625,23.5427303314209,-0.16353768110275269,0.4077432453632355
1691217819720040200,6.133040283203125,23.678678512573242,-0.041688211262226105,0.37305983901023865
1691217819730080000,6.143080078125,23.800649642944336,-0.046038512140512466,0.43249326944351196
1691217819740151000,6.153151123046875,23.9443416595459,-0.07998315989971161,0.4091874063014984
1691217819750190800,6.16319091796875,24.070825576782227,-0.19788303971290588,0.3982086777687073
1691217819760232000,6.17323193359375,24.170434951782227,-0.32899659872055054,0.5423339009284973
1691217819770272000,6.18327197265625,24.283397674560547,-0.37146708369255066,0.4507586359977722
1691217819780312000,6.19331201171875,24.408740997314453,-0.3922905921936035,0.39935803413391113
1691217819790352100,6.20335205078125,24.537376403808594,-0.3418272137641907,0.39664220809936523
1691217819800393200,6.213393310546875,24.643386840820312,-0.32782673835754395,0.3603172302246094
1691217819810433000,6.22343310546875,24.743228912353516,-0.15867549180984497,0.37049388885498047
1691217819820473000,6.23347314453125,24.844057083129883,-0.14673282206058502,0.28177332878112793
1691217819830514200,6.24351416015625,24.91416358947754,-0.0846087783575058,0.335966020822525
1691217819840554000,6.253553955078125,25.003765106201172,-0.152848020195961,0.48657575249671936
1691217819850594000,6.263593994140625,25.087156295776367,-0.44591256976127625,0.4646686613559723
1691217819860634000,6.273634033203125,25.19321060180664,-0.39080697298049927,0.5073599219322205
1691217819870675200,6.28367529296875,25.294082641601562,-0.5493044853210449,0.6036115288734436
1691217819880745200,6.2937451171875,25.397865295410156,-0.4967992305755615,0.44110119342803955
1691217819890786000,6.3037861328125,25.515832901000977,-0.3660469353199005,0.3719653785228729
1691217819900825900,6.313825927734375,25.63766098022461,-0.3544435203075409,0.5565008521080017
1691217819910866000,6.323865966796875,25.765684127807617,-0.21700426936149597,0.4756062626838684
1691217819920907000,6.333906982421875,25.868541717529297,-0.19844071567058563,0.6499946117401123
1691217819930947000,6.343947021484375,25.997787475585938,-0.29422247409820557,0.6008598208427429
1691217819940987100,6.353987060546875,26.0911865234375,-0.1283794492483139,0.6380271315574646
1691217819951027200,6.364027099609375,26.18476676940918,-0.12168970704078674,0.7020105123519897
1691217819961068000,6.374068115234375,26.28887939453125,-0.26516857743263245,0.7130037546157837
1691217819971108000,6.384108154296875,26.38452911376953,-0.3149010241031647,0.6454958319664001
1691217819981148000,6.39414794921875,26.48712730407715,-0.272137314081192,0.6001887917518616
1691217819991189000,6.40418896484375,26.574541091918945,-0.14882193505764008,0.4419415295124054
1691217820001229000,6.41422900390625,26.686973571777344,-0.09300313889980316,0.38294506072998047
1691217820011269000,6.42426904296875,26.78472900390625,-0.04482680559158325,0.36632323265075684
1691217820021340200,6.434340087890625,26.89934730529785,-0.01720157079398632,0.34277424216270447
1691217820031380200,6.444380126953125,27.017549514770508,-0.16784442961215973,0.46733567118644714
1691217820041420000,6.454419921875,27.15007209777832,-0.059850841760635376,0.39544549584388733
1691217820051460900,6.4644609375,27.256317138671875,-0.1679590344429016,0.41492322087287903
1691217820061501000,6.4745009765625,27.356792449951172,-0.41610971093177795,0.44277989864349365
1691217820071541000,6.484541015625,27.465606689453125,-0.36189931631088257,0.3950830399990082
1691217820081582000,6.49458203125,27.5559024810791,-0.5284981727600098,0.46690821647644043
1691217820091622100,6.5046220703125,27.645950317382812,-0.43412744998931885,0.325600802898407
1691217820101662200,6.514662109375,27.712541580200195,-0.40062567591667175,0.10589931905269623
1691217820111702300,6.524702392578125,27.805110931396484,-0.3579969108104706,0.31954824924468994
1691217820121743000,6.5347431640625,27.86957359313965,-0.3378746211528778,0.43802136182785034
1691217820131783000,6.544782958984375,27.941917419433594,-0.3292274475097656,0.509401261806488
1691217820141823000,6.554822998046875,28.010101318359375,-0.28423362970352173,0.7666913866996765
1691217820151864000,6.564864013671875,28.106849670410156,-0.5495219230651855,0.7084965109825134
1691217820161934000,6.57493408203125,28.20044708251953,-0.7309087514877319,0.8211032152175903
1691217820171975200,6.58497509765625,28.310251235961914,-0.6512166857719421,0.7795398235321045
1691217820182015200,6.59501513671875,28.432085037231445,-0.4942789673805237,0.6260266900062561
1691217820192055000,6.605054931640625,28.534149169921875,-0.35690510272979736,0.6418310403823853
1691217820202095900,6.615095947265625,28.640247344970703,-0.1836390495300293,0.5673418641090393
1691217820212136000,6.625135986328125,28.747343063354492,-0.21066798269748688,0.5812440514564514
1691217820222176000,6.635176025390625,28.845741271972656,0.023148782551288605,0.7201159596443176
1691217820232216000,6.645216064453125,28.934659957885742,0.045439403504133224,0.6528458595275879
1691217820242257200,6.655257080078125,29.029211044311523,-0.13768674433231354,0.7677522301673889
1691217820252297200,6.665297119140625,29.101224899291992,-0.34025317430496216,0.8169502019882202
1691217820262337300,6.675337158203125,29.207908630371094,-0.26882585883140564,0.6262146234512329
1691217820272378000,6.685378173828125,29.305110931396484,-0.3047896921634674,0.5879576802253723
1691217820282418000,6.69541796875,29.409408569335938,-0.13266189396381378,0.47356265783309937
1691217820292458000,6.7054580078125,29.50539779663086,-0.290577232837677,0.48857399821281433
1691217820302529000,6.715529052734375,29.622482299804688,-0.14492204785346985,0.35449424386024475
1691217820312569000,6.725569091796875,29.733484268188477,-0.27761146426200867,0.20500361919403076
1691217820322609200,6.735609130859375,29.836816787719727,-0.31103864312171936,0.4296058118343353
1691217820332650200,6.745650146484375,29.927574157714844,-0.34930986166000366,0.40768319368362427
1691217820342666800,6.755666748046875,30.017038345336914,-0.3030947148799896,0.4435882270336151
1691217820352706600,6.76570654296875,30.073347091674805,-0.38014569878578186,0.5479925870895386
1691217820362747400,6.775747314453125,30.157888412475586,-0.4812174439430237,0.5755552649497986
1691217820372787500,6.785787353515625,30.229005813598633,-0.49863746762275696,0.6828340291976929
1691217820382827500,6.79582763671875,30.302541732788086,-0.5345776677131653,0.6586692929267883
1691217820392867600,6.80586767578125,30.37421989440918,-0.5875845551490784,0.6278451085090637
1691217820402908700,6.81590869140625,30.479440689086914,-0.46257948875427246,0.6536908149719238
1691217820412948700,6.82594873046875,30.575698852539062,-0.3792668581008911,0.5494725704193115
1691217820422988500,6.835988525390625,30.695568084716797,-0.19881583750247955,0.527917742729187
1691217820433029600,6.846029541015625,30.811126708984375,-0.10581498593091965,0.6163813471794128
1691217820443099400,6.856099365234375,30.9227294921875,-0.14287926256656647,0.6018258333206177
1691217820453140500,6.866140380859375,31.01238441467285,-0.21219681203365326,0.5855714678764343
1691217820463180500,6.8761806640625,31.110082626342773,-0.36851662397384644,0.7379932403564453
1691217820473220600,6.886220703125,31.193267822265625,-0.4398517310619354,0.6613695025444031
1691217820483260700,6.8962607421875,31.280147552490234,-0.5254718065261841,0.5926346182823181
1691217820493301500,6.906301513671875,31.365509033203125,-0.3641648590564728,0.5673000812530518
1691217820503341300,6.91634130859375,31.436830520629883,-0.46669232845306396,0.4695711135864258
1691217820513381400,6.92638134765625,31.5013427734375,-0.2957349419593811,0.34339576959609985
1691217820523422500,6.93642236328125,31.59156036376953,-0.2790888547897339,0.13939975202083588
1691217820533462500,6.946462646484375,31.664886474609375,-0.5180727243423462,0.5933821201324463
1691217820543502600,6.956502685546875,31.757747650146484,-0.4298991858959198,0.4958414137363434
1691217820553542700,6.966542724609375,31.85561180114746,-0.5579558610916138,0.6266235709190369
1691217820563583500,6.97658349609375,31.941619873046875,-0.8088562488555908,0.7661823034286499
1691217820573623600,6.98662353515625,32.023048400878906,-0.6216821670532227,0.7273644804954529
1691217820583694300,6.9966943359375,32.1027717590332,-0.7357770800590515,0.8531240224838257
1691217820593734400,7.006734375,32.2034797668457,-0.6140483021736145,0.7931045293807983
1691217820603774500,7.0167744140625,32.2857551574707,-0.5100129842758179,0.7814018130302429
1691217820613815600,7.026815673828125,32.38869857788086,-0.46571189165115356,0.7837325930595398
1691217820623855600,7.036855712890625,32.45688247680664,-0.337880939245224,0.769977867603302
1691217820633895700,7.046895751953125,32.53989791870117,-0.17903420329093933,0.7841585278511047
1691217820643936500,7.0569365234375,32.61347961425781,-0.1572633981704712,0.8048688769340515
1691217820653976300,7.066976318359375,32.6968879699707,-0.20101624727249146,0.7120638489723206
1691217820664016400,7.077016357421875,32.810401916503906,-0.21061241626739502,0.7150223255157471
1691217820674056400,7.087056396484375,32.927799224853516,-0.4544582664966583,0.8080364465713501
1691217820684097500,7.09709765625,33.0072135925293,-0.4622829258441925,0.7032256126403809
1691217820694137600,7.1071376953125,33.095218658447266,-0.1747089922428131,0.6352381110191345
1691217820704177700,7.117177734375,33.17050552368164,-0.32747882604599,0.540305495262146
1691217820714218500,7.127218505859375,33.24376678466797,-0.19286450743675232,0.27114537358283997
1691217820724258600,7.137258544921875,33.3302001953125,-0.44280722737312317,0.26870137453079224
1691217820734329300,7.147329345703125,33.3857536315918,-0.5763578414916992,0.5357808470726013
1691217820744369400,7.157369384765625,33.45076370239258,-0.3144005537033081,0.3329981863498688
1691217820754409500,7.167409423828125,33.50423812866211,-0.49976420402526855,0.6604323387145996
1691217820764449500,7.177449462890625,33.57539749145508,-0.6732470393180847,0.6457793712615967
1691217820774490600,7.18749072265625,33.66386032104492,-0.8673846125602722,0.6934909224510193
1691217820784530700,7.19753076171875,33.76908874511719,-0.7806515693664551,0.7583919167518616
1691217820794570500,7.207570556640625,33.85761260986328,-0.6457418203353882,0.7552847862243652
1691217820804611300,7.217611328125,33.94306564331055,-0.5346113443374634,0.6388828158378601
1691217820814651400,7.2276513671875,34.046485900878906,-0.5433447957038879,0.749359130859375
1691217820824691500,7.23769140625,34.11430740356445,-0.43696168065071106,0.7689173817634583
1691217820834731500,7.2477314453125,34.203712463378906,-0.3898683786392212,0.8039371371269226
1691217820844772600,7.257772705078125,34.260135650634766,-0.39294859766960144,0.8268847465515137
1691217820854812700,7.267812744140625,34.33336639404297,-0.4423329532146454,0.7459061145782471
1691217820864852500,7.2778525390625,34.400352478027344,-0.5706722736358643,0.8471107482910156
1691217820874923500,7.287923583984375,34.47153091430664,-0.5017111301422119,0.8901883959770203
1691217820884963600,7.297963623046875,34.56246566772461,-0.26888296008110046,0.6782662868499756
1691217820895004400,7.30800439453125,34.67477035522461,-0.36327168345451355,0.5278955698013306
1691217820905044500,7.31804443359375,34.48371887207031,-0.5133094191551208,0.48287245631217957
1691217820915084500,7.32808447265625,34.541526794433594,-0.5446788668632507,0.5192512273788452
1691217820925125600,7.338125732421875,34.620704650878906,-0.49069473147392273,0.555876612663269
1691217820935165700,7.348165771484375,34.67698287963867,-0.4538423418998718,0.6555863618850708
1691217820945205500,7.35820556640625,34.68672561645508,-0.6741510033607483,0.7005511522293091
1691217820955245600,7.36824560546875,34.68574905395508,-0.5269631147384644,0.8933330178260803
1691217820965286400,7.378286376953125,34.685829162597656,-0.5793901085853577,0.9032056331634521
1691217820975326500,7.388326416015625,34.68567657470703,-0.6455712914466858,0.8511977791786194
1691217820985366500,7.398366455078125,34.68557357788086,-0.5596507787704468,0.8940847516059875
1691217820995406600,7.408406494140625,34.68645477294922,-0.3878140151500702,0.6627500653266907
1691217821005447700,7.41844775390625,34.68723678588867,-0.36441174149513245,0.6839627027511597
1691217821015518700,7.428518798828125,34.686485290527344,-0.23653580248355865,0.7412320971488953
1691217821025558500,7.43855859375,34.686824798583984,-0.2454528659582138,0.5930306315422058
1691217821035598600,7.4485986328125,34.687156677246094,-0.36203885078430176,0.6764294505119324
1691217821045638700,7.458638671875,34.686763763427734,-0.47942405939102173,0.7275651097297668
1691217821055679500,7.468679443359375,34.68644714355469,-0.7121699452400208,0.7160423994064331
1691217821065719600,7.478719482421875,34.68645095825195,-0.42137640714645386,0.7281882762908936
1691217821075759600,7.488759521484375,34.68669128417969,-0.42780420184135437,0.5701549649238586
1691217821085800700,7.49880078125,34.687355041503906,-0.5718940496444702,0.4412683844566345
1691217821095840500,7.508840576171875,34.68758773803711,-0.6268419623374939,0.4381791651248932
1691217821105880600,7.518880615234375,34.68672561645508,-0.8397257328033447,0.6024749279022217
1691217821115920600,7.528920654296875,34.687137603759766,-0.5293331146240234,0.625166118144989
1691217821125961500,7.53896142578125,34.68585968017578,-0.791622519493103,0.8262052536010742
1691217821136001500,7.54900146484375,34.685874938964844,-0.7811263799667358,0.8726696372032166
1691217821146041600,7.55904150390625,34.68519973754883,-0.7552460432052612,1.0257190465927124
1691217821156112400,7.5691123046875,34.685264587402344,-0.6621463298797607,0.9974225163459778
1691217821166152400,7.57915234375,34.6856803894043,-0.652783989906311,0.9521740674972534
1691217821176193500,7.589193603515625,34.68556213378906,-0.5423200726509094,0.8701997995376587
1691217821186233600,7.599233642578125,34.685691833496094,-0.5184651017189026,0.8697526454925537
1691217821196273700,7.609273681640625,34.68593215942383,-0.398009330034256,0.7894919514656067
1691217821206313700,7.619313720703125,34.68684387207031,-0.40948939323425293,0.7570634484291077
1691217821216354600,7.6293544921875,34.68679428100586,-0.4450751543045044,0.7483404278755188
1691217821226394600,7.63939453125,34.685951232910156,-0.5125146508216858,0.7026925086975098
1691217821236434400,7.649434326171875,34.68602752685547,-0.5357047915458679,0.8002675175666809
1691217821246475500,7.6594755859375,34.68524932861328,-0.6016800999641418,0.872207522392273
1691217821256515600,7.669515625,34.68662643432617,-0.5182898640632629,0.6036134362220764
1691217821266555600,7.6795556640625,34.68743896484375,-0.5564302802085876,0.4264522194862366
1691217821276595700,7.689595703125,34.68613052368164,-0.769683301448822,0.7383476495742798
1691217821286636500,7.699636474609375,34.68708038330078,-0.6978660821914673,0.5657673478126526
1691217821296707600,7.70970751953125,34.68571853637695,-0.6800732016563416,0.8752445578575134
1691217821306747400,7.719747314453125,34.68515396118164,-0.9058152437210083,0.7792298793792725
1691217821316787500,7.729787353515625,34.685184478759766,-0.726212203502655,0.937343180179596
1691217821326827500,7.73982763671875,34.68526077270508,-0.7035071849822998,0.9374057650566101
1691217821336868600,7.74986865234375,34.68595504760742,-0.6813178062438965,0.8949061632156372
1691217821346896000,7.759895751953125,34.68519973754883,-0.6214461922645569,0.960220992565155
1691217821356936000,7.76993603515625,34.685298919677734,-0.5695473551750183,0.9107533097267151
1691217821366977000,7.77997705078125,34.6850471496582,-0.5669904947280884,0.9490697979927063
1691217821377017000,7.79001708984375,34.68559265136719,-0.5783979892730713,0.7887563705444336
1691217821387057000,7.800056884765625,34.685638427734375,-0.5640895962715149,0.7816745042800903
1691217821397097000,7.810096923828125,34.68609619140625,-0.48803696036338806,0.7820082902908325
1691217821407137800,7.8201376953125,34.68730926513672,-0.45219215750694275,0.6203275322914124
1691217821417177900,7.830177734375,34.686187744140625,-0.6716387867927551,0.7494238018989563
1691217821427218000,7.840218017578125,34.686134338378906,-0.8364027142524719,0.6749956607818604
1691217821437289000,7.8502890625,34.686988830566406,-0.85179203748703,0.5909656882286072
1691217821447328800,7.860328857421875,34.685691833496094,-0.8658874034881592,0.7497561573982239
1691217821457369900,7.870369873046875,34.686038970947266,-0.8181089162826538,0.7763510346412659
1691217821467410000,7.880409912109375,34.685340881347656,-0.9473915696144104,0.8447175621986389
1691217821477450000,7.890449951171875,34.68517303466797,-0.8154630661010742,0.9997087121009827
1691217821487490000,7.900489990234375,34.684898376464844,-0.8589138984680176,0.9973089694976807
1691217821497531000,7.91053076171875,34.685462951660156,-0.775994598865509,0.9207667112350464
1691217821507571000,7.920571044921875,34.6850700378418,-0.6450715065002441,1.0432637929916382
1691217821517611000,7.930611083984375,34.685523986816406,-0.5745781660079956,0.9624251127243042
1691217821527652000,7.940652099609375,34.684814453125,-0.6479069590568542,1.0094170570373535
1691217821537692000,7.95069189453125,34.685089111328125,-0.6455438733100891,0.9773572683334351
1691217821547732000,7.96073193359375,34.6854248046875,-0.6901640892028809,0.8312650322914124
1691217821557772000,7.97077197265625,34.6859130859375,-0.5521228313446045,0.8477461338043213
1691217821567812900,7.980812744140625,34.68647384643555,-0.45749759674072266,0.7075168490409851
1691217821577884000,7.9908837890625,34.68714904785156,-0.6720925569534302,0.5691928863525391
1691217821587924000,8.000924072265626,34.68596649169922,-0.861427903175354,0.6917814016342163
1691217821597963800,8.0109638671875,34.68614959716797,-0.8799067735671997,0.6897081136703491
1691217821608003800,8.02100390625,34.68571090698242,-0.9701615571975708,0.7836450338363647
1691217821618045000,8.031044921875,34.684776306152344,-0.9582691788673401,0.923780620098114
1691217821628085000,8.0410849609375,34.684425354003906,-1.02915620803833,0.9304912686347961
1691217821638125000,8.051125,34.68424606323242,-0.912947952747345,1.0956729650497437
1691217821648164900,8.061164794921876,34.684444427490234,-0.9003381133079529,1.0570274591445923
1691217821658206000,8.0712060546875,34.68492889404297,-0.8949453830718994,0.9920477271080017
1691217821668246000,8.08124609375,34.68446350097656,-0.7280037999153137,1.1114689111709595
1691217821678285800,8.091285888671875,34.685157775878906,-0.7304016947746277,1.0743274688720703
1691217821688327000,8.101326904296876,34.684478759765625,-0.7048920392990112,1.1253925561904907
1691217821698367000,8.111366943359375,34.685081481933594,-0.6389666199684143,1.0679113864898682
1691217821708407000,8.121406982421876,34.685401916503906,-0.5566467046737671,0.9717562198638916
1691217821718478000,8.13147802734375,34.68568420410156,-0.5343863368034363,0.9738843441009521
1691217821728518000,8.141517822265625,34.68627166748047,-0.530661940574646,0.8187669515609741
1691217821738559000,8.15155908203125,34.686119079589844,-0.7842230796813965,0.6899858117103577
1691217821748598800,8.161598876953125,34.68653106689453,-0.7611976265907288,0.6667388081550598
1691217821758638800,8.171638916015626,34.686279296875,-0.805454671382904,0.7246142029762268
1691217821768679000,8.181678955078125,34.68592071533203,-0.7781564593315125,0.8212390542030334
1691217821778720000,8.191719970703126,34.685035705566406,-0.9591488838195801,0.898755669593811
1691217821788760000,8.201760009765625,34.6848030090332,-1.0174672603607178,0.9416463971138
1691217821798800000,8.2117998046875,34.68501663208008,-0.8087999224662781,1.0477561950683594
1691217821808841000,8.221841064453125,34.68482208251953,-0.8863738179206848,0.9434114694595337
1691217821818881000,8.231881103515626,34.6845817565918,-0.8188789486885071,1.0037314891815186
1691217821828920800,8.2419208984375,34.68436050415039,-0.7802663445472717,1.035744071006775
1691217821838961000,8.2519609375,34.684593200683594,-0.7271745800971985,1.0371395349502563
1691217821849002000,8.262001953125,34.68492126464844,-0.7296582460403442,1.0235947370529175
1691217821859042000,8.2720419921875,34.68550109863281,-0.7243821024894714,0.8871158361434937
1691217821869113000,8.282113037109376,34.68577194213867,-0.6884132027626038,0.9095665216445923
1691217821879153000,8.29215283203125,34.68650817871094,-0.5458904504776001,0.805385172367096
1691217821889192700,8.302192626953126,34.686065673828125,-0.8372711539268494,0.7165402770042419
1691217821899233800,8.31223388671875,34.685848236083984,-0.8887609243392944,0.7713667750358582
1691217821909273900,8.32227392578125,34.68571853637695,-0.9957038760185242,0.7431800961494446
1691217821919314000,8.33231396484375,34.68495178222656,-0.9556092023849487,0.8773029446601868
1691217821929354000,8.34235400390625,34.684906005859375,-1.0569219589233398,0.954018235206604
1691217821939395000,8.35239501953125,34.68421173095703,-1.0999927520751953,1.0317585468292236
1691217821949435000,8.362434814453126,34.684181213378906,-0.9509618282318115,1.1281495094299316
1691217821959475000,8.372474853515625,34.68483352661133,-0.9508197903633118,1.029435634613037
1691217821969516000,8.38251611328125,34.68476104736328,-0.9579152464866638,1.037363886833191
1691217821979555800,8.392555908203125,34.68369674682617,-0.8983274698257446,1.1231110095977783
1691217821989596000,8.402595947265626,34.68479919433594,-0.7728577256202698,1.106305718421936
1691217821999636000,8.412635986328125,34.68406295776367,-0.7350372076034546,1.177077054977417
1691217822009707000,8.42270703125,34.68499755859375,-0.7804603576660156,1.013725757598877
1691217822019748000,8.432748046875,34.68437957763672,-0.7887750864028931,1.0400274991989136
1691217822029788000,8.442787841796875,34.68527603149414,-0.7613711357116699,0.8131092190742493
1691217822039827700,8.45282763671875,34.68600845336914,-0.9606413245201111,0.6938685178756714
1691217822049867800,8.46286767578125,34.68519973754883,-1.0701707601547241,0.9652078747749329
1691217822059908900,8.472908935546876,34.684974670410156,-1.0049066543579102,0.837533712387085
1691217822069949000,8.482948974609375,34.6837158203125,-1.0286284685134888,1.1217901706695557
1691217822079989000,8.492989013671876,34.684226989746094,-1.0840342044830322,1.1325181722640991
1691217822090030000,8.503030029296875,34.684104919433594,-1.1241190433502197,1.1941519975662231
1691217822100070000,8.51306982421875,34.68374252319336,-1.098267912864685,1.2404522895812988
1691217822110109700,8.523109619140625,34.68416976928711,-0.994989812374115,1.1177263259887695
1691217822120149800,8.533149658203126,34.684085845947266,-0.8794447779655457,1.1483787298202515
1691217822130190800,8.54319091796875,34.683807373046875,-0.9545182585716248,1.226109504699707
1691217822140231000,8.55323095703125,34.68385314941406,-0.8764739632606506,1.286510944366455
1691217822150302000,8.563302001953126,34.68353271484375,-0.8175137042999268,1.1986335515975952
1691217822160342000,8.573342041015625,34.68407440185547,-0.6793450117111206,1.248798131942749
1691217822170382000,8.583382080078126,34.684513092041016,-0.7261067032814026,1.1203192472457886
1691217822180423000,8.5934228515625,34.68578338623047,-0.8417555689811707,0.8962165713310242
1691217822190462700,8.603462646484376,34.685462951660156,-0.9750718474388123,0.8899253606796265
1691217822200502800,8.613502685546875,34.68450164794922,-0.9773709774017334,0.9172351956367493
1691217822210542800,8.62354296875,34.684574127197266,-0.9661310911178589,0.9803073406219482
1691217822220584000,8.633583984375,34.68381881713867,-0.9556847214698792,1.1343249082565308
1691217822230624000,8.6436240234375,34.683509826660156,-1.1012567281723022,1.1486912965774536
1691217822240664000,8.6536640625,34.68395233154297,-0.9633168578147888,1.2030218839645386
1691217822250705000,8.663704833984376,34.68400573730469,-1.034403920173645,1.1346420049667358
1691217822260744700,8.67374462890625,34.68391036987305,-0.9394501447677612,1.0838584899902344
1691217822270784800,8.68378466796875,34.6840705871582,-0.9906840324401855,1.1475450992584229
1691217822280824800,8.693824951171875,34.684261322021484,-0.8723125457763672,1.212599515914917
1691217822290896000,8.703895751953125,34.683650970458984,-0.8639145493507385,1.2087187767028809
1691217822300936000,8.71393603515625,34.68422317504883,-0.8896198868751526,1.1107838153839111
1691217822310977000,8.72397705078125,34.68383026123047,-0.759280264377594,1.1499040126800537
1691217822321017000,8.73401708984375,34.684688568115234,-0.8202362060546875,0.941142737865448
1691217822331057000,8.744056884765625,34.68431091308594,-1.0422357320785522,0.9405970573425293
1691217822341100000,8.75410009765625,34.68465805053711,-1.036413550376892,0.9639104604721069
1691217822351140000,8.76414013671875,34.68459701538086,-1.0871590375900269,0.9386575818061829
1691217822361180000,8.774179931640624,34.68385314941406,-1.0362646579742432,1.147133708000183
1691217822371220000,8.784219970703125,34.683433532714844,-1.1465048789978027,1.1711692810058594
1691217822381260800,8.7942607421875,34.68301773071289,-1.0795540809631348,1.2632349729537964
1691217822391300900,8.80430078125,34.683494567871094,-1.1253223419189453,1.2559785842895508
1691217822401341000,8.8143408203125,34.6837043762207,-1.0390021800994873,1.120916485786438
1691217822411382000,8.824382080078125,34.68360900878906,-1.008470892906189,1.205864667892456
1691217822421422000,8.834422119140624,34.68421936035156,-0.9508180618286133,1.2094768285751343
1691217822431492900,8.844492919921874,34.6838264465332,-0.96898353099823,1.3027108907699585
1691217822441533000,8.854532958984375,34.683658599853516,-0.942582368850708,1.16768217086792
1691217822451573000,8.864572998046874,34.68391036987305,-0.9349510669708252,1.213069200515747
1691217822461613800,8.87461376953125,34.68499755859375,-0.9966573119163513,0.9550122022628784
1691217822471654000,8.88465380859375,34.68425750732422,-1.1999385356903076,0.9634328484535217
1691217822481694000,8.89469384765625,34.68396759033203,-1.2152291536331177,1.1332279443740845
1691217822491734000,8.904734130859374,34.68428039550781,-1.136756420135498,1.0610480308532715
1691217822501775000,8.914775146484375,34.68259811401367,-1.114418864250183,1.3427306413650513
1691217822511815000,8.92481494140625,34.68259048461914,-1.1972250938415527,1.305774450302124
1691217822521855000,8.93485498046875,34.68290710449219,-1.274027705192566,1.3691295385360718
1691217822531895800,8.944895751953124,34.683265686035156,-1.1487270593643188,1.3239684104919434
1691217822541935900,8.954935791015625,34.68319320678711,-1.048952579498291,1.2273026704788208
1691217822551976000,8.964975830078124,34.68330764770508,-1.0298324823379517,1.349968671798706
1691217822562016000,8.97501611328125,34.68313980102539,-1.0456944704055786,1.3605241775512695
1691217822572086800,8.985086669921875,34.68244934082031,-1.055920958518982,1.4329644441604614
1691217822582126800,8.995126953125,34.68387985229492,-0.8660110831260681,1.3267463445663452
1691217822592168000,9.00516796875,34.683013916015625,-0.9346463084220886,1.2992771863937378
1691217822602208000,9.0152080078125,34.68434143066406,-1.0324211120605469,1.099759578704834
1691217822612248000,9.025248046875,34.68449020385742,-1.0905494689941406,1.0711407661437988
1691217822622289000,9.035288818359374,34.684242248535156,-1.0855536460876465,1.1346681118011475
1691217822632329000,9.045328857421875,34.683837890625,-1.1409586668014526,1.2065370082855225
1691217822642369000,9.055369140625,34.683284759521484,-1.0782684087753296,1.3373662233352661
1691217822652408800,9.065408935546875,34.68333435058594,-1.1482179164886475,1.3532764911651611
1691217822662450000,9.075449951171874,34.683406829833984,-1.1528109312057495,1.357641339302063
1691217822672490000,9.085489990234375,34.683868408203125,-1.1436450481414795,1.209323525428772
1691217822682530000,9.095530029296874,34.683387756347656,-1.056439995765686,1.1901463270187378
1691217822692571000,9.10557080078125,34.683170318603516,-1.0004771947860718,1.282096028327942
1691217822702611000,9.11561083984375,34.68293762207031,-0.9944027066230774,1.3572866916656494
1691217822712682000,9.125681884765624,34.68269729614258,-1.1205828189849854,1.3693135976791382
1691217822722721800,9.1357216796875,34.68351364135742,-1.0704643726348877,1.3549225330352783
1691217822732761900,9.145761962890624,34.68428039550781,-0.9200479388237,1.2198233604431152
1691217822742802000,9.155802001953125,34.68437576293945,-1.2123287916183472,1.115849256515503
1691217822752843000,9.165843017578124,34.68329620361328,-1.19083571434021,1.132645606994629
1691217822762883000,9.175883056640625,34.68362045288086,-1.1570643186569214,1.1016013622283936
1691217822772923000,9.1859228515625,34.68293762207031,-1.0954307317733765,1.3078479766845703
1691217822782964000,9.1959638671875,34.68321990966797,-1.228076696395874,1.3266972303390503
1691217822793004000,9.206004150390624,34.68236541748047,-1.1971079111099243,1.443647027015686
1691217822803043800,9.2160439453125,34.68275833129883,-1.2281439304351807,1.3799960613250732
1691217822813084000,9.226083984375,34.683799743652344,-1.0733263492584229,1.2858840227127075
1691217822823125000,9.236125,34.68350601196289,-1.0459102392196655,1.2402637004852295
1691217822833165000,9.2461650390625,34.6835823059082,-1.0968527793884277,1.3413232564926147
1691217822843204900,9.256204833984375,34.682395935058594,-1.099557876586914,1.3729020357131958
1691217822853276000,9.26627587890625,34.68350601196289,-1.0051294565200806,1.3593852519989014
1691217822863315700,9.276315673828124,34.683509826660156,-1.0830926895141602,1.3458753824234009
1691217822873356800,9.286356689453125,34.68354415893555,-1.1650410890579224,1.1395264863967896
1691217822883396900,9.29639697265625,34.68339538574219,-1.2736541032791138,1.1294857263565063
1691217822893437000,9.30643701171875,34.683170318603516,-1.2686183452606201,1.25930917263031
1691217822903478000,9.31647802734375,34.68321228027344,-1.2659424543380737,1.243230938911438
1691217822913517800,9.326517822265625,34.6827507019043,-1.1942343711853027,1.4914822578430176
1691217822923558000,9.336557861328124,34.68287658691406,-1.2797807455062866,1.4417462348937988
1691217822933597700,9.34659765625,34.682212829589844,-1.2741808891296387,1.5041385889053345
1691217822943639000,9.35663916015625,34.68244552612305,-1.2097017765045166,1.4083945751190186
1691217822953678800,9.366678955078125,34.682926177978516,-1.0978034734725952,1.324226975440979
1691217822963719000,9.376718994140624,34.68281173706055,-1.1539734601974487,1.460404634475708
1691217822973760000,9.386760009765625,34.68286895751953,-1.0247539281845093,1.4839624166488647
1691217822983799800,9.3967998046875,34.68239974975586,-1.0798702239990234,1.493851900100708
1691217822993870800,9.406870849609374,34.68265151977539,-1.0427823066711426,1.4583754539489746
1691217823003911000,9.416910888671875,34.68293380737305,-1.1527668237686157,1.2980839014053345
1691217823013950700,9.42695068359375,34.683467864990234,-1.1427570581436157,1.1428669691085815
1691217823023990800,9.43699072265625,34.68315124511719,-1.1217128038406372,1.2661975622177124
1691217823034031900,9.447031982421874,34.683502197265625,-1.0244510173797607,1.2162913084030151
1691217823044072000,9.457072021484375,34.682064056396484,-1.1599063873291016,1.5057966709136963
1691217823054112000,9.467112060546874,34.68245315551758,-1.2952674627304077,1.41117262840271
1691217823064152800,9.47715283203125,34.68190002441406,-1.302703619003296,1.5069820880889893
1691217823074193000,9.48719287109375,34.683143615722656,-1.2242192029953003,1.3620771169662476
1691217823084232700,9.497232666015625,34.68378829956055,-1.153983235359192,1.2527974843978882
1691217823094272800,9.507272705078124,34.682823181152344,-1.1284254789352417,1.3413561582565308
1691217823104313900,9.51731396484375,34.682926177978516,-1.0662987232208252,1.45211923122406
1691217823114354000,9.52735400390625,34.68283462524414,-1.2174384593963623,1.467398762702942
1691217823124394000,9.53739404296875,34.68189239501953,-1.149446725845337,1.4922375679016113
1691217823134434800,9.547434814453124,34.68260192871094,-1.1150727272033691,1.362702488899231
1691217823144505000,9.557505126953124,34.68276596069336,-1.272948980331421,1.2793262004852295
1691217823154546000,9.5675458984375,34.68356704711914,-1.212195873260498,1.2498234510421753
1691217823164585700,9.577585693359374,34.68305969238281,-1.2183231115341187,1.224998116493225
1691217823174625800,9.587625732421875,34.6828498840332,-1.1809587478637695,1.4202531576156616
1691217823184667000,9.5976669921875,34.682273864746094,-1.23485267162323,1.4456127882003784
1691217823194707000,9.60770703125,34.682430267333984,-1.217117428779602,1.5305562019348145
1691217823204747000,9.6177470703125,34.682430267333984,-1.2851871252059937,1.4891270399093628
1691217823214787000,9.627787109375,34.682716369628906,-1.1764001846313477,1.3493283987045288
1691217823224828000,9.637827880859374,34.68312072753906,-1.182855486869812,1.3281723260879517
1691217823234867700,9.64786767578125,34.68244934082031,-1.068112850189209,1.4490678310394287
1691217823244907800,9.65790771484375,34.682090759277344,-1.2419542074203491,1.4330130815505981
1691217823254947800,9.66794775390625,34.682437896728516,-1.1275155544281006,1.4842232465744019
1691217823264989000,9.677989013671874,34.68335723876953,-1.274055004119873,1.338131070137024
1691217823275029000,9.688029052734375,34.68357467651367,-1.2258416414260864,1.2520095109939575
1691217823285100000,9.69810009765625,34.68280792236328,-1.22906494140625,1.293339490890503
1691217823295140000,9.70814013671875,34.682342529296875,-1.2684941291809082,1.3559973239898682
1691217823305180000,9.718179931640625,34.68183898925781,-1.4539974927902222,1.4754010438919067
1691217823315220700,9.728220703125,34.68168258666992,-1.3381258249282837,1.5496563911437988
1691217823325260800,9.7382607421875,34.68194580078125,-1.3718714714050293,1.573374629020691
1691217823335300900,9.74830078125,34.681392669677734,-1.2971596717834473,1.5744718313217163
1691217823345343700,9.75834375,34.68251037597656,-1.2224982976913452,1.4137535095214844
1691217823355383800,9.7683837890625,34.68290710449219,-1.221923828125,1.4451873302459717
1691217823365423600,9.778423583984376,34.6812744140625,-1.1857798099517822,1.6204190254211426
1691217823375463700,9.788463623046875,34.68160629272461,-1.221274971961975,1.5891461372375488
1691217823385504800,9.7985048828125,34.68143081665039,-1.0593003034591675,1.6231205463409424
1691217823395544800,9.808544921875,34.682777404785156,-1.2241523265838623,1.471569299697876
1691217823405585000,9.8185849609375,34.682861328125,-1.3326338529586792,1.3167619705200195
1691217823415625700,9.828625732421875,34.68254089355469,-1.210936427116394,1.3883112668991089
1691217823425696000,9.838696044921875,34.68344497680664,-1.1200172901153564,1.3107224702835083
1691217823435736800,9.84873681640625,34.681884765625,-1.2845759391784668,1.603469967842102
1691217823445776600,9.858776611328125,34.682159423828125,-1.2419865131378174,1.5564466714859009
1691217823455816700,9.868816650390626,34.681522369384766,-1.315068244934082,1.6170376539230347
1691217823465856800,9.878856689453125,34.68206787109375,-1.2476307153701782,1.5356913805007935
1691217823475897900,9.88889794921875,34.683448791503906,-1.2023671865463257,1.3015217781066895
1691217823485938000,9.89893798828125,34.68283462524414,-1.1941713094711304,1.4203013181686401
1691217823495978000,9.90897802734375,34.68228530883789,-1.1320874691009521,1.5235928297042847
1691217823506018800,9.919018798828125,34.68162155151367,-1.2836155891418457,1.546912431716919
1691217823516058600,9.92905859375,34.68198776245117,-1.1335318088531494,1.5968835353851318
1691217823526098700,9.9390986328125,34.68214797973633,-1.1987088918685913,1.4414714574813843
1691217823536138800,9.949138671875,34.682106018066406,-1.3753395080566406,1.363337516784668
1691217823546179800,9.959179931640625,34.68267059326172,-1.2727757692337036,1.3484721183776855
1691217823556220000,9.969219970703126,34.68302536010742,-1.2426469326019287,1.3312283754348755
1691217823566291000,9.979291015625,34.68146896362305,-1.276259183883667,1.5411286354064941
1691217823576331000,9.9893310546875,34.681617736816406,-1.3043677806854248,1.5303055047988892
1691217823586370800,9.999370849609376,34.681766510009766,-1.2879492044448853,1.659522294998169
1691217823596411600,10.00941162109375,34.68164825439453,-1.3343324661254883,1.5403543710708618
1691217823606451700,10.01945166015625,34.68318176269531,-1.2096811532974243,1.387284278869629
1691217823616491800,10.02949169921875,34.68246078491211,-1.2226184606552124,1.4429874420166016
1691217823626532900,10.039532958984376,34.68246078491211,-1.1442360877990723,1.535258173942566
1691217823636573000,10.049572998046875,34.68218994140625,-1.3200156688690186,1.5297209024429321
1691217823646613000,10.059613037109376,34.68192672729492,-1.2538204193115234,1.5725245475769043
1691217823656652800,10.06965283203125,34.68311309814453,-1.2945915460586548,1.3729314804077148
1691217823666693600,10.079693603515626,34.68268966674805,-1.4153504371643066,1.370658278465271
1691217823676733700,10.089733642578125,34.68246841430664,-1.3527743816375732,1.4479687213897705
1691217823686773800,10.099773681640626,34.68247985839844,-1.302931785583496,1.4667385816574097
1691217823696814800,10.10981494140625,34.68132400512695,-1.386328935623169,1.6930142641067505
1691217823706884900,10.119884765625,34.68103790283203,-1.4758317470550537,1.607627272605896
1691217823716926000,10.129926025390626,34.680973052978516,-1.375616192817688,1.7077951431274414
1691217823726966000,10.139966064453125,34.68152618408203,-1.3556157350540161,1.527402400970459
1691217823737005800,10.150005859375,34.68247604370117,-1.2333662509918213,1.4893964529037476
1691217823747045600,10.160045654296875,34.681251525878906,-1.2502385377883911,1.624077320098877
1691217823757086700,10.170086669921876,34.68180847167969,-1.1759909391403198,1.6931389570236206
1691217823767126800,10.180126708984375,34.68115234375,-1.1881380081176758,1.7047022581100464
1691217823777166800,10.190166748046876,34.68121337890625,-1.384114384651184,1.638469934463501
1691217823787208000,10.2002080078125,34.68259811401367,-1.3910634517669678,1.4283447265625
1691217823797248000,10.210248046875,34.68202209472656,-1.2744563817977905,1.447751522064209
1691217823807287800,10.220287841796875,34.682674407958984,-1.1784776449203491,1.4331815242767334
1691217823817327600,10.23032763671875,34.6817512512207,-1.2332186698913574,1.572188138961792
1691217823827368700,10.24036865234375,34.681270599365234,-1.232179045677185,1.7249394655227661
1691217823837408800,10.25040869140625,34.68113327026367,-1.436963677406311,1.677814245223999
1691217823847479800,10.260479736328126,34.68104553222656,-1.3566064834594727,1.6664714813232422
1691217823857519900,10.270519775390625,34.68302536010742,-1.258036732673645,1.4161112308502197
1691217823867560000,10.280559814453126,34.68230056762695,-1.1803641319274902,1.4152551889419556
1691217823877601000,10.29060107421875,34.68228530883789,-1.1906061172485352,1.6057883501052856
1691217823887640800,10.300640869140626,34.68193435668945,-1.3363724946975708,1.6026123762130737
1691217823897680600,10.3106806640625,34.681488037109375,-1.2377651929855347,1.6627109050750732
1691217823907720700,10.320720703125,34.68159103393555,-1.2686901092529297,1.5713530778884888
1691217823917761800,10.33076171875,34.68178176879883,-1.4247164726257324,1.4280941486358643
1691217823927801900,10.3408017578125,34.68235397338867,-1.3478275537490845,1.4604376554489136
1691217823937842000,10.350842041015625,34.68210983276367,-1.296067476272583,1.418117880821228
1691217823947883000,10.360883056640626,34.68129348754883,-1.3384392261505127,1.6664273738861084
1691217823957922800,10.3709228515625,34.68115997314453,-1.3286010026931763,1.614669919013977
1691217823967962600,10.380962646484376,34.680912017822266,-1.3389638662338257,1.785942792892456
1691217823978002700,10.391002685546875,34.681400299072266,-1.3986845016479492,1.6110687255859375
1691217823988073700,10.40107373046875,34.68174362182617,-1.3014371395111084,1.472191572189331
1691217823998114800,10.41111474609375,34.681915283203125,-1.2831683158874512,1.5263246297836304
1691217824008155000,10.42115478515625,34.68128204345703,-1.2234941720962524,1.653847336769104
1691217824018195000,10.43119482421875,34.68148422241211,-1.2525068521499634,1.6387810707092285
1691217824028234800,10.44123486328125,34.68102264404297,-1.3962458372116089,1.6677687168121338
1691217824038275800,10.45127587890625,34.681785583496094,-1.3084789514541626,1.4742637872695923
1691217824048315600,10.461315673828125,34.68205261230469,-1.3481048345565796,1.4897377490997314
1691217824058355700,10.471355712890626,34.681453704833984,-1.3458986282348633,1.5456149578094482
1691217824068396800,10.481396728515625,34.681217193603516,-1.361606240272522,1.5957987308502197
1691217824078436900,10.491436767578126,34.68132019042969,-1.3744908571243286,1.7281991243362427
1691217824088477000,10.501476806640625,34.68121337890625,-1.5479282140731812,1.7481043338775635
1691217824098516700,10.511516845703126,34.680728912353516,-1.3946624994277954,1.7251240015029907
1691217824108557800,10.521557861328125,34.68212127685547,-1.3329004049301147,1.549365758895874
1691217824118597600,10.53159765625,34.68238067626953,-1.1842645406723022,1.5513612031936646
1691217824128668700,10.541668701171876,34.68104553222656,-1.2636805772781372,1.7238454818725586
1691217824138708700,10.551708740234375,34.68109130859375,-1.302005648612976,1.7193764448165894
1691217824148748800,10.561748779296876,34.681373596191406,-1.2183549404144287,1.7506181001663208
1691217824158790000,10.571789794921875,34.680877685546875,-1.4190696477890015,1.6499980688095093
1691217824168829700,10.58182958984375,34.68212127685547,-1.4877722263336182,1.4768446683883667
1691217824178869800,10.591869873046875,34.681785583496094,-1.3598997592926025,1.5393671989440918
1691217824188909800,10.601909912109376,34.68263626098633,-1.2081137895584106,1.4619395732879639
1691217824198950700,10.61195068359375,34.68041229248047,-1.3732901811599731,1.7884130477905273
1691217824208990700,10.62199072265625,34.68073654174805,-1.3739980459213257,1.6880654096603394
1691217824219030800,10.63203076171875,34.681175231933594,-1.4186947345733643,1.8004542589187622
1691217824229072000,10.64207177734375,34.682010650634766,-1.366477370262146,1.6239837408065796
1691217824239112000,10.65211181640625,34.68271255493164,-1.2638801336288452,1.4164167642593384
1691217824249151700,10.66215185546875,34.68177795410156,-1.2969496250152588,1.5861886739730835
1691217824259191800,10.67219189453125,34.68121337890625,-1.3438881635665894,1.6790977716445923
1691217824269262800,10.682262939453125,34.681400299072266,-1.3280144929885864,1.6984761953353882
1691217824279303700,10.6923037109375,34.68111038208008,-1.4102678298950195,1.731189489364624
1691217824289343700,10.70234375,34.682220458984375,-1.3955155611038208,1.530158519744873
1691217824299383800,10.7123837890625,34.68193817138672,-1.4100439548492432,1.5577422380447388
1691217824309423600,10.722423583984375,34.682125091552734,-1.3365427255630493,1.517953634262085
1691217824319464700,10.732464599609376,34.68098068237305,-1.3652257919311523,1.6850169897079468
1691217824329504800,10.7425048828125,34.680633544921875,-1.3147356510162354,1.7347500324249268
1691217824339544800,10.752544921875,34.681026458740234,-1.5384459495544434,1.812740445137024
1691217824349571600,10.762571533203126,34.68048095703125,-1.4252220392227173,1.7838729619979858
1691217824359611400,10.772611328125,34.681678771972656,-1.3622825145721436,1.5443655252456665
1691217824369651500,10.7826513671875,34.68240737915039,-1.2477424144744873,1.568426251411438
1691217824379691500,10.79269140625,34.681514739990234,-1.34465754032135,1.7403931617736816
1691217824389732600,10.802732666015626,34.68141174316406,-1.3593999147415161,1.6970080137252808
1691217824399772700,10.812772705078125,34.68140411376953,-1.3720768690109253,1.7589654922485352
1691217824409843500,10.822843505859375,34.68160629272461,-1.3312369585037231,1.634482502937317
1691217824419883500,10.832883544921875,34.68156051635742,-1.4254348278045654,1.5663872957229614
1691217824429923600,10.842923583984375,34.68148422241211,-1.376444935798645,1.623843789100647
1691217824439964400,10.85296435546875,34.68109130859375,-1.3288909196853638,1.658574104309082
1691217824450004500,10.86300439453125,34.68085479736328,-1.397294044494629,1.778346061706543
1691217824460044500,10.87304443359375,34.680519104003906,-1.498583436012268,1.7699732780456543
1691217824470084400,10.88308447265625,34.680694580078125,-1.411766529083252,1.8071104288101196
1691217824480125700,10.893125732421876,34.681636810302734,-1.4172755479812622,1.5994198322296143
1691217824490165500,10.90316552734375,34.68195724487305,-1.2936023473739624,1.5880341529846191
1691217824500205600,10.91320556640625,34.681396484375,-1.3279563188552856,1.7299153804779053
1691217824510246400,10.923246337890625,34.68088150024414,-1.3327765464782715,1.7790642976760864
1691217824520286500,10.933286376953125,34.681053161621094,-1.1942660808563232,1.7838209867477417
1691217824530326500,10.943326416015625,34.680904388427734,-1.5042413473129272,1.7122571468353271
1691217824540366600,10.95336669921875,34.68192672729492,-1.5696603059768677,1.5369164943695068
1691217824550407700,10.96340771484375,34.68187713623047,-1.4009853601455688,1.570236325263977
1691217824560477400,10.9734775390625,34.68239212036133,-1.234584093093872,1.5302681922912598
1691217824570518500,10.9835185546875,34.680755615234375,-1.3699997663497925,1.8351054191589355
1691217824580558600,10.99355859375,34.6811637878418,-1.4064650535583496,1.7220358848571777
1691217824590598700,11.0035986328125,34.68029022216797,-1.5041991472244263,1.8739622831344604
1691217824600639500,11.013639404296875,34.6812744140625,-1.443483591079712,1.6675548553466797
1691217824610679600,11.023679443359375,34.68211364746094,-1.3009533882141113,1.4555706977844238
1691217824620719400,11.03371923828125,34.68102264404297,-1.3340181112289429,1.6570541858673096
1691217824630759400,11.043759521484375,34.680809020996094,-1.3694120645523071,1.763904333114624
1691217824640800500,11.053800537109375,34.68157958984375,-1.3267362117767334,1.7380969524383545
1691217824650840600,11.063840576171875,34.68057632446289,-1.51177179813385,1.7920361757278442
1691217824660880600,11.073880615234375,34.6817512512207,-1.5563936233520508,1.5947856903076172
1691217824670921500,11.08392138671875,34.68174362182617,-1.4593265056610107,1.6424082517623901
1691217824680961500,11.09396142578125,34.68193054199219,-1.3440425395965576,1.6086909770965576
1691217824691001600,11.104001708984375,34.6809196472168,-1.397496223449707,1.8191801309585571
1691217824701072400,11.114072265625,34.68049240112305,-1.3825262784957886,1.7676396369934082
1691217824711112400,11.124112548828125,34.679744720458984,-1.566744089126587,1.9328263998031616
1691217824721153500,11.134153564453126,34.6806755065918,-1.464229941368103,1.7837295532226562
1691217824731193600,11.144193603515625,34.6815071105957,-1.3889145851135254,1.559922218322754
1691217824741233700,11.154233642578125,34.6810302734375,-1.307349681854248,1.6998984813690186
1691217824751273700,11.164273681640625,34.680938720703125,-1.3344249725341797,1.8321950435638428
1691217824761314600,11.174314453125,34.681034088134766,-1.3038431406021118,1.8030565977096558
1691217824771354400,11.184354248046875,34.68055725097656,-1.485448956489563,1.8253008127212524
1691217824781394400,11.19439453125,34.68083190917969,-1.4590370655059814,1.678074598312378
1691217824791435500,11.204435546875,34.68105697631836,-1.3572356700897217,1.6402497291564941
1691217824801475600,11.2144755859375,34.68115997314453,-1.332329511642456,1.6760843992233276
1691217824811515600,11.224515625,34.680763244628906,-1.3456357717514038,1.8052656650543213
1691217824821555700,11.2345556640625,34.680973052978516,-1.3955119848251343,1.7774438858032227
1691217824831596500,11.244596435546875,34.679935455322266,-1.5113238096237183,1.895857572555542
1691217824841666600,11.25466650390625,34.68102264404297,-1.438249111175537,1.770484209060669
1691217824851707400,11.264707275390625,34.68211364746094,-1.3901246786117554,1.5942442417144775
1691217824861747500,11.27474755859375,34.681541442871094,-1.2828624248504639,1.640898585319519
1691217824871787500,11.28478759765625,34.68082809448242,-1.3705418109893799,1.8284653425216675
1691217824881828600,11.29482861328125,34.68061447143555,-1.3597279787063599,1.7891288995742798
1691217824891868700,11.30486865234375,34.68058395385742,-1.4759248495101929,1.8075101375579834
1691217824901908700,11.31490869140625,34.68149948120117,-1.4112303256988525,1.6811274290084839
1691217824911948500,11.324948486328125,34.682193756103516,-1.3900898694992065,1.5773123502731323
1691217824921989400,11.3349892578125,34.68157958984375,-1.3215272426605225,1.6081246137619019
1691217824932029400,11.345029541015625,34.681392669677734,-1.3265239000320435,1.6640424728393555
1691217824942069500,11.355069580078125,34.6805305480957,-1.4418855905532837,1.861547827720642
1691217824952110600,11.365110595703126,34.68094253540039,-1.5861289501190186,1.8058706521987915
1691217824962150700,11.375150634765625,34.68054962158203,-1.493443489074707,1.8611280918121338
1691217824972190700,11.385190673828125,34.682132720947266,-1.4412403106689453,1.5622318983078003
1691217824982261800,11.39526171875,34.68180465698242,-1.3815332651138306,1.5710715055465698
1691217824992301600,11.405301513671875,34.68061065673828,-1.3913779258728027,1.8025497198104858
1691217825002342400,11.41534228515625,34.68064880371094,-1.4211989641189575,1.7907058000564575
1691217825012382500,11.425382568359375,34.68043518066406,-1.5745304822921753,1.8253509998321533
1691217825022422500,11.435422607421875,34.68114471435547,-1.497987151145935,1.733998417854309
1691217825032462600,11.445462646484375,34.68067932128906,-1.5413628816604614,1.708305835723877
1691217825042503700,11.455503662109376,34.68096160888672,-1.4626177549362183,1.6934916973114014
1691217825052543700,11.465543701171875,34.68095779418945,-1.4639147520065308,1.793354868888855
1691217825062583600,11.47558349609375,34.6805534362793,-1.392183542251587,1.913572907447815
1691217825072623600,11.48562353515625,34.679813385009766,-1.634871006011963,1.8807728290557861
1691217825082664400,11.49566455078125,34.67953872680664,-1.489823818206787,1.9703861474990845
1691217825092704500,11.50570458984375,34.68110656738281,-1.468813180923462,1.653398036956787
1691217825102744600,11.51574462890625,34.68156433105469,-1.3417071104049683,1.6780253648757935
1691217825112785700,11.52578564453125,34.680355072021484,-1.3829286098480225,1.8945561647415161
1691217825122855700,11.535855712890625,34.680416107177734,-1.3649061918258667,1.894551157951355
1691217825132896800,11.545896728515626,34.680667877197266,-1.5023493766784668,1.9050579071044922
1691217825142936600,11.5559365234375,34.68107604980469,-1.4472121000289917,1.8156838417053223
1691217825152976600,11.5659765625,34.680912017822266,-1.4344936609268188,1.7422934770584106
1691217825163017500,11.576017578125,34.68059158325195,-1.342966079711914,1.7502062320709229
1691217825173057500,11.5860576171875,34.680519104003906,-1.3259116411209106,1.8298890590667725
1691217825183097600,11.59609765625,34.681053161621094,-1.3273566961288452,1.866099238395691
1691217825193137700,11.6061376953125,34.680503845214844,-1.505647897720337,1.9014720916748047
1691217825203178800,11.6161787109375,34.680599212646484,-1.447731614112854,1.8780333995819092
1691217825213218600,11.626218505859375,34.68169403076172,-1.4313349723815918,1.6498081684112549
1691217825223258400,11.63625830078125,34.681793212890625,-1.3049777746200562,1.6439803838729858
1691217825233299500,11.646299560546876,34.680908203125,-1.3710323572158813,1.82183039188385
1691217825243339500,11.656339599609375,34.680450439453125,-1.3768577575683594,1.835670828819275
1691217825253379600,11.666379638671875,34.68035888671875,-1.3544249534606934,1.8289787769317627
1691217825263450600,11.67645068359375,34.68122863769531,-1.449434757232666,1.7555466890335083
1691217825273490400,11.686490478515625,34.681007385253906,-1.5344198942184448,1.6152411699295044
1691217825283530500,11.696530517578125,34.68157196044922,-1.4371932744979858,1.6453863382339478
1691217825293571600,11.706571533203125,34.681358337402344,-1.3542457818984985,1.6290663480758667
1691217825303611400,11.716611328125,34.68037796020508,-1.4815019369125366,1.9206910133361816
1691217825313651500,11.7266513671875,34.68070983886719,-1.5819330215454102,1.7892004251480103
1691217825323692500,11.736692626953126,34.680049896240234,-1.5253511667251587,1.9129563570022583
1691217825333732600,11.746732666015625,34.680755615234375,-1.5148725509643555,1.6440215110778809
1691217825343768800,11.756768798828125,34.682037353515625,-1.4776959419250488,1.5853092670440674
1691217825353809000,11.766808837890625,34.6802864074707,-1.4736816883087158,1.8218334913253784
1691217825363850000,11.77685009765625,34.67988967895508,-1.5038559436798096,1.860582709312439
1691217825373890000,11.78689013671875,34.68061828613281,-1.602946400642395,1.864708423614502
1691217825383929900,11.796929931640625,34.68076705932617,-1.510744571685791,1.8033065795898438
1691217825393970700,11.806970703125,34.68067932128906,-1.556180715560913,1.7950314283370972
1691217825404040700,11.817040771484375,34.68073654174805,-1.484311819076538,1.7467786073684692
1691217825414081800,11.827081787109375,34.68059158325195,-1.4963226318359375,1.8664249181747437
1691217825424121900,11.837121826171876,34.680152893066406,-1.3925621509552002,1.981021523475647
1691217825434162000,11.847161865234375,34.68027114868164,-1.659016728401184,1.922547459602356
1691217825444203000,11.857203125,34.67940139770508,-1.4953385591506958,2.0281426906585693
1691217825454243000,11.8672431640625,34.6812744140625,-1.4779912233352661,1.6995813846588135
1691217825464282600,11.87728271484375,34.681331634521484,-1.3472050428390503,1.7268420457839966
1691217825474322700,11.88732275390625,34.68039321899414,-1.3857494592666626,1.950300931930542
1691217825484363800,11.89736376953125,34.67999267578125,-1.3950194120407104,1.9507405757904053
1691217825494403800,11.90740380859375,34.679779052734375,-1.5619871616363525,1.9761180877685547
1691217825504444000,11.91744384765625,34.680171966552734,-1.4824268817901611,1.8740023374557495
1691217825514484000,11.92748388671875,34.68085861206055,-1.4397175312042236,1.80349600315094
1691217825524524800,11.93752490234375,34.68147659301758,-1.3747233152389526,1.7583751678466797
1691217825534564600,11.947564697265625,34.680179595947266,-1.37465238571167,1.879639983177185
1691217825544635600,11.9576357421875,34.680274963378906,-1.3529272079467773,1.878976821899414
1691217825554675700,11.96767578125,34.67965316772461,-1.5323415994644165,1.9408773183822632
1691217825564715800,11.9777158203125,34.679901123046875,-1.4232648611068726,1.9055968523025513
1691217825574756900,11.9877568359375,34.681522369384766,-1.4215216636657715,1.655548334121704
1691217825584797000,11.997796875,34.68147659301758,-1.3247933387756348,1.6942808628082275
1691217825594837000,12.0078369140625,34.68061828613281,-1.4134312868118286,1.8620028495788574
1691217825604877800,12.0178779296875,34.68096160888672,-1.4212604761123657,1.8511230945587158
1691217825614917600,12.027917724609376,34.68044662475586,-1.554915428161621,1.8455790281295776
1691217825624957700,12.037957763671875,34.681087493896484,-1.4337173700332642,1.7761309146881104
1691217825634997800,12.047997802734375,34.681697845458984,-1.4381071329116821,1.6566591262817383
1691217825645038800,12.058038818359375,34.68104553222656,-1.4049078226089478,1.6970630884170532
1691217825655079000,12.068078857421876,34.681365966796875,-1.418707013130188,1.7188247442245483
1691217825665119000,12.078118896484375,34.68025588989258,-1.492668867111206,1.9340479373931885
1691217825675159800,12.088159912109376,34.6800651550293,-1.6620922088623047,1.8418880701065063
1691217825685229800,12.098229736328125,34.679954528808594,-1.5313174724578857,1.912000298500061
1691217825695270700,12.108270751953125,34.681861877441406,-1.5024983882904053,1.6137171983718872
1691217825705310700,12.118310791015626,34.68122863769531,-1.478098750114441,1.6593654155731201
1691217825715350800,12.128350830078125,34.6801643371582,-1.5081796646118164,1.8943153619766235
1691217825725390800,12.138390869140625,34.68044662475586,-1.4605149030685425,1.8825609683990479
1691217825735432000,12.148431884765625,34.680267333984375,-1.7645169496536255,1.9018278121948242
1691217825745472000,12.158471923828126,34.6805305480957,-1.6754262447357178,1.7923260927200317
1691217825755511800,12.16851171875,34.68020248413086,-1.6018025875091553,1.8266808986663818
1691217825765552600,12.178552734375,34.6806640625,-1.4622009992599487,1.763672113418579
1691217825775592700,12.1885927734375,34.67997741699219,-1.504432201385498,1.9868366718292236
1691217825785632800,12.1986328125,34.6801872253418,-1.4170583486557007,1.9700419902801514
1691217825795672800,12.2086728515625,34.679317474365234,-1.7142928838729858,2.0210983753204346
1691217825805714000,12.2187138671875,34.67977523803711,-1.5629782676696777,2.011037826538086
1691217825815754000,12.22875390625,34.68095397949219,-1.5031046867370605,1.67155921459198
1691217825825824800,12.23882470703125,34.68044662475586,-1.459835171699524,1.8323097229003906
1691217825835864800,12.24886474609375,34.679832458496094,-1.5152599811553955,2.0123775005340576
1691217825845905000,12.25890478515625,34.6800422668457,-1.3745092153549194,1.9897202253341675
1691217825855945700,12.26894580078125,34.679664611816406,-1.5024664402008057,2.037304162979126
1691217825865985800,12.27898583984375,34.679718017578125,-1.5399174690246582,1.9034945964813232
1691217825876025900,12.28902587890625,34.6801643371582,-1.4415168762207031,1.8350039720535278
1691217825886067000,12.29906689453125,34.68070602416992,-1.3720999956130981,1.8093260526657104
1691217825896106800,12.309106689453126,34.680084228515625,-1.398257851600647,1.993080735206604
1691217825906146800,12.319146728515625,34.67999267578125,-1.3958204984664917,1.866133451461792
1691217825916187000,12.329186767578125,34.67986297607422,-1.4700555801391602,2.0286147594451904
1691217825926227700,12.339227783203125,34.68075180053711,-1.4413390159606934,1.8485448360443115
1691217825936267800,12.349267822265626,34.68180465698242,-1.4123693704605103,1.6614078283309937
1691217825946307800,12.359307861328125,34.68061065673828,-1.3900136947631836,1.7768595218658447
1691217825956349000,12.369348876953126,34.68029022216797,-1.4998334646224976,1.913894534111023
1691217825966418700,12.379418701171875,34.680206298828125,-1.3856030702590942,1.855000615119934
1691217825976459800,12.389459716796875,34.68041229248047,-1.625268578529358,1.8908727169036865
1691217825986499800,12.399499755859376,34.68043899536133,-1.6307107210159302,1.741481900215149
1691217825996540000,12.409539794921875,34.68077087402344,-1.5717579126358032,1.705655574798584
1691217826006580000,12.419580078125,34.68143844604492,-1.4166983366012573,1.6646983623504639
1691217826016620800,12.429620849609375,34.68027114868164,-1.502366065979004,1.9333252906799316
1691217826026660900,12.439660888671876,34.68007278442383,-1.5558441877365112,1.8410414457321167
1691217826036700700,12.44970068359375,34.68015670776367,-1.6469591856002808,1.964861512184143
1691217826046741800,12.45974169921875,34.67998504638672,-1.5676555633544922,1.8135737180709839
1691217826056781800,12.46978173828125,34.681495666503906,-1.4372894763946533,1.5982043743133545
1691217826066822000,12.47982177734375,34.680728912353516,-1.4808276891708374,1.8228856325149536
1691217826076862000,12.489862060546875,34.68024826049805,-1.605606198310852,1.9573628902435303
1691217826086902800,12.49990283203125,34.67963790893555,-1.5505213737487793,1.899539828300476
