time,seconds_elapsed,z,y,x
1691217813714703400,0.127703369140625,0.026940004900097847,-0.00566853815689683,0.3963286876678467
1691217813724744200,0.137744140625,0.009352489374577999,-0.01823359914124012,0.3916551172733307
1691217813734784300,0.1477841796875,-0.022099176421761513,-0.013437245041131973,0.3924540579319
1691217813744824300,0.15782421875,-0.05013773590326309,0.005143363028764725,0.42704346776008606
1691217813754864400,0.167864501953125,-0.0594036728143692,0.025591380894184113,0.3467518389225006
1691217813764905500,0.177905517578125,-0.044677723199129105,0.0432225726544857,0.28515398502349854
1691217813774945300,0.1879453125,-0.016939036548137665,0.042285673320293427,0.27647578716278076
1691217813784985300,0.1979853515625,0.011859322898089886,0.02738102339208126,0.17709141969680786
1691217813795026200,0.208026123046875,0.026329342275857925,0.00782729685306549,0.1586887091398239
1691217813805066200,0.218066162109375,0.02304886095225811,-0.019829098135232925,0.12854573130607605
1691217813815106300,0.228106201171875,0.006969492416828871,-0.037629932165145874,0.030409304425120354
1691217813825146400,0.238146484375,-0.014429539442062378,-0.03909973055124283,0.01667165383696556
1691217813835187500,0.2481875,-0.025062208995223045,-0.0274494681507349,-0.03713085874915123
1691217813845227300,0.258227294921875,-0.023485084995627403,-0.00959670078009367,-0.09213605523109436
1691217813855298300,0.26829833984375,-0.012084092944860458,0.01122202817350626,-0.08960897475481033
1691217813865338400,0.27833837890625,0.006058691535145044,0.02213433012366295,-0.13921408355236053
1691217813875378400,0.28837841796875,0.015687616541981697,0.020592359825968742,-0.13955682516098022
1691217813885419300,0.298419189453125,0.018145447596907616,0.0029377329628914595,-0.11210789531469345
1691217813895459300,0.308459228515625,0.010898454114794731,-0.01751774176955223,-0.14176085591316223
1691217813905499100,0.3184990234375,0.0008290420519188046,-0.030296653509140015,-0.11636309325695038
1691217813915539200,0.328539306640625,-0.009585249237716198,-0.03419046103954315,-0.0790380910038948
1691217813925580300,0.338580322265625,-0.01452807616442442,-0.02666356787085533,-0.09942273050546646
1691217813935620400,0.348620361328125,-0.013317669741809368,-0.013312876224517822,-0.06719128787517548
1691217813945660400,0.358660400390625,-0.00523604080080986,0.002567020943388343,-0.05670216307044029
1691217813955701200,0.368701171875,0.002639725338667631,0.015181349590420723,-0.06107454001903534
1691217813965741300,0.3787412109375,0.006613960489630699,0.023779364302754402,-0.025290176272392273
1691217813975781400,0.388781494140625,0.002552107209339738,0.02081713080406189,-0.03129693493247032
1691217813985821200,0.3988212890625,-0.004239486064761877,0.006330067757517099,-0.022124743089079857
1691217813995862300,0.4088623046875,-0.01188089419156313,-0.009076319634914398,0.002579537918791175
1691217814005933300,0.418933349609375,-0.013643640093505383,-0.02027198113501072,-0.016499614343047142
1691217814015973400,0.428973388671875,-0.011956794187426567,-0.022163093090057373,0.0010743191232904792
1691217814026013400,0.439013427734375,-0.006726612336933613,-0.018564097583293915,-0.0029230855870991945
1691217814036053500,0.449053466796875,0.002632800955325365,-0.00418355967849493,-0.020352410152554512
1691217814046094300,0.45909423828125,0.003168895374983549,0.008590292185544968,-0.006207029335200787
1691217814056134100,0.469134033203125,0.0009635316673666239,0.016563531011343002,-0.029341377317905426
1691217814066174200,0.47917431640625,-0.002892192918807268,0.020131099969148636,-0.028683044016361237
1691217814076215300,0.48921533203125,-0.009335445240139961,0.011178884655237198,-0.024231836199760437
1691217814086255400,0.49925537109375,-0.011561314575374126,-0.0029885992407798767,-0.039371639490127563
1691217814096295400,0.50929541015625,-0.008227037265896797,-0.016327574849128723,-0.026035329326987267
1691217814106335500,0.51933544921875,-0.004358529578894377,-0.024172980338335037,-0.028595425188541412
1691217814116376300,0.529376220703125,-0.001088433898985386,-0.02389175072312355,-0.030425284057855606
1691217814126416400,0.53941650390625,0.002001898130401969,-0.014483335427939892,-0.019526297226548195
1691217814136456200,0.549456298828125,-0.0011177286505699158,-0.001344896387308836,-0.02684492990374565
1691217814146527200,0.55952734375,-0.005293565336614847,0.00823982059955597,-0.01949540339410305
1691217814156567300,0.5695673828125,-0.010241186246275902,0.016876718029379845,-0.017853032797574997
1691217814166608400,0.5796083984375,-0.0102553004398942,0.01829644851386547,-0.016163790598511696
1691217814176648400,0.5896484375,-0.00890960544347763,0.008405469357967377,-0.01017061248421669
1691217814186688500,0.5996884765625,-0.0031411985401064157,-0.0029382656794041395,-0.012400210835039616
1691217814196728300,0.609728271484375,-0.0016729978378862143,-0.015921708196401596,-0.010749316774308681
1691217814206769200,0.61976904296875,-0.000892425247002393,-0.021952170878648758,-0.010238522663712502
1691217814216809200,0.629809326171875,-0.003073287894949317,-0.017666878178715706,-0.01804877445101738
1691217814226849300,0.639849365234375,-0.0060262009501457214,-0.008372978307306767,-0.014512630179524422
1691217814236890400,0.649890380859375,-0.011639079079031944,0.0032170985359698534,-0.026730148121714592
1691217814246930400,0.659930419921875,-0.00872211903333664,0.012015383690595627,-0.027275562286376953
1691217814256970500,0.669970458984375,-0.005556951742619276,0.01498107984662056,-0.02725958451628685
1691217814267010600,0.680010498046875,-0.003352120751515031,0.00993146002292633,-0.0330229327082634
1691217814277051400,0.690051513671875,-0.0010301107540726662,0.002883138135075569,-0.026160497218370438
1691217814287091200,0.70009130859375,0.0005006743012927473,-0.009349026717245579,-0.023391874507069588
1691217814297162200,0.710162353515625,-0.003457315731793642,-0.015929697081446648,-0.02370000258088112
1691217814307202300,0.720202392578125,-0.006083192303776741,-0.019474631175398827,-0.016644757241010666
1691217814317242400,0.730242431640625,-0.009298693388700485,-0.012662265449762344,-0.02039049193263054
1691217814327283500,0.740283447265625,-0.007325024344027042,-0.002966495230793953,-0.016408002004027367
1691217814337324500,0.750324462890625,-0.004874117206782103,0.007091199047863483,-0.013703295029699802
1691217814347364600,0.760364501953125,-0.0020996362436562777,0.014495053328573704,-0.013549097813665867
1691217814357404400,0.770404296875,-0.0011406318517401814,0.012253737077116966,-0.01359597034752369
1691217814367445500,0.780445556640625,-0.002049302449449897,0.00618306128308177,-0.014603976160287857
1691217814377485600,0.790485595703125,-0.0043718451634049416,-0.0037912761326879263,-0.01629588194191456
1691217814387525600,0.800525634765625,-0.005905826110392809,-0.013887852430343628,-0.01515897922217846
1691217814397566500,0.81056640625,-0.009882724843919277,-0.015357650816440582,-0.020122844725847244
1691217814407606500,0.8206064453125,-0.008894691243767738,-0.017734788358211517,-0.020967066287994385
1691217814417646600,0.830646484375,-0.006539658177644014,-0.007620635442435741,-0.025366609916090965
1691217814427686400,0.840686279296875,-0.004575044382363558,-0.0012492889072746038,-0.026251310482621193
1691217814437757400,0.85075732421875,-0.0012985573848709464,0.006508233025670052,-0.02827664464712143
1691217814447798500,0.860798583984375,-0.0005227785441093147,0.010835603810846806,-0.026638003066182137
1691217814457838600,0.870838623046875,-0.003732952754944563,0.00956820510327816,-0.025133049115538597
1691217814467878700,0.880878662109375,-0.005891711451113224,0.0013568805297836661,-0.021878134459257126
1691217814477918700,0.890918701171875,-0.007985754869878292,-0.010091516189277172,-0.019722571596503258
1691217814487959600,0.90095947265625,-0.0067814732901751995,-0.012953615747392178,-0.01471609529107809
1691217814497999400,0.910999267578125,-0.005558283533900976,-0.014160826802253723,-0.016350477933883667
1691217814508039400,0.921039306640625,-0.0028873991686850786,-0.009346630424261093,-0.01263962872326374
1691217814518080500,0.93108056640625,-0.0017241304740309715,-0.0015728629659861326,-0.013435914181172848
1691217814528120600,0.94112060546875,-0.00395799009129405,0.005277586169540882,-0.016627978533506393
1691217814538160600,0.95116064453125,-0.0044168527238070965,0.00983425509184599,-0.0160032007843256
1691217814548200700,0.96120068359375,-0.008176703006029129,0.006983607076108456,-0.020120181143283844
1691217814558241500,0.971241455078125,-0.007228351663798094,0.004631769843399525,-0.020548151805996895
1691217814568281600,0.981281494140625,-0.007565508130937815,-0.004064250271767378,-0.021816615015268326
1691217814578321400,0.9913212890625,-0.0052951630204916,-0.01194108184427023,-0.022357502952218056
1691217814588392400,1.001392333984375,-0.0028674255590885878,-0.016703080385923386,-0.02261796034872532
1691217814598432500,1.0114326171875,-0.003965180367231369,-0.0114001939073205,-0.025556225329637527
1691217814608473600,1.0214736328125,-0.0027265443932265043,-0.00968591682612896,-0.02611096203327179
1691217814618513700,1.031513671875,-0.006359096150845289,0.0029401297215372324,-0.02442251890897751
1691217814628553700,1.0415537109375,-0.0065079666674137115,0.007330084685236216,-0.024886706843972206
1691217814638593500,1.051593505859375,-0.007731955498456955,0.010624680668115616,-0.020649883896112442
1691217814648634400,1.06163427734375,-0.004030427895486355,0.0038983351550996304,-0.02002750337123871
1691217814658674400,1.07167431640625,-0.0038037928752601147,0.00007163903501350433,-0.01715501770377159
1691217814668714500,1.081714599609375,-0.0032384039368480444,-0.007978297770023346,-0.014268151484429836
1691217814678755600,1.091755615234375,-0.004408597014844418,-0.01089525781571865,-0.014616493135690689
1691217814688795600,1.101795654296875,-0.003907123580574989,-0.014286527410149574,-0.013832191936671734
1691217814698835700,1.111835693359375,-0.005074120592325926,-0.008982043713331223,-0.01540585421025753
1691217814708875800,1.121875732421875,-0.004762797150760889,0.0003217098710592836,-0.01587829925119877
1691217814718916600,1.13191650390625,-0.004997421521693468,0.004061853047460318,-0.018866898491978645
1691217814728987400,1.1419873046875,-0.004591555800288916,0.008073106408119202,-0.02075614407658577
1691217814739027500,1.15202734375,-0.0034642398823052645,0.005007541738450527,-0.02292768657207489
1691217814749067500,1.162067626953125,-0.0024802018888294697,0.0006953513366170228,-0.023801470175385475
1691217814759107600,1.172107666015625,-0.0033963292371481657,-0.006737797521054745,-0.02418017014861107
1691217814769148700,1.182148681640625,-0.005052815657109022,-0.010236658155918121,-0.024946894496679306
1691217814779188700,1.192188720703125,-0.0057164751924574375,-0.011990616098046303,-0.020926320925354958
1691217814789228500,1.202228515625,-0.005591839086264372,-0.011286210268735886,-0.02208799123764038
1691217814799269400,1.212269287109375,-0.004588892683386803,-0.005081577692180872,-0.021696506068110466
1691217814809309400,1.222309326171875,-0.003997670952230692,0.0008609999786131084,-0.02106986567378044
1691217814819349500,1.232349609375,-0.003763046581298113,0.007784153334796429,-0.017424529418349266
1691217814829389600,1.2423896484375,-0.004246676806360483,0.007577758282423019,-0.01847567968070507
1691217814839430700,1.2524306640625,-0.003808053908869624,0.0051657333970069885,-0.016534235328435898
1691217814849470700,1.262470703125,-0.005248291417956352,-0.0013065468519926071,-0.016920659691095352
1691217814859510800,1.2725107421875,-0.0067780110985040665,-0.005357747431844473,-0.016383234411478043
1691217814869550600,1.282550537109375,-0.006058957893401384,-0.010945325717329979,-0.014548849314451218
1691217814879621600,1.29262158203125,-0.004803809802979231,-0.008238222450017929,-0.017604026943445206
1691217814889662500,1.302662353515625,-0.004520716145634651,-0.004312989301979542,-0.020679179579019547
1691217814899702500,1.31270263671875,-0.004091946873813868,-0.0012492889072746038,-0.023677099496126175
1691217814909742600,1.32274267578125,-0.0049098036251962185,0.0024490428622812033,-0.02238280326128006
1691217814919782700,1.33278271484375,-0.0035401401109993458,0.005013134330511093,-0.02418310008943081
1691217814929823700,1.34282373046875,-0.005520999431610107,0.0034642398823052645,-0.024992167949676514
1691217814939863600,1.352863525390625,-0.005079979542642832,-0.001085770782083273,-0.023555394262075424
1691217814949903600,1.362903564453125,-0.006287190597504377,-0.006968427449464798,-0.02304593101143837
1691217814959944400,1.3729443359375,-0.0046970173716545105,-0.009424393996596336,-0.021265873685479164
1691217814969984500,1.382984619140625,-0.004602208733558655,-0.009661149233579636,-0.01990952529013157
1691217814980024600,1.393024658203125,-0.004531901329755783,-0.006856308318674564,-0.01787513680756092
1691217814990064600,1.403064697265625,-0.0036631780676543713,-0.0038152446504682302,-0.016935840249061584
1691217815000105700,1.413105712890625,-0.004147606901824474,0.0021204089280217886,-0.01739310473203659
1691217815010145800,1.423145751953125,-0.005501291714608669,0.004831506870687008,-0.015205850824713707
1691217815020216600,1.433216552734375,-0.005063468124717474,0.006578274071216583,-0.015602395869791508
1691217815030256400,1.44325634765625,-0.0056802560575306416,0.0005044027348048985,-0.017223462462425232
1691217815040296400,1.45329638671875,-0.003972371108829975,-0.0023451796732842922,-0.01642904058098793
1691217815050337500,1.463337646484375,-0.004423776641488075,-0.007526625879108906,-0.01823173463344574
1691217815060377600,1.473377685546875,-0.00318913534283638,-0.008696286007761955,-0.020010992884635925
1691217815070417700,1.483417724609375,-0.0046509443782269955,-0.008902148343622684,-0.02203099988400936
1691217815080457500,1.49345751953125,-0.005362274590879679,-0.003931092098355293,-0.022340726107358932
1691217815090498600,1.50349853515625,-0.006154298782348633,0.0004439489566721022,-0.02503238245844841
1691217815100538400,1.513538330078125,-0.005076517816632986,0.0029265477787703276,-0.023492543026804924
1691217815110578400,1.523578369140625,-0.004823251161724329,0.004040548112243414,-0.025115206837654114
1691217815120619500,1.53361962890625,-0.0054419031366705894,0.0021579593885689974,-0.021192369982600212
1691217815130659600,1.54365966796875,-0.0038983351550996304,-0.001960619119927287,-0.01990845985710621
1691217815140699600,1.55369970703125,-0.004619785584509373,-0.006305832881480455,-0.017855430021882057
1691217815150739500,1.563739501953125,-0.004685831721872091,-0.009468869306147099,-0.017712684348225594
1691217815160810500,1.573810546875,-0.005160407163202763,-0.006070409435778856,-0.015741145238280296
1691217815170851600,1.5838515625,-0.004534830804914236,-0.004515389446169138,-0.016167251393198967
1691217815180891400,1.593891357421875,-0.004673315212130547,-0.0026610305067151785,-0.01708550937473774
1691217815190931500,1.603931396484375,-0.005151885095983744,0.002341983839869499,-0.018686601892113686
1691217815200971500,1.613971435546875,-0.004111388232558966,0.001907355966977775,-0.0178208090364933
1691217815211012600,1.6240126953125,-0.0033542513847351074,0.002996056107804179,-0.020291956141591072
1691217815221052700,1.634052734375,-0.004223773255944252,-0.0025044367648661137,-0.02081313729286194
1691217815231092500,1.644092529296875,-0.004080495331436396,-0.003774498123675585,-0.021148961037397385
1691217815241133600,1.654133544921875,-0.0049340385012328625,-0.009170062839984894,-0.021282386034727097
1691217815251173400,1.66417333984375,-0.005045624915510416,-0.007897870615124702,-0.02328295260667801
1691217815261213400,1.67421337890625,-0.00401471508666873,-0.007102916948497295,-0.022215556353330612
1691217815271253500,1.68425341796875,-0.004352936986833811,-0.0005925533478148282,-0.02381984516978264
1691217815281294600,1.694294677734375,-0.005160407163202763,-0.0021526331547647715,-0.021977737545967102
1691217815291334700,1.704334716796875,-0.005167065188288689,0.0022157500497996807,-0.021792113780975342
1691217815301374500,1.71437451171875,-0.0041342913173139095,0.0018077536951750517,-0.01877901330590248
1691217815311445500,1.724445556640625,-0.005286640953272581,-0.0017241304740309715,-0.01884106546640396
1691217815321485600,1.734485595703125,-0.004773183725774288,-0.005403553601354361,-0.018040785565972328
1691217815331526400,1.7445263671875,-0.006147641222923994,-0.0037939392495900393,-0.01600772887468338
1691217815341569000,1.754569091796875,-0.004635232035070658,-0.005396096967160702,-0.0160085279494524
1691217815351608800,1.76460888671875,-0.004537493921816349,-0.00472498033195734,-0.018193118274211884
1691217815361649000,1.77464892578125,-0.00566880451515317,-0.0036605149507522583,-0.018138257786631584
1691217815371689700,1.784689697265625,-0.005173456855118275,0.0022985744290053844,-0.019768111407756805
1691217815381729800,1.794729736328125,-0.005420065484941006,0.003819771809503436,-0.01919020526111126
1691217815391769900,1.804769775390625,-0.005308212712407112,0.001597896683961153,-0.0224445890635252
1691217815401811000,1.81481103515625,-0.005310609471052885,-0.0017302557826042175,-0.021226191893219948
1691217815411851000,1.82485107421875,-0.005054946057498455,-0.005074653308838606,-0.023312512785196304
1691217815421890800,1.834890869140625,-0.0041641187854111195,-0.006724481470882893,-0.02371278591454029
1691217815431931000,1.844930908203125,-0.004519917070865631,-0.009546101093292236,-0.020845094695687294
1691217815441971700,1.8549716796875,-0.004633900243788958,-0.00794287770986557,-0.02225523814558983
1691217815452042000,1.8650419921875,-0.004307396709918976,-0.0018945727497339249,-0.022223547101020813
1691217815462082800,1.875082763671875,-0.004831506870687008,-0.0032929987646639347,-0.019823772832751274
1691217815472123000,1.885122802734375,-0.005381449591368437,0.002182993106544018,-0.01870897226035595
1691217815482163000,1.895162841796875,-0.00538411270827055,0.002522812457755208,-0.018581140786409378
1691217815492204000,1.9052041015625,-0.00415346585214138,0.0006404902087524533,-0.017309747636318207
1691217815502243800,1.915243896484375,-0.00675244489684701,0.00036698358599096537,-0.01678350754082203
1691217815512284000,1.925283935546875,-0.005784119479358196,-0.003865045728161931,-0.015873238444328308
1691217815522324000,1.935323974609375,-0.003820837242528796,-0.005379319190979004,-0.018122278153896332
1691217815532364800,1.94536474609375,-0.005275722127407789,-0.005573996342718601,-0.017066601663827896
1691217815542404900,1.95540478515625,-0.0041305627673864365,-0.0028213527984917164,-0.019045596942305565
1691217815552445000,1.96544482421875,-0.004985171370208263,-0.003201385959982872,-0.02173086255788803
1691217815562486000,1.975486083984375,-0.004793423693627119,-0.0008309062686748803,-0.022115422412753105
1691217815572525800,1.98552587890625,-0.004888232331722975,0.0013670006301254034,-0.022301577031612396
1691217815582566000,1.99556591796875,-0.0046394928358495235,-0.0026756778825074434,-0.022101573646068573
1691217815592606000,2.00560595703125,-0.0044014062732458115,-0.002894856035709381,-0.022118885070085526
1691217815602677000,2.015677001953125,-0.0037236318457871675,-0.006429137196391821,-0.022533804178237915
1691217815612717800,2.0257177734375,-0.005633118096739054,-0.00580782163888216,-0.020425645634531975
1691217815622758000,2.0357578125,-0.0041060615330934525,-0.006096241995692253,-0.021038439124822617
1691217815632798000,2.0457978515625,-0.006500776391476393,-0.005136438645422459,-0.019637882709503174
1691217815642837800,2.055837646484375,-0.005173456855118275,-0.0024437166284769773,-0.01973668672144413
1691217815652878800,2.06587890625,-0.005596633069217205,-0.0002466087171342224,-0.016936372965574265
1691217815662919000,2.0759189453125,-0.003897003596648574,0.0010458233300596476,-0.016586700454354286
1691217815672959000,2.085958984375,-0.004294347018003464,-0.001555552356876433,-0.01919686421751976
1691217815682999800,2.095999755859375,-0.0028011128306388855,-0.0007414240390062332,-0.017474597319960594
1691217815693039900,2.106039794921875,-0.004255198873579502,-0.00407596817240119,-0.018201373517513275
1691217815703080000,2.116079833984375,-0.0027537085115909576,-0.004661330953240395,-0.018691929057240486
1691217815713119700,2.12611962890625,-0.005690908990800381,-0.007499461527913809,-0.019454125314950943
1691217815723160800,2.136160888671875,-0.0041369544342160225,-0.002133192028850317,-0.02046852372586727
1691217815733201000,2.146200927734375,-0.0049247173592448235,0.000031425301131093875,-0.022357502952218056
1691217815743272000,2.15627197265625,-0.004019509069621563,-0.0009534116834402084,-0.02371145412325859
1691217815753312000,2.16631201171875,-0.0041465419344604015,0.0019057580502703786,-0.02171781286597252
1691217815763351800,2.176351806640625,-0.004057858604937792,-0.001115864492021501,-0.02245417609810829
1691217815773393000,2.186392822265625,-0.0041191112250089645,-0.0005795038305222988,-0.021402759477496147
1691217815783432700,2.1964326171875,-0.004869590047746897,-0.003516171593219042,-0.018875153735280037
1691217815793472800,2.20647265625,-0.004261856433004141,-0.004266384057700634,-0.018512697890400887
1691217815803512800,2.216512939453125,-0.00506985979154706,-0.004535363521426916,-0.01685035228729248
1691217815813554000,2.226553955078125,-0.004441353492438793,-0.003419232554733753,-0.017371533438563347
1691217815823593700,2.23659375,-0.0048946235328912735,-0.0033451966010034084,-0.017183247953653336
1691217815833633800,2.2466337890625,-0.003835218260064721,-0.00013502225920092314,-0.01799577847123146
1691217815843675000,2.2566748046875,-0.004017644561827183,0.00037151097785681486,-0.017854098230600357
1691217815853715000,2.26671484375,-0.0027539748698472977,-0.0017904432024806738,-0.018696455284953117
1691217815863754800,2.276754638671875,-0.0034527883399277925,0.0023094932548701763,-0.020718595013022423
1691217815873794800,2.286794921875,-0.004870122764259577,-0.0028003137558698654,-0.019116969779133797
1691217815883865900,2.296865966796875,-0.005023254547268152,-0.0043505397625267506,-0.021045630797743797
1691217815893907000,2.306906982421875,-0.005885053426027298,-0.005290902219712734,-0.02172606810927391
1691217815903946800,2.31694677734375,-0.004323109518736601,-0.001969673903658986,-0.022716764360666275
1691217815913986800,2.32698681640625,-0.004050135146826506,-0.00307675008662045,-0.022697854787111282
1691217815924026600,2.337026611328125,-0.003061303636059165,-0.0024024376180022955,-0.02129223942756653
1691217815934067700,2.347067626953125,-0.005120992194861174,-0.0006293049664236605,-0.020316457375884056
1691217815944107800,2.357107666015625,-0.004799016285687685,0.0006732470938004553,-0.020231768488883972
1691217815954147800,2.36714794921875,-0.00259418529458344,-0.00014514227223116904,-0.019580092281103134
1691217815964188000,2.37718798828125,-0.005785184912383556,-0.0023134879302233458,-0.018310829997062683
1691217815974228700,2.387228759765625,-0.004210457671433687,-0.004711132030934095,-0.01937716081738472
1691217815984268800,2.397268798828125,-0.0046120621263980865,-0.004107393324375153,-0.01811482198536396
1691217815994308900,2.407308837890625,-0.004250937607139349,-0.003129480639472604,-0.017308415845036507
1691217816004350000,2.417349853515625,-0.005335377063602209,-0.0016391756944358349,-0.018683938309550285
1691217816014389800,2.4273896484375,-0.0035217641852796078,0.0024642229545861483,-0.017229320481419563
1691217816024429800,2.437429931640625,-0.005498362239450216,-0.0009512811084277928,-0.021613681688904762
1691217816034500900,2.4475009765625,-0.004630970768630505,0.00029774141148664057,-0.019059712067246437
1691217816044541000,2.457541015625,-0.004862132947891951,-0.003861050819978118,-0.020616328343749046
1691217816054581800,2.467581787109375,-0.0032953955233097076,-0.0012258529895916581,-0.019935091957449913
1691217816064621800,2.477621826171875,-0.005206213798373938,-0.004397944081574678,-0.022962840273976326
1691217816074661600,2.48766162109375,-0.0041609229519963264,-0.005077849142253399,-0.023124227300286293
1691217816084701700,2.49770166015625,-0.00509808911010623,-0.0025044367648661137,-0.02359747141599655
1691217816094742800,2.50774267578125,-0.006422479171305895,-0.0030064424499869347,-0.02147573046386242
1691217816104782800,2.517782958984375,-0.00264771468937397,-0.0032437301706522703,-0.022249113768339157
1691217816114823000,2.527822998046875,-0.003795803524553776,-0.000559530162718147,-0.020247481763362885
1691217816124863700,2.53786376953125,-0.004862399306148291,-0.0007795072160661221,-0.019665313884615898
1691217816134903800,2.54790380859375,-0.005346562247723341,-0.0025683525018393993,-0.018021611496806145
1691217816144943900,2.55794384765625,-0.0038951393216848373,-0.001169394003227353,-0.018015751615166664
1691217816154983700,2.567983642578125,-0.002749447477981448,-0.0024583640042692423,-0.01842188462615013
1691217816165024800,2.578024658203125,-0.003745203372091055,-0.003198456484824419,-0.018012555316090584
1691217816175094800,2.5880947265625,-0.004853344522416592,-0.0030652983114123344,-0.018929483368992805
1691217816185135900,2.598135986328125,-0.00384453940205276,-0.0025129588320851326,-0.018516959622502327
1691217816195176000,2.608176025390625,-0.004089550115168095,-0.0023467775899916887,-0.02070101723074913
1691217816205216000,2.618216064453125,-0.0065231467597186565,-0.0030458574183285236,-0.020411266013979912
1691217816215256800,2.6282568359375,-0.00435986090451479,-0.002079928759485483,-0.022476546466350555
1691217816225296600,2.638296630859375,-0.0041220407001674175,-0.0017952368361875415,-0.02052018791437149
1691217816235336700,2.648336669921875,-0.003698331769555807,-0.0002591255761217326,-0.022705312818288803
1691217816245376800,2.658376708984375,-0.005146026145666838,-0.004245611373335123,-0.02130528911948204
1691217816255417900,2.66841796875,-0.004537760280072689,-0.004826713353395462,-0.020242154598236084
1691217816265458000,2.6784580078125,-0.005661880597472191,-0.00430153775960207,-0.02153964713215828
1691217816275498000,2.688498046875,-0.005316468421369791,-0.003996073268353939,-0.01942669413983822
1691217816285538800,2.698538818359375,-0.004689027555286884,-0.003715642262250185,-0.021336447447538376
1691217816295579000,2.708578857421875,-0.00538544449955225,-0.00037710359902121127,-0.01798672415316105
1691217816305618700,2.71861865234375,-0.005438175052404404,0.0007334345718845725,-0.01865570992231369
1691217816315689700,2.728689697265625,-0.0044054011814296246,-0.001984587637707591,-0.018753182142972946
1691217816325729800,2.738729736328125,-0.004230697639286518,-0.0020570256747305393,-0.018380871042609215
1691217816335771100,2.748771240234375,-0.0030533140525221825,-0.0013965616235509515,-0.01895291917026043
1691217816345811200,2.758811279296875,-0.004039216320961714,-0.005200887098908424,-0.019413111731410027
1691217816355851300,2.768851318359375,-0.004697283264249563,-0.005532450973987579,-0.017301492393016815
1691217816365891300,2.778891357421875,-0.006453105714172125,-0.005796902813017368,-0.020673319697380066
1691217816375932200,2.78893212890625,-0.0040823593735694885,-0.0020128171890974045,-0.021135378628969193
1691217816385972200,2.79897216796875,-0.0054331147111952305,-0.0014594122767448425,-0.020196614786982536
1691217816396012000,2.809011962890625,-0.005941246170550585,-0.0018524948973208666,-0.020543357357382774
1691217816406053000,2.81905322265625,-0.005093029234558344,-0.0027747475542128086,-0.020063722506165504
1691217816416093200,2.82909326171875,-0.0041249701753258705,-0.00253399764187634,-0.020484235137701035
1691217816426133200,2.83913330078125,-0.0039113848470151424,-0.0034703651908785105,-0.01919899508357048
1691217816436173300,2.84917333984375,-0.0057407100684940815,-0.0031281490810215473,-0.019220566377043724
1691217816446214100,2.859214111328125,-0.003980360459536314,-0.005645368713885546,-0.0201026052236557
1691217816456284200,2.8692841796875,-0.005136438645422459,-0.0057281930930912495,-0.01775609329342842
1691217816466325200,2.8793251953125,-0.005525526590645313,-0.0018993664998561144,-0.019536416977643967
1691217816476365000,2.889364990234375,-0.005367601290345192,-0.0020908478181809187,-0.018811505287885666
1691217816486405000,2.899405029296875,-0.005481318105012178,-0.0025901903863996267,-0.018490593880414963
1691217816496446200,2.9094462890625,-0.0023220102302730083,0.0005600627628155053,-0.018672753125429153
1691217816506486300,2.919486328125,-0.004328169394284487,-0.00236249016597867,-0.02002936787903309
1691217816516526300,2.9295263671875,-0.005226986017078161,-0.0013640711549669504,-0.020658141002058983
1691217816526566100,2.939566162109375,-0.005005677696317434,-0.0041010016575455666,-0.020327109843492508
1691217816536607200,2.949607177734375,-0.00549276964738965,-0.0032554480712860823,-0.021274395287036896
1691217816546647000,2.95964697265625,-0.004954811185598373,-0.004631769843399525,-0.020502345636487007
1691217816556687000,2.96968701171875,-0.0037262949626892805,-0.003126284806057811,-0.0211297869682312
1691217816566728200,2.979728271484375,-0.0057321880012750626,-0.0046389601193368435,-0.021388646215200424
1691217816576768300,2.989768310546875,-0.004070375580340624,-0.0016330503858625889,-0.020138824358582497
1691217816586808300,2.999808349609375,-0.005407282151281834,-0.0005475459038279951,-0.020314060151576996
1691217816596848000,3.00984814453125,-0.005381982307881117,-0.001731853699311614,-0.01931883580982685
1691217816606919200,3.019919189453125,-0.006264820229262114,-0.0018698053900152445,-0.01962083950638771
1691217816616959000,3.029958984375,-0.00640756543725729,-0.004293548408895731,-0.018816830590367317
1691217816627000000,3.04,-0.005240035708993673,-0.00392816262319684,-0.019776102155447006
1691217816637040000,3.0500400390625,-0.006262423470616341,-0.006114085204899311,-0.017958227545022964
1691217816647080200,3.060080078125,-0.004821919370442629,-0.0024232103023678064,-0.0190139040350914
1691217816657121300,3.070121337890625,-0.0057649449445307255,-0.00007456851017195731,-0.01678989827632904
1691217816667161300,3.080161376953125,-0.005539374891668558,-0.0025337315164506435,-0.018808841705322266
1691217816677201200,3.090201171875,-0.004568919073790312,-0.0011350392596796155,-0.02070714347064495
1691217816687241000,3.100240966796875,-0.0037760960403829813,-0.002953445538878441,-0.02045387588441372
1691217816697282000,3.110281982421875,-0.004156395327299833,-0.0021049624774605036,-0.021152956411242485
1691217816707322000,3.120322021484375,-0.003859453136101365,-0.003471164032816887,-0.02172367088496685
1691217816717362200,3.130362060546875,-0.0031121699139475822,-0.003925499506294727,-0.022295985370874405
1691217816727403300,3.1404033203125,-0.004777710884809494,-0.0044264402240514755,-0.020727915689349174
1691217816737443300,3.150443359375,-0.004574778024107218,-0.0032381375785917044,-0.0227950606495142
1691217816747514400,3.160514404296875,-0.003364105010405183,-0.0032237565610557795,-0.02184910513460636
1691217816757554200,3.17055419921875,-0.004005128052085638,-0.00133903743699193,-0.019842147827148438
1691217816767594000,3.180593994140625,-0.0038546593859791756,-0.0022160164080560207,-0.019590478390455246
1691217816777635000,3.190635009765625,-0.006690126843750477,-0.001282045734114945,-0.01834997907280922
1691217816787675100,3.200675048828125,-0.005771868862211704,-0.001743305241689086,-0.017735853791236877
1691217816797715200,3.210715087890625,-0.0026383937802165747,-0.004743089899420738,-0.019112175330519676
1691217816807755300,3.22075537109375,-0.005471730604767799,-0.0040442761965096,-0.01732253096997738
1691217816817796400,3.23079638671875,-0.005230181850492954,-0.0007371630053967237,-0.017062339931726456
1691217816827836200,3.240836181640625,-0.0037180392537266016,-0.0021105550695210695,-0.01966851018369198
1691217816837876000,3.2508759765625,-0.005693838465958834,-0.003746002446860075,-0.019180351868271828
1691217816847917000,3.2609169921875,-0.0052118063904345036,-0.0025481125339865685,-0.021203821524977684
1691217816857957000,3.27095703125,-0.006090383045375347,-0.0027118970174342394,-0.020187826827168465
1691217816867997200,3.2809970703125,-0.00424188282340765,-0.0022005699574947357,-0.02004268392920494
1691217816878037200,3.291037353515625,-0.004723382648080587,-0.0034072482958436012,-0.022408902645111084
1691217816888108300,3.3011083984375,-0.005163602996617556,-0.0052205948159098625,-0.02262142300605774
1691217816898148000,3.311148193359375,-0.005083974450826645,-0.004209125880151987,-0.021159347146749496
1691217816908189200,3.321189208984375,-0.0054730623960494995,-0.0032772859558463097,-0.021767878904938698
1691217816918229000,3.33122900390625,-0.004991828929632902,-0.001273523666895926,-0.02076253667473793
1691217816928269000,3.34126904296875,-0.00538437906652689,-0.0013134710025042295,-0.018038388341665268
1691217816938310100,3.35131005859375,-0.005241101142019033,-0.0022442457266151905,-0.017303623259067535
1691217816948350200,3.36135009765625,-0.006470149848610163,-0.001728391507640481,-0.01781841181218624
1691217816958390300,3.371390380859375,-0.005026450380682945,0.0011906992876902223,-0.01858700066804886
1691217816968430300,3.381430419921875,-0.005352154839783907,-0.00180855265352875,-0.01828339882194996
1691217816978471200,3.39147119140625,-0.005550294183194637,-0.004078364931046963,-0.01829325407743454
1691217816988511000,3.401510986328125,-0.0041822283528745174,-0.00387303507886827,-0.01889565959572792
1691217816998551000,3.411551025390625,-0.004479703027755022,-0.0023497070651501417,-0.018001103773713112
1691217817008592100,3.421592041015625,-0.00296276668086648,-0.00199337606318295,-0.0191396065056324
1691217817018632200,3.431632080078125,-0.00469595193862915,-0.0013712616637349129,-0.02262728102505207
1691217817028703200,3.441703125,-0.0057412427850067616,-0.001788046327419579,-0.021932994946837425
1691217817038743300,3.451743408203125,-0.006798251066356897,-0.00185063062235713,-0.020956946536898613
1691217817048783000,3.461783203125,-0.004122573416680098,-0.0011627360945567489,-0.022429674863815308
1691217817058824000,3.471823974609375,-0.004274639766663313,-0.0014836470363661647,-0.020977986976504326
1691217817068864000,3.481864013671875,-0.004060255363583565,-0.0035923379473388195,-0.02021259441971779
1691217817078904000,3.491904052734375,-0.00493244081735611,-0.003212571144104004,-0.021136976778507233
1691217817088944000,3.501944091796875,-0.003757720347493887,-0.002389388158917427,-0.019766513258218765
1691217817098985200,3.511985107421875,-0.004073038697242737,-0.002338788006454706,-0.018393920734524727
1691217817109025300,3.522025390625,-0.004139084834605455,-0.0017845842521637678,-0.018511898815631866
1691217817119065300,3.5320654296875,-0.004571582190692425,-0.0017568873008713126,-0.01756221614778042
1691217817129105200,3.542105224609375,-0.0036820864770561457,-0.0004261057765688747,-0.01703491061925888
1691217817139146000,3.55214599609375,-0.0041763694025576115,-0.002407231368124485,-0.01739044114947319
1691217817149186000,3.56218603515625,-0.004257595632225275,-0.0035459990613162518,-0.018265556544065475
1691217817159226000,3.57222607421875,-0.005434712860733271,-0.0024471788201481104,-0.020973192527890205
1691217817169297200,3.582297119140625,-0.005633650813251734,-0.0034261567052453756,-0.020059995353221893
1691217817179337200,3.592337158203125,-0.006145243998616934,-0.0027656927704811096,-0.019083412364125252
1691217817189378300,3.60237841796875,-0.004530835896730423,-0.0025806031189858913,-0.022954052314162254
1691217817199418000,3.612418212890625,-0.004896221682429314,-0.004130030050873756,-0.022360699251294136
1691217817209458200,3.622458251953125,-0.004299141000956297,-0.001734783174470067,-0.021103953942656517
1691217817219499000,3.6324990234375,-0.005066663958132267,-0.0008586031035520136,-0.022523418068885803
1691217817229539000,3.6425390625,-0.004107926040887833,-0.0018431737553328276,-0.02016598917543888
1691217817239579100,3.6525791015625,-0.006410228554159403,-0.0025563682429492474,-0.0200972780585289
1691217817249619200,3.662619140625,-0.005589442327618599,-0.001977929612621665,-0.018130533397197723
1691217817259660300,3.672660400390625,-0.004018976353108883,-0.004551874939352274,-0.017906296998262405
1691217817269700400,3.682700439453125,-0.0041792988777160645,-0.002918025478720665,-0.018321748822927475
1691217817279740200,3.692740234375,-0.0052179316990077496,-0.002299373270943761,-0.017111608758568764
1691217817289781000,3.702781005859375,-0.005583317019045353,-0.002930808812379837,-0.0169086754322052
1691217817299821000,3.712821044921875,-0.0038517299108207226,-0.002635996788740158,-0.017846375703811646
1691217817309861000,3.722861083984375,-0.004283960908651352,-0.0007579356315545738,-0.017306284978985786
1691217817319932200,3.73293212890625,-0.005667206831276417,-0.002662628423422575,-0.017979532480239868
1691217817329972200,3.74297216796875,-0.0038216360844671726,-0.001960352761670947,-0.02069169655442238
1691217817339984600,3.752984619140625,-0.004254932515323162,-0.0030306773260235786,-0.022353243082761765
1691217817350025700,3.763025634765625,-0.004806739278137684,-0.0036509274505078793,-0.022877618670463562
1691217817360065500,3.7730654296875,-0.004683701321482658,-0.0017531589837744832,-0.020971061661839485
1691217817370105600,3.783105712890625,-0.0049124667420983315,-0.002055161399766803,-0.021701566874980927
1691217817380146400,3.793146484375,-0.005065065808594227,-0.0032890038564801216,-0.02171967551112175
1691217817390186500,3.8031865234375,-0.0051657333970069885,-0.0015225291717797518,-0.022170282900333405
1691217817400226600,3.8132265625,-0.004567587748169899,-0.0010748518398031592,-0.02093537524342537
1691217817410266600,3.8232666015625,-0.004476241301745176,-0.002153698354959488,-0.02069409377872944
1691217817420307700,3.8333076171875,-0.004308195784687996,-0.0019350528018549085,-0.019770242273807526
1691217817430347500,3.843347412109375,-0.0036575854755938053,-0.0016812535468488932,-0.018938004970550537
1691217817440387600,3.8533876953125,-0.004422445315867662,-0.002694586291909218,-0.019360648468136787
1691217817450428400,3.863428466796875,-0.004285026341676712,-0.0036799560766667128,-0.018018415197730064
1691217817460498700,3.873498779296875,-0.00430233683437109,-0.004249073565006256,-0.01956171728670597
1691217817470539500,3.88353955078125,-0.005768939387053251,-0.002055427758023143,-0.017411481589078903
1691217817480579600,3.89357958984375,-0.005785983521491289,-0.001347559504210949,-0.017767012119293213
1691217817490619600,3.90361962890625,-0.005653358530253172,-0.001996305538341403,-0.019964121282100677
1691217817500660700,3.91366064453125,-0.0043590618297457695,-0.0011949603212997317,-0.018505241721868515
1691217817510700500,3.923700439453125,-0.0046906257048249245,-0.0013046825770288706,-0.02201928198337555
1691217817520740600,3.93374072265625,-0.0037145770620554686,-0.00020133497309871018,-0.020206468179821968
1691217817530780700,3.94378076171875,-0.005562810692936182,-0.0036301547661423683,-0.020141754299402237
1691217817540821500,3.953821533203125,-0.005309277679771185,-0.0024381240364164114,-0.02093883790075779
1691217817550861600,3.963861572265625,-0.005210208240896463,-0.00478277076035738,-0.02002776972949505
1691217817560901600,3.973901611328125,-0.003852528752759099,-0.00446851784363389,-0.02027624286711216
1691217817570941400,3.98394140625,-0.0049004824832081795,-0.0025361282750964165,-0.02117532677948475
1691217817580982500,3.993982421875,-0.004836566746234894,-0.004338821861892939,-0.017786454409360886
1691217817591022600,4.004022705078125,-0.0057556238025426865,-0.0011206581257283688,-0.018136126920580864
1691217817601093600,4.01409375,-0.005791576579213142,-0.002100168727338314,-0.017900969833135605
1691217817611133700,4.0241337890625,-0.006822485942393541,-0.002019208623096347,-0.018257834017276764
1691217817621173500,4.034173583984375,-0.006741259712725878,-0.0014407701091840863,-0.015025821514427662
1691217817631214600,4.044214599609375,-0.005598497111350298,-0.004178499802947044,-0.018425611779093742
1691217817641254700,4.054254638671875,-0.005147890187799931,-0.0035228293854743242,-0.019027220085263252
1691217817651294500,4.06429443359375,-0.00498037738725543,-0.0038948729634284973,-0.018065553158521652
1691217817661335600,4.07433544921875,-0.003829092951491475,-0.0019076223252341151,-0.01974041573703289
1691217817671375600,4.084375732421875,-0.003212837502360344,-0.003555319970473647,-0.01997610554099083
1691217817681415700,4.094415771484375,-0.005013667047023773,-0.0016612798208370805,-0.02239398844540119
1691217817691455500,4.10445556640625,-0.004549744538962841,-0.00202320353128016,-0.022779347375035286
1691217817701496600,4.11449658203125,-0.005660282447934151,-0.004914331249892712,-0.02201555296778679
1691217817711536600,4.12453662109375,-0.004721518140286207,-0.002935868687927723,-0.021684255450963974
1691217817721576400,4.134576416015625,-0.005291967187076807,-0.0023153522051870823,-0.02003496140241623
1691217817731617500,4.144617431640625,-0.0027334685437381268,-0.0028695559594780207,-0.022586002945899963
1691217817741687600,4.1546875,-0.004032558295875788,-0.0008649947121739388,-0.018483402207493782
1691217817751728600,4.164728759765625,-0.004063184838742018,-0.002531334524974227,-0.01919233612716198
1691217817761768700,4.174768798828125,-0.005240035708993673,-0.0016980315558612347,-0.018034661188721657
1691217817771808500,4.18480859375,-0.005625395104289055,-0.0026559706311672926,-0.016879647970199585
1691217817781848300,4.194848388671875,-0.00532552320510149,-0.0032091091852635145,-0.01672278717160225
1691217817791889400,4.204889404296875,-0.004019242711365223,-0.0010993528412654996,-0.01697339117527008
1691217817801929500,4.214929443359375,-0.0031875374261289835,-0.0017294568242505193,-0.018794726580381393
1691217817811969500,4.224969482421875,-0.004809668753296137,-0.0022386531345546246,-0.01871749572455883
1691217817822010600,4.2350107421875,-0.002701244316995144,-0.0026027073618024588,-0.019153721630573273
1691217817832050700,4.24505078125,-0.0054696002043783665,-0.0013494236627593637,-0.020388096570968628
1691217817842090500,4.255090576171875,-0.004634699318557978,-0.0036394759081304073,-0.022937806323170662
1691217817852130600,4.265130615234375,-0.005489307455718517,-0.002403236459940672,-0.02244112640619278
1691217817862171600,4.275171630859375,-0.00580755528062582,-0.000809068325906992,-0.02130768448114395
1691217817872211500,4.28521142578125,-0.0059750680811703205,-0.004552141297608614,-0.02094150148332119
1691217817882251500,4.29525146484375,-0.005270928610116243,-0.002856240142136812,-0.021697305142879486
1691217817892322600,4.305322509765625,-0.004884770140051842,-0.0023670175578445196,-0.019101789221167564
1691217817902362600,4.315362548828125,-0.004095409065485001,-0.0036397422663867474,-0.01949593611061573
1691217817912403500,4.325403564453125,-0.004700745455920696,-0.0023228090722113848,-0.01943974383175373
1691217817922443500,4.335443603515625,-0.002796052722260356,-0.004337224178016186,-0.017486315220594406
1691217817932483300,4.3454833984375,-0.005407282151281834,-0.0021960425656288862,-0.01769856922328472
1691217817942524400,4.3555244140625,-0.005839513149112463,-0.002785133896395564,-0.019449863582849503
1691217817952564500,4.365564453125,-0.005559881217777729,-0.0034762241411954165,-0.018335064873099327
1691217817962604500,4.3756044921875,-0.005183043889701366,-0.0025385250337421894,-0.018918829038739204
1691217817972644600,4.38564453125,-0.00443922309204936,-0.0033595776185393333,-0.019479958340525627
1691217817982685400,4.395685546875,-0.003933488857001066,-0.004623514134436846,-0.019641611725091934
1691217817992725500,4.4057255859375,-0.002767024328932166,-0.005857090000063181,-0.019339609891176224
1691217818002765600,4.415765625,0.1776115447282791,0.011867578141391277,-0.04818990081548691
1691217818012806700,4.425806640625,0.4016616940498352,-0.06942008435726166,-0.006410228554159403
1691217818022846500,4.435846435546875,0.5696682333946228,-0.12224015593528748,-0.0011574097443372011
1691217818032917500,4.44591748046875,0.7407901883125305,-0.11238326877355576,0.014582937583327293
1691217818042957600,4.45595751953125,0.9111518263816833,-0.0839468315243721,0.016807209700345993
1691217818052997600,4.46599755859375,1.0851068496704102,-0.02900022640824318,-0.00621208967640996
1691217818063037700,4.47603759765625,1.266331434249878,0.05445259064435959,-0.023696009069681168
1691217818073078500,4.48607861328125,1.4437116384506226,0.09460107237100601,-0.041667819023132324
1691217818083118300,4.496118408203125,1.6386544704437256,0.09931859374046326,-0.020650416612625122
1691217818093158400,4.506158447265625,1.827973484992981,0.06731165945529938,0.003781422507017851
1691217818103199500,4.516199462890625,1.989631175994873,0.004599811974912882,0.030232736840844154
1691217818113239600,4.526239501953125,2.168811082839966,-0.031807996332645416,0.06167241930961609
1691217818123279600,4.536279541015625,2.3603720664978027,-0.08711253106594086,0.055094145238399506
1691217818133319700,4.546319580078125,2.5422980785369873,-0.08812107145786285,0.03232917934656143
1691217818143360500,4.556360595703125,2.7029640674591064,-0.03735456243157387,-0.02352876216173172
1691217818153400600,4.566400634765625,2.859571933746338,0.016997359693050385,-0.05946332588791847
1691217818163440400,4.5764404296875,2.967275619506836,0.08133453875780106,-0.05451463907957077
1691217818173511400,4.586511474609375,3.1007654666900635,0.09374566376209259,0.0018402442801743746
1691217818183551500,4.596551513671875,3.247359275817871,0.10413625836372375,0.015914784744381905
1691217818193592600,4.606592529296875,3.3846638202667236,0.07812276482582092,0.007197459228336811
1691217818203632600,4.616632568359375,3.5173792839050293,0.016084693372249603,0.017438111826777458
1691217818213672700,4.626672607421875,3.6486878395080566,-0.02967347390949726,0.05380810424685478
1691217818223712500,4.63671240234375,3.792881727218628,-0.09054241329431534,0.12207424640655518
1691217818233753300,4.64675341796875,3.9262843132019043,-0.08364748954772949,0.1403435319662094
1691217818243793400,4.65679345703125,4.104176044464111,-0.03888082131743431,0.1347961574792862
1691217818253833500,4.66683349609375,4.305060863494873,-0.03298884257674217,0.0874028131365776
1691217818263874600,4.67687451171875,4.489506721496582,0.02118358202278614,0.03778812661767006
1691217818273914600,4.68691455078125,4.67294979095459,0.06853831559419632,-0.01489612553268671
1691217818283954700,4.69695458984375,4.843313217163086,0.10086695849895477,-0.09889674931764603
1691217818293994800,4.706994873046875,4.957016468048096,0.09368947148323059,-0.14396436512470245
1691217818304035600,4.71703564453125,5.098944664001465,0.048041559755802155,-0.12547244131565094
1691217818314106400,4.7271064453125,5.279129505157471,-0.013991449028253555,-0.13673174381256104
1691217818324146400,4.737146484375,5.419777870178223,-0.02996295876801014,-0.13331757485866547
1691217818334186500,4.7471865234375,5.547977924346924,-0.011107245460152626,-0.07285449653863907
1691217818344221000,4.757220947265625,5.688164710998535,-0.05633863806724548,-0.021151890978217125
1691217818354261800,4.76726171875,5.8358564376831055,-0.03893567994236946,0.052014999091625214
1691217818364301800,4.7773017578125,6.005731582641602,-0.1365698277950287,0.08445283025503159
1691217818374342000,4.787341796875,6.154611110687256,-0.16224457323551178,0.15338902175426483
1691217818384383000,4.797383056640625,6.26744270324707,-0.06860196590423584,0.2174614816904068
1691217818394423000,4.807423095703125,6.437748908996582,-0.0978943407535553,0.19789338111877441
1691217818404462800,4.817462890625,6.585193157196045,-0.19107460975646973,0.23408973217010498
1691217818414503000,4.8275029296875,6.731182098388672,-0.12779444456100464,0.21204274892807007
1691217818424543700,4.837543701171875,6.911983489990234,-0.04928099736571312,0.15688389539718628
1691217818434583800,4.847583740234375,7.0734405517578125,-0.00031664984999224544,0.16951632499694824
1691217818444624000,4.857623779296875,7.245172500610352,0.0788668543100357,0.08115077763795853
1691217818454695000,4.86769482421875,7.379190921783447,0.053587593138217926,0.07078468799591064
1691217818464735000,4.87773486328125,7.507076263427734,0.08129645138978958,0.07875259965658188
1691217818474776000,4.887776123046875,7.630479335784912,0.021887721493840218,0.041560493409633636
1691217818484816000,4.89781591796875,7.7452850341796875,-0.03982331231236458,0.08754049986600876
1691217818494856000,4.90785595703125,7.892850399017334,-0.0600377693772316,0.1273220032453537
1691217818504896000,4.91789599609375,8.045207023620605,-0.1153649389743805,0.09901606291532516
1691217818514936800,4.927936767578125,8.16501235961914,-0.1244117021560669,0.1946304738521576
1691217818524977000,4.937976806640625,8.291727066040039,-0.12540026009082794,0.13893312215805054
1691217818535017000,4.948016845703125,8.429913520812988,-0.06775960326194763,0.16008713841438293
1691217818545058000,4.95805810546875,8.576239585876465,-0.04981868714094162,0.18951161205768585
1691217818555097900,4.968097900390625,8.74785327911377,-0.02522359788417816,0.11133238673210144
1691217818565138000,4.978137939453125,8.909207344055176,-0.005197957623749971,0.15172161161899567
1691217818575178000,4.988177978515625,9.041679382324219,-0.009185775183141232,0.11954557150602341
1691217818585218800,4.99821875,9.200364112854004,-0.017255153506994247,0.10433758795261383
1691217818595289900,5.008289794921875,9.332080841064453,-0.057382598519325256,0.09133337438106537
1691217818605330000,5.018329833984375,9.484458923339844,-0.057434264570474625,0.08618947863578796
1691217818615370000,5.028369873046875,9.657416343688965,-0.04148246347904205,0.06795427948236465
1691217818625409800,5.038409912109375,9.811103820800781,-0.037576936185359955,0.09756463766098022
1691217818635451000,5.048450927734375,9.96476936340332,-0.03650394827127457,0.09666955471038818
1691217818645491000,5.058490966796875,10.104324340820312,-0.06499311327934265,0.1566426008939743
1691217818655531000,5.068531005859375,10.275640487670898,-0.0809454470872879,0.18693846464157104
1691217818665571800,5.07857177734375,10.451735496520996,-0.059234827756881714,0.14621712267398834
1691217818675612000,5.08861181640625,10.6259126663208,-0.0914233922958374,0.2084043323993683
1691217818685652000,5.09865185546875,10.755311965942383,-0.13184458017349243,0.20730338990688324
1691217818695691800,5.10869189453125,10.900503158569336,-0.1293899416923523,0.20077916979789734
1691217818705732900,5.11873291015625,11.026933670043945,-0.09581600874662399,0.18714192509651184
1691217818715773000,5.12877294921875,11.182136535644531,-0.13314633071422577,0.16819779574871063
1691217818725813000,5.13881298828125,11.348876953125,-0.06642775982618332,0.15966768562793732
1691217818735853000,5.14885302734375,11.482656478881836,-0.045341383665800095,0.19921669363975525
1691217818745924000,5.158924072265625,11.651942253112793,-0.08713196963071823,0.19266612827777863
1691217818755965000,5.16896484375,11.791281700134277,-0.11047884076833725,0.24153566360473633
1691217818766005000,5.1790048828125,11.95731258392334,-0.07091598212718964,0.24668727815151215
1691217818776044800,5.189044921875,12.098105430603027,0.008972988463938236,0.218007430434227
1691217818786084900,5.1990849609375,12.219006538391113,-0.056660350412130356,0.22096140682697296
1691217818796126000,5.2091259765625,12.332714080810547,-0.13757623732089996,0.18940827250480652
1691217818806166000,5.219166015625,12.474306106567383,-0.07072716951370239,0.14694790542125702
1691217818816206000,5.2292060546875,12.615643501281738,-0.03550979122519493,0.16655994951725006
1691217818826247000,5.239246826171875,12.744600296020508,-0.05949927866458893,0.11537212878465652
1691217818836287000,5.249286865234375,12.873930931091309,-0.03801848739385605,0.12343378365039825
1691217818846326800,5.259326904296875,12.979220390319824,-0.03392121568322182,0.12557896971702576
1691217818856366800,5.269366943359375,13.10444164276123,-0.08051055669784546,0.10811927914619446
1691217818866408000,5.279407958984375,13.223302841186523,-0.07919548451900482,0.21929053962230682
1691217818876448000,5.289447998046875,13.35383129119873,-0.1315995752811432,0.21567903459072113
1691217818886519000,5.29951904296875,13.460439682006836,-0.1575118601322174,0.2618803381919861
1691217818896559000,5.30955908203125,13.61413288116455,-0.21072475612163544,0.3280836045742035
1691217818906599000,5.319598876953125,13.742488861083984,-0.2030377984046936,0.33165064454078674
1691217818916639700,5.3296396484375,13.851637840270996,-0.1420985460281372,0.23834651708602905
1691217818926679800,5.3396796875,13.966095924377441,-0.1102580651640892,0.23423567414283752
1691217818936720000,5.349719970703125,14.114442825317383,-0.041196439415216446,0.27916744351387024
1691217818946760000,5.359760009765625,14.26822566986084,0.01509852521121502,0.23551638424396515
1691217818956801000,5.369801025390625,14.40062141418457,-0.019237609580159187,0.2535851299762726
1691217818966841000,5.379841064453125,14.549271583557129,-0.10496343672275543,0.23831403255462646
1691217818976881200,5.389881103515625,14.685869216918945,-0.081844262778759,0.2733604311943054
1691217818986922000,5.399921875,14.817853927612305,-0.03116271272301674,0.24365100264549255
1691217818996961800,5.4099619140625,14.933077812194824,-0.12857554852962494,0.25030064582824707
1691217819007001900,5.420001953125,15.06772232055664,-0.15963387489318848,0.253587007522583
1691217819017042000,5.4300419921875,15.203044891357422,-0.16843454539775848,0.23334378004074097
1691217819027113000,5.440113037109375,15.352030754089355,-0.16085092723369598,0.23488041758537292
1691217819037154000,5.450154052734375,15.465176582336426,-0.10914486646652222,0.2629224359989166
1691217819047194000,5.460194091796875,15.583625793457031,-0.07844660431146622,0.27651068568229675
1691217819057234000,5.47023388671875,15.716717720031738,0.024569790810346603,0.3053625822067261
1691217819067273700,5.480273681640625,15.834881782531738,0.01053120382130146,0.3737107515335083
1691217819077314800,5.490314697265625,15.951467514038086,-0.05742707476019859,0.3346991539001465
1691217819087355000,5.50035498046875,16.07920265197754,-0.11455480754375458,0.3373498022556305
1691217819097395000,5.51039501953125,16.213775634765625,-0.12743225693702698,0.29852649569511414
1691217819107436000,5.52043603515625,16.31690788269043,-0.1661120057106018,0.2436978816986084
1691217819117476000,5.53047607421875,16.425432205200195,-0.12343697994947433,0.20681177079677582
1691217819127516000,5.540515869140625,16.563758850097656,-0.05057023465633392,0.11960256099700928
1691217819137555700,5.5505556640625,16.68803596496582,-0.02093617431819439,0.10174021124839783
1691217819147596800,5.5605966796875,16.789152145385742,-0.05493967980146408,0.2133980244398117
1691217819157636900,5.570636962890625,16.924768447875977,-0.03584668040275574,0.2380887269973755
1691217819167708000,5.5807080078125,17.05994415283203,-0.05750830098986626,0.23843413591384888
1691217819177748000,5.590748046875,17.20024871826172,-0.14160293340682983,0.30265653133392334
1691217819187788000,5.6007880859375,17.3425350189209,-0.14866963028907776,0.24797891080379486
1691217819197829000,5.6108291015625,17.51357078552246,-0.17050115764141083,0.3213958740234375
1691217819207869000,5.620868896484375,17.65574836730957,-0.20145907998085022,0.3105488121509552
1691217819217908700,5.63090869140625,17.787187576293945,-0.24550244212150574,0.30861297249794006
1691217819227948800,5.64094873046875,17.919591903686523,-0.1676478534936905,0.3324887454509735
1691217819237990000,5.650989990234375,18.052631378173828,-0.2027195543050766,0.28826960921287537
1691217819248030000,5.661030029296875,18.166187286376953,-0.18396717309951782,0.2949584126472473
1691217819258070000,5.671070068359375,18.29130744934082,-0.11501260846853256,0.23482289910316467
1691217819268111000,5.681111083984375,18.412405014038086,-0.0878816545009613,0.1976880431175232
1691217819278151000,5.69115087890625,18.5226993560791,-0.10423000156879425,0.246811643242836
1691217819288190700,5.701190673828125,18.65140724182129,-0.12489932775497437,0.2738126516342163
1691217819298230800,5.711230712890625,18.776254653930664,-0.17850929498672485,0.32183128595352173
1691217819308301800,5.7213017578125,18.888992309570312,-0.2689683437347412,0.34562957286834717
1691217819318343000,5.731343017578125,18.981143951416016,-0.2114563137292862,0.36833009123802185
1691217819328383000,5.741383056640625,19.100065231323242,-0.2962510883808136,0.3387919068336487
1691217819338448100,5.7514482421875,19.188045501708984,-0.2637815773487091,0.38695383071899414
1691217819348488200,5.76148828125,19.304428100585938,-0.1588466316461563,0.37316983938217163
1691217819358529000,5.771529052734375,19.429880142211914,-0.20931699872016907,0.40748414397239685
1691217819368569000,5.781569091796875,19.55396842956543,-0.1603340208530426,0.4167487621307373
1691217819378609200,5.791609130859375,19.67681121826172,-0.21171331405639648,0.4101260006427765
1691217819388649000,5.80164892578125,19.832714080810547,-0.17688316106796265,0.4251970946788788
1691217819398690000,5.81168994140625,19.972755432128906,-0.11037337779998779,0.4079166352748871
1691217819408730000,5.821730224609375,20.119384765625,-0.06861022114753723,0.39449697732925415
1691217819418770200,5.831770263671875,20.245132446289062,-0.040879521518945694,0.4296935796737671
1691217819428811000,5.84181103515625,20.356891632080078,-0.0521116703748703,0.393572598695755
1691217819438851000,5.85185107421875,20.47614288330078,-0.0957009568810463,0.34849193692207336
1691217819448922000,5.861922119140625,20.610498428344727,-0.11079735308885574,0.30027541518211365
1691217819458962200,5.871962158203125,20.7196102142334,-0.13976003229618073,0.27873095870018005
1691217819469002000,5.882001953125,20.840219497680664,-0.1726849526166916,0.2997848391532898
1691217819479043000,5.89204296875,20.96614646911621,-0.20430786907672882,0.2962614893913269
1691217819489083100,5.902083251953125,21.074352264404297,-0.19987370073795319,0.31063270568847656
1691217819499123200,5.912123291015625,21.187047958374023,-0.19443659484386444,0.3017995357513428
1691217819509163300,5.922163330078125,21.29792594909668,-0.1651332974433899,0.3159518241882324
1691217819519204000,5.9322041015625,21.378944396972656,-0.1332286298274994,0.2955581545829773
1691217819529244200,5.942244140625,21.505868911743164,-0.044809550046920776,0.33156540989875793
1691217819539284000,5.952283935546875,21.624235153198242,-0.16200993955135345,0.35916668176651
1691217819549325000,5.962324951171875,21.729473114013672,-0.31351691484451294,0.3958120346069336
1691217819559365000,5.972365234375,21.857641220092773,-0.3617265224456787,0.4157966673374176
1691217819569405200,5.9824052734375,21.982044219970703,-0.34552279114723206,0.4097401201725006
1691217819579445200,5.9924453125,22.119110107421875,-0.29404306411743164,0.3723836839199066
1691217819589516300,6.002516357421875,22.259910583496094,-0.25333932042121887,0.3291392922401428
1691217819599556000,6.01255615234375,22.36224365234375,-0.15403243899345398,0.34052109718322754
1691217819609597200,6.02259716796875,22.47738265991211,-0.12497309595346451,0.3557855486869812
1691217819619637000,6.032636962890625,22.585168838500977,-0.0944836288690567,0.3454223871231079
1691217819629677000,6.042677001953125,22.693710327148438,-0.1487782895565033,0.4407648742198944
1691217819639718100,6.05271826171875,22.80650520324707,-0.11826805025339127,0.42225509881973267
1691217819649758200,6.06275830078125,22.904054641723633,-0.16772136092185974,0.5101016163825989
1691217819659798300,6.07279833984375,23.006635665893555,-0.23883388936519623,0.49525582790374756
1691217819669838000,6.082838134765625,23.114389419555664,-0.3115490972995758,0.4646907150745392
1691217819679879200,6.092879150390625,23.190868377685547,-0.3437744081020355,0.4600392282009125
1691217819689919000,6.1029189453125,23.309106826782227,-0.3329220414161682,0.38787102699279785
1691217819699959000,6.112958984375,23.423154830932617,-0.23513607680797577,0.3591541647911072
1691217819710000000,6.123000244140625,23.538002014160156,-0.16612772643566132,0.38785770535469055
1691217819720040200,6.133040283203125,23.6739501953125,-0.04427824914455414,0.3531742990016937
1691217819730080000,6.143080078125,23.795921325683594,-0.04862692579627037,0.41260701417922974
1691217819740151000,6.153151123046875,23.939613342285156,-0.08257157355546951,0.3893011510372162
1691217819750190800,6.16319091796875,24.066097259521484,-0.20047104358673096,0.3783222734928131
1691217819760232000,6.17323193359375,24.165706634521484,-0.3315846025943756,0.5224474668502808
1691217819770272000,6.18327197265625,24.278669357299805,-0.3740558922290802,0.4308725595474243
1691217819780312000,6.19331201171875,24.40401268005371,-0.39487940073013306,0.37947195768356323
1691217819790352100,6.20335205078125,24.53264808654785,-0.34441888332366943,0.3767573833465576
1691217819800393200,6.213393310546875,24.63865852355957,-0.3304184079170227,0.34043240547180176
1691217819810433000,6.22343310546875,24.738502502441406,-0.1612679809331894,0.3506094217300415
1691217819820473000,6.23347314453125,24.839330673217773,-0.14932531118392944,0.26188886165618896
1691217819830514200,6.24351416015625,24.909435272216797,-0.08719881623983383,0.3160804808139801
1691217819840554000,6.253553955078125,24.99903678894043,-0.15543806552886963,0.46669021248817444
1691217819850594000,6.263593994140625,25.082427978515625,-0.4485005736351013,0.4447822570800781
1691217819860634000,6.273634033203125,25.1884822845459,-0.39339497685432434,0.4874735176563263
1691217819870675200,6.28367529296875,25.289356231689453,-0.5518969893455505,0.5837270617485046
1691217819880745200,6.2937451171875,25.393138885498047,-0.49939170479774475,0.4212167263031006
1691217819890786000,6.3037861328125,25.511106491088867,-0.36863982677459717,0.3520810902118683
1691217819900825900,6.313825927734375,25.6329345703125,-0.35703641176223755,0.5366165637969971
1691217819910866000,6.323865966796875,25.760955810546875,-0.21959227323532104,0.45571985840797424
1691217819920907000,6.333906982421875,25.863813400268555,-0.2010287195444107,0.6301081776618958
1691217819930947000,6.343947021484375,25.993059158325195,-0.29681169986724854,0.5809739232063293
1691217819940987100,6.353987060546875,26.086458206176758,-0.13096867501735687,0.618141233921051
1691217819951027200,6.364027099609375,26.180038452148438,-0.12427934259176254,0.6821247935295105
1691217819961068000,6.374068115234375,26.284151077270508,-0.26775822043418884,0.6931180357933044
1691217819971108000,6.384108154296875,26.379802703857422,-0.3174959421157837,0.6256124973297119
1691217819981148000,6.39414794921875,26.48240089416504,-0.27473223209381104,0.5803054571151733
1691217819991189000,6.40418896484375,26.569814682006836,-0.15141482651233673,0.42205724120140076
1691217820001229000,6.41422900390625,26.682247161865234,-0.09559603035449982,0.36306077241897583
1691217820011269000,6.42426904296875,26.780000686645508,-0.04741279035806656,0.3464359641075134
1691217820021340200,6.434340087890625,26.89461898803711,-0.019787553697824478,0.32288697361946106
1691217820031380200,6.444380126953125,27.012821197509766,-0.17043405771255493,0.4474499523639679
1691217820041420000,6.454419921875,27.145343780517578,-0.06244047358632088,0.3755597770214081
1691217820051460900,6.4644609375,27.251588821411133,-0.17055070400238037,0.3950383961200714
1691217820061501000,6.4745009765625,27.35206413269043,-0.4187013804912567,0.42289507389068604
1691217820071541000,6.484541015625,27.460880279541016,-0.36449140310287476,0.3751983940601349
1691217820081582000,6.49458203125,27.551176071166992,-0.531090259552002,0.44702357053756714
1691217820091622100,6.5046220703125,27.641223907470703,-0.4367203414440155,0.30571651458740234
1691217820101662200,6.514662109375,27.707815170288086,-0.4032185673713684,0.08601504564285278
1691217820111702300,6.524702392578125,27.800382614135742,-0.36058613657951355,0.29966235160827637
1691217820121743000,6.5347431640625,27.864845275878906,-0.3404638469219208,0.41813546419143677
1691217820131783000,6.544782958984375,27.937191009521484,-0.3318231999874115,0.48951828479766846
1691217820141823000,6.554822998046875,28.005374908447266,-0.2868293821811676,0.7468084096908569
1691217820151864000,6.564864013671875,28.102123260498047,-0.5521164536476135,0.6886129975318909
1691217820161934000,6.57493408203125,28.195720672607422,-0.7335032820701599,0.8012197017669678
1691217820171975200,6.58497509765625,28.305522918701172,-0.6538071036338806,0.7596544623374939
1691217820182015200,6.59501513671875,28.427356719970703,-0.49686941504478455,0.6061413288116455
1691217820192055000,6.605054931640625,28.529422760009766,-0.35949718952178955,0.621946394443512
1691217820202095900,6.615095947265625,28.635520935058594,-0.1862311214208603,0.547457218170166
1691217820212136000,6.625135986328125,28.74261474609375,-0.2132539600133896,0.561356782913208
1691217820222176000,6.635176025390625,28.841012954711914,0.020562799647450447,0.7002286911010742
1691217820232216000,6.645216064453125,28.929933547973633,0.04284733161330223,0.6329612135887146
1691217820242257200,6.655257080078125,29.024484634399414,-0.14027881622314453,0.7478675842285156
1691217820252297200,6.665297119140625,29.09649658203125,-0.3428444266319275,0.7970651984214783
1691217820262337300,6.675337158203125,29.20318031311035,-0.27141711115837097,0.606329619884491
1691217820272378000,6.685378173828125,29.300384521484375,-0.3073817789554596,0.568073034286499
1691217820282418000,6.69541796875,29.404682159423828,-0.13525396585464478,0.4536780118942261
1691217820292458000,6.7054580078125,29.500669479370117,-0.29316768050193787,0.46868863701820374
1691217820302529000,6.715529052734375,29.617753982543945,-0.1475124955177307,0.33460888266563416
1691217820312569000,6.725569091796875,29.728757858276367,-0.28020477294921875,0.18511952459812164
1691217820322609200,6.735609130859375,29.832090377807617,-0.31363195180892944,0.4097217321395874
1691217820332650200,6.745650146484375,29.922847747802734,-0.35190317034721375,0.38779911398887634
1691217820342666800,6.755666748046875,30.012311935424805,-0.3056880235671997,0.4237041473388672
1691217820352706600,6.76570654296875,30.068620681762695,-0.3827385902404785,0.5281082987785339
1691217820362747400,6.775747314453125,30.153162002563477,-0.48381033539772034,0.555670976638794
1691217820372787500,6.785787353515625,30.224279403686523,-0.5012303590774536,0.6629497408866882
1691217820382827500,6.79582763671875,30.297815322875977,-0.5371705293655396,0.6387850046157837
1691217820392867600,6.80586767578125,30.369491577148438,-0.5901762247085571,0.6079602837562561
1691217820402908700,6.81590869140625,30.474712371826172,-0.4651711583137512,0.6338059902191162
1691217820412948700,6.82594873046875,30.57097053527832,-0.3818528354167938,0.5295853018760681
1691217820422988500,6.835988525390625,30.690839767456055,-0.20140181481838226,0.5080304741859436
1691217820433029600,6.846029541015625,30.806398391723633,-0.10840583592653275,0.5964961647987366
1691217820443099400,6.856099365234375,30.918001174926758,-0.14547011256217957,0.5819406509399414
1691217820453140500,6.866140380859375,31.00765609741211,-0.21478766202926636,0.5656862854957581
1691217820463180500,6.8761806640625,31.10535430908203,-0.3711074888706207,0.718108057975769
1691217820473220600,6.886220703125,31.188539505004883,-0.4424397349357605,0.6414830684661865
1691217820483260700,6.8962607421875,31.275419235229492,-0.5280598402023315,0.5727481842041016
1691217820493301500,6.906301513671875,31.360782623291016,-0.36675694584846497,0.5474154353141785
1691217820503341300,6.91634130859375,31.432104110717773,-0.46928441524505615,0.4496864676475525
1691217820513381400,6.92638134765625,31.49661636352539,-0.29832783341407776,0.3235114812850952
1691217820523422500,6.93642236328125,31.586833953857422,-0.28168174624443054,0.11951547861099243
1691217820533462500,6.946462646484375,31.660158157348633,-0.5206639766693115,0.5734971165657043
1691217820543502600,6.956502685546875,31.753019332885742,-0.43249043822288513,0.47595641016960144
1691217820553542700,6.966542724609375,31.85088348388672,-0.5605466961860657,0.6067383885383606
1691217820563583500,6.97658349609375,31.936891555786133,-0.8114470839500427,0.7462971210479736
1691217820573623600,6.98662353515625,32.0183219909668,-0.6242750287055969,0.7074801921844482
1691217820583694300,6.9966943359375,32.098045349121094,-0.7383699417114258,0.833239734172821
1691217820593734400,7.006734375,32.198753356933594,-0.616637110710144,0.7732184529304504
1691217820603774500,7.0167744140625,32.281028747558594,-0.5126017928123474,0.761515736579895
1691217820613815600,7.026815673828125,32.38397216796875,-0.4683043658733368,0.7638481259346008
1691217820623855600,7.036855712890625,32.45215606689453,-0.3404734134674072,0.750093400478363
1691217820633895700,7.046895751953125,32.53517150878906,-0.1816246509552002,0.7642731666564941
1691217820643936500,7.0569365234375,32.6087532043457,-0.15985384583473206,0.7849835157394409
1691217820653976300,7.066976318359375,32.692161560058594,-0.20360425114631653,0.692177414894104
1691217820664016400,7.077016357421875,32.8056755065918,-0.2132004201412201,0.6951358914375305
1691217820674056400,7.087056396484375,32.923072814941406,-0.457051157951355,0.7881521582603455
1691217820684097500,7.09709765625,33.00248718261719,-0.46487581729888916,0.6833413243293762
1691217820694137600,7.1071376953125,33.090492248535156,-0.1772986203432083,0.6153523921966553
1691217820704177700,7.117177734375,33.16577911376953,-0.3300684690475464,0.5204197764396667
1691217820714218500,7.127218505859375,33.23904037475586,-0.1954565793275833,0.2512607276439667
1691217820724258600,7.137258544921875,33.32547378540039,-0.44539931416511536,0.24881674349308014
1691217820734329300,7.147329345703125,33.38102722167969,-0.5789490938186646,0.5158958435058594
1691217820744369400,7.157369384765625,33.44603729248047,-0.31699180603027344,0.31311318278312683
1691217820754409500,7.167409423828125,33.49951171875,-0.5023587346076965,0.640548825263977
1691217820764449500,7.177449462890625,33.57067108154297,-0.6758415699005127,0.6258958578109741
1691217820774490600,7.18749072265625,33.65913391113281,-0.8699774742126465,0.6736066341400146
1691217820784530700,7.19753076171875,33.76436233520508,-0.7832444310188293,0.7385076284408569
1691217820794570500,7.207570556640625,33.85288619995117,-0.6483334898948669,0.7353999614715576
1691217820804611300,7.217611328125,33.93833923339844,-0.5372030138969421,0.6189979910850525
1691217820814651400,7.2276513671875,34.0417594909668,-0.5459397435188293,0.7294757962226868
1691217820824691500,7.23769140625,34.109580993652344,-0.4395565986633301,0.74903404712677
1691217820834731500,7.2477314453125,34.1989860534668,-0.3924604654312134,0.7840524911880493
1691217820844772600,7.257772705078125,34.255409240722656,-0.39554068446159363,0.8070001006126404
1691217820854812700,7.267812744140625,34.32863998413086,-0.4449242055416107,0.7260211110115051
1691217820864852500,7.2778525390625,34.395626068115234,-0.5732635259628296,0.8272257447242737
1691217820874923500,7.287923583984375,34.46680450439453,-0.5043089389801025,0.8703063726425171
1691217820884963600,7.297963623046875,34.5577392578125,-0.2714807689189911,0.6583842635154724
1691217820895004400,7.30800439453125,34.6700439453125,-0.3658621311187744,0.50801020860672
1691217820905044500,7.31804443359375,34.4789924621582,-0.5158998370170593,0.46298709511756897
1691217820915084500,7.32808447265625,34.536800384521484,-0.5472705364227295,0.4993664026260376
1691217820925125600,7.338125732421875,34.6159782409668,-0.4932864010334015,0.5359917879104614
1691217820935165700,7.348165771484375,34.67225646972656,-0.45643359422683716,0.6357013583183289
1691217820945205500,7.35820556640625,34.68199920654297,-0.6767422556877136,0.6806661486625671
1691217820955245600,7.36824560546875,34.68102264404297,-0.5295552015304565,0.873448371887207
1691217820965286400,7.378286376953125,34.68110275268555,-0.5819821953773499,0.8833209872245789
1691217820975326500,7.388326416015625,34.68095016479492,-0.6481593251228333,0.8313113451004028
1691217820985366500,7.398366455078125,34.68084716796875,-0.5622388124465942,0.874198317527771
1691217820995406600,7.408406494140625,34.68172836303711,-0.39040690660476685,0.642865777015686
1691217821005447700,7.41844775390625,34.68251037597656,-0.3670046329498291,0.664078414440155
1691217821015518700,7.428518798828125,34.681758880615234,-0.2391286939382553,0.7213478088378906
1691217821025558500,7.43855859375,34.682098388671875,-0.24804575741291046,0.5731463432312012
1691217821035598600,7.4485986328125,34.682430267333984,-0.3646378815174103,0.656548023223877
1691217821045638700,7.458638671875,34.682037353515625,-0.48202309012413025,0.7076836824417114
1691217821055679500,7.468679443359375,34.68172073364258,-0.7147660851478577,0.6961596012115479
1691217821065719600,7.478719482421875,34.681724548339844,-0.42397257685661316,0.7083054780960083
1691217821075759600,7.488759521484375,34.68196487426758,-0.43039506673812866,0.5502697825431824
1691217821085800700,7.49880078125,34.6826286315918,-0.5744848847389221,0.42138320207595825
1691217821095840500,7.508840576171875,34.682857513427734,-0.6294295787811279,0.4182925820350647
1691217821105880600,7.518880615234375,34.6819953918457,-0.8423133492469788,0.5825883150100708
1691217821115920600,7.528920654296875,34.682411193847656,-0.5319296717643738,0.6052834987640381
1691217821125961500,7.53896142578125,34.68113327026367,-0.7942190766334534,0.8063226342201233
1691217821136001500,7.54900146484375,34.681148529052734,-0.783720076084137,0.8527857065200806
1691217821146041600,7.55904150390625,34.68047332763672,-0.7578397393226624,1.0058351755142212
1691217821156112400,7.5691123046875,34.680538177490234,-0.6647388339042664,0.9775380492210388
1691217821166152400,7.57915234375,34.68095397949219,-0.6553764939308167,0.9322896003723145
1691217821176193500,7.589193603515625,34.68083572387695,-0.5449178814888,0.8503177762031555
1691217821186233600,7.599233642578125,34.680965423583984,-0.5210629105567932,0.8498706221580505
1691217821196273700,7.609273681640625,34.68120574951172,-0.4005993604660034,0.7696064114570618
1691217821206313700,7.619313720703125,34.6821174621582,-0.41207942366600037,0.7371779084205627
1691217821216354600,7.6293544921875,34.68206787109375,-0.4476672410964966,0.7284557819366455
1691217821226394600,7.63939453125,34.68122482299805,-0.515106737613678,0.6828078627586365
1691217821236434400,7.649434326171875,34.68130111694336,-0.5382980704307556,0.7803834080696106
1691217821246475500,7.6594755859375,34.68052291870117,-0.6042733788490295,0.8523234128952026
1691217821256515600,7.669515625,34.68190002441406,-0.5208823680877686,0.5837289690971375
1691217821266555600,7.6795556640625,34.68271255493164,-0.5590227842330933,0.4065677523612976
1691217821276595700,7.689595703125,34.68140411376953,-0.77227783203125,0.7184641361236572
1691217821286636500,7.699636474609375,34.68235397338867,-0.7004606127738953,0.54588383436203
1691217821296707600,7.70970751953125,34.680992126464844,-0.6826664805412292,0.8553604483604431
1691217821306747400,7.719747314453125,34.68042755126953,-0.908408522605896,0.7593457698822021
1691217821316787500,7.729787353515625,34.680458068847656,-0.7288075685501099,0.917460024356842
1691217821326827500,7.73982763671875,34.68053436279297,-0.7061025500297546,0.9175226092338562
1691217821336868600,7.74986865234375,34.68122863769531,-0.6839098930358887,0.8750215172767639
1691217821346896000,7.759895751953125,34.68047332763672,-0.6240382790565491,0.9403363466262817
1691217821356936000,7.76993603515625,34.680572509765625,-0.5721369981765747,0.8908675909042358
1691217821366977000,7.77997705078125,34.680320739746094,-0.5695801377296448,0.929184079170227
1691217821377017000,7.79001708984375,34.68086624145508,-0.5809933543205261,0.7688732147216797
1691217821387057000,7.800056884765625,34.680912017822266,-0.5666849613189697,0.7617913484573364
1691217821397097000,7.810096923828125,34.68136978149414,-0.49063149094581604,0.76212477684021
1691217821407137800,7.8201376953125,34.68258285522461,-0.4547866880893707,0.6004440188407898
1691217821417177900,7.830177734375,34.681461334228516,-0.6742308735847473,0.729539155960083
1691217821427218000,7.840218017578125,34.6814079284668,-0.8389948010444641,0.6551110148429871
1691217821437289000,7.8502890625,34.6822624206543,-0.8543841242790222,0.5710810422897339
1691217821447328800,7.860328857421875,34.680965423583984,-0.8684794902801514,0.7298715114593506
1691217821457369900,7.870369873046875,34.681312561035156,-0.820701003074646,0.7564663887023926
1691217821467410000,7.880409912109375,34.68061447143555,-0.9499836564064026,0.8248329162597656
1691217821477450000,7.890449951171875,34.68044662475586,-0.8180551528930664,0.9798240661621094
1691217821487490000,7.900489990234375,34.680171966552734,-0.8615059852600098,0.9774243235588074
1691217821497531000,7.91053076171875,34.68073654174805,-0.7785887122154236,0.9008829593658447
1691217821507571000,7.920571044921875,34.68034362792969,-0.6476656198501587,1.0233800411224365
1691217821517611000,7.930611083984375,34.6807975769043,-0.5771706700325012,0.9425406455993652
1691217821527652000,7.940652099609375,34.68008804321289,-0.6504994630813599,0.9895326495170593
1691217821537692000,7.95069189453125,34.680362701416016,-0.6481342911720276,0.9574719071388245
1691217821547732000,7.96073193359375,34.68069839477539,-0.6927545070648193,0.8113796710968018
1691217821557772000,7.97077197265625,34.68118667602539,-0.5547177791595459,0.8278627991676331
1691217821567812900,7.980812744140625,34.68174743652344,-0.4600925147533417,0.6876335144042969
1691217821577884000,7.9908837890625,34.68241882324219,-0.6746793389320374,0.5493059754371643
1691217821587924000,8.000924072265626,34.681236267089844,-0.8640146851539612,0.6718944907188416
1691217821597963800,8.0109638671875,34.68142318725586,-0.8825049996376038,0.6698262691497803
1691217821608003800,8.02100390625,34.68098449707031,-0.9727597832679749,0.7637631893157959
1691217821618045000,8.031044921875,34.680049896240234,-0.9608637094497681,0.9038971066474915
1691217821628085000,8.0410849609375,34.6796989440918,-1.0317506790161133,0.9106077551841736
1691217821638125000,8.051125,34.67951965332031,-0.9155404567718506,1.0757884979248047
1691217821648164900,8.061164794921876,34.679718017578125,-0.9029306173324585,1.0371429920196533
1691217821658206000,8.0712060546875,34.68020248413086,-0.8975390791893005,0.9721637964248657
1691217821668246000,8.08124609375,34.67973709106445,-0.7305974960327148,1.0915850400924683
1691217821678285800,8.091285888671875,34.6804313659668,-0.7329962253570557,1.0544439554214478
1691217821688327000,8.101326904296876,34.679752349853516,-0.7074865698814392,1.1055090427398682
1691217821698367000,8.111366943359375,34.680355072021484,-0.6415587067604065,1.0480268001556396
1691217821708407000,8.121406982421876,34.6806755065918,-0.5592387914657593,0.9518715739250183
1691217821718478000,8.13147802734375,34.68095779418945,-0.5369824767112732,0.9540015459060669
1691217821728518000,8.141517822265625,34.68154525756836,-0.5332580804824829,0.7988841533660889
1691217821738559000,8.15155908203125,34.681392669677734,-0.7868192195892334,0.6701030135154724
1691217821748598800,8.161598876953125,34.68180465698242,-0.7637937664985657,0.6468560099601746
1691217821758638800,8.171638916015626,34.68155288696289,-0.8080475330352783,0.7047299146652222
1691217821768679000,8.181678955078125,34.68119430541992,-0.7807493209838867,0.8013547658920288
1691217821778720000,8.191719970703126,34.6803092956543,-0.9617417454719543,0.8788713812828064
1691217821788760000,8.201760009765625,34.680076599121094,-1.0200601816177368,0.9217621088027954
1691217821798800000,8.2117998046875,34.68029022216797,-0.8113964796066284,1.0278736352920532
1691217821808841000,8.221841064453125,34.68009567260742,-0.8889703750610352,0.9235288500785828
1691217821818881000,8.231881103515626,34.67985534667969,-0.8214714527130127,0.9838470816612244
1691217821828920800,8.2419208984375,34.67963409423828,-0.7828588485717773,1.015859603881836
1691217821838961000,8.2519609375,34.679866790771484,-0.7297695279121399,1.0172561407089233
1691217821849002000,8.262001953125,34.68019485473633,-0.7322531938552856,1.0037113428115845
1691217821859042000,8.2720419921875,34.6807746887207,-0.7269766330718994,0.8672323226928711
1691217821869113000,8.282113037109376,34.68104553222656,-0.6910077333450317,0.8896830081939697
1691217821879153000,8.29215283203125,34.68178176879883,-0.5484886765480042,0.7855033278465271
1691217821889192700,8.302192626953126,34.681339263916016,-0.8398693799972534,0.6966584324836731
1691217821899233800,8.31223388671875,34.681121826171875,-0.8913562893867493,0.7514836192131042
1691217821909273900,8.32227392578125,34.680992126464844,-0.998299241065979,0.7232969403266907
1691217821919314000,8.33231396484375,34.68022537231445,-0.9582000374794006,0.8574177622795105
1691217821929354000,8.34235400390625,34.680179595947266,-1.0595128536224365,0.9341330528259277
1691217821939395000,8.35239501953125,34.67948532104492,-1.1025902032852173,1.0118763446807861
1691217821949435000,8.362434814453126,34.6794548034668,-0.9535592198371887,1.1082673072814941
1691217821959475000,8.372474853515625,34.68010711669922,-0.9534090161323547,1.0095497369766235
1691217821969516000,8.38251611328125,34.68003463745117,-0.9605044722557068,1.0174779891967773
1691217821979555800,8.392555908203125,34.67897033691406,-0.9009191393852234,1.1032261848449707
1691217821989596000,8.402595947265626,34.68007278442383,-0.7754493951797485,1.0864208936691284
1691217821999636000,8.412635986328125,34.67933654785156,-0.7376292943954468,1.1571924686431885
1691217822009707000,8.42270703125,34.68027114868164,-0.7830524444580078,0.9938411116600037
1691217822019748000,8.432748046875,34.67965316772461,-0.7913655042648315,1.0201421976089478
1691217822029788000,8.442787841796875,34.68054962158203,-0.7639615535736084,0.7932238578796387
1691217822039827700,8.45282763671875,34.68128204345703,-0.9632395505905151,0.6739866733551025
1691217822049867800,8.46286767578125,34.68047332763672,-1.0727689266204834,0.945326030254364
1691217822059908900,8.472908935546876,34.68024826049805,-1.0074962377548218,0.8176479935646057
1691217822069949000,8.482948974609375,34.67898941040039,-1.0312180519104004,1.1019045114517212
1691217822079989000,8.492989013671876,34.679500579833984,-1.08662748336792,1.1126340627670288
1691217822090030000,8.503030029296875,34.679378509521484,-1.1267123222351074,1.1742678880691528
1691217822100070000,8.51306982421875,34.67901611328125,-1.1008636951446533,1.220569372177124
1691217822110109700,8.523109619140625,34.679443359375,-0.9975855350494385,1.0978434085845947
1691217822120149800,8.533149658203126,34.679359436035156,-0.8820351958274841,1.1284934282302856
1691217822130190800,8.54319091796875,34.679080963134766,-0.9571086764335632,1.2062242031097412
1691217822140231000,8.55323095703125,34.67912673950195,-0.8790676593780518,1.2666270732879639
1691217822150302000,8.563302001953126,34.67880630493164,-0.8201074004173279,1.178749680519104
1691217822160342000,8.573342041015625,34.67934799194336,-0.6819391250610352,1.2289143800735474
1691217822170382000,8.583382080078126,34.679786682128906,-0.7287008166313171,1.100435495376587
1691217822180423000,8.5934228515625,34.68105697631836,-0.8443525433540344,0.8763341903686523
1691217822190462700,8.603462646484376,34.68073654174805,-0.977668821811676,0.8700429797172546
1691217822200502800,8.613502685546875,34.67977523803711,-0.9799671173095703,0.897352397441864
1691217822210542800,8.62354296875,34.679847717285156,-0.9687272310256958,0.960424542427063
1691217822220584000,8.633583984375,34.67909240722656,-0.9582735300064087,1.1144388914108276
1691217822230624000,8.6436240234375,34.67878341674805,-1.1038455963134766,1.1288052797317505
1691217822240664000,8.6536640625,34.67922592163086,-0.9659085273742676,1.183137059211731
1691217822250705000,8.663704833984376,34.67927932739258,-1.036995530128479,1.1147571802139282
1691217822260744700,8.67374462890625,34.67918395996094,-0.9420434236526489,1.063974380493164
1691217822270784800,8.68378466796875,34.679344177246094,-0.9932773113250732,1.1276609897613525
1691217822280824800,8.693824951171875,34.679534912109375,-0.8749091029167175,1.1927169561386108
1691217822290896000,8.703895751953125,34.678924560546875,-0.8665111064910889,1.1888362169265747
1691217822300936000,8.71393603515625,34.67949676513672,-0.8922119736671448,1.0908992290496826
1691217822310977000,8.72397705078125,34.67910385131836,-0.7618723511695862,1.1300194263458252
1691217822321017000,8.73401708984375,34.679962158203125,-0.8228315711021423,0.9212595820426941
1691217822331057000,8.744056884765625,34.67958450317383,-1.0448310375213623,0.9207139015197754
1691217822341100000,8.75410009765625,34.679931640625,-1.0390080213546753,0.9440269470214844
1691217822351140000,8.76414013671875,34.67987060546875,-1.08975350856781,0.9187740683555603
1691217822361180000,8.774179931640624,34.67912673950195,-1.0388599634170532,1.1272505521774292
1691217822371220000,8.784219970703125,34.678707122802734,-1.1491001844406128,1.1512861251831055
1691217822381260800,8.7942607421875,34.67829132080078,-1.0821478366851807,1.2433511018753052
1691217822391300900,8.80430078125,34.678768157958984,-1.1279160976409912,1.2360947132110596
1691217822401341000,8.8143408203125,34.678977966308594,-1.0415987968444824,1.1010339260101318
1691217822411382000,8.824382080078125,34.67888259887695,-1.011067509651184,1.18598210811615
1691217822421422000,8.834422119140624,34.67949295043945,-0.9534121751785278,1.1895930767059326
1691217822431492900,8.844492919921874,34.679100036621094,-0.9715776443481445,1.2828271389007568
1691217822441533000,8.854532958984375,34.678932189941406,-0.945171594619751,1.1477962732315063
1691217822451573000,8.864572998046874,34.67918395996094,-0.9375402927398682,1.1931833028793335
1691217822461613800,8.87461376953125,34.68027114868164,-0.9992526769638062,0.9351290464401245
1691217822471654000,8.88465380859375,34.67953109741211,-1.2025338411331177,0.9435496926307678
1691217822481694000,8.89469384765625,34.67924118041992,-1.2178257703781128,1.1133453845977783
1691217822491734000,8.904734130859374,34.6795539855957,-1.1393530368804932,1.0411654710769653
1691217822501775000,8.914775146484375,34.67787170410156,-1.1170141696929932,1.3228474855422974
1691217822511815000,8.92481494140625,34.67786407470703,-1.1998203992843628,1.2858912944793701
1691217822521855000,8.93485498046875,34.67818069458008,-1.276623010635376,1.3492463827133179
1691217822531895800,8.944895751953124,34.67853927612305,-1.151322364807129,1.3040852546691895
1691217822541935900,8.954935791015625,34.678466796875,-1.0515466928482056,1.2074189186096191
1691217822551976000,8.964975830078124,34.67858123779297,-1.0324265956878662,1.3300849199295044
1691217822562016000,8.97501611328125,34.67841339111328,-1.0482889413833618,1.340640664100647
1691217822572086800,8.985086669921875,34.6777229309082,-1.0585154294967651,1.4130809307098389
1691217822582126800,8.995126953125,34.67915344238281,-0.8686035871505737,1.3068618774414062
1691217822592168000,9.00516796875,34.678287506103516,-0.9372388124465942,1.2793927192687988
1691217822602208000,9.0152080078125,34.67961502075195,-1.0350180864334106,1.0798771381378174
1691217822612248000,9.025248046875,34.67976379394531,-1.0931464433670044,1.0512583255767822
1691217822622289000,9.035288818359374,34.67951583862305,-1.0881481170654297,1.114784598350525
1691217822632329000,9.045328857421875,34.67911148071289,-1.1435531377792358,1.1866534948349
1691217822642369000,9.055369140625,34.678558349609375,-1.0808674097061157,1.317484736442566
1691217822652408800,9.065408935546875,34.67860794067383,-1.1508169174194336,1.333395004272461
1691217822662450000,9.075449951171874,34.678680419921875,-1.1554087400436401,1.3377593755722046
1691217822672490000,9.085489990234375,34.679141998291016,-1.1462428569793701,1.1894415616989136
1691217822682530000,9.095530029296874,34.67866134643555,-1.0590389966964722,1.1702648401260376
1691217822692571000,9.10557080078125,34.678443908691406,-1.003076195716858,1.2622145414352417
1691217822702611000,9.11561083984375,34.6782112121582,-0.9970009326934814,1.3374048471450806
1691217822712682000,9.125681884765624,34.67797088623047,-1.1231809854507446,1.3494317531585693
1691217822722721800,9.1357216796875,34.67878723144531,-1.0730568170547485,1.3350380659103394
1691217822732761900,9.145761962890624,34.6795539855957,-0.9226404428482056,1.1999388933181763
1691217822742802000,9.155802001953125,34.679649353027344,-1.2149237394332886,1.09596586227417
1691217822752843000,9.165843017578124,34.67856979370117,-1.1934306621551514,1.112762212753296
1691217822762883000,9.175883056640625,34.67889404296875,-1.1596580743789673,1.0817174911499023
1691217822772923000,9.1859228515625,34.6782112121582,-1.0980244874954224,1.287964105606079
1691217822782964000,9.1959638671875,34.67849349975586,-1.230674147605896,1.3068150281906128
1691217822793004000,9.206004150390624,34.67763900756836,-1.1997053623199463,1.4237648248672485
1691217822803043800,9.2160439453125,34.67803192138672,-1.2307384014129639,1.3601125478744507
1691217822813084000,9.226083984375,34.679073333740234,-1.075920820236206,1.266000509262085
1691217822823125000,9.236125,34.67877960205078,-1.04850435256958,1.2203799486160278
1691217822833165000,9.2461650390625,34.678855895996094,-1.0994468927383423,1.321439504623413
1691217822843204900,9.256204833984375,34.677669525146484,-1.1021544933319092,1.3530194759368896
1691217822853276000,9.26627587890625,34.67877960205078,-1.0077260732650757,1.3395026922225952
1691217822863315700,9.276315673828124,34.67878341674805,-1.0856871604919434,1.3259918689727783
1691217822873356800,9.286356689453125,34.67881774902344,-1.1676355600357056,1.119642972946167
1691217822883396900,9.29639697265625,34.67866897583008,-1.2762531042099,1.1096042394638062
1691217822893437000,9.30643701171875,34.678443908691406,-1.2712173461914062,1.2394276857376099
1691217822903478000,9.31647802734375,34.67848587036133,-1.268533706665039,1.2233459949493408
1691217822913517800,9.326517822265625,34.67802429199219,-1.196825623512268,1.4715973138809204
1691217822923558000,9.336557861328124,34.67815017700195,-1.282382607460022,1.4218661785125732
1691217822933597700,9.34659765625,34.677486419677734,-1.276782751083374,1.4842585325241089
1691217822943639000,9.35663916015625,34.67771911621094,-1.212293028831482,1.3885096311569214
1691217822953678800,9.366678955078125,34.678199768066406,-1.1003947257995605,1.3043420314788818
1691217822963719000,9.376718994140624,34.67808532714844,-1.1565709114074707,1.4405224323272705
1691217822973760000,9.386760009765625,34.67814254760742,-1.0273513793945312,1.4640802145004272
1691217822983799800,9.3967998046875,34.67767333984375,-1.0824668407440186,1.4739693403244019
1691217822993870800,9.406870849609374,34.67792510986328,-1.0453789234161377,1.4384928941726685
1691217823003911000,9.416910888671875,34.67820739746094,-1.1553642749786377,1.278201699256897
1691217823013950700,9.42695068359375,34.678741455078125,-1.1453545093536377,1.122984766960144
1691217823023990800,9.43699072265625,34.67842483520508,-1.1243069171905518,1.2463138103485107
1691217823034031900,9.447031982421874,34.678775787353516,-1.0270451307296753,1.1964075565338135
1691217823044072000,9.457072021484375,34.677337646484375,-1.1625038385391235,1.4859144687652588
1691217823054112000,9.467112060546874,34.67772674560547,-1.2978649139404297,1.3912904262542725
1691217823064152800,9.47715283203125,34.67717361450195,-1.305302619934082,1.487100601196289
1691217823074193000,9.48719287109375,34.67841720581055,-1.2268182039260864,1.3421956300735474
1691217823084232700,9.497232666015625,34.67906188964844,-1.1565793752670288,1.232914686203003
1691217823094272800,9.507272705078124,34.678096771240234,-1.1310216188430786,1.3214733600616455
1691217823104313900,9.51731396484375,34.678199768066406,-1.0688985586166382,1.432238221168518
1691217823114354000,9.52735400390625,34.67810821533203,-1.2200382947921753,1.4475177526474
1691217823124394000,9.53739404296875,34.67716598510742,-1.1520416736602783,1.4723541736602783
1691217823134434800,9.547434814453124,34.67787551879883,-1.1176676750183105,1.342819094657898
1691217823144505000,9.557505126953124,34.67803955078125,-1.2755476236343384,1.2594445943832397
1691217823154546000,9.5675458984375,34.67884063720703,-1.2147945165634155,1.2299418449401855
1691217823164585700,9.577585693359374,34.6783332824707,-1.2209229469299316,1.205117106437683
1691217823174625800,9.587625732421875,34.678123474121094,-1.1835585832595825,1.4003721475601196
1691217823184667000,9.5976669921875,34.677547454833984,-1.2374430894851685,1.4257274866104126
1691217823194707000,9.60770703125,34.677703857421875,-1.2197078466415405,1.5106709003448486
1691217823204747000,9.6177470703125,34.677703857421875,-1.2877795696258545,1.4692425727844238
1691217823214787000,9.627787109375,34.6779899597168,-1.1789926290512085,1.3294439315795898
1691217823224828000,9.637827880859374,34.67839431762695,-1.185452938079834,1.3082901239395142
1691217823234867700,9.64786767578125,34.6777229309082,-1.070710301399231,1.4291856288909912
1691217823244907800,9.65790771484375,34.677364349365234,-1.2445454597473145,1.413128137588501
1691217823254947800,9.66794775390625,34.677711486816406,-1.130106806755066,1.4643383026123047
1691217823264989000,9.677989013671874,34.67863082885742,-1.2766544818878174,1.3182498216629028
1691217823275029000,9.688029052734375,34.67884826660156,-1.2284411191940308,1.2321282625198364
1691217823285100000,9.69810009765625,34.67808151245117,-1.2316619157791138,1.2734570503234863
1691217823295140000,9.70814013671875,34.677616119384766,-1.271091103553772,1.3361148834228516
1691217823305180000,9.718179931640625,34.6771125793457,-1.4565956592559814,1.455519199371338
1691217823315220700,9.728220703125,34.67695617675781,-1.340723991394043,1.52977454662323
1691217823325260800,9.7382607421875,34.67721939086914,-1.3744717836380005,1.5534937381744385
1691217823335300900,9.74830078125,34.676666259765625,-1.2997599840164185,1.5545909404754639
1691217823345343700,9.75834375,34.67778396606445,-1.2250924110412598,1.3938697576522827
1691217823355383800,9.7683837890625,34.67818069458008,-1.2245179414749146,1.42530357837677
1691217823365423600,9.778423583984376,34.67654800415039,-1.1883714199066162,1.600534200668335
1691217823375463700,9.788463623046875,34.6768798828125,-1.223866581916809,1.5692613124847412
1691217823385504800,9.7985048828125,34.67670440673828,-1.0618960857391357,1.6032376289367676
1691217823395544800,9.808544921875,34.67805099487305,-1.2267481088638306,1.4516863822937012
1691217823405585000,9.8185849609375,34.67813491821289,-1.3352296352386475,1.2968790531158447
1691217823415625700,9.828625732421875,34.67781448364258,-1.2135322093963623,1.368428349494934
1691217823425696000,9.838696044921875,34.67871856689453,-1.1226142644882202,1.2908400297164917
1691217823435736800,9.84873681640625,34.67715835571289,-1.2871729135513306,1.5835875272750854
1691217823445776600,9.858776611328125,34.677433013916016,-1.2445851564407349,1.5365650653839111
1691217823455816700,9.868816650390626,34.676795959472656,-1.3176668882369995,1.597156047821045
1691217823465856800,9.878856689453125,34.67734146118164,-1.2502264976501465,1.5158084630966187
1691217823475897900,9.88889794921875,34.6787223815918,-1.204962968826294,1.2816388607025146
1691217823485938000,9.89893798828125,34.67810821533203,-1.1967707872390747,1.400420069694519
1691217823495978000,9.90897802734375,34.67755889892578,-1.1346869468688965,1.5037115812301636
1691217823506018800,9.919018798828125,34.67689514160156,-1.2862122058868408,1.5270298719406128
1691217823516058600,9.92905859375,34.67726135253906,-1.1361284255981445,1.5770009756088257
1691217823526098700,9.9390986328125,34.67742156982422,-1.201299786567688,1.421586275100708
1691217823536138800,9.949138671875,34.6773796081543,-1.3779304027557373,1.3434523344039917
1691217823546179800,9.959179931640625,34.67794418334961,-1.2753747701644897,1.3285906314849854
1691217823556220000,9.969219970703126,34.67829895019531,-1.2452459335327148,1.3113468885421753
1691217823566291000,9.979291015625,34.67674255371094,-1.278855323791504,1.5212458372116089
1691217823576331000,9.9893310546875,34.6768913269043,-1.3069639205932617,1.510422706604004
1691217823586370800,9.999370849609376,34.677040100097656,-1.2905433177947998,1.6396385431289673
1691217823596411600,10.00941162109375,34.67692184448242,-1.3369265794754028,1.5204706192016602
1691217823606451700,10.01945166015625,34.6784553527832,-1.2122735977172852,1.36739981174469
1691217823616491800,10.02949169921875,34.677734375,-1.2252109050750732,1.4231029748916626
1691217823626532900,10.039532958984376,34.677734375,-1.1468322277069092,1.5153753757476807
1691217823636573000,10.049572998046875,34.67746353149414,-1.3226118087768555,1.5098381042480469
1691217823646613000,10.059613037109376,34.67720031738281,-1.2564148902893066,1.5526410341262817
1691217823656652800,10.06965283203125,34.67838668823242,-1.297186017036438,1.3530479669570923
1691217823666693600,10.079693603515626,34.67796325683594,-1.4179478883743286,1.3507760763168335
1691217823676733700,10.089733642578125,34.67774200439453,-1.3553718328475952,1.428086519241333
1691217823686773800,10.099773681640626,34.67775344848633,-1.3055284023284912,1.4468560218811035
1691217823696814800,10.10981494140625,34.676597595214844,-1.388925552368164,1.6731317043304443
1691217823706884900,10.119884765625,34.67631149291992,-1.478431224822998,1.587746024131775
1691217823716926000,10.129926025390626,34.676246643066406,-1.3782156705856323,1.6879138946533203
1691217823726966000,10.139966064453125,34.67679977416992,-1.358216404914856,1.5075217485427856
1691217823737005800,10.150005859375,34.67774963378906,-1.2359669208526611,1.4695158004760742
1691217823747045600,10.160045654296875,34.6765251159668,-1.252838373184204,1.604196310043335
1691217823757086700,10.170086669921876,34.67708206176758,-1.1785907745361328,1.6732579469680786
1691217823767126800,10.180126708984375,34.67642593383789,-1.1907321214675903,1.6848185062408447
1691217823777166800,10.190166748046876,34.67648696899414,-1.3867084980010986,1.6185861825942993
1691217823787208000,10.2002080078125,34.67787170410156,-1.3936567306518555,1.4084606170654297
1691217823797248000,10.210248046875,34.67729568481445,-1.2770496606826782,1.4278674125671387
1691217823807287800,10.220287841796875,34.677947998046875,-1.1810717582702637,1.4132977724075317
1691217823817327600,10.23032763671875,34.677024841308594,-1.235812783241272,1.5523043870925903
1691217823827368700,10.24036865234375,34.676544189453125,-1.234780192375183,1.7050590515136719
1691217823837408800,10.25040869140625,34.67640686035156,-1.439564824104309,1.6579338312149048
1691217823847479800,10.260479736328126,34.67631912231445,-1.3592009544372559,1.6465879678726196
1691217823857519900,10.270519775390625,34.67829895019531,-1.2606312036514282,1.3962277173995972
1691217823867560000,10.280559814453126,34.677574157714844,-1.1829668283462524,1.3953754901885986
1691217823877601000,10.29060107421875,34.67755889892578,-1.1932088136672974,1.5859086513519287
1691217823887640800,10.300640869140626,34.677207946777344,-1.3389694690704346,1.5827299356460571
1691217823897680600,10.3106806640625,34.676761627197266,-1.2403621673583984,1.6428284645080566
1691217823907720700,10.320720703125,34.67686462402344,-1.2712838649749756,1.5514692068099976
1691217823917761800,10.33076171875,34.67705535888672,-1.4273102283477783,1.408210277557373
1691217823927801900,10.3408017578125,34.67762756347656,-1.3504290580749512,1.4405573606491089
1691217823937842000,10.350842041015625,34.67738342285156,-1.2986689805984497,1.3982375860214233
1691217823947883000,10.360883056640626,34.67656707763672,-1.3410358428955078,1.6465448141098022
1691217823957922800,10.3709228515625,34.67643356323242,-1.3311976194381714,1.594787359237671
1691217823967962600,10.380962646484376,34.676185607910156,-1.3415641784667969,1.7660619020462036
1691217823978002700,10.391002685546875,34.676673889160156,-1.4012848138809204,1.591187834739685
1691217823988073700,10.40107373046875,34.67701721191406,-1.304034948348999,1.4523096084594727
1691217823998114800,10.41111474609375,34.677188873291016,-1.2857661247253418,1.506442666053772
1691217824008155000,10.42115478515625,34.67655563354492,-1.226096510887146,1.6339675188064575
1691217824018195000,10.43119482421875,34.6767578125,-1.255109190940857,1.618901252746582
1691217824028234800,10.44123486328125,34.67629623413086,-1.398837924003601,1.6478841304779053
1691217824038275800,10.45127587890625,34.677059173583984,-1.3110710382461548,1.4543792009353638
1691217824048315600,10.461315673828125,34.67732620239258,-1.3507022857666016,1.469855546951294
1691217824058355700,10.471355712890626,34.676727294921875,-1.3484960794448853,1.5257327556610107
1691217824068396800,10.481396728515625,34.676490783691406,-1.364203691482544,1.5759165287017822
1691217824078436900,10.491436767578126,34.67659378051758,-1.3770883083343506,1.7083169221878052
1691217824088477000,10.501476806640625,34.67648696899414,-1.5505256652832031,1.728222131729126
1691217824098516700,10.511516845703126,34.676002502441406,-1.3972599506378174,1.7052417993545532
1691217824108557800,10.521557861328125,34.67739486694336,-1.335500717163086,1.5294848680496216
1691217824118597600,10.53159765625,34.67765426635742,-1.1868648529052734,1.531480312347412
1691217824128668700,10.541668701171876,34.67631912231445,-1.2662755250930786,1.7039620876312256
1691217824138708700,10.551708740234375,34.67636489868164,-1.3046005964279175,1.6994930505752563
1691217824148748800,10.561748779296876,34.6766471862793,-1.220956802368164,1.7307380437850952
1691217824158790000,10.571789794921875,34.676151275634766,-1.4216715097427368,1.6301180124282837
1691217824168829700,10.58182958984375,34.67739486694336,-1.4903688430786133,1.4569621086120605
1691217824178869800,10.591869873046875,34.677059173583984,-1.3624963760375977,1.5194846391677856
1691217824188909800,10.601909912109376,34.67790985107422,-1.210708737373352,1.4420561790466309
1691217824198950700,10.61195068359375,34.67568588256836,-1.3758851289749146,1.7685296535491943
1691217824208990700,10.62199072265625,34.67601013183594,-1.37659752368927,1.6681841611862183
1691217824219030800,10.63203076171875,34.676448822021484,-1.4212942123413086,1.7805730104446411
1691217824229072000,10.64207177734375,34.677284240722656,-1.3690751791000366,1.6041017770767212
1691217824239112000,10.65211181640625,34.67798614501953,-1.2664779424667358,1.39653480052948
1691217824249151700,10.66215185546875,34.67705154418945,-1.2995437383651733,1.5663049221038818
1691217824259191800,10.67219189453125,34.67648696899414,-1.346482276916504,1.6592140197753906
1691217824269262800,10.682262939453125,34.676673889160156,-1.3306097984313965,1.6785930395126343
1691217824279303700,10.6923037109375,34.67638397216797,-1.4128631353378296,1.7113063335418701
1691217824289343700,10.70234375,34.677494049072266,-1.3981105089187622,1.51027512550354
1691217824299383800,10.7123837890625,34.67721176147461,-1.4126389026641846,1.5378588438034058
1691217824309423600,10.722423583984375,34.677398681640625,-1.3391371965408325,1.4980701208114624
1691217824319464700,10.732464599609376,34.67625427246094,-1.3678202629089355,1.6651334762573242
1691217824329504800,10.7425048828125,34.675907135009766,-1.3173317909240723,1.7148672342300415
1691217824339544800,10.752544921875,34.676300048828125,-1.5410420894622803,1.7928576469421387
1691217824349571600,10.762571533203126,34.67575454711914,-1.4278202056884766,1.763991117477417
1691217824359611400,10.772611328125,34.67695236206055,-1.3648806810379028,1.5244836807250977
1691217824369651500,10.7826513671875,34.67768096923828,-1.250340223312378,1.5485442876815796
1691217824379691500,10.79269140625,34.676788330078125,-1.3472553491592407,1.7205111980438232
1691217824389732600,10.802732666015626,34.67668533325195,-1.3619980812072754,1.677126169204712
1691217824399772700,10.812772705078125,34.67667770385742,-1.3746750354766846,1.7390836477279663
1691217824409843500,10.822843505859375,34.6768798828125,-1.3338344097137451,1.6146003007888794
1691217824419883500,10.832883544921875,34.67683410644531,-1.4280322790145874,1.546505093574524
1691217824429923600,10.842923583984375,34.6767578125,-1.379040241241455,1.603960633277893
1691217824439964400,10.85296435546875,34.67636489868164,-1.3314862251281738,1.6386909484863281
1691217824450004500,10.86300439453125,34.67612838745117,-1.3998889923095703,1.75846266746521
1691217824460044500,10.87304443359375,34.6757926940918,-1.5011783838272095,1.7500898838043213
1691217824470084400,10.88308447265625,34.675968170166016,-1.4143643379211426,1.7872284650802612
1691217824480125700,10.893125732421876,34.676910400390625,-1.4198733568191528,1.5795378684997559
1691217824490165500,10.90316552734375,34.67723083496094,-1.2962018251419067,1.568152904510498
1691217824500205600,10.91320556640625,34.67667007446289,-1.33055579662323,1.7100341320037842
1691217824510246400,10.923246337890625,34.67615509033203,-1.3353718519210815,1.7591811418533325
1691217824520286500,10.933286376953125,34.676326751708984,-1.1968613862991333,1.7639378309249878
1691217824530326500,10.943326416015625,34.676177978515625,-1.506838321685791,1.6923747062683105
1691217824540366600,10.95336669921875,34.67720031738281,-1.5722572803497314,1.5170340538024902
1691217824550407700,10.96340771484375,34.67715072631836,-1.4035828113555908,1.5503541231155396
1691217824560477400,10.9734775390625,34.67766571044922,-1.237181544303894,1.5103859901428223
1691217824570518500,10.9835185546875,34.676029205322266,-1.3725996017456055,1.8152244091033936
1691217824580558600,10.99355859375,34.67643737792969,-1.4090648889541626,1.7021548748016357
1691217824590598700,11.0035986328125,34.67556381225586,-1.5067973136901855,1.8540804386138916
1691217824600639500,11.013639404296875,34.67654800415039,-1.4460817575454712,1.6476730108261108
1691217824610679600,11.023679443359375,34.67738723754883,-1.3035560846328735,1.435690999031067
1691217824620719400,11.03371923828125,34.67629623413086,-1.336620807647705,1.6371744871139526
1691217824630759400,11.043759521484375,34.676082611083984,-1.3720078468322754,1.7440214157104492
1691217824640800500,11.053800537109375,34.67685317993164,-1.3293319940567017,1.7182140350341797
1691217824650840600,11.063840576171875,34.67584991455078,-1.5143684148788452,1.772153615951538
1691217824660880600,11.073880615234375,34.677024841308594,-1.558990240097046,1.574903130531311
1691217824670921500,11.08392138671875,34.67701721191406,-1.46192467212677,1.6225264072418213
1691217824680961500,11.09396142578125,34.67720413208008,-1.346640706062317,1.5888091325759888
1691217824691001600,11.104001708984375,34.67619323730469,-1.4000980854034424,1.7993000745773315
1691217824701072400,11.114072265625,34.67576599121094,-1.385128140449524,1.7477595806121826
1691217824711112400,11.124112548828125,34.675018310546875,-1.5693390369415283,1.9129430055618286
1691217824721153500,11.134153564453126,34.67594909667969,-1.4668248891830444,1.7638461589813232
1691217824731193600,11.144193603515625,34.676780700683594,-1.3915152549743652,1.5400415658950806
1691217824741233700,11.154233642578125,34.67630386352539,-1.309950351715088,1.6800178289413452
1691217824751273700,11.164273681640625,34.676212310791016,-1.3370256423950195,1.8123143911361694
1691217824761314600,11.174314453125,34.676307678222656,-1.3064438104629517,1.7831759452819824
1691217824771354400,11.184354248046875,34.67583084106445,-1.4880475997924805,1.8054192066192627
1691217824781394400,11.19439453125,34.67610549926758,-1.461635708808899,1.6581929922103882
1691217824791435500,11.204435546875,34.67633056640625,-1.3598297834396362,1.6203659772872925
1691217824801475600,11.2144755859375,34.67643356323242,-1.3349236249923706,1.656200647354126
1691217824811515600,11.224515625,34.6760368347168,-1.3482332229614258,1.7853834629058838
1691217824821555700,11.2345556640625,34.676246643066406,-1.3981094360351562,1.7575616836547852
1691217824831596500,11.244596435546875,34.675209045410156,-1.513920783996582,1.8759751319885254
1691217824841666600,11.25466650390625,34.67629623413086,-1.4408460855484009,1.7506017684936523
1691217824851707400,11.264707275390625,34.67738723754883,-1.3927221298217773,1.57436203956604
1691217824861747500,11.27474755859375,34.676815032958984,-1.2854598760604858,1.6210163831710815
1691217824871787500,11.28478759765625,34.67610168457031,-1.373140811920166,1.8085838556289673
1691217824881828600,11.29482861328125,34.67588806152344,-1.362326979637146,1.7692474126815796
1691217824891868700,11.30486865234375,34.67585754394531,-1.4785223007202148,1.787627935409546
1691217824901908700,11.31490869140625,34.67677307128906,-1.4138277769088745,1.6612452268600464
1691217824911948500,11.324948486328125,34.677467346191406,-1.3926873207092285,1.5574301481246948
1691217824921989400,11.3349892578125,34.67685317993164,-1.3241246938705444,1.5882424116134644
1691217824932029400,11.345029541015625,34.676666259765625,-1.3291245698928833,1.6441618204116821
1691217824942069500,11.355069580078125,34.675804138183594,-1.4444862604141235,1.8416671752929688
1691217824952110600,11.365110595703126,34.67621612548828,-1.588723063468933,1.7859869003295898
1691217824962150700,11.375150634765625,34.67582321166992,-1.4960376024246216,1.8412443399429321
1691217824972190700,11.385190673828125,34.677406311035156,-1.4438389539718628,1.5423502922058105
1691217824982261800,11.39526171875,34.67707824707031,-1.384131908416748,1.55118989944458
1691217824992301600,11.405301513671875,34.67588424682617,-1.3939720392227173,1.7826659679412842
1691217825002342400,11.41534228515625,34.67592239379883,-1.423793077468872,1.7708220481872559
1691217825012382500,11.425382568359375,34.67570877075195,-1.5771328210830688,1.8054711818695068
1691217825022422500,11.435422607421875,34.67641830444336,-1.5005894899368286,1.7141185998916626
1691217825032462600,11.445462646484375,34.67595291137695,-1.543960690498352,1.6884238719940186
1691217825042503700,11.455503662109376,34.67623519897461,-1.4652155637741089,1.673609733581543
1691217825052543700,11.465543701171875,34.676231384277344,-1.4665117263793945,1.7734724283218384
1691217825062583600,11.47558349609375,34.67582702636719,-1.3947805166244507,1.8936904668807983
1691217825072623600,11.48562353515625,34.675086975097656,-1.6374725103378296,1.8608925342559814
1691217825082664400,11.49566455078125,34.67481231689453,-1.4924253225326538,1.9505058526992798
1691217825092704500,11.50570458984375,34.6763801574707,-1.4714106321334839,1.6335158348083496
1691217825102744600,11.51574462890625,34.67683792114258,-1.3443045616149902,1.658143162727356
1691217825112785700,11.52578564453125,34.675628662109375,-1.3855247497558594,1.8746733665466309
1691217825122855700,11.535855712890625,34.675689697265625,-1.3675023317337036,1.8746683597564697
1691217825132896800,11.545896728515626,34.675941467285156,-1.504947543144226,1.8851760625839233
1691217825142936600,11.5559365234375,34.67634963989258,-1.449810266494751,1.7958019971847534
1691217825152976600,11.5659765625,34.676185607910156,-1.4370886087417603,1.7224100828170776
1691217825163017500,11.576017578125,34.675865173339844,-1.3455610275268555,1.7303228378295898
1691217825173057500,11.5860576171875,34.6757926940918,-1.3285082578659058,1.8100064992904663
1691217825183097600,11.59609765625,34.676326751708984,-1.3299533128738403,1.8462166786193848
1691217825193137700,11.6061376953125,34.675777435302734,-1.508248209953308,1.8815912008285522
1691217825203178800,11.6161787109375,34.675872802734375,-1.4503319263458252,1.8581525087356567
1691217825213218600,11.626218505859375,34.67696762084961,-1.4339319467544556,1.6299257278442383
1691217825223258400,11.63625830078125,34.677066802978516,-1.30757474899292,1.6240979433059692
1691217825233299500,11.646299560546876,34.67618179321289,-1.3736350536346436,1.8019506931304932
1691217825243339500,11.656339599609375,34.675724029541016,-1.3794604539871216,1.815791130065918
1691217825253379600,11.666379638671875,34.67563247680664,-1.3570244312286377,1.8090975284576416
1691217825263450600,11.67645068359375,34.6765022277832,-1.4520342350006104,1.7356654405593872
1691217825273490400,11.686490478515625,34.6762809753418,-1.537018895149231,1.5953596830368042
1691217825283530500,11.696530517578125,34.67684555053711,-1.439792275428772,1.6255048513412476
1691217825293571600,11.706571533203125,34.676631927490234,-1.3568427562713623,1.60918390750885
1691217825303611400,11.716611328125,34.67565155029297,-1.4840989112854004,1.900808572769165
1691217825313651500,11.7266513671875,34.67598342895508,-1.584529995918274,1.7693179845809937
1691217825323692500,11.736692626953126,34.675323486328125,-1.5279481410980225,1.8930739164352417
1691217825333732600,11.746732666015625,34.676029205322266,-1.5174683332443237,1.624138593673706
1691217825343768800,11.756768798828125,34.677310943603516,-1.480291724205017,1.5654263496398926
1691217825353809000,11.766808837890625,34.675559997558594,-1.476282000541687,1.801952600479126
1691217825363850000,11.77685009765625,34.67516326904297,-1.5064562559127808,1.8407018184661865
1691217825373890000,11.78689013671875,34.6758918762207,-1.605543851852417,1.8448262214660645
1691217825383929900,11.796929931640625,34.67604064941406,-1.513342022895813,1.7834243774414062
1691217825393970700,11.806970703125,34.67595291137695,-1.5587825775146484,1.7751513719558716
1691217825404040700,11.817040771484375,34.67601013183594,-1.4869136810302734,1.7268985509872437
1691217825414081800,11.827081787109375,34.675865173339844,-1.4989229440689087,1.8465440273284912
1691217825424121900,11.837121826171876,34.6754264831543,-1.3951624631881714,1.9611406326293945
1691217825434162000,11.847161865234375,34.67554473876953,-1.6616148948669434,1.902665615081787
1691217825444203000,11.857203125,34.67467498779297,-1.497936725616455,2.00826096534729
1691217825454243000,11.8672431640625,34.67654800415039,-1.4805923700332642,1.6797009706497192
1691217825464282600,11.87728271484375,34.676605224609375,-1.3498061895370483,1.7069616317749023
1691217825474322700,11.88732275390625,34.67566680908203,-1.3883497714996338,1.9304200410842896
1691217825484363800,11.89736376953125,34.67526626586914,-1.3976197242736816,1.9308596849441528
1691217825494403800,11.90740380859375,34.675052642822266,-1.564581274986267,1.956234335899353
1691217825504444000,11.91744384765625,34.675445556640625,-1.4850209951400757,1.8541185855865479
1691217825514484000,11.92748388671875,34.67613220214844,-1.4423153400421143,1.7836140394210815
1691217825524524800,11.93752490234375,34.67675018310547,-1.3773211240768433,1.7384932041168213
1691217825534564600,11.947564697265625,34.675453186035156,-1.3772510290145874,1.8597583770751953
1691217825544635600,11.9576357421875,34.6755485534668,-1.3555258512496948,1.8590952157974243
1691217825554675700,11.96767578125,34.6749267578125,-1.5349406003952026,1.920995831489563
1691217825564715800,11.9777158203125,34.675174713134766,-1.4258638620376587,1.885715365409851
1691217825574756900,11.9877568359375,34.676795959472656,-1.424119472503662,1.6356663703918457
1691217825584797000,11.997796875,34.67675018310547,-1.3273911476135254,1.6743988990783691
1691217825594837000,12.0078369140625,34.6758918762207,-1.416029930114746,1.8421212434768677
1691217825604877800,12.0178779296875,34.67623519897461,-1.4238591194152832,1.831241488456726
1691217825614917600,12.027917724609376,34.67572021484375,-1.5575172901153564,1.825698971748352
1691217825624957700,12.037957763671875,34.676361083984375,-1.4363192319869995,1.7562508583068848
1691217825634997800,12.047997802734375,34.676971435546875,-1.4407049417495728,1.6367771625518799
1691217825645038800,12.058038818359375,34.67631912231445,-1.4075056314468384,1.6771811246871948
1691217825655079000,12.068078857421876,34.676639556884766,-1.4213048219680786,1.69894278049469
1691217825665119000,12.078118896484375,34.67552947998047,-1.4952666759490967,1.91416597366333
1691217825675159800,12.088159912109376,34.67533874511719,-1.6646908521652222,1.8220064640045166
1691217825685229800,12.098229736328125,34.675228118896484,-1.5339161157608032,1.8921186923980713
1691217825695270700,12.108270751953125,34.6771354675293,-1.505099892616272,1.5938369035720825
1691217825705310700,12.118310791015626,34.6765022277832,-1.4807002544403076,1.6394851207733154
1691217825715350800,12.128350830078125,34.675437927246094,-1.51078200340271,1.874435544013977
1691217825725390800,12.138390869140625,34.67572021484375,-1.463117241859436,1.8626811504364014
1691217825735432000,12.148431884765625,34.675540924072266,-1.7671122550964355,1.8819446563720703
1691217825745472000,12.158471923828126,34.675804138183594,-1.6780215501785278,1.7724429368972778
1691217825755511800,12.16851171875,34.67547607421875,-1.604404091835022,1.8068006038665771
1691217825765552600,12.178552734375,34.67593765258789,-1.4648025035858154,1.7437918186187744
1691217825775592700,12.1885927734375,34.67525100708008,-1.507027506828308,1.9669535160064697
1691217825785632800,12.1986328125,34.67546081542969,-1.4196536540985107,1.9501588344573975
1691217825795672800,12.2086728515625,34.674591064453125,-1.7168866395950317,2.0012145042419434
1691217825805714000,12.2187138671875,34.675048828125,-1.5655720233917236,1.9911539554595947
1691217825815754000,12.22875390625,34.67622756958008,-1.5057028532028198,1.6516773700714111
1691217825825824800,12.23882470703125,34.67572021484375,-1.4624333381652832,1.8124278783798218
1691217825835864800,12.24886474609375,34.675106048583984,-1.5178561210632324,1.992494821548462
1691217825845905000,12.25890478515625,34.675315856933594,-1.3771053552627563,1.9698374271392822
1691217825855945700,12.26894580078125,34.6749382019043,-1.5050617456436157,2.017421007156372
1691217825865985800,12.27898583984375,34.674991607666016,-1.5425127744674683,1.8836114406585693
1691217825876025900,12.28902587890625,34.675437927246094,-1.4441163539886475,1.8151227235794067
1691217825886067000,12.29906689453125,34.67597961425781,-1.3746994733810425,1.7894448041915894
1691217825896106800,12.309106689453126,34.675357818603516,-1.4008536338806152,1.9731978178024292
1691217825906146800,12.319146728515625,34.67526626586914,-1.39841628074646,1.8462505340576172
1691217825916187000,12.329186767578125,34.67513656616211,-1.4726513624191284,2.0087318420410156
1691217825926227700,12.339227783203125,34.676025390625,-1.4439347982406616,1.8286619186401367
1691217825936267800,12.349267822265626,34.67707824707031,-1.4149668216705322,1.6415256261825562
1691217825946307800,12.359307861328125,34.67588424682617,-1.3926111459732056,1.7569773197174072
1691217825956349000,12.369348876953126,34.67556381225586,-1.502432942390442,1.8940132856369019
1691217825966418700,12.379418701171875,34.675479888916016,-1.3882025480270386,1.835119366645813
1691217825976459800,12.389459716796875,34.67568588256836,-1.6278630495071411,1.870989203453064
1691217825986499800,12.399499755859376,34.67571258544922,-1.6333051919937134,1.7215983867645264
1691217825996540000,12.409539794921875,34.67604446411133,-1.5743532180786133,1.68577241897583
1691217826006580000,12.419580078125,34.67671203613281,-1.4192936420440674,1.64481520652771
1691217826016620800,12.429620849609375,34.67554473876953,-1.504960536956787,1.913441777229309
1691217826026660900,12.439660888671876,34.67534637451172,-1.5584386587142944,1.8211579322814941
1691217826036700700,12.44970068359375,34.67543029785156,-1.6495598554611206,1.9449808597564697
1691217826046741800,12.45974169921875,34.67525863647461,-1.570256233215332,1.7936930656433105
1691217826056781800,12.46978173828125,34.6767692565918,-1.439886450767517,1.578321933746338
