time,seconds_elapsed,z,y,x
1690839713195714300,0.02871435546875,-0.9750823974609375,0.0411529541015625,-0.0066680908203125
1690839713205720300,0.03872021484375,-0.9775543212890625,0.0367584228515625,-0.0084686279296875
1690839713215730400,0.04873046875,-0.979522705078125,0.029449462890625,-0.0085296630859375
1690839713225770200,0.058770263671875,-0.9784088134765625,0.0248260498046875,-0.0070343017578125
1690839713235811300,0.068811279296875,-0.982635498046875,0.017242431640625,-0.003814697265625
1690839713245851400,0.078851318359375,-0.9844818115234375,0.01361083984375,-0.0023956298828125
1690839713255891200,0.08889111328125,-0.984130859375,0.0107879638671875,-0.000091552734375
1690839713265932300,0.098932373046875,-0.9835662841796875,0.008209228515625,0.0002288818359375
1690839713275972400,0.108972412109375,-0.9820556640625,0.0088958740234375,-0.0004730224609375
1690839713286012400,0.119012451171875,-0.9816436767578125,0.0106658935546875,-0.001007080078125
1690839713296052500,0.129052490234375,-0.9786529541015625,0.01458740234375,-0.001800537109375
1690839713306093600,0.139093505859375,-0.9760589599609375,0.0193023681640625,-0.0042266845703125
1690839713316164400,0.149164306640625,-0.9751129150390625,0.0243682861328125,-0.0055084228515625
1690839713326204400,0.159204345703125,-0.972412109375,0.0294342041015625,-0.006561279296875
1690839713336244200,0.169244140625,-0.970916748046875,0.033599853515625,-0.006195068359375
1690839713346284300,0.1792841796875,-0.9693756103515625,0.037445068359375,-0.006256103515625
1690839713356325400,0.189325439453125,-0.9683990478515625,0.0406951904296875,-0.005767822265625
1690839713366365400,0.199365478515625,-0.969390869140625,0.0422210693359375,-0.0042877197265625
1690839713376405200,0.2094052734375,-0.9682464599609375,0.0430450439453125,-0.0038299560546875
1690839713386446300,0.2194462890625,-0.968414306640625,0.0437164306640625,-0.0034942626953125
1690839713396486400,0.229486328125,-0.969757080078125,0.041412353515625,-0.003173828125
1690839713406526200,0.239526123046875,-0.970733642578125,0.039093017578125,-0.003814697265625
1690839713416566300,0.249566162109375,-0.9712982177734375,0.0363311767578125,-0.004547119140625
1690839713426607400,0.259607421875,-0.97296142578125,0.0328369140625,-0.0050201416015625
1690839713436647400,0.2696474609375,-0.9740753173828125,0.02972412109375,-0.00482177734375
1690839713446687500,0.2796875,-0.9765777587890625,0.0255889892578125,-0.0049896240234375
1690839713456728600,0.289728515625,-0.9784698486328125,0.0221405029296875,-0.004608154296875
1690839713466798300,0.29979833984375,-0.979736328125,0.0191497802734375,-0.0046844482421875
1690839713476839400,0.30983935546875,-0.97991943359375,0.0171051025390625,-0.003509521484375
1690839713486879200,0.319879150390625,-0.9792327880859375,0.0170135498046875,-0.00311279296875
1690839713496919300,0.329919189453125,-0.9799346923828125,0.0175323486328125,-0.0017852783203125
1690839713506959400,0.33995947265625,-0.978973388671875,0.01873779296875,-0.0023193359375
1690839713517000400,0.35000048828125,-0.9780120849609375,0.0203857421875,-0.003143310546875
1690839713527040300,0.360040283203125,-0.97772216796875,0.0234375,-0.002685546875
1690839713537080300,0.370080322265625,-0.9765777587890625,0.02642822265625,-0.003509521484375
1690839713547121400,0.380121337890625,-0.9746856689453125,0.02984619140625,-0.0042877197265625
1690839713557161200,0.3901611328125,-0.97265625,0.0323944091796875,-0.0047607421875
1690839713567201300,0.400201171875,-0.9727935791015625,0.03515625,-0.0054168701171875
1690839713577241300,0.410241455078125,-0.9720458984375,0.0359344482421875,-0.004974365234375
1690839713587282400,0.420282470703125,-0.9728546142578125,0.0362701416015625,-0.0052642822265625
1690839713597322500,0.430322509765625,-0.9723358154296875,0.0367889404296875,-0.0043182373046875
1690839713607362300,0.4403623046875,-0.9728851318359375,0.036865234375,-0.00439453125
1690839713617433300,0.450433349609375,-0.973602294921875,0.03570556640625,-0.00482177734375
1690839713627473400,0.460473388671875,-0.973114013671875,0.0335693359375,-0.003509521484375
1690839713637514200,0.47051416015625,-0.9754486083984375,0.031951904296875,-0.003021240234375
1690839713647554300,0.48055419921875,-0.9751129150390625,0.0301666259765625,-0.0036773681640625
1690839713657594400,0.490594482421875,-0.975982666015625,0.027923583984375,-0.0037841796875
1690839713667634200,0.50063427734375,-0.9773712158203125,0.025421142578125,-0.0034027099609375
1690839713677675300,0.51067529296875,-0.978271484375,0.023223876953125,-0.0036468505859375
1690839713687715300,0.52071533203125,-0.978546142578125,0.0220947265625,-0.003509521484375
1690839713697755400,0.53075537109375,-0.9793548583984375,0.0215301513671875,-0.0037994384765625
1690839713707796200,0.540796142578125,-0.9796905517578125,0.021270751953125,-0.0033111572265625
1690839713717836300,0.550836181640625,-0.9788665771484375,0.0222015380859375,-0.003204345703125
1690839713727876400,0.56087646484375,-0.9785919189453125,0.02392578125,-0.0029296875
1690839713737916200,0.570916259765625,-0.97808837890625,0.02520751953125,-0.002777099609375
1690839713747957500,0.58095751953125,-0.977783203125,0.027191162109375,-0.00390625
1690839713757997300,0.590997314453125,-0.9765472412109375,0.02960205078125,-0.004486083984375
1690839713768068400,0.601068359375,-0.975677490234375,0.0317230224609375,-0.004669189453125
1690839713778108400,0.6111083984375,-0.9752197265625,0.031982421875,-0.0044097900390625
1690839713788148500,0.6211484375,-0.9752197265625,0.032684326171875,-0.005340576171875
1690839713798182000,0.631181884765625,-0.974853515625,0.0335235595703125,-0.0051116943359375
1690839713808221700,0.6412216796875,-0.9745635986328125,0.03326416015625,-0.004913330078125
1690839713818261800,0.65126171875,-0.9745025634765625,0.033416748046875,-0.0041351318359375
1690839713828302800,0.661302734375,-0.9755401611328125,0.032989501953125,-0.0037689208984375
1690839713838343000,0.671343017578125,-0.9754638671875,0.0316925048828125,-0.00360107421875
1690839713848382700,0.6813828125,-0.97613525390625,0.030609130859375,-0.0028228759765625
1690839713858422800,0.6914228515625,-0.9770050048828125,0.0302886962890625,-0.00372314453125
1690839713868463900,0.7014638671875,-0.977020263671875,0.0285797119140625,-0.0044708251953125
1690839713878503700,0.711503662109375,-0.9786529541015625,0.0269775390625,-0.004119873046875
1690839713888543700,0.721543701171875,-0.9792327880859375,0.025604248046875,-0.004638671875
1690839713898584800,0.731584716796875,-0.977996826171875,0.0255279541015625,-0.00372314453125
1690839713908625000,0.741625,-0.9781494140625,0.0264892578125,-0.004547119140625
1690839713918695700,0.75169580078125,-0.9781494140625,0.025115966796875,-0.004241943359375
1690839713928735700,0.76173583984375,-0.9791717529296875,0.0257568359375,-0.00408935546875
1690839713938775800,0.77177587890625,-0.9782867431640625,0.025848388671875,-0.0039215087890625
1690839713948816000,0.78181591796875,-0.97747802734375,0.0268402099609375,-0.0035552978515625
1690839713958856700,0.791856689453125,-0.97735595703125,0.0287017822265625,-0.00311279296875
1690839713968896800,0.801896728515625,-0.9774932861328125,0.0296783447265625,-0.0032806396484375
1690839713978936800,0.811936767578125,-0.9775390625,0.030364990234375,-0.0035552978515625
1690839713988978000,0.82197802734375,-0.977447509765625,0.0308837890625,-0.00311279296875
1690839713999017700,0.832017822265625,-0.976470947265625,0.03143310546875,-0.00372314453125
1690839714009057800,0.842057861328125,-0.9770965576171875,0.03228759765625,-0.0052337646484375
1690839714019097900,0.852097900390625,-0.977508544921875,0.0327911376953125,-0.004150390625
1690839714029138700,0.862138671875,-0.97650146484375,0.0325927734375,-0.0040435791015625
1690839714039178800,0.8721787109375,-0.976593017578125,0.0315093994140625,-0.0039825439453125
1690839714049218800,0.88221875,-0.9774627685546875,0.0301971435546875,-0.0039825439453125
1690839714059260000,0.892260009765625,-0.977996826171875,0.0291290283203125,-0.0037384033203125
1690839714069329700,0.90232958984375,-0.9780426025390625,0.0286712646484375,-0.004119873046875
1690839714079370800,0.912370849609375,-0.978759765625,0.0282745361328125,-0.00390625
1690839714089410800,0.922410888671875,-0.9788055419921875,0.0281219482421875,-0.00360107421875
1690839714099451000,0.932450927734375,-0.9782562255859375,0.0267181396484375,-0.0034027099609375
1690839714109491000,0.942490966796875,-0.97845458984375,0.026153564453125,-0.0032501220703125
1690839714119531800,0.95253173828125,-0.9798583984375,0.0264434814453125,-0.0035552978515625
1690839714129571800,0.96257177734375,-0.9789886474609375,0.0271148681640625,-0.0048370361328125
1690839714139611600,0.972611572265625,-0.9783935546875,0.0269775390625,-0.004791259765625
1690839714149652700,0.98265283203125,-0.9795684814453125,0.0279998779296875,-0.00421142578125
1690839714159692800,0.99269287109375,-0.9790191650390625,0.0280914306640625,-0.0044708251953125
1690839714169732900,1.00273291015625,-0.9786834716796875,0.028533935546875,-0.00408935546875
1690839714179773000,1.01277294921875,-0.977996826171875,0.0287933349609375,-0.0042724609375
1690839714189813800,1.022813720703125,-0.978057861328125,0.0301361083984375,-0.004058837890625
1690839714199853800,1.032853759765625,-0.9781341552734375,0.0307464599609375,-0.0037078857421875
1690839714209893600,1.0428935546875,-0.9774017333984375,0.0304718017578125,-0.003753662109375
1690839714219964700,1.052964599609375,-0.977325439453125,0.029876708984375,-0.00433349609375
1690839714230004700,1.063004638671875,-0.97833251953125,0.02996826171875,-0.0041656494140625
1690839714240045800,1.0730458984375,-0.9783935546875,0.029632568359375,-0.004302978515625
1690839714250086000,1.0830859375,-0.9777374267578125,0.02984619140625,-0.00408935546875
1690839714260126000,1.0931259765625,-0.977508544921875,0.0288543701171875,-0.004241943359375
1690839714270166800,1.103166748046875,-0.97845458984375,0.0282440185546875,-0.0042266845703125
1690839714280206800,1.113206787109375,-0.978790283203125,0.0283966064453125,-0.004547119140625
1690839714290246700,1.12324658203125,-0.97967529296875,0.0284271240234375,-0.0040435791015625
1690839714300286700,1.13328662109375,-0.979248046875,0.0274810791015625,-0.0040740966796875
1690839714310327800,1.143327880859375,-0.9799346923828125,0.0268402099609375,-0.0038604736328125
1690839714320367900,1.153367919921875,-0.9793243408203125,0.0269317626953125,-0.0034637451171875
1690839714330408000,1.163407958984375,-0.9794464111328125,0.0272979736328125,-0.0037078857421875
1690839714340448800,1.17344873046875,-0.9786376953125,0.0279083251953125,-0.0039520263671875
1690839714350488800,1.18348876953125,-0.979278564453125,0.0276947021484375,-0.0042724609375
1690839714360528600,1.193528564453125,-0.9792022705078125,0.0279541015625,-0.004302978515625
1690839714370599700,1.203599609375,-0.9793853759765625,0.029388427734375,-0.003265380859375
1690839714380639700,1.2136396484375,-0.9784393310546875,0.029266357421875,-0.003875732421875
1690839714390679800,1.2236796875,-0.97900390625,0.0295257568359375,-0.00494384765625
1690839714400721000,1.233720947265625,-0.979400634765625,0.02978515625,-0.0040130615234375
1690839714410761000,1.243760986328125,-0.977325439453125,0.0299072265625,-0.004486083984375
1690839714420801000,1.253801025390625,-0.9774322509765625,0.0299835205078125,-0.004547119140625
1690839714430841900,1.263841796875,-0.977081298828125,0.0301666259765625,-0.0035247802734375
1690839714440881700,1.273881591796875,-0.977264404296875,0.030426025390625,-0.0038909912109375
1690839714450921700,1.283921630859375,-0.97845458984375,0.02960205078125,-0.0040740966796875
1690839714460961800,1.2939619140625,-0.979217529296875,0.0300750732421875,-0.004302978515625
1690839714471003000,1.3040029296875,-0.979583740234375,0.02911376953125,-0.0034637451171875
1690839714481043000,1.31404296875,-0.979888916015625,0.028472900390625,-0.00390625
1690839714491083000,1.3240830078125,-0.9792022705078125,0.027862548828125,-0.0041656494140625
1690839714501123800,1.334123779296875,-0.9788970947265625,0.02789306640625,-0.0035552978515625
1690839714511163600,1.34416357421875,-0.979156494140625,0.0287628173828125,-0.0029296875
1690839714521234700,1.354234619140625,-0.9796142578125,0.0279083251953125,-0.004150390625
1690839714531274800,1.364274658203125,-0.9794769287109375,0.02838134765625,-0.0051116943359375
1690839714541314800,1.374314697265625,-0.9792327880859375,0.028106689453125,-0.0045928955078125
1690839714551356000,1.38435595703125,-0.9789886474609375,0.02752685546875,-0.0050048828125
1690839714561396000,1.39439599609375,-0.978485107421875,0.0279388427734375,-0.0045318603515625
1690839714571435800,1.404435791015625,-0.9791259765625,0.0284423828125,-0.004241943359375
1690839714581475800,1.414475830078125,-0.9786529541015625,0.029083251953125,-0.003997802734375
1690839714591516700,1.4245166015625,-0.978790283203125,0.0290069580078125,-0.0039825439453125
1690839714601556700,1.434556640625,-0.978729248046875,0.029296875,-0.00335693359375
1690839714611596800,1.4445966796875,-0.9788360595703125,0.0295257568359375,-0.0047607421875
1690839714621636900,1.454636962890625,-0.9798583984375,0.0299835205078125,-0.004852294921875
1690839714631678000,1.464677978515625,-0.979217529296875,0.02911376953125,-0.0041961669921875
1690839714641718000,1.474718017578125,-0.978912353515625,0.0288543701171875,-0.0032806396484375
1690839714651757800,1.4847578125,-0.978790283203125,0.0294647216796875,-0.004119873046875
1690839714661798700,1.494798583984375,-0.978912353515625,0.02825927734375,-0.0046844482421875
1690839714671869000,1.504868896484375,-0.9802703857421875,0.028961181640625,-0.0045623779296875
1690839714681909800,1.51490966796875,-0.979095458984375,0.0292205810546875,-0.004608154296875
1690839714691949800,1.52494970703125,-0.979339599609375,0.0278167724609375,-0.0044097900390625
1690839714701990000,1.534989990234375,-0.9801025390625,0.028594970703125,-0.0041961669921875
1690839714712031000,1.545031005859375,-0.9799957275390625,0.028228759765625,-0.0038299560546875
1690839714722070800,1.55507080078125,-0.9799346923828125,0.0285797119140625,-0.0037384033203125
1690839714732110800,1.56511083984375,-0.9797515869140625,0.0282135009765625,-0.0036773681640625
1690839714742150700,1.575150634765625,-0.979949951171875,0.0286865234375,-0.0034637451171875
1690839714752191700,1.585191650390625,-0.9788360595703125,0.028472900390625,-0.0034942626953125
1690839714762231800,1.595231689453125,-0.980438232421875,0.0284423828125,-0.00372314453125
1690839714772271900,1.60527197265625,-0.9797210693359375,0.0289306640625,-0.00323486328125
1690839714782313000,1.61531298828125,-0.9793701171875,0.02996826171875,-0.0037689208984375
1690839714792325600,1.62532568359375,-0.979644775390625,0.0296630859375,-0.004119873046875
1690839714802365700,1.63536572265625,-0.9790191650390625,0.0280609130859375,-0.0047607421875
1690839714812405800,1.64540576171875,-0.97906494140625,0.0281219482421875,-0.0042266845703125
1690839714822476800,1.655476806640625,-0.98016357421875,0.0292205810546875,-0.00390625
1690839714832516900,1.665516845703125,-0.979736328125,0.029388427734375,-0.00457763671875
1690839714842558000,1.675557861328125,-0.9797821044921875,0.02899169921875,-0.0048370361328125
1690839714852597800,1.68559765625,-0.979705810546875,0.02899169921875,-0.0040283203125
1690839714862637800,1.695637939453125,-0.9796600341796875,0.0293121337890625,-0.0037384033203125
1690839714872678700,1.7056787109375,-0.980072021484375,0.0294036865234375,-0.0042266845703125
1690839714882718700,1.71571875,-0.97979736328125,0.0285797119140625,-0.0041961669921875
1690839714892758800,1.7257587890625,-0.9794464111328125,0.028594970703125,-0.004364013671875
1690839714902798800,1.735798828125,-0.9798126220703125,0.02911376953125,-0.00335693359375
1690839714912840000,1.74583984375,-0.980133056640625,0.0283660888671875,-0.003387451171875
1690839714922879700,1.755879638671875,-0.9811553955078125,0.0277099609375,-0.004241943359375
1690839714932919800,1.765919921875,-0.9803924560546875,0.028472900390625,-0.0038909912109375
1690839714942960600,1.775960693359375,-0.980010986328125,0.0290069580078125,-0.0041351318359375
1690839714953000700,1.786000732421875,-0.9809112548828125,0.0288238525390625,-0.003662109375
1690839714963040800,1.796040771484375,-0.980133056640625,0.0286407470703125,-0.0038604736328125
1690839714973111800,1.80611181640625,-0.979461669921875,0.028839111328125,-0.0047607421875
1690839714983151900,1.81615185546875,-0.9796600341796875,0.0283660888671875,-0.003814697265625
1690839714993193000,1.82619287109375,-0.97979736328125,0.028961181640625,-0.0037078857421875
1690839715003232800,1.836232666015625,-0.979736328125,0.0295257568359375,-0.004150390625
1690839715013272800,1.84627294921875,-0.980377197265625,0.0290985107421875,-0.0037841796875
1690839715023313000,1.85631298828125,-0.980010986328125,0.028594970703125,-0.00433349609375
1690839715033353700,1.866353759765625,-0.9794921875,0.028900146484375,-0.0039215087890625
1690839715043393800,1.876393798828125,-0.980224609375,0.0288543701171875,-0.0039520263671875
1690839715053433900,1.886433837890625,-0.9795989990234375,0.028656005859375,-0.00396728515625
1690839715063475000,1.896474853515625,-0.9788970947265625,0.0287017822265625,-0.0042266845703125
1690839715073514800,1.9065146484375,-0.979827880859375,0.028564453125,-0.0043487548828125
1690839715083554800,1.916554931640625,-0.9797210693359375,0.02880859375,-0.003692626953125
1690839715093595000,1.926594970703125,-0.9810638427734375,0.028076171875,-0.0033111572265625
1690839715103635700,1.9366357421875,-0.9809722900390625,0.02850341796875,-0.004669189453125
1690839715113675800,1.94667578125,-0.9806671142578125,0.0284271240234375,-0.003814697265625
1690839715123746800,1.956746826171875,-0.980194091796875,0.028594970703125,-0.004058837890625
1690839715133787000,1.966786865234375,-0.980743408203125,0.028350830078125,-0.0037841796875
1690839715143826700,1.97682666015625,-0.98101806640625,0.02850341796875,-0.0041351318359375
1690839715153867800,1.98686767578125,-0.9800262451171875,0.02880859375,-0.004364013671875
1690839715163907800,1.996907958984375,-0.97906494140625,0.0283355712890625,-0.004119873046875
1690839715173948000,2.006947998046875,-0.9794158935546875,0.028656005859375,-0.0048065185546875
1690839715183988000,2.016988037109375,-0.980010986328125,0.02923583984375,-0.004791259765625
1690839715194028800,2.02702880859375,-0.98004150390625,0.0296173095703125,-0.004119873046875
1690839715204068900,2.03706884765625,-0.9799041748046875,0.0284881591796875,-0.0050506591796875
1690839715214108700,2.047108642578125,-0.9801177978515625,0.0292205810546875,-0.004669189453125
1690839715224149800,2.057149658203125,-0.9802703857421875,0.02984619140625,-0.0041961669921875
1690839715234189800,2.06718994140625,-0.9801483154296875,0.0292816162109375,-0.0036163330078125
1690839715244230000,2.07722998046875,-0.9794921875,0.0288848876953125,-0.003387451171875
1690839715254270000,2.08727001953125,-0.9805145263671875,0.029327392578125,-0.004180908203125
1690839715264310800,2.097310791015625,-0.97967529296875,0.029022216796875,-0.004241943359375
1690839715274380800,2.107380859375,-0.979888916015625,0.02838134765625,-0.003936767578125
1690839715284422000,2.117421875,-0.9810638427734375,0.0280609130859375,-0.0039520263671875
1690839715294461700,2.127461669921875,-0.980438232421875,0.0277557373046875,-0.00396728515625
1690839715304501800,2.137501708984375,-0.9795989990234375,0.028533935546875,-0.0046844482421875
1690839715314542800,2.14754296875,-0.9796905517578125,0.0290679931640625,-0.0043487548828125
1690839715324583000,2.1575830078125,-0.9800567626953125,0.0284271240234375,-0.0041351318359375
1690839715334623000,2.167623046875,-0.9811248779296875,0.02825927734375,-0.0042266845703125
1690839715344662800,2.177662841796875,-0.9813690185546875,0.028656005859375,-0.0037078857421875
1690839715354704000,2.187703857421875,-0.98162841796875,0.0293121337890625,-0.0036468505859375
1690839715364743700,2.19774365234375,-0.980682373046875,0.0284423828125,-0.003936767578125
1690839715374783700,2.20778369140625,-0.979949951171875,0.029022216796875,-0.004180908203125
1690839715384824800,2.217824951171875,-0.9797515869140625,0.0289764404296875,-0.0040283203125
1690839715394865000,2.227864990234375,-0.9798736572265625,0.0281524658203125,-0.0033416748046875
1690839715404905000,2.237905029296875,-0.9801025390625,0.0285797119140625,-0.004150390625
1690839715414944800,2.24794482421875,-0.981353759765625,0.0288543701171875,-0.0044403076171875
1690839715425015800,2.258015869140625,-0.980682373046875,0.02862548828125,-0.0032501220703125
1690839715435057000,2.268056884765625,-0.981231689453125,0.0289154052734375,-0.0034027099609375
1690839715445096700,2.2780966796875,-0.9799346923828125,0.0290679931640625,-0.004241943359375
1690839715455136800,2.28813671875,-0.97998046875,0.0292816162109375,-0.003387451171875
1690839715465176800,2.2981767578125,-0.980316162109375,0.02838134765625,-0.0031280517578125
1690839715475218000,2.308218017578125,-0.9809417724609375,0.028411865234375,-0.0034942626953125
1690839715485258000,2.318258056640625,-0.98077392578125,0.0291290283203125,-0.0037994384765625
1690839715495297800,2.3282978515625,-0.9798583984375,0.028900146484375,-0.00433349609375
1690839715505339000,2.3383388671875,-0.9803009033203125,0.028228759765625,-0.0035858154296875
1690839715515378700,2.348378662109375,-0.9810943603515625,0.0287933349609375,-0.003875732421875
1690839715525418800,2.358418701171875,-0.980804443359375,0.02960205078125,-0.0034332275390625
1690839715535458800,2.368458740234375,-0.9802703857421875,0.0289306640625,-0.004425048828125
1690839715545500000,2.3785,-0.9798583984375,0.029083251953125,-0.0046234130859375
1690839715555540000,2.3885400390625,-0.980560302734375,0.0282440185546875,-0.00445556640625
1690839715565579800,2.398579833984375,-0.98028564453125,0.0282745361328125,-0.00408935546875
1690839715575650800,2.40865087890625,-0.9802703857421875,0.0290679931640625,-0.003936767578125
1690839715585690600,2.418690673828125,-0.9808197021484375,0.0288238525390625,-0.0039215087890625
1690839715595731700,2.428731689453125,-0.9800567626953125,0.0292205810546875,-0.0038604736328125
1690839715605771800,2.438771728515625,-0.980560302734375,0.0289306640625,-0.0036163330078125
1690839715615811800,2.448811767578125,-0.981109619140625,0.029327392578125,-0.0051727294921875
1690839715625852000,2.458851806640625,-0.97979736328125,0.028472900390625,-0.004913330078125
1690839715635893000,2.46889306640625,-0.9803314208984375,0.029083251953125,-0.003753662109375
1690839715645932800,2.478932861328125,-0.9809722900390625,0.0282440185546875,-0.00396728515625
1690839715655972600,2.48897265625,-0.98101806640625,0.028533935546875,-0.0040435791015625
1690839715666013700,2.499013671875,-0.981170654296875,0.02935791015625,-0.004974365234375
1690839715676053800,2.5090537109375,-0.980010986328125,0.028656005859375,-0.0037689208984375
1690839715686093800,2.51909375,-0.9803314208984375,0.0285797119140625,-0.004364013671875
1690839715696134000,2.5291337890625,-0.9807891845703125,0.0284881591796875,-0.004241943359375
1690839715706175000,2.539175048828125,-0.9807281494140625,0.0286102294921875,-0.0043792724609375
1690839715716214800,2.54921484375,-0.980499267578125,0.028564453125,-0.0039520263671875
1690839715726285800,2.559285888671875,-0.9808807373046875,0.0285491943359375,-0.0042724609375
1690839715736325600,2.56932568359375,-0.9813385009765625,0.0292510986328125,-0.0039215087890625
1690839715746365700,2.57936572265625,-0.981842041015625,0.02911376953125,-0.00439453125
1690839715756406800,2.58940673828125,-0.9814910888671875,0.0288238525390625,-0.004241943359375
1690839715766446800,2.59944677734375,-0.98040771484375,0.0289459228515625,-0.0037078857421875
1690839715776487000,2.60948681640625,-0.9804840087890625,0.029632568359375,-0.00372314453125
1690839715786527000,2.61952685546875,-0.980316162109375,0.028778076171875,-0.0040283203125
1690839715796578000,2.629578125,-0.980682373046875,0.0284576416015625,-0.00439453125
1690839715806617900,2.639617919921875,-0.9810638427734375,0.02923583984375,-0.0032501220703125
1690839715816658000,2.649657958984375,-0.9817657470703125,0.02935791015625,-0.003631591796875
1690839715826699000,2.659698974609375,-0.980804443359375,0.0291290283203125,-0.0040435791015625
1690839715836739000,2.669739013671875,-0.980621337890625,0.0286865234375,-0.0040740966796875
1690839715846779000,2.67977880859375,-0.980743408203125,0.028564453125,-0.0034942626953125
1690839715856819000,2.68981884765625,-0.9813385009765625,0.02801513671875,-0.0035858154296875
1690839715866890000,2.699889892578125,-0.9813995361328125,0.028076171875,-0.0042572021484375
1690839715876931000,2.70993115234375,-0.9803466796875,0.0284271240234375,-0.0044403076171875
1690839715886971000,2.719970947265625,-0.98046875,0.0283966064453125,-0.0036163330078125
1690839715897011000,2.730010986328125,-0.9805450439453125,0.0281982421875,-0.0039520263671875
1690839715907051000,2.740051025390625,-0.9806365966796875,0.0286712646484375,-0.0038299560546875
1690839715917092000,2.750092041015625,-0.98052978515625,0.029022216796875,-0.004058837890625
1690839715927132000,2.7601318359375,-0.979766845703125,0.0283355712890625,-0.0041961669921875
1690839715937172000,2.770171875,-0.980804443359375,0.0291595458984375,-0.003692626953125
1690839715947213000,2.780213134765625,-0.9814300537109375,0.0291595458984375,-0.004150390625
1690839715957252900,2.7902529296875,-0.9804840087890625,0.028656005859375,-0.0036773681640625
1690839715967293000,2.80029296875,-0.9810028076171875,0.0294036865234375,-0.00372314453125
1690839715977333000,2.8103330078125,-0.9803924560546875,0.0287322998046875,-0.00384521484375
1690839715987374000,2.8203740234375,-0.9810791015625,0.0288238525390625,-0.003936767578125
1690839715997414000,2.830413818359375,-0.9806976318359375,0.028839111328125,-0.00408935546875
1690839716007454000,2.840453857421875,-0.9801788330078125,0.0286407470703125,-0.004241943359375
1690839716017525000,2.85052490234375,-0.98052978515625,0.0284881591796875,-0.0033111572265625
1690839716027565000,2.86056494140625,-0.9806976318359375,0.0282135009765625,-0.0041656494140625
1690839716037606000,2.87060595703125,-0.9813079833984375,0.0290985107421875,-0.0047760009765625
1690839716047646000,2.88064599609375,-0.98077392578125,0.0287017822265625,-0.00408935546875
1690839716057686000,2.89068603515625,-0.9803009033203125,0.028533935546875,-0.00244140625
1690839716067725800,2.900725830078125,-0.980133056640625,0.0288543701171875,-0.0036773681640625
1690839716077767000,2.910766845703125,-0.9805450439453125,0.0290374755859375,-0.0049591064453125
1690839716087807000,2.920806884765625,-0.9803466796875,0.0285491943359375,-0.0040283203125
1690839716097847000,2.930846923828125,-0.979766845703125,0.028900146484375,-0.004241943359375
1690839716107887900,2.940887939453125,-0.981964111328125,0.0287322998046875,-0.0049285888671875
1690839716117928000,2.950927978515625,-0.9817962646484375,0.0287628173828125,-0.00469970703125
1690839716127968000,2.960968017578125,-0.9812469482421875,0.028472900390625,-0.0041961669921875
1690839716138007800,2.9710078125,-0.981414794921875,0.0288543701171875,-0.00390625
1690839716148049000,2.981048828125,-0.9808349609375,0.0287322998046875,-0.003936767578125
1690839716158089000,2.9910888671875,-0.9802093505859375,0.028656005859375,-0.0039825439453125
1690839716168160000,3.001159912109375,-0.9808502197265625,0.0291748046875,-0.0048980712890625
1690839716178200000,3.011199951171875,-0.980743408203125,0.02874755859375,-0.0047454833984375
1690839716188240100,3.021240234375,-0.97979736328125,0.028472900390625,-0.0036468505859375
1690839716198281000,3.031281005859375,-0.9805755615234375,0.0286712646484375,-0.0047149658203125
1690839716208320800,3.04132080078125,-0.9804534912109375,0.028350830078125,-0.004302978515625
1690839716218360800,3.05136083984375,-0.982025146484375,0.0285186767578125,-0.003692626953125
1690839716228401000,3.06140087890625,-0.9805145263671875,0.028839111328125,-0.0035400390625
1690839716238442000,3.07144189453125,-0.981292724609375,0.0294952392578125,-0.0037078857421875
1690839716248482000,3.08148193359375,-0.981292724609375,0.028350830078125,-0.0036163330078125
1690839716258522000,3.091522216796875,-0.981109619140625,0.0289764404296875,-0.004638671875
1690839716268563000,3.10156298828125,-0.9808807373046875,0.02874755859375,-0.0036163330078125
1690839716278603000,3.11160302734375,-0.9811248779296875,0.0280303955078125,-0.0034027099609375
1690839716288642800,3.121642822265625,-0.9810028076171875,0.0279693603515625,-0.0045318603515625
1690839716298683000,3.131682861328125,-0.9809722900390625,0.02825927734375,-0.0046539306640625
1690839716308724000,3.141723876953125,-0.9798431396484375,0.02862548828125,-0.00347900390625
1690839716318795000,3.151794921875,-0.9809417724609375,0.0284423828125,-0.0036773681640625
1690839716328835000,3.1618349609375,-0.980987548828125,0.0284271240234375,-0.003662109375
1690839716338875100,3.171875244140625,-0.9807281494140625,0.029266357421875,-0.00384521484375
1690839716348915000,3.1819150390625,-0.980224609375,0.0285797119140625,-0.00457763671875
1690839716358955800,3.191955810546875,-0.980438232421875,0.0290069580078125,-0.0042572021484375
1690839716368995800,3.201995849609375,-0.9808807373046875,0.02899169921875,-0.0045318603515625
1690839716379036000,3.212035888671875,-0.9795989990234375,0.02850341796875,-0.0040130615234375
1690839716389077000,3.222076904296875,-0.9808349609375,0.028411865234375,-0.0040740966796875
1690839716399117000,3.232116943359375,-0.9803009033203125,0.0276641845703125,-0.003936767578125
1690839716409157000,3.2421572265625,-0.981719970703125,0.0279388427734375,-0.004852294921875
1690839716419197200,3.252197265625,-0.9809722900390625,0.0279693603515625,-0.004302978515625
1690839716429238000,3.262238037109375,-0.9811553955078125,0.0286407470703125,-0.0048065185546875
1690839716439277800,3.27227783203125,-0.9806671142578125,0.0284423828125,-0.0047760009765625
1690839716449318000,3.28231787109375,-0.9813690185546875,0.0284881591796875,-0.00323486328125
1690839716459359000,3.29235888671875,-0.98101806640625,0.0297393798828125,-0.0036773681640625
1690839716469429000,3.302428955078125,-0.980804443359375,0.0296173095703125,-0.002655029296875
1690839716479470000,3.312469970703125,-0.9818878173828125,0.02850341796875,-0.003448486328125
1690839716489510100,3.32251025390625,-0.9803924560546875,0.02838134765625,-0.0037841796875
1690839716499550000,3.332550048828125,-0.9808807373046875,0.02825927734375,-0.00390625
1690839716509590000,3.342590087890625,-0.9818115234375,0.029022216796875,-0.0044403076171875
1690839716519630800,3.352630859375,-0.9815521240234375,0.02862548828125,-0.004058837890625
1690839716529671000,3.3626708984375,-0.981414794921875,0.0284881591796875,-0.0030670166015625
1690839716539711000,3.3727109375,-0.981536865234375,0.02911376953125,-0.00323486328125
1690839716549752000,3.382751953125,-0.98138427734375,0.0294342041015625,-0.00347900390625
1690839716559792000,3.392792236328125,-0.9813690185546875,0.029022216796875,-0.0040740966796875
1690839716569832200,3.402832275390625,-0.981170654296875,0.0289154052734375,-0.0040435791015625
1690839716579872000,3.4128720703125,-0.9805145263671875,0.0290374755859375,-0.0041961669921875
1690839716589912800,3.422912841796875,-0.979644775390625,0.029266357421875,-0.00494384765625
1690839716599953000,3.432952880859375,-0.9804840087890625,0.0284271240234375,-0.00482177734375
1690839716609993000,3.442992919921875,-0.98052978515625,0.027984619140625,-0.0044708251953125
1690839716620064000,3.45306396484375,-0.9809417724609375,0.028656005859375,-0.0032501220703125
1690839716630104000,3.46310400390625,-0.98162841796875,0.0284423828125,-0.0045013427734375
1690839716640145200,3.473145263671875,-0.9805908203125,0.028472900390625,-0.004241943359375
1690839716650185000,3.48318505859375,-0.980712890625,0.028778076171875,-0.0041961669921875
1690839716660225000,3.49322509765625,-0.981231689453125,0.02880859375,-0.0030517578125
1690839716670265900,3.503265869140625,-0.981964111328125,0.0294036865234375,-0.0036163330078125
1690839716680306000,3.513305908203125,-0.981292724609375,0.029083251953125,-0.0038909912109375
1690839716690346000,3.523345947265625,-0.9808502197265625,0.0284881591796875,-0.0036468505859375
1690839716700386000,3.533385986328125,-0.9805908203125,0.028289794921875,-0.0040130615234375
1690839716710427100,3.54342724609375,-0.9809112548828125,0.029083251953125,-0.0038299560546875
1690839716720467200,3.55346728515625,-0.9803009033203125,0.0294952392578125,-0.0042572021484375
1690839716730507000,3.563507080078125,-0.9807281494140625,0.0286712646484375,-0.0047760009765625
1690839716740546800,3.573546875,-0.9813995361328125,0.028839111328125,-0.00433349609375
1690839716750588000,3.583587890625,-0.981689453125,0.0296173095703125,-0.0040283203125
1690839716760628000,3.5936279296875,-0.9820709228515625,0.0291900634765625,-0.0042877197265625
1690839716770699000,3.603698974609375,-0.9801177978515625,0.02960205078125,-0.0035552978515625
1690839716780739000,3.613739013671875,-0.980743408203125,0.0294036865234375,-0.003997802734375
1690839716790779000,3.62377880859375,-0.982025146484375,0.02880859375,-0.003173828125
1690839716800819700,3.63381982421875,-0.9815216064453125,0.0291595458984375,-0.0041656494140625
1690839716810859800,3.64385986328125,-0.9812774658203125,0.028717041015625,-0.0042877197265625
1690839716820899600,3.653899658203125,-0.9811859130859375,0.0293426513671875,-0.004302978515625
1690839716830940400,3.6639404296875,-0.98138427734375,0.028656005859375,-0.0048828125
1690839716840980500,3.67398046875,-0.981170654296875,0.0288238525390625,-0.0048828125
1690839716851020500,3.6840205078125,-0.9814605712890625,0.0279388427734375,-0.0048065185546875
1690839716861060600,3.694060546875,-0.981414794921875,0.0283966064453125,-0.0039825439453125
1690839716871101700,3.704101806640625,-0.9812774658203125,0.02899169921875,-0.0032806396484375
1690839716881141800,3.714141845703125,-0.9806365966796875,0.0286865234375,-0.0034942626953125
1690839716891181800,3.724181884765625,-0.981201171875,0.02783203125,-0.0036468505859375
1690839716901222700,3.73422265625,-0.981781005859375,0.028839111328125,-0.0028839111328125
1690839716911262500,3.744262451171875,-0.9805450439453125,0.0287322998046875,-0.003173828125
1690839716921333500,3.75433349609375,-0.980377197265625,0.0277252197265625,-0.00396728515625
1690839716931373600,3.76437353515625,-0.9809417724609375,0.028839111328125,-0.0045013427734375
1690839716941413600,3.77441357421875,-0.980560302734375,0.0294647216796875,-0.00433349609375
1690839716951453700,3.78445361328125,-0.9807281494140625,0.0290069580078125,-0.00390625
1690839716961494800,3.794494873046875,-0.9902496337890625,0.00732421875,-0.0023956298828125
1690839716971534600,3.80453466796875,-0.963134765625,0.0549774169921875,-0.015899658203125
1690839716981574700,3.81457470703125,-0.970245361328125,0.028076171875,0.0065765380859375
1690839716991615500,3.824615478515625,-0.98052978515625,0.029052734375,0.0052642822265625
1690839717001655600,3.834655517578125,-0.9879608154296875,0.0310211181640625,0.0047607421875
1690839717011695600,3.844695556640625,-0.976104736328125,0.0283966064453125,-0.006988525390625
1690839717021735700,3.854735595703125,-0.9801483154296875,0.0295257568359375,-0.01220703125
1690839717031776800,3.86477685546875,-0.97601318359375,0.029541015625,-0.01202392578125
1690839717041816800,3.87481689453125,-0.9781494140625,0.0303955078125,-0.010986328125
1690839717051856600,3.884856689453125,-0.980072021484375,0.029327392578125,-0.00762939453125
1690839717061927700,3.894927734375,-0.9814300537109375,0.02899169921875,-0.0034942626953125
1690839717071967500,3.904967529296875,-0.983489990234375,0.0286407470703125,-0.0000762939453125
1690839717082008600,3.915008544921875,-0.98284912109375,0.0283966064453125,0.0025177001953125
1690839717092048600,3.925048583984375,-0.9865570068359375,0.0285491943359375,0.003204345703125
1690839717102088700,3.935088623046875,-0.9794921875,0.027618408203125,0.0007781982421875
1690839717112129800,3.9451298828125,-0.9859619140625,0.0273590087890625,-0.00213623046875
1690839717122169600,3.955169677734375,-0.98028564453125,0.0265960693359375,-0.0054931640625
1690839717132209700,3.965209716796875,-0.9778594970703125,0.0266876220703125,-0.007354736328125
1690839717142249500,3.97524951171875,-0.9812774658203125,0.026885986328125,-0.008575439453125
1690839717152290600,3.98529052734375,-0.978179931640625,0.0269317626953125,-0.0087127685546875
1690839717162330600,3.99533056640625,-0.9828948974609375,0.0279693603515625,-0.0059967041015625
1690839717172370700,4.00537060546875,-0.979736328125,0.0293426513671875,-0.0039215087890625
1690839717182411800,4.015411865234375,-0.982940673828125,0.0295867919921875,-0.001708984375
1690839717192451800,4.025451904296875,-0.982391357421875,0.029998779296875,-0.0002593994140625
1690839717202491600,4.03549169921875,-0.9801177978515625,0.0300750732421875,-0.0002288818359375
1690839717212562700,4.045562744140625,-0.9820709228515625,0.0303955078125,-0.0009613037109375
1690839717222602500,4.0556025390625,-0.9818115234375,0.0303802490234375,-0.0035400390625
1690839717232642600,4.065642578125,-0.979522705078125,0.0298614501953125,-0.0050201416015625
1690839717242683600,4.07568359375,-0.98016357421875,0.029296875,-0.006134033203125
1690839717252723700,4.0857236328125,-0.98052978515625,0.0285797119140625,-0.0070648193359375
1690839717262763500,4.095763427734375,-0.9771728515625,0.0284881591796875,-0.0064544677734375
1690839717272804600,4.1058046875,-0.9816436767578125,0.0287017822265625,-0.00567626953125
1690839717282844400,4.115844482421875,-0.980560302734375,0.0284881591796875,-0.003326416015625
1690839717292884500,4.125884521484375,-0.9813385009765625,0.0286865234375,-0.001861572265625
1690839717302924500,4.135924560546875,-0.9823455810546875,0.0279693603515625,-0.0016632080078125
1690839717312965600,4.145965576171875,-0.981292724609375,0.0280303955078125,-0.0010528564453125
1690839717323005700,4.156005615234375,-0.98345947265625,0.0281829833984375,-0.00238037109375
1690839717333045500,4.16604541015625,-0.9811859130859375,0.0276031494140625,-0.00384521484375
1690839717343086600,4.176086669921875,-0.9815216064453125,0.0277862548828125,-0.0042724609375
1690839717353126400,4.18612646484375,-0.981536865234375,0.02838134765625,-0.005035400390625
1690839717363197400,4.196197509765625,-0.97955322265625,0.028228759765625,-0.0055999755859375
1690839717373237500,4.206237548828125,-0.980865478515625,0.02777099609375,-0.0057525634765625
1690839717383277600,4.216277587890625,-0.9823455810546875,0.0294647216796875,-0.005157470703125
1690839717393317600,4.226317626953125,-0.980804443359375,0.0295257568359375,-0.00384521484375
1690839717403358700,4.236358642578125,-0.9813690185546875,0.02899169921875,-0.003173828125
1690839717413398500,4.2463984375,-0.982513427734375,0.0293731689453125,-0.003692626953125
1690839717423438600,4.2564384765625,-0.980682373046875,0.0300140380859375,-0.003021240234375
1690839717433479400,4.2664794921875,-0.9812469482421875,0.030853271484375,-0.00396728515625
1690839717443519500,4.27651953125,-0.9807586669921875,0.0303955078125,-0.004486083984375
1690839717453559600,4.2865595703125,-0.9810791015625,0.02923583984375,-0.00469970703125
1690839717463599600,4.296599609375,-0.9816741943359375,0.0292510986328125,-0.0049591064453125
1690839717473640700,4.306640625,-0.979400634765625,0.0294189453125,-0.004180908203125
1690839717483680500,4.316680419921875,-0.9810791015625,0.029632568359375,-0.00396728515625
1690839717493720600,4.326720458984375,-0.9805908203125,0.0286712646484375,-0.0032806396484375
1690839717503761400,4.336761474609375,-0.9807281494140625,0.0286712646484375,-0.0037384033203125
1690839717513831700,4.346831787109375,-0.9821929931640625,0.028350830078125,-0.003875732421875
1690839717523872500,4.35687255859375,-0.98187255859375,0.0281524658203125,-0.00311279296875
1690839717533912600,4.36691259765625,-0.982086181640625,0.0277099609375,-0.004058837890625
1690839717543952600,4.37695263671875,-0.982086181640625,0.027984619140625,-0.004119873046875
1690839717553993700,4.38699365234375,-0.9813232421875,0.0283660888671875,-0.0045013427734375
1690839717564033500,4.397033447265625,-0.9810638427734375,0.0283660888671875,-0.0047454833984375
1690839717574073600,4.407073486328125,-0.9810638427734375,0.0285186767578125,-0.004180908203125
1690839717584113700,4.41711376953125,-0.981170654296875,0.0282135009765625,-0.00457763671875
1690839717594154500,4.427154541015625,-0.9812469482421875,0.0285491943359375,-0.0048980712890625
1690839717604194600,4.437194580078125,-0.98114013671875,0.0298004150390625,-0.004241943359375
1690839717614234600,4.447234619140625,-0.9811248779296875,0.02935791015625,-0.00335693359375
1690839717624275700,4.457275634765625,-0.980926513671875,0.0290374755859375,-0.002716064453125
1690839717634315500,4.4673154296875,-0.980224609375,0.029144287109375,-0.0037689208984375
1690839717644355600,4.47735546875,-0.9812164306640625,0.02874755859375,-0.0041351318359375
1690839717654395600,4.487395751953125,-0.9814605712890625,0.02923583984375,-0.00396728515625
1690839717664466700,4.497466796875,-0.980621337890625,0.0292205810546875,-0.0045318603515625
1690839717674506800,4.5075068359375,-0.98052978515625,0.02947998046875,-0.00457763671875
1690839717684547600,4.517547607421875,-0.98162841796875,0.0289459228515625,-0.004150390625
1690839717694587600,4.527587646484375,-0.982025146484375,0.0287628173828125,-0.0032501220703125
1690839717704627500,4.53762744140625,-0.9815826416015625,0.0290069580078125,-0.0034332275390625
1690839717714668500,4.54766845703125,-0.98101806640625,0.0293731689453125,-0.00286865234375
1690839717724708600,4.55770849609375,-0.9813385009765625,0.029327392578125,-0.0030975341796875
1690839717734748700,4.567748779296875,-0.9806976318359375,0.028778076171875,-0.003631591796875
1690839717744788700,4.577788818359375,-0.9811248779296875,0.0287017822265625,-0.0041046142578125
1690839717754829600,4.58782958984375,-0.981353759765625,0.02838134765625,-0.0045318603515625
1690839717764869600,4.59786962890625,-0.9809722900390625,0.0286407470703125,-0.004364013671875
1690839717774909400,4.607909423828125,-0.9803619384765625,0.0284576416015625,-0.0040435791015625
1690839717784950500,4.617950439453125,-0.98089599609375,0.0289764404296875,-0.0041046142578125
1690839717794958800,4.627958740234375,-0.980560302734375,0.029296875,-0.0038909912109375
1690839717804999000,4.6379990234375,-0.9813690185546875,0.0296478271484375,-0.003662109375
1690839717815070000,4.648070068359375,-0.9813232421875,0.029327392578125,-0.00360107421875
1690839717825110000,4.658110107421875,-0.9813079833984375,0.0289459228515625,-0.0033111572265625
1690839717835150800,4.66815087890625,-0.9820098876953125,0.028900146484375,-0.003448486328125
1690839717845190700,4.678190673828125,-0.9812774658203125,0.0290679931640625,-0.0039825439453125
1690839717855230700,4.688230712890625,-0.98065185546875,0.028839111328125,-0.004486083984375
1690839717865270800,4.698270751953125,-0.980865478515625,0.0289154052734375,-0.0041961669921875
1690839717875311900,4.708311767578125,-0.98101806640625,0.02886962890625,-0.0042572021484375
1690839717885352000,4.71835205078125,-0.981201171875,0.0284423828125,-0.0042877197265625
1690839717895392000,4.72839208984375,-0.981109619140625,0.0284423828125,-0.0036773681640625
1690839717905431800,4.738431884765625,-0.9801483154296875,0.027740478515625,-0.00408935546875
1690839717915472600,4.74847265625,-0.9809722900390625,0.0291290283203125,-0.00408935546875
1690839717925512700,4.7585126953125,-0.9807891845703125,0.0290069580078125,-0.0030670166015625
1690839717935552800,4.768552734375,-0.9815521240234375,0.0288848876953125,-0.003204345703125
1690839717945593900,4.77859375,-0.9824371337890625,0.029632568359375,-0.004119873046875
1690839717955634000,4.788634033203125,-0.98150634765625,0.0284881591796875,-0.0039825439453125
1690839717965705000,4.798705078125,-0.981536865234375,0.0287017822265625,-0.004486083984375
1690839717975745000,4.8087451171875,-0.9813079833984375,0.028472900390625,-0.00421142578125
1690839717985784800,4.818784912109375,-0.9813690185546875,0.0277557373046875,-0.0040435791015625
1690839717995825700,4.82882568359375,-0.981048583984375,0.0282440185546875,-0.0037689208984375
1690839718005865700,4.83886572265625,-0.981536865234375,0.0287628173828125,-0.00347900390625
1690839718015905800,4.84890576171875,-0.9810028076171875,0.029296875,-0.0038909912109375
1690839718025945900,4.85894580078125,-0.98004150390625,0.0296173095703125,-0.0040130615234375
1690839718035987000,4.868987060546875,-0.98040771484375,0.029296875,-0.003173828125
1690839718046027000,4.879027099609375,-0.981292724609375,0.0286102294921875,-0.0034332275390625
1690839718056066800,4.88906689453125,-0.9810333251953125,0.028350830078125,-0.003692626953125
1690839718066107600,4.899107666015625,-0.9804840087890625,0.028656005859375,-0.0037994384765625
1690839718076147700,4.909147705078125,-0.98187255859375,0.0290069580078125,-0.0041351318359375
1690839718086187800,4.919187744140625,-0.981719970703125,0.02923583984375,-0.004974365234375
1690839718096227800,4.929227783203125,-0.9812774658203125,0.0289459228515625,-0.00439453125
1690839718106299000,4.939298828125,-0.981536865234375,0.0289154052734375,-0.0039215087890625
1690839718116338700,4.949338623046875,-0.9812469482421875,0.0286865234375,-0.004058837890625
1690839718126380000,4.959380126953125,-0.9802703857421875,0.0280609130859375,-0.003387451171875
1690839718136419800,4.969419921875,-0.980377197265625,0.028289794921875,-0.003997802734375
1690839718146460000,4.9794599609375,-0.9810943603515625,0.0289764404296875,-0.0037689208984375
1690839718156500700,4.989500732421875,-0.982330322265625,0.0291748046875,-0.0042724609375
1690839718166540800,4.999540771484375,-0.98175048828125,0.0286712646484375,-0.0047149658203125
1690839718176580900,5.009580810546875,-0.980987548828125,0.0284423828125,-0.003265380859375
1690839718186621000,5.019620849609375,-0.980987548828125,0.0295257568359375,-0.0043792724609375
1690839718196662000,5.029662109375,-0.9817352294921875,0.028900146484375,-0.0038299560546875
1690839718206701800,5.039701904296875,-0.98150634765625,0.0280914306640625,-0.003692626953125
1690839718216742000,5.049741943359375,-0.9806060791015625,0.0289764404296875,-0.0044097900390625
1690839718226782700,5.05978271484375,-0.981048583984375,0.0293121337890625,-0.0045166015625
1690839718236822800,5.06982275390625,-0.980804443359375,0.0289459228515625,-0.0045318603515625
1690839718246862800,5.07986279296875,-0.9801788330078125,0.028533935546875,-0.0042572021484375
1690839718256934000,5.089933837890625,-0.980621337890625,0.0274658203125,-0.0044403076171875
1690839718266973700,5.0999736328125,-0.9814910888671875,0.028564453125,-0.0034637451171875
1690839718277014800,5.110014892578125,-0.9813232421875,0.0293731689453125,-0.003143310546875
1690839718287054800,5.120054931640625,-0.981842041015625,0.0289459228515625,-0.0032958984375
1690839718297095000,5.130094970703125,-0.9813232421875,0.0284881591796875,-0.00384521484375
1690839718307135000,5.140135009765625,-0.980682373046875,0.0290069580078125,-0.004119873046875
1690839718317175800,5.15017578125,-0.98089599609375,0.0287628173828125,-0.003997802734375
1690839718327215900,5.1602158203125,-0.9810333251953125,0.02789306640625,-0.0043487548828125
1690839718337256000,5.170255859375,-0.9813995361328125,0.02838134765625,-0.004364013671875
1690839718347297000,5.180297119140625,-0.981719970703125,0.0283966064453125,-0.0033416748046875
1690839718357336800,5.1903369140625,-0.9812774658203125,0.0283050537109375,-0.003387451171875
1690839718367377000,5.200376953125,-0.981353759765625,0.028717041015625,-0.0037384033203125
1690839718377417000,5.2104169921875,-0.98126220703125,0.029052734375,-0.00433349609375
1690839718387457800,5.220457763671875,-0.98150634765625,0.029754638671875,-0.00396728515625
1690839718397497900,5.230497802734375,-0.9813995361328125,0.029541015625,-0.0041656494140625
1690839718407569000,5.24056884765625,-0.981048583984375,0.0286865234375,-0.00341796875
1690839718417608700,5.250608642578125,-0.9809417724609375,0.028289794921875,-0.00445556640625
1690839718427648800,5.260648681640625,-0.9822540283203125,0.02911376953125,-0.0045318603515625
1690839718437689900,5.27068994140625,-0.9819488525390625,0.0285186767578125,-0.004180908203125
1690839718447730000,5.28072998046875,-0.9809417724609375,0.02862548828125,-0.003936767578125
1690839718457770000,5.29077001953125,-0.9812774658203125,0.0289459228515625,-0.0042266845703125
1690839718467809800,5.300809814453125,-0.981658935546875,0.0285186767578125,-0.004241943359375
1690839718477851000,5.310850830078125,-0.98175048828125,0.028594970703125,-0.003631591796875
1690839718487891000,5.320890869140625,-0.980621337890625,0.0286102294921875,-0.004119873046875
1690839718497930800,5.3309306640625,-0.9806365966796875,0.0283660888671875,-0.0047149658203125
1690839718507971800,5.340971923828125,-0.981201171875,0.028045654296875,-0.003875732421875
1690839718518012000,5.351011962890625,-0.9811248779296875,0.028289794921875,-0.0032501220703125
1690839718528052000,5.361052001953125,-0.981536865234375,0.0288543701171875,-0.0043487548828125
1690839718538091800,5.371091796875,-0.981353759765625,0.0286865234375,-0.003692626953125
1690839718548132900,5.3811328125,-0.9807586669921875,0.0290069580078125,-0.0043792724609375
1690839718558202600,5.39120263671875,-0.98095703125,0.0283660888671875,-0.00311279296875
1690839718568243700,5.40124365234375,-0.9808349609375,0.02825927734375,-0.003204345703125
1690839718578283800,5.41128369140625,-0.9808502197265625,0.029388427734375,-0.0040435791015625
1690839718588323800,5.42132373046875,-0.9802703857421875,0.028656005859375,-0.0047454833984375
1690839718598365000,5.431364990234375,-0.9819488525390625,0.0284881591796875,-0.0046539306640625
1690839718608405000,5.441405029296875,-0.981536865234375,0.029022216796875,-0.004425048828125
1690839718618444800,5.45144482421875,-0.980194091796875,0.0287322998046875,-0.0037078857421875
1690839718628484900,5.46148486328125,-0.9801483154296875,0.0298004150390625,-0.0033111572265625
1690839718638526000,5.47152587890625,-0.9808349609375,0.0293426513671875,-0.0033721923828125
1690839718648565800,5.481565673828125,-0.980987548828125,0.028656005859375,-0.00347900390625
1690839718658605800,5.491605712890625,-0.9818115234375,0.029296875,-0.00390625
1690839718668647000,5.50164697265625,-0.9813079833984375,0.0286712646484375,-0.0037078857421875
1690839718678687000,5.51168701171875,-0.9817657470703125,0.0292816162109375,-0.0037841796875
1690839718688726800,5.521726806640625,-0.981597900390625,0.0287017822265625,-0.0035552978515625
1690839718698766800,5.531766845703125,-0.981475830078125,0.0288848876953125,-0.0032806396484375
1690839718708837600,5.541837646484375,-0.980682373046875,0.0281982421875,-0.0036773681640625
1690839718718878700,5.551878662109375,-0.981597900390625,0.0287322998046875,-0.0045318603515625
1690839718728918800,5.561918701171875,-0.981292724609375,0.0282135009765625,-0.0038909912109375
1690839718738958800,5.571958740234375,-0.981903076171875,0.028900146484375,-0.0040740966796875
1690839718748999000,5.5819990234375,-0.9811553955078125,0.0286865234375,-0.0044403076171875
1690839718759040000,5.5920400390625,-0.9812774658203125,0.029205322265625,-0.0039520263671875
1690839718769079800,5.602079833984375,-0.9804534912109375,0.0281982421875,-0.0034942626953125
1690839718779119600,5.61211962890625,-0.9817352294921875,0.0290374755859375,-0.0035400390625
1690839718789161000,5.622160888671875,-0.981903076171875,0.0290985107421875,-0.003631591796875
1690839718799221500,5.632221435546875,-0.980255126953125,0.028900146484375,-0.004241943359375
1690839718809261600,5.642261474609375,-0.981201171875,0.029022216796875,-0.0045013427734375
1690839718819301600,5.652301513671875,-0.9815521240234375,0.028594970703125,-0.0043792724609375
1690839718829342700,5.6623427734375,-0.981903076171875,0.029022216796875,-0.0035858154296875
1690839718839382500,5.672382568359375,-0.9819488525390625,0.0289764404296875,-0.0030670166015625
1690839718849422300,5.68242236328125,-0.982421875,0.0289306640625,-0.0040740966796875
1690839718859493400,5.692493408203125,-0.9812774658203125,0.028656005859375,-0.0054168701171875
1690839718869533400,5.702533447265625,-0.9814910888671875,0.0289306640625,-0.0038299560546875
1690839718879574500,5.712574462890625,-0.9815521240234375,0.0297088623046875,-0.003509521484375
1690839718889614600,5.722614501953125,-0.982025146484375,0.0297698974609375,-0.0035400390625
1690839718899654700,5.732654541015625,-0.9813385009765625,0.029327392578125,-0.003875732421875
1690839718909694700,5.74269482421875,-0.9808197021484375,0.028076171875,-0.00335693359375
1690839718919735600,5.752735595703125,-0.9803924560546875,0.0286407470703125,-0.003631591796875
1690839718929775400,5.762775390625,-0.9812469482421875,0.0290985107421875,-0.00445556640625
1690839718939815400,5.7728154296875,-0.9814453125,0.0280609130859375,-0.0040740966796875
1690839718949856500,5.7828564453125,-0.9810943603515625,0.028594970703125,-0.0031280517578125
1690839718959896600,5.792896484375,-0.9803314208984375,0.029327392578125,-0.0045928955078125
1690839718969936600,5.8029365234375,-0.981231689453125,0.028411865234375,-0.004669189453125
1690839718979976700,5.812976806640625,-0.98150634765625,0.02850341796875,-0.0034637451171875
1690839718990017500,5.823017578125,-0.9810943603515625,0.0281829833984375,-0.0035552978515625
1690839719000057300,5.833057373046875,-0.9815521240234375,0.0286865234375,-0.004425048828125
1690839719010128400,5.84312841796875,-0.9814910888671875,0.029296875,-0.0043182373046875
1690839719020168400,5.85316845703125,-0.9815216064453125,0.0290679931640625,-0.0036773681640625
1690839719030208500,5.86320849609375,-0.981658935546875,0.0286407470703125,-0.004180908203125
1690839719040249600,5.87324951171875,-0.9818115234375,0.0286102294921875,-0.0037384033203125
1690839719050289700,5.88328955078125,-0.98052978515625,0.02874755859375,-0.0035858154296875
1690839719060329700,5.893329833984375,-0.9811859130859375,0.028106689453125,-0.00347900390625
1690839719070369500,5.90336962890625,-0.9810943603515625,0.028839111328125,-0.00384521484375
1690839719080410400,5.913410400390625,-0.98150634765625,0.0290679931640625,-0.0034332275390625
1690839719090450400,5.923450439453125,-0.98248291015625,0.028411865234375,-0.0034637451171875
1690839719100490500,5.933490478515625,-0.981353759765625,0.028228759765625,-0.003143310546875
1690839719110531600,5.943531494140625,-0.9807281494140625,0.028533935546875,-0.0038909912109375
1690839719120571600,5.953571533203125,-0.981536865234375,0.0286712646484375,-0.0033416748046875
1690839719130611700,5.96361181640625,-0.981475830078125,0.0286102294921875,-0.0039520263671875
1690839719140651500,5.973651611328125,-0.9816131591796875,0.0296783447265625,-0.003875732421875
1690839719150722600,5.98372265625,-0.981597900390625,0.0284576416015625,-0.0042266845703125
1690839719160763400,5.993763427734375,-0.98114013671875,0.02838134765625,-0.0043182373046875
1690839719170803500,6.003803466796875,-0.981292724609375,0.0286712646484375,-0.0044403076171875
1690839719180843500,6.013843505859375,-0.9817047119140625,0.028961181640625,-0.00390625
1690839719190883600,6.023883544921875,-0.98138427734375,0.0287933349609375,-0.0041656494140625
1690839719200924700,6.033924560546875,-0.981231689453125,0.028533935546875,-0.00360107421875
1690839719210964500,6.043964599609375,-0.982086181640625,0.0289764404296875,-0.0031585693359375
1690839719221004500,6.054004638671875,-0.98077392578125,0.0289306640625,-0.0036468505859375
1690839719231045400,6.06404541015625,-0.9808197021484375,0.0288848876953125,-0.00372314453125
1690839719241085400,6.07408544921875,-0.9813385009765625,0.0295562744140625,-0.003326416015625
1690839719251125500,6.08412548828125,-0.9807281494140625,0.0290069580078125,-0.0037384033203125
1690839719261165600,6.09416552734375,-0.9805755615234375,0.0282440185546875,-0.0039825439453125
1690839719271206700,6.10420654296875,-0.9814300537109375,0.0282135009765625,-0.0046539306640625
1690839719281246700,6.114246826171875,-0.9823760986328125,0.028533935546875,-0.004486083984375
1690839719291286500,6.12428662109375,-0.98193359375,0.028961181640625,-0.00384521484375
1690839719301357600,6.134357666015625,-0.98095703125,0.0294952392578125,-0.0039215087890625
1690839719311397600,6.144397705078125,-0.980743408203125,0.0288848876953125,-0.004119873046875
1690839719321438500,6.1544384765625,-0.9812469482421875,0.0284271240234375,-0.0036773681640625
1690839719331478500,6.164478515625,-0.981414794921875,0.0286865234375,-0.003509521484375
1690839719341518600,6.1745185546875,-0.9815673828125,0.0283660888671875,-0.00372314453125
1690839719351558400,6.184558349609375,-0.981414794921875,0.0289154052734375,-0.004119873046875
1690839719361599500,6.194599609375,-0.98223876953125,0.0286102294921875,-0.004058837890625
1690839719371639600,6.2046396484375,-0.98187255859375,0.0283660888671875,-0.0044708251953125
1690839719381679600,6.2146796875,-0.9814453125,0.028472900390625,-0.0034637451171875
1690839719391720400,6.224720458984375,-0.9810791015625,0.028656005859375,-0.0038909912109375
1690839719401760500,6.234760498046875,-0.981170654296875,0.0283660888671875,-0.0035400390625
1690839719411800600,6.244800537109375,-0.981475830078125,0.028350830078125,-0.0038909912109375
1690839719421840600,6.254840576171875,-0.981292724609375,0.02801513671875,-0.0028076171875
1690839719431881700,6.2648818359375,-0.981170654296875,0.0291595458984375,-0.00335693359375
1690839719441921500,6.274921630859375,-0.9822540283203125,0.028350830078125,-0.00341796875
1690839719451992600,6.28499267578125,-0.981231689453125,0.028564453125,-0.004180908203125
1690839719462032600,6.29503271484375,-0.9811248779296875,0.0293426513671875,-0.0034332275390625
1690839719472072700,6.30507275390625,-0.980438232421875,0.0292205810546875,-0.0046844482421875
1690839719482113500,6.315113525390625,-0.9801788330078125,0.0293426513671875,-0.0041046142578125
1690839719492153600,6.325153564453125,-0.98089599609375,0.0287933349609375,-0.0045623779296875
1690839719502193400,6.335193359375,-0.981597900390625,0.028564453125,-0.0046539306640625
1690839719512233500,6.3452333984375,-0.98065185546875,0.02935791015625,-0.0046844482421875
1690839719522274600,6.355274658203125,-0.98089599609375,0.0290069580078125,-0.00494384765625
1690839719532314600,6.365314697265625,-0.980712890625,0.0289764404296875,-0.003173828125
1690839719542354700,6.375354736328125,-0.9805908203125,0.0289459228515625,-0.0039520263671875
1690839719552395500,6.3853955078125,-0.980621337890625,0.029144287109375,-0.003570556640625
1690839719562435600,6.395435546875,-0.981719970703125,0.028533935546875,-0.003448486328125
1690839719572475600,6.4054755859375,-0.980865478515625,0.0291900634765625,-0.0037384033203125
1690839719582515500,6.415515380859375,-0.98126220703125,0.0286102294921875,-0.0037841796875
1690839719592556500,6.425556640625,-0.9807586669921875,0.02862548828125,-0.004302978515625
1690839719602627600,6.435627685546875,-0.9810638427734375,0.0286865234375,-0.0045166015625
1690839719612667600,6.445667724609375,-0.98126220703125,0.028533935546875,-0.00396728515625
1690839719622707700,6.455707763671875,-0.9814910888671875,0.028289794921875,-0.0037078857421875
1690839719632747800,6.465747802734375,-0.9814910888671875,0.0285797119140625,-0.003753662109375
1690839719642788600,6.47578857421875,-0.9815826416015625,0.028961181640625,-0.0030517578125
1690839719652828400,6.485828369140625,-0.980743408203125,0.0280303955078125,-0.0037841796875
1690839719662868500,6.495868408203125,-0.98114013671875,0.028564453125,-0.0037384033203125
1690839719672909600,6.50590966796875,-0.9816436767578125,0.0284881591796875,-0.0033416748046875
1690839719682949600,6.51594970703125,-0.981414794921875,0.0284423828125,-0.0039825439453125
1690839719692989700,6.52598974609375,-0.9815673828125,0.0289306640625,-0.003753662109375
1690839719703029800,6.53602978515625,-0.9822540283203125,0.0289459228515625,-0.004852294921875
1690839719713070600,6.546070556640625,-0.98077392578125,0.028778076171875,-0.00482177734375
1690839719723110700,6.556110595703125,-0.9808502197265625,0.0283660888671875,-0.0046539306640625
1690839719733150500,6.566150390625,-0.981353759765625,0.0287322998046875,-0.003814697265625
1690839719743191600,6.576191650390625,-0.98101806640625,0.0289306640625,-0.003326416015625
1690839719753261600,6.586261474609375,-0.9814605712890625,0.028839111328125,-0.00360107421875
1690839719763302700,6.596302734375,-0.9807281494140625,0.0289459228515625,-0.003753662109375
1690839719773342700,6.6063427734375,-0.9805145263671875,0.02862548828125,-0.003753662109375
1690839719783382500,6.616382568359375,-0.980438232421875,0.0281829833984375,-0.0041046142578125
1690839719793422300,6.62642236328125,-0.9811859130859375,0.0279083251953125,-0.0048980712890625
1690839719803445200,6.6364453125,-0.9815521240234375,0.0284271240234375,-0.00433349609375
1690839719813485300,6.6464853515625,-0.9810638427734375,0.0294036865234375,-0.0043487548828125
1690839719823525400,6.656525390625,-0.9796295166015625,0.0290374755859375,-0.0039825439453125
1690839719833566500,6.66656640625,-0.9808197021484375,0.0288848876953125,-0.004302978515625
1690839719843606300,6.676606201171875,-0.9804840087890625,0.029144287109375,-0.0041656494140625
1690839719853646300,6.686646240234375,-0.980438232421875,0.02899169921875,-0.00445556640625
1690839719863686400,6.696686279296875,-0.9809722900390625,0.0287628173828125,-0.003326416015625
1690839719873727200,6.706727294921875,-0.9816131591796875,0.028289794921875,-0.003753662109375
1690839719883767300,6.716767333984375,-0.9814453125,0.0284576416015625,-0.003997802734375
1690839719893807400,6.726807373046875,-0.9814910888671875,0.029327392578125,-0.003936767578125
1690839719903878400,6.73687841796875,-0.98077392578125,0.0294342041015625,-0.0037384033203125
1690839719913918200,6.746918212890625,-0.9805908203125,0.0290679931640625,-0.0036163330078125
1690839719923959300,6.756959228515625,-0.981781005859375,0.02972412109375,-0.0043182373046875
1690839719933999400,6.766999267578125,-0.9809112548828125,0.02880859375,-0.003936767578125
1690839719944039400,6.777039306640625,-0.9817047119140625,0.02789306640625,-0.003814697265625
1690839719954080300,6.787080322265625,-0.98199462890625,0.028350830078125,-0.003875732421875
1690839719964120300,6.797120361328125,-0.9822998046875,0.02880859375,-0.0026702880859375
1690839719974160400,6.807160400390625,-0.9816436767578125,0.028778076171875,-0.0035552978515625
1690839719984200200,6.8172001953125,-0.9807281494140625,0.0289459228515625,-0.0035400390625
1690839719994241300,6.8272412109375,-0.98089599609375,0.029327392578125,-0.00408935546875
1690839720004281300,6.83728125,-0.98040771484375,0.0289306640625,-0.00421142578125
1690839720014321400,6.8473212890625,-0.980377197265625,0.0288238525390625,-0.0042572021484375
1690839720024361500,6.857361572265625,-0.981109619140625,0.0285186767578125,-0.00433349609375
1690839720034402300,6.86740234375,-0.9810333251953125,0.0286712646484375,-0.0045318603515625
1690839720044442400,6.8774423828125,-0.98101806640625,0.0285186767578125,-0.0041961669921875
1690839720054513400,6.887513427734375,-0.981292724609375,0.02911376953125,-0.003814697265625
1690839720064553200,6.89755322265625,-0.9817657470703125,0.0292205810546875,-0.0031585693359375
1690839720074593300,6.90759326171875,-0.980987548828125,0.0288848876953125,-0.0035858154296875
1690839720084634400,6.91763427734375,-0.981109619140625,0.0291748046875,-0.0040435791015625
1690839720094674400,6.92767431640625,-0.9808349609375,0.02899169921875,-0.004150390625
1690839720104714500,6.937714599609375,-0.9814300537109375,0.0286712646484375,-0.003173828125
1690839720114755300,6.94775537109375,-0.9806365966796875,0.028533935546875,-0.003936767578125
1690839720124795400,6.95779541015625,-0.9805755615234375,0.0289154052734375,-0.0037078857421875
1690839720134835200,6.967835205078125,-0.980743408203125,0.0284576416015625,-0.004608154296875
1690839720144875300,6.977875244140625,-0.9808349609375,0.0284576416015625,-0.0048065185546875
1690839720154916400,6.987916259765625,-0.980926513671875,0.02886962890625,-0.0043182373046875
1690839720164956400,6.997956298828125,-0.9816131591796875,0.0289764404296875,-0.003509521484375
1690839720174996500,7.00799658203125,-0.9814910888671875,0.028961181640625,-0.003509521484375
1690839720185037300,7.018037353515625,-0.9808502197265625,0.0282135009765625,-0.0035247802734375
1690839720195077400,7.028077392578125,-0.9807586669921875,0.029541015625,-0.004486083984375
1690839720205148400,7.0381484375,-0.980499267578125,0.0291748046875,-0.0049896240234375
1690839720215188200,7.048188232421875,-0.9808349609375,0.0291290283203125,-0.004425048828125
1690839720225228300,7.058228271484375,-0.9807891845703125,0.0288848876953125,-0.00439453125
1690839720235268400,7.068268310546875,-0.98046875,0.028778076171875,-0.0037078857421875
1690839720245309400,7.078309326171875,-0.9806671142578125,0.0286407470703125,-0.0036163330078125
1690839720255349500,7.088349609375,-0.980926513671875,0.0284423828125,-0.0050811767578125
1690839720265389600,7.0983896484375,-0.981689453125,0.02862548828125,-0.00384521484375
1690839720275430400,7.108430419921875,-0.9815216064453125,0.0286712646484375,-0.0029296875
1690839720285470200,7.11847021484375,-0.9810028076171875,0.0295257568359375,-0.0038299560546875
1690839720295510300,7.12851025390625,-0.9812774658203125,0.029266357421875,-0.0035858154296875
1690839720305550300,7.13855029296875,-0.982086181640625,0.02789306640625,-0.0037384033203125
1690839720315591400,7.14859130859375,-0.9813079833984375,0.0284576416015625,-0.0032196044921875
1690839720325631500,7.158631591796875,-0.98065185546875,0.02899169921875,-0.003753662109375
1690839720335671600,7.168671630859375,-0.98175048828125,0.0289154052734375,-0.00372314453125
1690839720345742600,7.17874267578125,-0.98138427734375,0.0284576416015625,-0.0040740966796875
1690839720355782100,7.1887822265625,-0.9813690185546875,0.028564453125,-0.0043792724609375
1690839720365823200,7.1988232421875,-0.9815673828125,0.0286865234375,-0.0039215087890625
1690839720375863300,7.20886328125,-0.981536865234375,0.0291290283203125,-0.0045623779296875
1690839720385903400,7.2189033203125,-0.9810638427734375,0.0296173095703125,-0.0050811767578125
1690839720395944400,7.2289443359375,-0.9809417724609375,0.0280303955078125,-0.0037689208984375
1690839720405984500,7.238984619140625,-0.981658935546875,0.028167724609375,-0.00408935546875
1690839720416024300,7.2490244140625,-0.9817352294921875,0.0287322998046875,-0.003692626953125
1690839720426064100,7.259064208984375,-0.980621337890625,0.0287017822265625,-0.003570556640625
1690839720436105200,7.269105224609375,-0.980224609375,0.0292510986328125,-0.0039520263671875
1690839720446145300,7.279145263671875,-0.980926513671875,0.0295562744140625,-0.00360107421875
1690839720456185300,7.289185302734375,-0.982147216796875,0.0291595458984375,-0.003631591796875
1690839720466226400,7.299226318359375,-0.9814300537109375,0.0291748046875,-0.0039215087890625
1690839720476266500,7.3092666015625,-0.9811553955078125,0.029754638671875,-0.0037078857421875
1690839720486306300,7.319306396484375,-0.9807586669921875,0.0284271240234375,-0.003692626953125
1690839720496377300,7.32937744140625,-0.9810333251953125,0.0284881591796875,-0.0039520263671875
1690839720506417200,7.339417236328125,-0.9812774658203125,0.028289794921875,-0.003631591796875
1690839720516457200,7.349457275390625,-0.9812469482421875,0.028961181640625,-0.003662109375
1690839720526498300,7.359498291015625,-0.9814300537109375,0.029266357421875,-0.0041046142578125
1690839720536538400,7.369538330078125,-0.9810333251953125,0.02899169921875,-0.0034942626953125
1690839720546578400,7.379578369140625,-0.9808502197265625,0.0287628173828125,-0.0040283203125
1690839720556619500,7.38961962890625,-0.980743408203125,0.028594970703125,-0.0030975341796875
1690839720566659300,7.399659423828125,-0.98065185546875,0.029296875,-0.00421142578125
1690839720576699100,7.40969921875,-0.981170654296875,0.028900146484375,-0.0043487548828125
1690839720586739200,7.4197392578125,-0.9813385009765625,0.0290985107421875,-0.004669189453125
1690839720596780300,7.4297802734375,-0.981781005859375,0.0293731689453125,-0.0045623779296875
1690839720606820400,7.4398203125,-0.98101806640625,0.029388427734375,-0.0040130615234375
1690839720616860400,7.4498603515625,-0.9813232421875,0.02911376953125,-0.004486083984375
1690839720626901500,7.459901611328125,-0.9819488525390625,0.0292510986328125,-0.003265380859375
1690839720636941300,7.46994140625,-0.9805908203125,0.0288543701171875,-0.003387451171875
1690839720647012400,7.480012451171875,-0.981536865234375,0.029022216796875,-0.00390625
1690839720657052200,7.49005224609375,-0.9819793701171875,0.0294036865234375,-0.003509521484375
1690839720667092200,7.50009228515625,-0.9809722900390625,0.028839111328125,-0.003265380859375
1690839720677132300,7.51013232421875,-0.9808807373046875,0.0284423828125,-0.0041351318359375
1690839720687173400,7.52017333984375,-0.98126220703125,0.0290985107421875,-0.0044403076171875
1690839720697213400,7.53021337890625,-0.9812469482421875,0.029144287109375,-0.0036163330078125
1690839720707253500,7.54025341796875,-0.981658935546875,0.0284576416015625,-0.00390625
1690839720717294300,7.55029443359375,-0.98089599609375,0.0284881591796875,-0.004058837890625
1690839720727334100,7.560334228515625,-0.9813995361328125,0.0281219482421875,-0.004241943359375
1690839720737374200,7.570374267578125,-0.98095703125,0.02880859375,-0.0046234130859375
1690839720747414300,7.580414306640625,-0.9813232421875,0.0287017822265625,-0.0045013427734375
1690839720757455400,7.590455322265625,-0.9808502197265625,0.02862548828125,-0.0032501220703125
1690839720767495400,7.600495361328125,-0.98028564453125,0.0281524658203125,-0.00347900390625
1690839720777535500,7.610535400390625,-0.9810028076171875,0.0294189453125,-0.0041351318359375
1690839720787576300,7.620576416015625,-0.9805450439453125,0.02874755859375,-0.004241943359375
1690839720797635800,7.6306357421875,-0.982086181640625,0.0287017822265625,-0.0034637451171875
1690839720807676700,7.6406767578125,-0.9811859130859375,0.02880859375,-0.003570556640625
1690839720817716700,7.650716796875,-0.9814605712890625,0.028472900390625,-0.0042572021484375
1690839720827756800,7.6607568359375,-0.9813690185546875,0.0288238525390625,-0.0041351318359375
1690839720837798000,7.6707978515625,-0.980316162109375,0.0290374755859375,-0.0044708251953125
1690839720847838000,7.680837890625,-0.9807891845703125,0.028656005859375,-0.004638671875
1690839720857877800,7.690877685546875,-0.981048583984375,0.0278167724609375,-0.0041046142578125
1690839720867917800,7.700917724609375,-0.9815826416015625,0.0284423828125,-0.004852294921875
1690839720877958700,7.710958740234375,-0.9806060791015625,0.02911376953125,-0.0035247802734375
1690839720887998700,7.720998779296875,-0.9803314208984375,0.0295257568359375,-0.0034942626953125
1690839720898038800,7.731038818359375,-0.9811859130859375,0.0293121337890625,-0.004150390625
1690839720908079900,7.741079833984375,-0.981109619140625,0.0285797119140625,-0.0035858154296875
1690839720918120000,7.751119873046875,-0.9814453125,0.0287322998046875,-0.0030059814453125
1690839720928159700,7.76115966796875,-0.9809722900390625,0.028564453125,-0.00390625
1690839720938199800,7.77119970703125,-0.9797210693359375,0.0289306640625,-0.004364013671875
1690839720948270800,7.781270751953125,-0.982177734375,0.028839111328125,-0.003936767578125
1690839720958311000,7.791310791015625,-0.9816436767578125,0.0281524658203125,-0.0037689208984375
1690839720968351700,7.801351806640625,-0.9808502197265625,0.0288848876953125,-0.004058837890625
1690839720978391800,7.811391845703125,-0.98101806640625,0.02838134765625,-0.0042877197265625
1690839720988431600,7.821431640625,-0.978851318359375,0.0045623779296875,-0.013641357421875
1690839720998472700,7.83147265625,-1.0057830810546875,0.067657470703125,-0.021820068359375
1690839721008512800,7.8415126953125,-0.960205078125,0.03240966796875,0.0305938720703125
1690839721018552800,7.851552734375,-0.987945556640625,0.03411865234375,0.011199951171875
1690839721028593000,7.861593017578125,-0.984100341796875,0.03466796875,0.00146484375
1690839721038633700,7.8716337890625,-0.9768829345703125,0.02288818359375,-0.0128173828125
1690839721048673800,7.881673828125,-0.9833526611328125,0.023529052734375,-0.014862060546875
1690839721058713900,7.8917138671875,-0.9762420654296875,0.02227783203125,-0.0146484375
1690839721068755000,7.9017548828125,-0.9852752685546875,0.0216064453125,-0.013946533203125
1690839721078794800,7.911794677734375,-0.980682373046875,0.022186279296875,-0.008392333984375
1690839721088834800,7.921834716796875,-0.9847412109375,0.023406982421875,-0.0024871826171875
1690839721098905900,7.93190576171875,-0.9840240478515625,0.0240020751953125,0.00299072265625
1690839721108946000,7.94194580078125,-0.9875946044921875,0.0261077880859375,0.0061492919921875
1690839721118986000,7.951986083984375,-0.984649658203125,0.02752685546875,0.006683349609375
1690839721129026800,7.96202685546875,-0.9816741943359375,0.028717041015625,0.0041351318359375
1690839721139066600,7.972066650390625,-0.9871368408203125,0.02935791015625,-0.00048828125
1690839721149106700,7.982106689453125,-0.9756317138671875,0.029876708984375,-0.004730224609375
1690839721159147800,7.992147705078125,-0.9812164306640625,0.0310516357421875,-0.00836181640625
1690839721169187800,8.002187744140626,-0.977081298828125,0.0312042236328125,-0.0103759765625
1690839721179228000,8.012227783203125,-0.9759063720703125,0.0312347412109375,-0.0101470947265625
1690839721189268000,8.02226806640625,-0.978759765625,0.03216552734375,-0.008514404296875
1690839721199308800,8.032308837890625,-0.9770660400390625,0.0325469970703125,-0.00714111328125
1690839721209348900,8.042348876953126,-0.9805908203125,0.032684326171875,-0.0040283203125
1690839721219388700,8.052388671875,-0.98028564453125,0.0321197509765625,-0.0006561279296875
1690839721229429800,8.0624296875,-0.98236083984375,0.030609130859375,0.0012054443359375
1690839721239469800,8.0724697265625,-0.9830780029296875,0.0300445556640625,0.001434326171875
1690839721249540900,8.082540771484375,-0.9830474853515625,0.0283355712890625,-0.000244140625
1690839721259581000,8.092580810546876,-0.979522705078125,0.0278167724609375,-0.001678466796875
1690839721269621000,8.10262109375,-0.984649658203125,0.02691650390625,-0.00360107421875
1690839721279661800,8.112661865234376,-0.981475830078125,0.024688720703125,-0.00616455078125
1690839721289701600,8.12270166015625,-0.9792327880859375,0.024871826171875,-0.0074920654296875
1690839721299741700,8.13274169921875,-0.9831695556640625,0.0247344970703125,-0.007598876953125
1690839721309781800,8.14278173828125,-0.981201171875,0.0249481201171875,-0.006378173828125
1690839721319822800,8.15282275390625,-0.9834747314453125,0.0254364013671875,-0.0045623779296875
1690839721329863000,8.16286279296875,-0.9816131591796875,0.0251922607421875,-0.0030059814453125
1690839721339903000,8.172903076171876,-0.9822998046875,0.0268707275390625,-0.0007781982421875
1690839721349943800,8.18294384765625,-0.9829254150390625,0.0281524658203125,0.0001678466796875
1690839721359983900,8.19298388671875,-0.9806365966796875,0.0281829833984375,-0.0003662109375
1690839721370023700,8.203023681640625,-0.9821319580078125,0.0286865234375,-0.0016937255859375
1690839721380063700,8.213063720703126,-0.9812469482421875,0.0295867919921875,-0.0032501220703125
1690839721390104800,8.223104736328125,-0.9805450439453125,0.030517578125,-0.00384521484375
1690839721400174800,8.2331748046875,-0.98040771484375,0.03131103515625,-0.0053558349609375
1690839721410216000,8.2432158203125,-0.9797210693359375,0.030853271484375,-0.0055999755859375
1690839721420256000,8.253256103515625,-0.97802734375,0.0307159423828125,-0.0052490234375
1690839721430295800,8.2632958984375,-0.980194091796875,0.031280517578125,-0.0049591064453125
1690839721440336600,8.273336669921875,-0.979644775390625,0.03076171875,-0.00390625
1690839721450376700,8.283376708984376,-0.9815826416015625,0.03033447265625,-0.0030517578125
1690839721460416800,8.293416748046875,-0.9812774658203125,0.0288543701171875,-0.0027313232421875
1690839721470456800,8.303456787109376,-0.98193359375,0.0282440185546875,-0.0020599365234375
1690839721480498000,8.313497802734375,-0.98333740234375,0.027679443359375,-0.0020751953125
1690839721490538000,8.3235380859375,-0.981689453125,0.027374267578125,-0.0019378662109375
1690839721500577800,8.333577880859375,-0.982208251953125,0.02764892578125,-0.0027618408203125
1690839721510619000,8.343618896484376,-0.982452392578125,0.02691650390625,-0.0043487548828125
1690839721520658700,8.35365869140625,-0.9811248779296875,0.025848388671875,-0.0048675537109375
1690839721530698800,8.36369873046875,-0.9816131591796875,0.0264129638671875,-0.0049896240234375
1690839721540769800,8.373769775390626,-0.982421875,0.026214599609375,-0.0043182373046875
1690839721550809900,8.383809814453125,-0.9806060791015625,0.0271453857421875,-0.0045013427734375
1690839721560851000,8.393850830078126,-0.9817352294921875,0.0275115966796875,-0.0040130615234375
1690839721570891000,8.40389111328125,-0.9813385009765625,0.027618408203125,-0.00384521484375
1690839721580930800,8.413930908203126,-0.9818115234375,0.0286712646484375,-0.003814697265625
1690839721590971000,8.423970947265625,-0.98077392578125,0.02838134765625,-0.003082275390625
1690839721601011700,8.43401171875,-0.9813995361328125,0.029022216796875,-0.0030364990234375
1690839721611051800,8.4440517578125,-0.982086181640625,0.029693603515625,-0.0033111572265625
1690839721621091800,8.454091796875,-0.9808197021484375,0.0298309326171875,-0.0042572021484375
1690839721631132000,8.4641318359375,-0.9801025390625,0.030181884765625,-0.004425048828125
1690839721641173000,8.474173095703126,-0.9810943603515625,0.030364990234375,-0.003509521484375
1690839721651212800,8.484212890625,-0.9807281494140625,0.0295562744140625,-0.0043792724609375
1690839721661252900,8.4942529296875,-0.9800872802734375,0.02899169921875,-0.00360107421875
1690839721671293700,8.504293701171875,-0.980712890625,0.028350830078125,-0.0037841796875
1690839721681333800,8.514333740234376,-0.9814910888671875,0.0281524658203125,-0.0039825439453125
1690839721691404800,8.52440478515625,-0.98095703125,0.028533935546875,-0.003753662109375
1690839721701444900,8.53444482421875,-0.9811859130859375,0.0282135009765625,-0.0040740966796875
1690839721711485000,8.54448486328125,-0.9818572998046875,0.02789306640625,-0.0038604736328125
1690839721721526000,8.554526123046875,-0.98187255859375,0.027191162109375,-0.003082275390625
1690839721731565800,8.56456591796875,-0.9807891845703125,0.0264434814453125,-0.003173828125
1690839721741605600,8.574605712890625,-0.9818878173828125,0.0275726318359375,-0.0030975341796875
1690839721751645700,8.584645751953126,-0.9822845458984375,0.0272979736328125,-0.0026092529296875
1690839721761686800,8.594686767578125,-0.98114013671875,0.027374267578125,-0.0026397705078125
1690839721771726800,8.604726806640626,-0.982330322265625,0.0274505615234375,-0.003662109375
1690839721781767000,8.614766845703125,-0.9820098876953125,0.0274200439453125,-0.0039520263671875
1690839721791808000,8.62480810546875,-0.980987548828125,0.02789306640625,-0.004302978515625
1690839721801856000,8.63485595703125,-0.98126220703125,0.0288238525390625,-0.004547119140625
1690839721811896000,8.64489599609375,-0.9811859130859375,0.0293426513671875,-0.003570556640625
1690839721821935900,8.654935791015625,-0.9812164306640625,0.02923583984375,-0.0034332275390625
1690839721831977000,8.66497705078125,-0.9803009033203125,0.0294647216796875,-0.0044403076171875
1690839721842047000,8.675046875,-0.9803924560546875,0.0296783447265625,-0.003936767578125
1690839721852088000,8.685088134765625,-0.9805755615234375,0.029266357421875,-0.0036163330078125
1690839721862128000,8.695128173828126,-0.981414794921875,0.02972412109375,-0.0030670166015625
1690839721872168200,8.705168212890625,-0.980255126953125,0.029052734375,-0.0033721923828125
1690839721882209000,8.715208984375,-0.981201171875,0.0280914306640625,-0.003570556640625
1690839721892248800,8.725248779296875,-0.980499267578125,0.0277862548828125,-0.003814697265625
1690839721902289000,8.735288818359376,-0.981475830078125,0.02813720703125,-0.00372314453125
1690839721912329000,8.745328857421875,-0.9819488525390625,0.0284423828125,-0.003387451171875
1690839721922370000,8.7553701171875,-0.9815521240234375,0.02838134765625,-0.0043487548828125
1690839721932410000,8.76541015625,-0.981170654296875,0.0282745361328125,-0.0041046142578125
1690839721942450000,8.775449951171876,-0.9807281494140625,0.02813720703125,-0.0042877197265625
1690839721952491000,8.785490966796875,-0.981903076171875,0.0277557373046875,-0.00341796875
1690839721962531000,8.795531005859376,-0.981353759765625,0.027435302734375,-0.003204345703125
1690839721972571000,8.80557080078125,-0.981231689453125,0.0273590087890625,-0.003753662109375
1690839721982611000,8.81561083984375,-0.982269287109375,0.027496337890625,-0.0032196044921875
1690839721992682000,8.825681884765626,-0.9824371337890625,0.027130126953125,-0.003173828125
1690839722002723000,8.83572314453125,-0.9808349609375,0.02801513671875,-0.002960205078125
1690839722012763100,8.84576318359375,-0.981658935546875,0.0284271240234375,-0.0041351318359375
1690839722022803000,8.855802978515625,-0.981048583984375,0.028411865234375,-0.004119873046875
1690839722032842800,8.8658427734375,-0.9815521240234375,0.0287017822265625,-0.003387451171875
1690839722042883800,8.8758837890625,-0.980499267578125,0.02911376953125,-0.00384521484375
1690839722052924000,8.885923828125,-0.9806365966796875,0.0289459228515625,-0.0038604736328125
1690839722062964000,8.8959638671875,-0.981170654296875,0.0293731689453125,-0.0033111572265625
1690839722073005000,8.906005126953126,-0.9806976318359375,0.0285797119140625,-0.0027008056640625
1690839722083045000,8.916045166015625,-0.9816131591796875,0.028594970703125,-0.002899169921875
1690839722093085000,8.9260849609375,-0.981292724609375,0.0289764404296875,-0.00469970703125
1690839722103124700,8.936124755859375,-0.981048583984375,0.0288543701171875,-0.0038299560546875
1690839722113165800,8.946165771484376,-0.981292724609375,0.0287017822265625,-0.00335693359375
1690839722123206000,8.956205810546875,-0.98138427734375,0.0286712646484375,-0.003631591796875
1690839722133246000,8.966245849609376,-0.9814300537109375,0.0282135009765625,-0.0039520263671875
1690839722143317000,8.97631689453125,-0.9821929931640625,0.02838134765625,-0.003448486328125
1690839722153357000,8.986357177734375,-0.981597900390625,0.027374267578125,-0.0042266845703125
1690839722163398100,8.996398193359376,-0.981414794921875,0.0284576416015625,-0.003936767578125
1690839722173438000,9.00643798828125,-0.9811553955078125,0.02801513671875,-0.0036468505859375
1690839722183477800,9.016477783203126,-0.980865478515625,0.0279083251953125,-0.0034637451171875
1690839722193517800,9.026517822265625,-0.9809112548828125,0.0272979736328125,-0.0030364990234375
1690839722203559000,9.036558837890626,-0.98065185546875,0.0281524658203125,-0.0034637451171875
1690839722213599000,9.046598876953125,-0.9820404052734375,0.028106689453125,-0.00390625
1690839722223639000,9.05663916015625,-0.9820556640625,0.0287628173828125,-0.00323486328125
1690839722233680100,9.06668017578125,-0.9810638427734375,0.029510498046875,-0.0031585693359375
1690839722243720000,9.076719970703126,-0.9812774658203125,0.02911376953125,-0.0037384033203125
1690839722253759700,9.086759765625,-0.9804840087890625,0.0286102294921875,-0.0041351318359375
1690839722263799800,9.0967998046875,-0.9807281494140625,0.028564453125,-0.0040283203125
1690839722273841000,9.1068408203125,-0.981170654296875,0.0286102294921875,-0.00347900390625
1690839722283881000,9.116880859375,-0.9810638427734375,0.0283050537109375,-0.0031890869140625
1690839722293952000,9.126951904296876,-0.98150634765625,0.0282440185546875,-0.003631591796875
1690839722303992000,9.136991943359375,-0.980926513671875,0.028076171875,-0.00421142578125
1690839722314032000,9.1470322265625,-0.981109619140625,0.0284271240234375,-0.0034332275390625
1690839722324073000,9.157072998046875,-0.981109619140625,0.028656005859375,-0.0034637451171875
1690839722334112800,9.16711279296875,-0.98126220703125,0.0283660888671875,-0.003448486328125
1690839722344152800,9.17715283203125,-0.98114013671875,0.0292205810546875,-0.0039520263671875
1690839722354193000,9.18719287109375,-0.9814453125,0.02813720703125,-0.00408935546875
1690839722364234000,9.19723388671875,-0.9812774658203125,0.0284576416015625,-0.004974365234375
1690839722374274000,9.207274169921876,-0.9804840087890625,0.0288543701171875,-0.0038299560546875
1690839722384314000,9.217314208984375,-0.9812469482421875,0.0290679931640625,-0.003631591796875
1690839722394355000,9.22735498046875,-0.98046875,0.028411865234375,-0.0035400390625
1690839722404394800,9.237394775390625,-0.98162841796875,0.028106689453125,-0.003631591796875
1690839722414434800,9.247434814453126,-0.981658935546875,0.0276031494140625,-0.0038299560546875
1690839722424475000,9.257474853515625,-0.9809722900390625,0.027862548828125,-0.0029296875
1690839722434516000,9.267515869140626,-0.9809112548828125,0.02886962890625,-0.0035247802734375
1690839722444587000,9.2775869140625,-0.9815673828125,0.0285797119140625,-0.003326416015625
1690839722454627000,9.287626953125,-0.9810791015625,0.0285797119140625,-0.0034332275390625
1690839722464667100,9.297667236328126,-0.9813995361328125,0.0286865234375,-0.003631591796875
1690839722474707000,9.30770703125,-0.98101806640625,0.02899169921875,-0.003662109375
1690839722484747800,9.317747802734376,-0.9804534912109375,0.028350830078125,-0.0040740966796875
1690839722494787800,9.327787841796875,-0.980010986328125,0.02862548828125,-0.0045013427734375
1690839722504828000,9.337827880859376,-0.980194091796875,0.028350830078125,-0.003326416015625
1690839722514869000,9.347868896484375,-0.980133056640625,0.027740478515625,-0.0033721923828125
1690839722524909000,9.357908935546876,-0.98077392578125,0.02789306640625,-0.004180908203125
1690839722534949000,9.36794921875,-0.982208251953125,0.0286865234375,-0.0030364990234375
1690839722544989000,9.377989013671876,-0.9811859130859375,0.0291900634765625,-0.00250244140625
1690839722555029800,9.38802978515625,-0.9810791015625,0.02899169921875,-0.0034332275390625
1690839722565069800,9.39806982421875,-0.9822845458984375,0.0289154052734375,-0.0034027099609375
1690839722575110000,9.40810986328125,-0.9815216064453125,0.0283660888671875,-0.0032806396484375
1690839722585151000,9.41815087890625,-0.980865478515625,0.0274658203125,-0.0036163330078125
1690839722595221000,9.428220947265626,-0.9817962646484375,0.0286407470703125,-0.0030975341796875
1690839722605262000,9.438261962890625,-0.9818267822265625,0.0289764404296875,-0.0037689208984375
1690839722615302100,9.44830224609375,-0.9819183349609375,0.02789306640625,-0.00390625
1690839722625342000,9.458342041015625,-0.9812774658203125,0.0278472900390625,-0.0040740966796875
1690839722635382000,9.468382080078126,-0.98114013671875,0.0274658203125,-0.00439453125
1690839722645422800,9.4784228515625,-0.980224609375,0.0278472900390625,-0.00390625
1690839722655463000,9.488462890625,-0.9806671142578125,0.0280914306640625,-0.0026397705078125
1690839722665503000,9.4985029296875,-0.982421875,0.02935791015625,-0.0029296875
1690839722675544000,9.5085439453125,-0.9816741943359375,0.028839111328125,-0.00323486328125
1690839722685584100,9.518584228515625,-0.981048583984375,0.028839111328125,-0.0037078857421875
1690839722695624000,9.5286240234375,-0.9816741943359375,0.028717041015625,-0.003326416015625
1690839722705664000,9.5386640625,-0.9810333251953125,0.02862548828125,-0.0034027099609375
1690839722715704800,9.548704833984376,-0.9803466796875,0.028350830078125,-0.0044097900390625
1690839722725745000,9.558744873046875,-0.980560302734375,0.02874755859375,-0.004608154296875
1690839722735816000,9.56881591796875,-0.98101806640625,0.0280609130859375,-0.004302978515625
1690839722745856000,9.57885595703125,-0.98162841796875,0.02825927734375,-0.0042724609375
1690839722755896000,9.58889599609375,-0.9807281494140625,0.0288238525390625,-0.0043792724609375
1690839722765937200,9.598937255859376,-0.9808807373046875,0.0286865234375,-0.003143310546875
1690839722775977000,9.60897705078125,-0.981353759765625,0.0288238525390625,-0.0035552978515625
1690839722786017000,9.61901708984375,-0.9805755615234375,0.0284881591796875,-0.004058837890625
1690839722796057000,9.62905712890625,-0.9802703857421875,0.028289794921875,-0.0038604736328125
1690839722806067700,9.639067626953125,-0.980682373046875,0.02862548828125,-0.0041961669921875
1690839722816107800,9.649107666015626,-0.9808349609375,0.0289459228515625,-0.003448486328125
1690839722826147800,9.65914794921875,-0.981597900390625,0.0282745361328125,-0.0032958984375
1690839722836188700,9.669188720703126,-0.982330322265625,0.0282440185546875,-0.0028076171875
1690839722846228500,9.679228515625,-0.982513427734375,0.02874755859375,-0.0036163330078125
1690839722856268500,9.6892685546875,-0.9809417724609375,0.029296875,-0.0036163330078125
1690839722866308600,9.69930859375,-0.981536865234375,0.0289154052734375,-0.0038604736328125
1690839722876349700,9.709349609375,-0.9806060791015625,0.02825927734375,-0.0047149658203125
1690839722886420700,9.719420654296876,-0.9814605712890625,0.02899169921875,-0.0040130615234375
1690839722896460800,9.729460693359375,-0.981475830078125,0.028350830078125,-0.0035400390625
1690839722906500600,9.73950048828125,-0.9812774658203125,0.0286712646484375,-0.003692626953125
1690839722916540700,9.749540771484375,-0.981597900390625,0.028289794921875,-0.0033111572265625
1690839722926581500,9.75958154296875,-0.980255126953125,0.0283203125,-0.003662109375
1690839722936621600,9.76962158203125,-0.98175048828125,0.0283355712890625,-0.0040130615234375
1690839722946661600,9.77966162109375,-0.982330322265625,0.0292205810546875,-0.0040130615234375
1690839722956702700,9.78970263671875,-0.980499267578125,0.0293731689453125,-0.0032806396484375
1690839722966742800,9.79974267578125,-0.9808197021484375,0.02899169921875,-0.003143310546875
1690839722976782800,9.809782958984375,-0.981903076171875,0.0289764404296875,-0.00384521484375
1690839722986822700,9.81982275390625,-0.9813385009765625,0.0290679931640625,-0.00396728515625
1690839722996863500,9.829863525390625,-0.98095703125,0.0289459228515625,-0.0038604736328125
1690839723006903600,9.839903564453126,-0.981048583984375,0.0289154052734375,-0.00408935546875
1690839723016943600,9.849943603515625,-0.98040771484375,0.028106689453125,-0.0039520263671875
1690839723026984700,9.859984619140626,-0.9808349609375,0.0281219482421875,-0.004150390625
1690839723037054700,9.8700546875,-0.98162841796875,0.0283966064453125,-0.00439453125
1690839723047095800,9.880095703125,-0.9818267822265625,0.0283203125,-0.0041961669921875
1690839723057135600,9.890135498046876,-0.9813690185546875,0.0279541015625,-0.0036468505859375
1690839723067175700,9.90017578125,-0.981231689453125,0.027862548828125,-0.0035247802734375
1690839723077215700,9.9102158203125,-0.981414794921875,0.0283660888671875,-0.0037994384765625
1690839723087256600,9.920256591796875,-0.981414794921875,0.0283660888671875,-0.004669189453125
1690839723097296600,9.930296630859376,-0.981292724609375,0.0284423828125,-0.004302978515625
1690839723107336700,9.940336669921875,-0.9810791015625,0.028228759765625,-0.004058837890625
1690839723117377800,9.950377685546876,-0.9814453125,0.0284271240234375,-0.0036773681640625
1690839723127417600,9.96041748046875,-0.9808502197265625,0.02813720703125,-0.00347900390625
1690839723137457700,9.970457763671876,-0.9814910888671875,0.0282135009765625,-0.0034332275390625
1690839723147497700,9.980497802734375,-0.980804443359375,0.02874755859375,-0.0035400390625
1690839723157538600,9.99053857421875,-0.98138427734375,0.0283966064453125,-0.0036468505859375
1690839723167578600,10.00057861328125,-0.9817657470703125,0.0282135009765625,-0.0035247802734375
1690839723177618700,10.01061865234375,-0.9815673828125,0.0279388427734375,-0.0037994384765625
1690839723187689700,10.020689697265626,-0.9810791015625,0.028778076171875,-0.0034027099609375
1690839723197729500,10.0307294921875,-0.98138427734375,0.02880859375,-0.0034637451171875
1690839723207770600,10.0407705078125,-0.9811553955078125,0.02862548828125,-0.0037689208984375
1690839723217810700,10.050810791015625,-0.981781005859375,0.0276031494140625,-0.0038604736328125
1690839723227850800,10.060850830078126,-0.982025146484375,0.0282745361328125,-0.0029144287109375
1690839723237891600,10.0708916015625,-0.9813690185546875,0.0283355712890625,-0.003662109375
1690839723247931600,10.080931640625,-0.9807586669921875,0.0283355712890625,-0.003326416015625
1690839723257971700,10.0909716796875,-0.9807281494140625,0.0284881591796875,-0.0035247802734375
1690839723268011500,10.101011474609376,-0.98187255859375,0.028045654296875,-0.0038604736328125
1690839723278052600,10.111052490234375,-0.9817962646484375,0.0285797119140625,-0.003692626953125
1690839723288092700,10.1210927734375,-0.9818878173828125,0.02911376953125,-0.0031890869140625
1690839723298132700,10.1311328125,-0.9817047119140625,0.0284881591796875,-0.0027313232421875
1690839723308172800,10.1411728515625,-0.982086181640625,0.028350830078125,-0.003143310546875
1690839723318213600,10.151213623046875,-0.981170654296875,0.0283660888671875,-0.003570556640625
1690839723328253700,10.161253662109376,-0.981964111328125,0.028076171875,-0.0036773681640625
1690839723338324700,10.17132470703125,-0.9818267822265625,0.0287322998046875,-0.0041351318359375
1690839723348364500,10.181364501953125,-0.9821624755859375,0.0293426513671875,-0.003570556640625
1690839723358404600,10.191404541015626,-0.98291015625,0.028717041015625,-0.0039825439453125
1690839723368445700,10.20144580078125,-0.98162841796875,0.0281982421875,-0.00360107421875
1690839723378485800,10.21148583984375,-0.982025146484375,0.0280609130859375,-0.0033111572265625
1690839723388525800,10.22152587890625,-0.9819183349609375,0.0286102294921875,-0.003753662109375
1690839723398566700,10.231566650390626,-0.9827423095703125,0.0290374755859375,-0.0037078857421875
1690839723408606700,10.241606689453125,-0.9813690185546875,0.0279693603515625,-0.0032806396484375
1690839723418646500,10.251646484375,-0.9806060791015625,0.0289459228515625,-0.0043487548828125
1690839723428686600,10.2616865234375,-0.9819488525390625,0.02838134765625,-0.00341796875
1690839723438727700,10.271727783203126,-0.982025146484375,0.0279998779296875,-0.002899169921875
1690839723448767700,10.281767822265625,-0.9814453125,0.0283203125,-0.003692626953125
1690839723458807800,10.291807861328126,-0.98126220703125,0.0284881591796875,-0.0040435791015625
1690839723468848600,10.3018486328125,-0.98052978515625,0.0281982421875,-0.0044403076171875
1690839723478888700,10.311888671875,-0.9816436767578125,0.0284576416015625,-0.003997802734375
1690839723488959700,10.321959716796876,-0.981475830078125,0.0284576416015625,-0.003997802734375
1690839723498999600,10.33199951171875,-0.9817657470703125,0.028350830078125,-0.0037994384765625
1690839723509039600,10.34203955078125,-0.981719970703125,0.0285491943359375,-0.0045928955078125
1690839723519079700,10.35207958984375,-0.981170654296875,0.0284271240234375,-0.0027008056640625
1690839723529120800,10.362120849609376,-0.9813232421875,0.0285186767578125,-0.0038909912109375
1690839723539160800,10.372160888671875,-0.9816741943359375,0.0284423828125,-0.00439453125
1690839723549201000,10.382200927734376,-0.980987548828125,0.0291748046875,-0.00433349609375
1690839723559241700,10.39224169921875,-0.9808502197265625,0.027374267578125,-0.003753662109375
1690839723569281500,10.402281494140626,-0.9812774658203125,0.0282135009765625,-0.0038909912109375
1690839723579321600,10.412321533203125,-0.981536865234375,0.0289154052734375,-0.0032806396484375
1690839723589361700,10.422361572265626,-0.98101806640625,0.02874755859375,-0.004180908203125
1690839723599402800,10.43240283203125,-0.980621337890625,0.02886962890625,-0.0032958984375
1690839723609442800,10.44244287109375,-0.9815673828125,0.028106689453125,-0.0032958984375
1690839723619483000,10.45248291015625,-0.980133056640625,0.029052734375,-0.0038604736328125
1690839723629523700,10.462523681640626,-0.98040771484375,0.0289154052734375,-0.0040130615234375
1690839723639593700,10.47259375,-0.98150634765625,0.0284881591796875,-0.003814697265625
1690839723649634600,10.482634521484375,-0.980682373046875,0.0283355712890625,-0.00360107421875
1690839723659674600,10.492674560546876,-0.9805450439453125,0.028350830078125,-0.0032196044921875
1690839723669714700,10.502714599609375,-0.9811248779296875,0.0286102294921875,-0.0027923583984375
1690839723679755800,10.512755859375,-0.9816131591796875,0.0291748046875,-0.003570556640625
1690839723689795800,10.5227958984375,-0.9809112548828125,0.0294036865234375,-0.0031890869140625
1690839723699836000,10.5328359375,-0.98077392578125,0.0283050537109375,-0.0042266845703125
1690839723709875500,10.54287548828125,-0.9818115234375,0.02874755859375,-0.0036163330078125
1690839723719916500,10.55291650390625,-0.981842041015625,0.029296875,-0.0038604736328125
1690839723729956600,10.56295654296875,-0.9812164306640625,0.0287017822265625,-0.00396728515625
1690839723739996700,10.57299658203125,-0.980743408203125,0.028594970703125,-0.0033721923828125
1690839723750036700,10.58303662109375,-0.9824066162109375,0.028533935546875,-0.0030975341796875
1690839723760077800,10.593077880859376,-0.981781005859375,0.0284576416015625,-0.00335693359375
1690839723770117600,10.60311767578125,-0.98052978515625,0.0283050537109375,-0.003326416015625
1690839723780157400,10.613157470703126,-0.9798126220703125,0.0279388427734375,-0.0034027099609375
1690839723790228500,10.623228515625,-0.9810333251953125,0.0285491943359375,-0.0037384033203125
1690839723800280600,10.633280517578125,-0.9799652099609375,0.0283355712890625,-0.0041046142578125
1690839723810321700,10.64332177734375,-0.9820404052734375,0.0280914306640625,-0.003936767578125
1690839723820361500,10.653361572265625,-0.98187255859375,0.0289459228515625,-0.003692626953125
1690839723830401500,10.663401611328124,-0.9805145263671875,0.02734375,-0.003692626953125
1690839723840442400,10.6734423828125,-0.980377197265625,0.027069091796875,-0.0041961669921875
1690839723850482400,10.683482421875,-0.981048583984375,0.0289459228515625,-0.0040740966796875
1690839723860522500,10.6935224609375,-0.9818878173828125,0.028533935546875,-0.003509521484375
1690839723870562600,10.7035625,-0.9811859130859375,0.028045654296875,-0.0035858154296875
1690839723880603600,10.713603759765626,-0.98114013671875,0.0284576416015625,-0.00439453125
1690839723890643500,10.7236435546875,-0.981903076171875,0.028167724609375,-0.004638671875
1690839723900683500,10.73368359375,-0.981109619140625,0.0292205810546875,-0.0037384033203125
1690839723910724400,10.743724365234375,-0.9818115234375,0.0287322998046875,-0.002960205078125
1690839723920764400,10.753764404296875,-0.981353759765625,0.028778076171875,-0.0027008056640625
1690839723930804500,10.763804443359374,-0.9805908203125,0.02789306640625,-0.00323486328125
1690839723940875500,10.77387548828125,-0.9808349609375,0.0282440185546875,-0.0028839111328125
1690839723950915600,10.78391552734375,-0.9804534912109375,0.0288543701171875,-0.0041046142578125
1690839723960955400,10.793955322265624,-0.9806060791015625,0.0281524658203125,-0.00421142578125
1690839723970996500,10.80399658203125,-0.9816436767578125,0.0277557373046875,-0.0042724609375
1690839723981036500,10.81403662109375,-0.980987548828125,0.02813720703125,-0.0041656494140625
1690839723991076400,10.824076416015625,-0.981201171875,0.028594970703125,-0.0036163330078125
1690839724001117400,10.834117431640625,-0.9812164306640625,0.02886962890625,-0.00421142578125
1690839724011157500,10.844157470703125,-0.98065185546875,0.029632568359375,-0.0034027099609375
1690839724021197600,10.854197509765624,-0.9812469482421875,0.028839111328125,-0.00390625
1690839724031237400,10.8642373046875,-0.981231689453125,0.0282440185546875,-0.0030517578125
1690839724041278500,10.874278564453125,-0.9822998046875,0.0283203125,-0.003875732421875
1690839724051318500,10.884318603515625,-0.9811553955078125,0.0283660888671875,-0.0037841796875
1690839724061358300,10.8943583984375,-0.981231689453125,0.0289306640625,-0.0036468505859375
1690839724071399400,10.9043994140625,-0.98175048828125,0.0292510986328125,-0.003631591796875
1690839724081469400,10.914469482421875,-0.9817352294921875,0.028289794921875,-0.004180908203125
1690839724091510500,10.924510498046875,-0.980621337890625,0.0283203125,-0.004150390625
1690839724101550600,10.934550537109375,-0.9802398681640625,0.0276641845703125,-0.00347900390625
1690839724111590400,10.94459033203125,-0.9805450439453125,0.0282440185546875,-0.0035400390625
1690839724121631500,10.954631591796876,-0.9807891845703125,0.0279693603515625,-0.0029754638671875
1690839724131671600,10.964671630859375,-0.9818878173828125,0.02886962890625,-0.0029296875
1690839724141711400,10.97471142578125,-0.9816436767578125,0.0284423828125,-0.003326416015625
1690839724151751400,10.98475146484375,-0.98126220703125,0.0282440185546875,-0.0032196044921875
1690839724161792500,10.99479248046875,-0.9806976318359375,0.028228759765625,-0.0030975341796875
1690839724171832600,11.00483251953125,-0.9810791015625,0.0282135009765625,-0.0036773681640625
1690839724181872400,11.014872314453125,-0.980743408203125,0.0279541015625,-0.0030059814453125
1690839724191913500,11.02491357421875,-0.9808807373046875,0.027740478515625,-0.0035858154296875
1690839724201953500,11.03495361328125,-0.9818572998046875,0.0286712646484375,-0.0028228759765625
1690839724211993300,11.044993408203124,-0.9808349609375,0.02838134765625,-0.0035400390625
1690839724222033400,11.055033447265625,-0.9808502197265625,0.0277862548828125,-0.0038909912109375
1690839724232104400,11.0651044921875,-0.9806060791015625,0.0274505615234375,-0.0029144287109375
1690839724242144500,11.07514453125,-0.9814605712890625,0.027496337890625,-0.0031890869140625
1690839724252185600,11.085185546875,-0.9819793701171875,0.0283355712890625,-0.003387451171875
1690839724262225400,11.095225341796874,-0.9816741943359375,0.02911376953125,-0.0031585693359375
1690839724272265500,11.105265380859375,-0.9806976318359375,0.02789306640625,-0.0026092529296875
1690839724282306600,11.115306640625,-0.98089599609375,0.0282135009765625,-0.0026092529296875
1690839724292346400,11.125346435546875,-0.9819488525390625,0.02825927734375,-0.002899169921875
1690839724302386400,11.135386474609374,-0.9816436767578125,0.0283660888671875,-0.0040130615234375
1690839724312426500,11.145426513671875,-0.980804443359375,0.028533935546875,-0.00384521484375
1690839724322467600,11.155467529296875,-0.9803009033203125,0.0283966064453125,-0.003875732421875
1690839724332507400,11.16550732421875,-0.9817047119140625,0.028656005859375,-0.003082275390625
1690839724342547500,11.17554736328125,-0.9819183349609375,0.0290985107421875,-0.0033111572265625
1690839724352588300,11.18558837890625,-0.982086181640625,0.0283050537109375,-0.0026092529296875
1690839724362628400,11.19562841796875,-0.98101806640625,0.0281829833984375,-0.003387451171875
1690839724372668400,11.20566845703125,-0.980682373046875,0.029052734375,-0.0031280517578125
1690839724382739500,11.215739501953125,-0.9813690185546875,0.0286712646484375,-0.0035247802734375
1690839724392779500,11.225779541015624,-0.981842041015625,0.0285186767578125,-0.003753662109375
1690839724402819300,11.2358193359375,-0.9821014404296875,0.029144287109375,-0.0035858154296875
1690839724412860400,11.2458603515625,-0.9813995361328125,0.0280914306640625,-0.00433349609375
1690839724422900500,11.255900390625,-0.9808197021484375,0.028076171875,-0.00360107421875
1690839724432940500,11.2659404296875,-0.9820404052734375,0.0281982421875,-0.0032196044921875
1690839724442981400,11.2759814453125,-0.9819488525390625,0.0282440185546875,-0.0035400390625
1690839724453021400,11.286021484375,-0.981719970703125,0.02862548828125,-0.003448486328125
1690839724463061500,11.2960615234375,-0.980987548828125,0.0283050537109375,-0.0037994384765625
1690839724473101300,11.306101318359374,-0.9814300537109375,0.028594970703125,-0.0030059814453125
1690839724483142400,11.316142333984375,-0.9819183349609375,0.028350830078125,-0.0038604736328125
1690839724493182500,11.326182373046874,-0.9812469482421875,0.0280303955078125,-0.0034332275390625
1690839724503222500,11.336222412109375,-0.9809722900390625,0.028350830078125,-0.0029296875
1690839724513263400,11.346263427734375,-0.9815826416015625,0.0285491943359375,-0.0034027099609375
1690839724523303400,11.356303466796875,-0.980987548828125,0.02850341796875,-0.003936767578125
1690839724533374500,11.36637451171875,-0.981719970703125,0.0287628173828125,-0.0037994384765625
1690839724543414500,11.37641455078125,-0.9815826416015625,0.0282440185546875,-0.0041656494140625
1690839724553454300,11.386454345703125,-0.9812774658203125,0.02813720703125,-0.0039825439453125
1690839724563495400,11.396495361328125,-0.9808807373046875,0.028564453125,-0.0039825439453125
1690839724573535500,11.406535400390625,-0.981719970703125,0.0281219482421875,-0.0039215087890625
1690839724583575600,11.416575439453124,-0.9817962646484375,0.028228759765625,-0.003204345703125
1690839724593615600,11.42661572265625,-0.981292724609375,0.028350830078125,-0.0034942626953125
1690839724603656400,11.436656494140625,-0.980804443359375,0.0282745361328125,-0.003631591796875
1690839724613696500,11.446696533203125,-0.980377197265625,0.0296478271484375,-0.0029144287109375
1690839724623736300,11.456736328125,-0.98077392578125,0.0288238525390625,-0.0028533935546875
1690839724633777400,11.46677734375,-0.980194091796875,0.027923583984375,-0.003448486328125
1690839724643817500,11.4768173828125,-0.9810638427734375,0.02874755859375,-0.0040435791015625
1690839724653857500,11.486857421875,-0.98126220703125,0.0287017822265625,-0.003631591796875
1690839724663897600,11.496897705078124,-0.9813232421875,0.0287933349609375,-0.004119873046875
1690839724673938400,11.5069384765625,-0.9814300537109375,0.028228759765625,-0.0035247802734375
1690839724684008400,11.517008544921875,-0.9819183349609375,0.028106689453125,-0.0030517578125
1690839724694049300,11.52704931640625,-0.981109619140625,0.028839111328125,-0.0032196044921875
1690839724704089300,11.53708935546875,-0.981048583984375,0.029693603515625,-0.0036468505859375
1690839724714129400,11.54712939453125,-0.9817962646484375,0.02911376953125,-0.002838134765625
1690839724724170500,11.55717041015625,-0.981109619140625,0.029205322265625,-0.0035400390625
1690839724734210600,11.56721044921875,-0.9813995361328125,0.029449462890625,-0.0033416748046875
1690839724744250600,11.577250732421875,-0.9809417724609375,0.0292205810546875,-0.003631591796875
1690839724754290700,11.587290771484374,-0.980682373046875,0.0275115966796875,-0.0033416748046875
1690839724764331500,11.59733154296875,-0.9805145263671875,0.028076171875,-0.003204345703125
1690839724774371300,11.607371337890624,-0.9815216064453125,0.027862548828125,-0.0034942626953125
1690839724784411400,11.617411376953125,-0.980987548828125,0.02813720703125,-0.0035552978515625
1690839724794452500,11.627452392578125,-0.9819793701171875,0.0287933349609375,-0.00299072265625
1690839724804466700,11.637466796875,-0.98211669921875,0.0287322998046875,-0.003631591796875
1690839724814506800,11.6475068359375,-0.9803009033203125,0.028656005859375,-0.0027923583984375
1690839724824546600,11.657546630859375,-0.981170654296875,0.027618408203125,-0.00360107421875
1690839724834617600,11.66761767578125,-0.9813232421875,0.02850341796875,-0.0037078857421875
1690839724844658700,11.67765869140625,-0.9810028076171875,0.0287017822265625,-0.0035552978515625
1690839724854698800,11.68769873046875,-0.9813690185546875,0.028228759765625,-0.0031280517578125
1690839724864738800,11.69773876953125,-0.98126220703125,0.0282440185546875,-0.003173828125
1690839724874778600,11.707778564453125,-0.9648590087890625,0.04266357421875,-0.022064208984375
1690839724884819700,11.71781982421875,-1.0263519287109375,0.0017547607421875,0.01739501953125
1690839724894859800,11.72785986328125,-0.9652252197265625,0.020782470703125,0.0041351318359375
1690839724904899600,11.737899658203125,-0.996673583984375,0.01971435546875,0.0037078857421875
1690839724914939600,11.747939697265625,-0.986724853515625,0.02239990234375,0.004974365234375
1690839724924980700,11.757980712890625,-0.973876953125,0.034515380859375,-0.0144195556640625
1690839724935020800,11.768020751953125,-0.981719970703125,0.03155517578125,-0.009124755859375
1690839724945060600,11.778060546875,-0.9726104736328125,0.03863525390625,-0.0078277587890625
1690839724955101700,11.788101806640626,-0.9799652099609375,0.0379791259765625,-0.009063720703125
1690839724965141800,11.798141845703125,-0.9746551513671875,0.038116455078125,-0.010406494140625
1690839724975181600,11.808181640625,-0.97589111328125,0.0399169921875,-0.0089569091796875
1690839724985252600,11.818252685546875,-0.9773101806640625,0.037017822265625,-0.006317138671875
1690839724995292700,11.828292724609375,-0.980682373046875,0.0379180908203125,-0.0047454833984375
1690839725005333800,11.838333740234376,-0.9772186279296875,0.0367431640625,-0.0009307861328125
1690839725015373800,11.848373779296875,-0.9781646728515625,0.0365447998046875,0.002288818359375
1690839725025413600,11.85841357421875,-0.985931396484375,0.035858154296875,0.0033111572265625
1690839725035453700,11.86845361328125,-0.9767303466796875,0.0330810546875,0.0036773681640625
1690839725045494800,11.878494873046876,-0.9842071533203125,0.0329742431640625,0.001495361328125
1690839725055534600,11.88853466796875,-0.98095703125,0.031524658203125,-0.0010986328125
1690839725065574700,11.89857470703125,-0.9823455810546875,0.0296783447265625,-0.0038299560546875
1690839725075615700,11.90861572265625,-0.980438232421875,0.0264739990234375,-0.0070953369140625
1690839725085655800,11.91865576171875,-0.981353759765625,0.0240631103515625,-0.008941650390625
1690839725095695600,11.928695556640625,-0.9839019775390625,0.0229034423828125,-0.0093994140625
1690839725105735700,11.938735595703125,-0.9811859130859375,0.02105712890625,-0.0092315673828125
1690839725115776800,11.94877685546875,-0.982421875,0.021240234375,-0.007232666015625
1690839725125816600,11.958816650390625,-0.9847259521484375,0.022247314453125,-0.0049591064453125
1690839725135887600,11.9688876953125,-0.985107421875,0.022979736328125,-0.0017547607421875
1690839725145927700,11.978927734375,-0.98260498046875,0.02435302734375,0.0011138916015625
1690839725155967700,11.9889677734375,-0.9872894287109375,0.0256195068359375,0.001434326171875
1690839725166008800,11.9990087890625,-0.982421875,0.0264739990234375,0.0009765625
1690839725176048600,12.009048583984375,-0.9822540283203125,0.0283050537109375,-0.0001373291015625
1690839725186088700,12.019088623046875,-0.9830780029296875,0.030029296875,-0.001373291015625
1690839725196128500,12.02912841796875,-0.98046875,0.0306854248046875,-0.0035247802734375
1690839725206169600,12.039169677734375,-0.9817962646484375,0.032623291015625,-0.005279541015625
1690839725216209700,12.049209716796875,-0.978424072265625,0.0332183837890625,-0.0063934326171875
1690839725226249700,12.059249755859375,-0.9802703857421875,0.03369140625,-0.0064544677734375
1690839725236290800,12.069290771484376,-0.9801025390625,0.0338287353515625,-0.0065460205078125
1690839725246330600,12.07933056640625,-0.9776611328125,0.03472900390625,-0.005523681640625
1690839725256370700,12.08937060546875,-0.980255126953125,0.034332275390625,-0.0052032470703125
1690839725266410500,12.099410400390624,-0.9796905517578125,0.035064697265625,-0.0032806396484375
1690839725276451600,12.10945166015625,-0.97808837890625,0.0339202880859375,-0.00238037109375
1690839725286522600,12.119522705078126,-0.9807281494140625,0.03411865234375,-0.001678466796875
1690839725296562700,12.129562744140625,-0.981414794921875,0.0330352783203125,-0.0009613037109375
1690839725306602800,12.139602783203125,-0.9805145263671875,0.0326995849609375,-0.0017852783203125
1690839725316642800,12.149642822265625,-0.98236083984375,0.0311279296875,-0.0015411376953125
1690839725326683600,12.15968359375,-0.9819793701171875,0.0296478271484375,-0.0021514892578125
1690839725336723500,12.169723388671875,-0.982696533203125,0.0286407470703125,-0.0033721923828125
1690839725346763500,12.179763427734375,-0.9818572998046875,0.0277099609375,-0.004486083984375
1690839725356804600,12.1898046875,-0.981842041015625,0.02630615234375,-0.0054168701171875
1690839725366844700,12.1998447265625,-0.98358154296875,0.0262603759765625,-0.005828857421875
1690839725376884700,12.209884765625,-0.981689453125,0.02655029296875,-0.004852294921875
1690839725386924800,12.2199248046875,-0.982330322265625,0.0258331298828125,-0.005035400390625
1690839725396965600,12.229965576171875,-0.9827423095703125,0.0264434814453125,-0.004302978515625
1690839725407005700,12.240005615234375,-0.9820404052734375,0.026611328125,-0.003021240234375
1690839725417045500,12.25004541015625,-0.9830322265625,0.027740478515625,-0.0018463134765625
1690839725427085600,12.26008544921875,-0.9825592041015625,0.02789306640625,-0.0015869140625
1690839725437156600,12.270156494140625,-0.9822235107421875,0.0279998779296875,-0.002471923828125
1690839725447197700,12.28019775390625,-0.9818267822265625,0.029998779296875,-0.0019073486328125
1690839725457237800,12.29023779296875,-0.9804534912109375,0.029632568359375,-0.00274658203125
1690839725467277800,12.30027783203125,-0.980865478515625,0.0306243896484375,-0.0035400390625
1690839725477317600,12.310317626953125,-0.9797515869140625,0.030731201171875,-0.004486083984375
1690839725487358500,12.3203583984375,-0.9788970947265625,0.0312957763671875,-0.00341796875
1690839725497398500,12.3303984375,-0.981109619140625,0.0320587158203125,-0.00396728515625
1690839725507438600,12.3404384765625,-0.978973388671875,0.033355712890625,-0.004638671875
1690839725517479700,12.350479736328126,-0.9795684814453125,0.032928466796875,-0.004913330078125
1690839725527519700,12.360519775390625,-0.98040771484375,0.0322113037109375,-0.004241943359375
1690839725537559800,12.370559814453125,-0.979034423828125,0.032684326171875,-0.0037384033203125
1690839725547600000,12.380599853515625,-0.9790802001953125,0.0323028564453125,-0.0034332275390625
1690839725557640700,12.390640625,-0.980499267578125,0.031951904296875,-0.00262451171875
1690839725567680500,12.400680419921875,-0.980743408203125,0.0311431884765625,-0.002655029296875
1690839725577751600,12.41075146484375,-0.9803619384765625,0.0297393798828125,-0.0030517578125
1690839725587791600,12.42079150390625,-0.9814605712890625,0.030029296875,-0.0027313232421875
1690839725597831700,12.430831787109375,-0.982086181640625,0.030181884765625,-0.0033111572265625
1690839725607872800,12.440872802734376,-0.9821624755859375,0.0290679931640625,-0.0028533935546875
1690839725617912800,12.450912841796875,-0.9815673828125,0.0292205810546875,-0.00439453125
1690839725627952600,12.46095263671875,-0.9817352294921875,0.0287933349609375,-0.0048980712890625
1690839725637992700,12.47099267578125,-0.9816436767578125,0.0277862548828125,-0.00408935546875
1690839725648033500,12.481033447265625,-0.98101806640625,0.027587890625,-0.0041656494140625
1690839725658073600,12.491073486328125,-0.98291015625,0.0269317626953125,-0.0035552978515625
1690839725668113700,12.50111376953125,-0.9824066162109375,0.0279693603515625,-0.0040435791015625
1690839725678154800,12.51115478515625,-0.982208251953125,0.0283203125,-0.0042724609375
1690839725688194800,12.52119482421875,-0.9830169677734375,0.0283660888671875,-0.0028533935546875
1690839725698235000,12.53123486328125,-0.9824371337890625,0.0288238525390625,-0.0025634765625
1690839725708274700,12.541274658203125,-0.9815216064453125,0.0299072265625,-0.0025177001953125
1690839725718315500,12.5513154296875,-0.981689453125,0.030059814453125,-0.0027008056640625
1690839725728386600,12.561386474609375,-0.9808807373046875,0.030242919921875,-0.003509521484375
1690839725738426600,12.571426513671875,-0.981231689453125,0.0301055908203125,-0.002777099609375
1690839725748466700,12.581466796875,-0.980133056640625,0.031341552734375,-0.0035858154296875
1690839725758506800,12.5915068359375,-0.979644775390625,0.0306243896484375,-0.0046539306640625
1690839725768547800,12.6015478515625,-0.9813232421875,0.03082275390625,-0.0037689208984375
1690839725778587600,12.611587646484375,-0.979705810546875,0.031829833984375,-0.0046234130859375
1690839725788627700,12.621627685546875,-0.980865478515625,0.0313873291015625,-0.004241943359375
1690839725798668500,12.63166845703125,-0.98004150390625,0.0318756103515625,-0.003387451171875
1690839725808724500,12.641724365234374,-0.9803924560546875,0.0323638916015625,-0.0036163330078125
1690839725818764500,12.6517646484375,-0.980712890625,0.0321044921875,-0.0028839111328125
1690839725828804600,12.6618046875,-0.9808502197265625,0.030731201171875,-0.002838134765625
1690839725838845400,12.671845458984375,-0.9813995361328125,0.0300750732421875,-0.0032501220703125
1690839725848885500,12.681885498046874,-0.9800567626953125,0.0300445556640625,-0.0028076171875
1690839725858925600,12.691925537109375,-0.981781005859375,0.02996826171875,-0.003173828125
1690839725868965400,12.70196533203125,-0.9813079833984375,0.02996826171875,-0.003021240234375
1690839725879036400,12.712036376953124,-0.9811248779296875,0.0294189453125,-0.00390625
1690839725889077500,12.722077392578125,-0.9813232421875,0.029388427734375,-0.00469970703125
1690839725899117600,12.73211767578125,-0.981536865234375,0.02984619140625,-0.0038604736328125
1690839725909157600,12.74215771484375,-0.9811553955078125,0.0293426513671875,-0.0037078857421875
1690839725919197400,12.752197509765624,-0.9812469482421875,0.0287017822265625,-0.0033111572265625
1690839725929238500,12.762238525390625,-0.98248291015625,0.02825927734375,-0.00360107421875
1690839725939278300,12.7722783203125,-0.981414794921875,0.02874755859375,-0.0028076171875
1690839725949318400,12.782318359375,-0.982269287109375,0.0292205810546875,-0.0031585693359375
1690839725959359500,12.792359375,-0.981842041015625,0.0287322998046875,-0.00360107421875
1690839725969399600,12.802399658203125,-0.9807281494140625,0.029632568359375,-0.004058837890625
1690839725979439600,12.812439697265624,-0.9812469482421875,0.029815673828125,-0.00347900390625
1690839725989479400,12.8224794921875,-0.981353759765625,0.02984619140625,-0.0029449462890625
1690839725999520500,12.8325205078125,-0.9812469482421875,0.030548095703125,-0.0036163330078125
1690839726009560600,12.842560546875,-0.981109619140625,0.03131103515625,-0.003143310546875
1690839726019600400,12.852600341796874,-0.981170654296875,0.0308685302734375,-0.0044097900390625
1690839726029671400,12.86267138671875,-0.98089599609375,0.0316925048828125,-0.004302978515625
1690839726039711500,12.87271142578125,-0.981201171875,0.0311126708984375,-0.0038604736328125
1690839726049752600,12.882752685546874,-0.980438232421875,0.0306396484375,-0.0039520263671875
1690839726059792600,12.892792724609375,-0.9814453125,0.0307159423828125,-0.003570556640625
1690839726069832400,12.90283251953125,-0.980987548828125,0.030609130859375,-0.0030364990234375
1690839726079872300,12.912872314453125,-0.9813232421875,0.029815673828125,-0.0033111572265625
1690839726089913300,12.922913330078124,-0.9818878173828125,0.0304107666015625,-0.0033111572265625
1690839726099953400,12.932953369140625,-0.98150634765625,0.030426025390625,-0.0036468505859375
1690839726109993500,12.942993408203124,-0.9818115234375,0.0307769775390625,-0.0040130615234375
