time,seconds_elapsed,z,y,x
1690839713277986300,0.110986328125,-0.007545800413936377,-0.013481187634170055,-0.06521788239479065
1690839713288026400,0.1210263671875,-0.0079735042527318,-0.014335796236991882,-0.088531993329525
1690839713298067500,0.1310673828125,-0.00652687530964613,-0.014966432936489582,-0.10451336205005646
1690839713308107300,0.141107177734375,-0.006331665441393852,-0.009749566204845905,-0.11254225671291351
1690839713318147300,0.151147216796875,-0.0054395063780248165,-0.007547931279987097,-0.11242401599884033
1690839713328187400,0.1611875,-0.005330316722393036,-0.0014740596525371075,-0.1025354266166687
1690839713338228500,0.171228515625,-0.0036245621740818024,-0.0031244205310940742,-0.09191900491714478
1690839713348299300,0.18129931640625,-0.0036453348584473133,0.0007222492713481188,-0.07559462636709213
1690839713358339300,0.19133935546875,-0.0037734329234808683,-0.0010982876410707831,-0.05223417654633522
1690839713368379400,0.20137939453125,-0.004291151650249958,-0.0031398669816553593,-0.029877204447984695
1690839713378419500,0.21141943359375,-0.005539108533412218,-0.005615807604044676,-0.010686200112104416
1690839713388460300,0.221460205078125,-0.0044440170750021935,0.004286624025553465,0.015157381072640419
1690839713398500400,0.231500244140625,-0.003930293023586273,0.0026522420812398195,0.03200400620698929
1690839713408540200,0.2415400390625,-0.006713829003274441,-0.002264219569042325,0.04336505010724068
1690839713418581200,0.251581298828125,-0.004004861693829298,0.001156877144239843,0.05199822038412094
1690839713428621300,0.261621337890625,-0.004335626028478146,0.0005187837523408234,0.05443927273154259
1690839713438661400,0.271661376953125,-0.004369182046502829,0.0009100021561607718,0.04753316566348076
1690839713448701400,0.281701416015625,-0.003698864486068487,0.0028421254828572273,0.035943884402513504
1690839713458742300,0.2917421875,-0.004369981121271849,0.0019180085510015488,0.023300262168049812
1690839713468782300,0.3017822265625,-0.004229898564517498,0.0013576794881373644,0.0038250982761383057
1690839713478822100,0.311822265625,-0.0054999603889882565,-0.001597630325704813,-0.016104402020573616
1690839713488863500,0.321863525390625,-0.004729241598397493,-0.0019417107105255127,-0.03502190113067627
1690839713498933200,0.331933349609375,-0.00535375252366066,-0.003991545643657446,-0.05096464604139328
1690839713508974300,0.341974365234375,-0.00390259618870914,-0.004879443906247616,-0.06287989765405655
1690839713519014400,0.352014404296875,-0.005885053426027298,-0.007142065558582544,-0.07262839376926422
1690839713529054500,0.362054443359375,-0.004830441437661648,-0.007121559232473373,-0.07391257584095001
1690839713539094500,0.372094482421875,-0.005396896041929722,-0.0075971996411681175,-0.07355783879756927
1690839713549135400,0.38213525390625,-0.004875715356320143,-0.007860053330659866,-0.06891142576932907
1690839713559175200,0.392175048828125,-0.004344947170466185,-0.005163336638361216,-0.05928809195756912
1690839713569215200,0.40221533203125,-0.004815794061869383,-0.0034200313966721296,-0.047438088804483414
1690839713579256300,0.41225634765625,-0.0035981968976557255,-0.0009635316673666239,-0.03387673944234848
1690839713589296400,0.42229638671875,-0.005409678909927607,0.00044900894863530993,-0.018760904669761658
1690839713599336400,0.43233642578125,-0.004861600697040558,0.001374457380734384,-0.005006742663681507
1690839713609376500,0.44237646484375,-0.0052296495996415615,0.002889529801905155,0.006882140878587961
1690839713619417300,0.452417236328125,-0.004019775427877903,0.0004415521107148379,0.015243135392665863
1690839713629457200,0.46245703125,-0.004033890087157488,-0.00020106865849811584,0.021688783541321754
1690839713639497200,0.472497314453125,-0.004652808886021376,-0.0007432882557623088,0.023186013102531433
1690839713649568300,0.482568359375,-0.00472524669021368,-0.0010745854815468192,0.021031249314546585
1690839713659608300,0.4926083984375,-0.0031403994653373957,-0.0023254721891134977,0.014564295299351215
1690839713669649400,0.5026494140625,-0.004452006425708532,0.0002569950302131474,0.007197459228336811
1690839713679689500,0.512689453125,-0.003861050819978118,0.001689509372226894,-0.002855707658454776
1690839713689729500,0.5227294921875,-0.005242432467639446,-0.002545981900766492,-0.0135656101629138
1690839713699769300,0.532769287109375,-0.0047849016264081,-0.001228782464750111,-0.026216423138976097
1690839713709810200,0.54281005859375,-0.004848551005125046,-0.0007523429812863469,-0.03497502952814102
1690839713719850200,0.552850341796875,-0.005403819959610701,-0.0014335796004161239,-0.04206090047955513
1690839713729890300,0.562890380859375,-0.003765976056456566,-0.00458622956648469,-0.05041630193591118
1690839713739931400,0.572931396484375,-0.005218463949859142,-0.0049707903526723385,-0.053402770310640335
1690839713749971500,0.582971435546875,-0.005240302067250013,-0.005482915788888931,-0.051121242344379425
1690839713760011500,0.593011474609375,-0.005882656667381525,-0.005651760380715132,-0.04972308129072189
1690839713770051300,0.60305126953125,-0.005714877508580685,-0.00304612354375422,-0.042510442435741425
1690839713780092200,0.613092041015625,-0.005130313336849213,-0.005291434936225414,-0.03586425632238388
1690839713790124800,0.623124755859375,-0.004092745948582888,-0.0013691311469301581,-0.029080653563141823
1690839713800195600,0.633195556640625,-0.005627791862934828,-0.0007129282457754016,-0.020713001489639282
1690839713810235600,0.643235595703125,-0.003823234001174569,-0.00006364954606397077,-0.01044278685003519
1690839713820275700,0.653275634765625,-0.005393433850258589,-0.001514539704658091,-0.003057841444388032
1690839713830316800,0.66331689453125,-0.00443895673379302,-0.0004165183927398175,0.0025632926262915134
1690839713840356900,0.67335693359375,-0.0054552191868424416,-0.000598145998083055,0.0046693203039467335
1690839713850397000,0.68339697265625,-0.006044310517609119,-0.0013113404856994748,0.005094626918435097
1690839713860437800,0.693437744140625,-0.005556951742619276,-0.0035896748304367065,0.003276220755651593
1690839713870477800,0.703477783203125,-0.0055034225806593895,-0.0038602519780397415,-0.0011669971281662583
1690839713880517600,0.713517578125,-0.005125519819557667,-0.0019001654582098126,-0.0068240840919315815
1690839713890557700,0.7235576171875,-0.0043681166134774685,-0.0028876655269414186,-0.012674249708652496
1690839713900598800,0.733598876953125,-0.004736964590847492,-0.002523611532524228,-0.020359599962830544
1690839713910638800,0.743638916015625,-0.004450141917914152,-0.0034887411165982485,-0.02479882352054119
1690839713920679000,0.753678955078125,-0.006081328261643648,-0.000993625377304852,-0.030944067984819412
1690839713930719700,0.7637197265625,-0.007179349660873413,-0.0019536949694156647,-0.035287417471408844
1690839713940759800,0.773759765625,-0.005192098673433065,-0.000987766426987946,-0.03850504755973816
1690839713950830600,0.78383056640625,-0.004196076653897762,-0.0018330537714064121,-0.03988216817378998
1690839713960870700,0.79387060546875,-0.005336708389222622,-0.0021582257468253374,-0.040645696222782135
1690839713970910700,0.80391064453125,-0.004290086217224598,-0.003879160387441516,-0.03676920011639595
1690839713980950800,0.81395068359375,-0.005558549892157316,-0.002439189236611128,-0.0329291895031929
1690839713990992000,0.823991943359375,-0.00523683987557888,-0.004187554586678743,-0.028008731082081795
1690839714001032000,0.834031982421875,-0.004895422607660294,-0.003123355330899358,-0.021228322759270668
1690839714011072000,0.844072021484375,-0.005556685384362936,-0.0028788771014660597,-0.01709855906665325
1690839714021112800,0.85411279296875,-0.003864246653392911,-0.0010468886466696858,-0.013798103667795658
1690839714031152600,0.864152587890625,-0.005744704511016607,-0.0032626385800540447,-0.009126386605203152
1690839714041192700,0.874192626953125,-0.004412591457366943,-0.0015480954898521304,-0.005308212712407112
1690839714051232800,0.884232666015625,-0.004047738388180733,-0.0007811051327735186,-0.005776396486908197
1690839714061273900,0.89427392578125,-0.003072755178436637,0.0008050735923461616,-0.005939914379268885
1690839714071314000,0.90431396484375,-0.005498362239450216,-0.0011289139511063695,-0.00842544250190258
1690839714081354000,0.91435400390625,-0.0046637277118861675,-0.0014719291357323527,-0.010509366169571877
1690839714091394800,0.924394775390625,-0.005246693734079599,-0.00037470675306394696,-0.013100622221827507
1690839714101464800,0.93446484375,-0.005161206237971783,-0.002597647253423929,-0.018798189237713814
1690839714111505700,0.944505615234375,-0.005640575196594,-0.002472745021805167,-0.022537799552083015
1690839714121545700,0.954545654296875,-0.004992628004401922,-0.001859419047832489,-0.023248065263032913
1690839714131585800,0.964585693359375,-0.006475209724158049,-0.004269047174602747,-0.025915486738085747
1690839714141627000,0.974626953125,-0.00461685610935092,-0.0019054916920140386,-0.029709693044424057
1690839714151667000,0.9846669921875,-0.005200620740652084,-0.0027803401462733746,-0.03253557160496712
1690839714161707000,0.99470703125,-0.0057012951001524925,-0.0020631509833037853,-0.030850591138005257
1690839714171746800,1.004746826171875,-0.005465338937938213,-0.0009526127250865102,-0.030122747644782066
1690839714181787600,1.01478759765625,-0.0051966262981295586,-0.001865544356405735,-0.029106220230460167
1690839714191827700,1.02482763671875,-0.0031965922098606825,-0.0016969662392511964,-0.02630803734064102
1690839714201867800,1.03486767578125,-0.004819522611796856,-0.0033212280832231045,-0.022839002311229706
1690839714211907800,1.044907958984375,-0.004960670135915279,-0.0015310513554140925,-0.017827466130256653
1690839714221949000,1.054948974609375,-0.0049217878840863705,-0.000827177835162729,-0.018317222595214844
1690839714231989000,1.064989013671875,-0.006776413414627314,-0.002061286708340049,-0.015265772119164467
1690839714242028800,1.07502880859375,-0.004388622939586639,-0.0010072075529024005,-0.011932559311389923
1690839714252099800,1.085099853515625,-0.0046301716938614845,-0.0009590042755007744,-0.011741344816982746
1690839714262140000,1.095139892578125,-0.003875698195770383,-0.0030162963084876537,-0.011155448853969574
1690839714272180700,1.1051806640625,-0.004027764778584242,-0.0019049590919166803,-0.01269901730120182
1690839714282220800,1.115220703125,-0.00552259711548686,-0.0008349010022357106,-0.013394368812441826
1690839714292260900,1.1252607421875,-0.0036730316933244467,-0.002037051832303405,-0.01846982166171074
1690839714302302000,1.135302001953125,-0.0044378917664289474,-0.0024197481106966734,-0.01770096644759178
1690839714312341800,1.145341796875,-0.005132444202899933,-0.002999251941218972,-0.019108979031443596
1690839714322381800,1.1553818359375,-0.004442685283720493,-0.0011488876771181822,-0.020929250866174698
1690839714332422000,1.165421875,-0.004824049770832062,-0.0029047098942101,-0.02304007112979889
1690839714342462700,1.175462646484375,-0.004738030023872852,-0.0007661914569325745,-0.025604961439967155
1690839714352502800,1.185502685546875,-0.0047119311057031155,-0.002410160843282938,-0.02719220519065857
1690839714362542800,1.19554296875,-0.0032645028550177813,-0.0032626385800540447,-0.0269479937851429
1690839714372584000,1.205583984375,-0.005573463626205921,-0.0016351809026673436,-0.026330940425395966
1690839714382624000,1.2156240234375,-0.004701011814177036,-0.0035060516092926264,-0.026439862325787544
1690839714392663800,1.225663818359375,-0.0038163098506629467,-0.001961151836439967,-0.027214577421545982
1690839714402734800,1.23573486328125,-0.00538304727524519,-0.0019409117521718144,-0.023091470822691917
1690839714412775000,1.24577490234375,-0.004427238833159208,-0.00270630419254303,-0.02034042589366436
1690839714422814700,1.255814697265625,-0.0031273500062525272,-0.0027169568929821253,-0.016748620197176933
1690839714432855800,1.265855712890625,-0.00672181835398078,-0.0036163064651191235,-0.016632772982120514
1690839714442896000,1.275895751953125,-0.004847751930356026,-0.00242214510217309,-0.015448198653757572
1690839714452935700,1.285935791015625,-0.005455751903355122,-0.0008410262526012957,-0.015052452683448792
1690839714462976800,1.295976806640625,-0.004227235447615385,-0.001657285145483911,-0.016921991482377052
1690839714473016800,1.306016845703125,-0.005125519819557667,-0.0009329052991233766,-0.016928384080529213
1690839714483057000,1.316056884765625,-0.0041273669339716434,-0.0007480819476768374,-0.01611904799938202
1690839714493096700,1.3260966796875,-0.00398621940985322,-0.000969656917732209,-0.01841229759156704
1690839714503137800,1.3361376953125,-0.0033894050866365433,-0.003379551460966468,-0.01896064169704914
1690839714513177900,1.346177734375,-0.005612611770629883,-0.002704440150409937,-0.020315125584602356
1690839714523218000,1.356218017578125,-0.0027153589762747288,-0.00318966805934906,-0.023664316162467003
1690839714533259000,1.366259033203125,-0.004151069093495607,-0.0011555455857887864,-0.02123418264091015
1690839714543298800,1.376298828125,-0.0037979339249432087,-0.003695668652653694,-0.024653147906064987
1690839714553369900,1.386369873046875,-0.005379851907491684,-0.0016088156262412667,-0.02263260819017887
1690839714563410000,1.396409912109375,-0.005665076430886984,-0.0018370485631749034,-0.023742880672216415
1690839714573449700,1.40644970703125,-0.004763862583786249,-0.0008572715451009572,-0.02467471919953823
1690839714583490800,1.41649072265625,-0.003710049670189619,-0.0011456918437033892,-0.02243872918188572
1690839714593531000,1.42653076171875,-0.004434429574757814,-0.004252535756677389,-0.023986293002963066
1690839714603570700,1.43657080078125,-0.005030977539718151,-0.0049529471434652805,-0.021976139396429062
1690839714613610800,1.44661083984375,-0.005714611150324345,-0.0041673146188259125,-0.01937875710427761
1690839714623651800,1.45665185546875,-0.003733751829713583,-0.003433879930526018,-0.020124709233641624
1690839714633692000,1.46669189453125,-0.003943342715501785,-0.002796851797029376,-0.017899904400110245
1690839714643731700,1.476731689453125,-0.0046456181444227695,-0.003023486817255616,-0.01835636980831623
1690839714653772800,1.486772705078125,-0.004320180043578148,-0.0026194851379841566,-0.0192573182284832
1690839714663812900,1.496812744140625,-0.0038043255917727947,-0.0016953683225437999,-0.018157431855797768
1690839714673853000,1.50685302734375,-0.0041558630764484406,-0.00101120222825557,-0.017588846385478973
1690839714683892700,1.516892822265625,-0.004818723537027836,-0.000532365869730711,-0.019168900325894356
1690839714693933800,1.526933837890625,-0.005303685087710619,-0.0014434333425015211,-0.01793772168457508
1690839714704003800,1.53700390625,-0.0038831550627946854,-0.003315103007480502,-0.018497783690690994
1690839714714045000,1.547044921875,-0.005243231542408466,-0.002017078222706914,-0.02027810737490654
1690839714724084700,1.557084716796875,-0.004420847166329622,-0.003222158644348383,-0.0211886428296566
1690839714734124800,1.567124755859375,-0.0038242992013692856,-0.0029880667570978403,-0.020417656749486923
1690839714744166000,1.577165771484375,-0.004555603489279747,-0.0008040083339437842,-0.022542061284184456
1690839714754205700,1.587205810546875,-0.004010454285889864,-0.003183542750775814,-0.022435534745454788
1690839714764245800,1.597245849609375,-0.005052549298852682,-0.002520149340853095,-0.023938089609146118
1690839714774285800,1.607285888671875,-0.004478638060390949,-0.0016476977616548538,-0.023088807240128517
1690839714784327000,1.617326904296875,-0.005253351293504238,-0.002490055514499545,-0.02201448753476143
1690839714794339800,1.62733984375,-0.003765976056456566,-0.0021313277538865805,-0.023582823574543
1690839714804379600,1.637379638671875,-0.003704989794641733,-0.0020149475894868374,-0.02147573046386242
1690839714814420700,1.647420654296875,-0.006549245677888393,-0.0016176040517166257,-0.020312195643782616
1690839714824460800,1.657460693359375,-0.003884486621245742,-0.0023318638559430838,-0.01900644786655903
1690839714834500900,1.6675009765625,-0.004491420928388834,-0.0024711471050977707,-0.01949487254023552
1690839714844541000,1.677541015625,-0.00481419637799263,-0.002246909076347947,-0.019720440730452538
1690839714854612000,1.687612060546875,-0.004260258749127388,-0.0026583673898130655,-0.018306303769350052
1690839714864652000,1.697652099609375,-0.0037318875547498465,-0.0023284016642719507,-0.019779562950134277
1690839714874692900,1.70769287109375,-0.0034019220620393753,-0.0020748688839375973,-0.020475979894399643
1690839714884732700,1.717732666015625,-0.005536445416510105,-0.0006980145117267966,-0.019604327157139778
1690839714894772700,1.727772705078125,-0.005308479070663452,-0.0019329222850501537,-0.018216820433735847
1690839714904813800,1.737813720703125,-0.005388373974710703,-0.0016884441720321774,-0.019940152764320374
1690839714914854000,1.74785400390625,-0.0041305627673864365,-0.0015092133544385433,-0.016700683161616325
1690839714924894000,1.75789404296875,-0.005182777531445026,-0.002965163439512253,-0.02058463729918003
1690839714934934000,1.76793408203125,-0.004829908721148968,-0.004606469534337521,-0.02015799842774868
1690839714944974800,1.777974853515625,-0.0049153962172567844,0.005284244194626808,-0.019886089488863945
1690839714955014700,1.7880146484375,-0.005660282447934151,0.0021885856986045837,-0.0217116866260767
1690839714965054700,1.7980546875,-0.003853061469271779,0.0026282735634595156,-0.02058197371661663
1690839714975095800,1.808095703125,-0.005785983521491289,-0.0065130265429615974,-0.02334526926279068
1690839714985135900,1.818135986328125,-0.004264253657311201,-0.0016559535870328546,-0.02142912521958351
1690839714995176000,1.828176025390625,-0.004835501778870821,-0.0027079021092504263,-0.018795792013406754
1690839715005247000,1.8382470703125,-0.005288505461066961,-0.0006918892613612115,-0.019057847559452057
1690839715015287000,1.848287109375,-0.003952131140977144,-0.003495665267109871,-0.01889779046177864
1690839715025327900,1.858327880859375,-0.00472498033195734,-0.002569684060290456,-0.01859179325401783
1690839715035367700,1.86836767578125,-0.005747634451836348,-0.002264219569042325,-0.02178838662803173
1690839715045407700,1.87840771484375,-0.004583832807838917,-0.003111371072009206,-0.018447717651724815
1690839715055447800,1.88844775390625,-0.005094893276691437,-0.0019797938875854015,-0.01949593611061573
1690839715065489000,1.898489013671875,-0.004027764778584242,-0.001505484920926392,-0.02058889903128147
1690839715075529000,1.908529052734375,-0.005967611446976662,-0.002770220162346959,-0.021573469042778015
1690839715085569000,1.918569091796875,-0.004402738064527512,-0.001499625970609486,-0.019524432718753815
1690839715095609900,1.92860986328125,-0.0037638454232364893,-0.001389104756526649,-0.019810456782579422
1690839715105649700,1.938649658203125,-0.007418768014758825,-0.0012159993639215827,-0.02003389596939087
1690839715115689700,1.948689697265625,-0.004960137419402599,-0.000934236915782094,-0.018932677805423737
1690839715125729800,1.958729736328125,-0.004433630499988794,-0.003070624778047204,-0.020481040701270103
1690839715135771000,1.96877099609375,-0.005860285833477974,-0.002026399364694953,-0.020743893459439278
1690839715145811000,1.97881103515625,-0.004267981741577387,-0.0033537186682224274,-0.021879466250538826
1690839715155882000,1.988882080078125,-0.005686914082616568,-0.003477822057902813,-0.02233273535966873
1690839715165922000,1.998922119140625,-0.004147074185311794,-0.00010759170982055366,-0.02395540103316307
1690839715175961900,2.0089619140625,-0.005554821342229843,-0.0029230855870991945,-0.02136787213385105
1690839715186002700,2.019002685546875,-0.004638161510229111,-0.0003400856803636998,-0.02136494405567646
1690839715196042800,2.029042724609375,-0.003869839245453477,-0.0015992282424122095,-0.021380921825766563
1690839715206082800,2.039082763671875,-0.004759601317346096,-0.003638677066192031,-0.021823007613420486
1690839715216123000,2.049122802734375,-0.004523911513388157,-0.0027896612882614136,-0.01876756176352501
1690839715226164000,2.0591640625,-0.002814428647980094,-0.0006910903030075133,-0.018814966082572937
1690839715236204000,2.0692041015625,-0.004150004126131535,-0.0035902075469493866,-0.01847168430685997
1690839715246243800,2.079243896484375,-0.004102866165339947,-0.004341219086199999,-0.02075907401740551
1690839715256284700,2.08928466796875,-0.004013383761048317,-0.0032107068691402674,-0.021764151751995087
1690839715266324700,2.09932470703125,-0.003959587775170803,-0.0033782199025154114,-0.02076413482427597
1690839715276364800,2.10936474609375,-0.004979312419891357,-0.0027137610595673323,-0.020592892542481422
1690839715286404900,2.11940478515625,-0.0046240463852882385,-0.001463406952098012,-0.018084194511175156
1690839715296446000,2.129446044921875,-0.00561074772849679,-0.0038149782922118902,-0.020981447771191597
1690839715306515700,2.139515625,-0.004846686962991953,-0.0027811392210423946,-0.021311413496732712
1690839715316556800,2.149556884765625,-0.005730323493480682,-0.001677791471593082,-0.02143045701086521
1690839715326596900,2.159596923828125,-0.0057188719511032104,-0.00205249828286469,-0.021523401141166687
1690839715336636700,2.16963671875,-0.005119394510984421,-0.0023015039041638374,-0.022217687219381332
1690839715346677800,2.179677734375,-0.004122839774936438,-0.0037971350830048323,-0.02154124528169632
1690839715356717800,2.1897177734375,-0.004829376470297575,-0.0014125406742095947,-0.02255537547171116
1690839715366758000,2.1997578125,-0.00472524669021368,-0.002091646660119295,-0.02273940108716488
1690839715376798000,2.2097978515625,-0.004865861497819424,-0.0015552861150354147,-0.018934808671474457
1690839715386839000,2.219839111328125,-0.004193413536995649,-0.0024770060554146767,-0.021270668134093285
1690839715396878600,2.229878662109375,-0.0057226005010306835,-0.0028613002505153418,-0.01996997930109501
1690839715406918700,2.239918701171875,-0.006674414500594139,-0.003114833263680339,-0.019342271611094475
1690839715416959700,2.249959716796875,-0.002965696156024933,-0.0025214808993041515,-0.019588083028793335
1690839715426999800,2.259999755859375,-0.003858387703076005,-0.0013899037148803473,-0.020080234855413437
1690839715437039900,2.270039794921875,-0.004033357370644808,-0.0020277309231460094,-0.01889858953654766
1690839715447080000,2.280079833984375,-0.005084773525595665,-0.0033486587926745415,-0.018935341387987137
1690839715457150700,2.290150634765625,-0.004781173076480627,-0.0020682108588516712,-0.020778780803084373
1690839715467191800,2.30019189453125,-0.004596616141498089,-0.001823466387577355,-0.01948581635951996
1690839715477231600,2.310231689453125,-0.004206995479762554,-0.003468767274171114,-0.02178252674639225
1690839715487271700,2.320271728515625,-0.005130046978592873,-0.0013622068800032139,-0.02154337428510189
1690839715497311700,2.330311767578125,-0.004963865969330072,-0.00007217166421469301,-0.02076599933207035
1690839715507352800,2.340352783203125,-0.0037915424909442663,-0.002805906580761075,-0.02044934779405594
1690839715517393000,2.350392822265625,-0.004500742070376873,-0.003025883575901389,-0.02154231071472168
1690839715527433000,2.360432861328125,-0.005057076457887888,-0.003084739437326789,-0.020233632996678352
1690839715537473800,2.370473876953125,-0.005658418405801058,-0.0019409117521718144,-0.019035743549466133
1690839715547513600,2.380513671875,-0.004481301177293062,-0.0030866037122905254,-0.02046745829284191
1690839715557553700,2.3905537109375,-0.0038951393216848373,-0.0013044163351878524,-0.02262754738330841
1690839715567593700,2.40059375,-0.005203550215810537,-0.0032402679789811373,-0.02058943174779415
1690839715577634800,2.410634765625,-0.0044109937734901905,-0.002966228872537613,-0.020796624943614006
1690839715587675000,2.4206748046875,-0.00455879932269454,-0.002811232814565301,-0.0192559864372015
1690839715597746000,2.430745849609375,-0.0037798245903104544,-0.00270657055079937,-0.019086342304944992
1690839715607785700,2.44078564453125,-0.0060112872160971165,-0.004066380672156811,-0.019060775637626648
1690839715617825800,2.45082568359375,-0.00373082235455513,-0.0035294874105602503,-0.020132698118686676
1690839715627866600,2.46086669921875,-0.004042678512632847,-0.00296276668086648,-0.021404091268777847
1690839715637906700,2.47090673828125,-0.00418409239500761,-0.0028162929229438305,-0.020597953349351883
1690839715647946800,2.48094677734375,-0.0054517569951713085,-0.00247540813870728,-0.020370785146951675
1690839715657986800,2.49098681640625,-0.005868275184184313,-0.001561677665449679,-0.018624816089868546
1690839715668028000,2.50102783203125,-0.005659217480570078,0.0012610068079084158,-0.020132698118686676
1690839715678068000,2.51106787109375,-0.004475442226976156,-0.0034669029992073774,-0.020733773708343506
1690839715688107800,2.521107666015625,-0.005365204066038132,0.005583050660789013,-0.017239706590771675
1690839715698148600,2.531148681640625,-0.004477838985621929,-0.0025270734913647175,-0.019946010783314705
1690839715708188700,2.541188720703125,-0.004836300387978554,-0.001916144392453134,-0.018800586462020874
1690839715718228700,2.551228759765625,-0.005671467632055283,-0.0024591628462076187,-0.021212078630924225
1690839715728268800,2.561268798828125,-0.00384374032728374,-0.0043832967057824135,-0.018335863947868347
1690839715738310000,2.571309814453125,-0.005579855293035507,-0.003680488560348749,-0.019839217886328697
1690839715748381000,2.581380859375,-0.006226470693945885,-0.004831506870687008,-0.02070474624633789
1690839715758420700,2.591420654296875,-0.003440005239099264,-0.0024290692526847124,-0.020359866321086884
1690839715768460800,2.601460693359375,-0.004996889270842075,-0.002811232814565301,-0.02046719193458557
1690839715778500900,2.6115009765625,-0.006794522982090712,-0.0013968279818072915,-0.020078103989362717
1690839715788541700,2.621541748046875,-0.005462143570184708,0.00012783173588104546,-0.017719075083732605
1690839715798592000,2.631592041015625,-0.005132976453751326,-0.0022564963437616825,-0.020896226167678833
1690839715808631800,2.6416318359375,-0.003926032222807407,-0.0022860574536025524,-0.019601663574576378
1690839715818671900,2.651671875,-0.004819256253540516,-0.0031372036319226027,-0.02178012952208519
1690839715828713000,2.661712890625,-0.005477589555084705,-0.0036882117856293917,-0.020687701180577278
1690839715838753000,2.6717529296875,-0.0038365498185157776,-0.0018666095566004515,-0.019660519436001778
1690839715848793000,2.68179296875,-0.005531651899218559,-0.002957440447062254,-0.01979048177599907
1690839715858834000,2.691833984375,-0.0031198931392282248,-0.002543318783864379,-0.01848233863711357
1690839715868874000,2.7018740234375,-0.006139118690043688,-0.00202267081476748,-0.019508453086018562
1690839715878913800,2.711913818359375,-0.004280232358723879,-0.0008127967594191432,-0.018752649426460266
1690839715888953900,2.721953857421875,-0.004159324802458286,-0.0016402408946305513,-0.020866932347416878
1690839715899025000,2.73202490234375,-0.003894606838002801,-0.0007233145297504961,-0.02057238668203354
1690839715909066000,2.74206591796875,-0.004831506870687008,-0.0004237089306116104,-0.02075747586786747
1690839715919106000,2.75210595703125,-0.006142048165202141,-0.0023097596131265163,-0.02130129374563694
1690839715929146000,2.76214599609375,-0.004905010107904673,-0.003349457634612918,-0.02141634188592434
1690839715939186000,2.77218603515625,-0.003881823504343629,-0.0028240159153938293,-0.021617677062749863
1690839715949226800,2.782226806640625,-0.0025933862198144197,-0.0032775523141026497,-0.020498083904385567
1690839715959266800,2.792266845703125,-0.0062672169879078865,-0.001514539704658091,-0.021217403933405876
1690839715969307000,2.802306884765625,-0.00458596320822835,-0.0031230889726430178,-0.02173006348311901
1690839715979348000,2.812347900390625,-0.004060521721839905,-0.001555552356876433,-0.01998169720172882
1690839715989388000,2.822387939453125,-0.0062858592718839645,-0.0017148094484582543,-0.019282618537545204
1690839715999428000,2.832427978515625,-0.005662945564836264,-0.00005273058923194185,-0.02177959680557251
1690839716009468200,2.84246826171875,-0.0046847667545080185,-0.0004293015517760068,-0.022072546184062958
1690839716019509000,2.852509033203125,-0.0026493126060813665,-0.0021965752821415663,-0.02141447737812996
1690839716029548800,2.862548828125,-0.0043593281880021095,-0.0015816513914614916,-0.020499682053923607
1690839716039588900,2.8725888671875,-0.005141232628375292,-0.0008841694798320532,-0.02184244804084301
1690839716049660000,2.882659912109375,-0.0038077877834439278,-0.003373426152393222,-0.018806710839271545
1690839716059700000,2.892699951171875,-0.004240817856043577,-0.0022248048335313797,-0.021703165024518967
1690839716069741000,2.902740966796875,-0.005526592023670673,-0.0029824741650372744,-0.020079702138900757
1690839716079781000,2.912781005859375,-0.0032234902027994394,-0.0019291938515380025,-0.018861837685108185
1690839716089821000,2.922821044921875,-0.0043859598226845264,-0.0025457157753407955,-0.019935624673962593
1690839716099861000,2.932861083984375,-0.00395585922524333,-0.001895105466246605,-0.020383568480610847
1690839716109901800,2.94290185546875,-0.004816060420125723,-0.002192580606788397,-0.020561201497912407
1690839716119942000,2.95294189453125,-0.004055195488035679,-0.0022240057587623596,-0.02173086255788803
1690839716129982000,2.96298193359375,-0.00421285443007946,-0.0027499801944941282,-0.01950232870876789
1690839716140023000,2.97302294921875,-0.00624191714450717,-0.0007693872321397066,-0.020264524966478348
1690839716150063000,2.98306298828125,-0.0046541402116417885,-0.004594485275447369,-0.019177423790097237
1690839716160103200,2.993103271484375,-0.00472498033195734,-0.0014194648247212172,-0.021824073046445847
1690839716170143000,3.00314306640625,-0.004625378176569939,-0.0015014902455732226,-0.019219500944018364
1690839716180183800,3.013183837890625,-0.0046634613536298275,-0.0003235740587115288,-0.01998595893383026
1690839716190224000,3.023223876953125,-0.005703159607946873,-0.002913231961429119,-0.020319918170571327
1690839716200295000,3.033294921875,-0.004728176165372133,-0.002938798163086176,-0.01938435062766075
1690839716210335000,3.0433349609375,-0.004228034522384405,-0.0030096382834017277,-0.01931271143257618
1690839716220375000,3.053375,-0.004890096373856068,-0.0018490327056497335,-0.020667994394898415
1690839716230416100,3.063416015625,-0.00555242458358407,-0.0012953615514561534,-0.019576897844672203
1690839716240456000,3.0734560546875,-0.005205947440117598,-0.0033135050907731056,-0.019109245389699936
1690839716250496000,3.08349609375,-0.005804093088954687,-0.0007576693315058947,-0.02237747795879841
1690839716260536800,3.093536865234375,-0.005621932912617922,-0.0011941614793613553,-0.0224432572722435
1690839716270577000,3.103576904296875,-0.004030694253742695,-0.0030213561840355396,-0.019887421280145645
1690839716280617000,3.113616943359375,-0.00507065886631608,-0.0011835087789222598,-0.019596338272094727
1690839716290657000,3.123656982421875,-0.005344964098185301,-0.0026013758033514023,-0.02153964713215828
1690839716300698000,3.133697998046875,-0.003629089565947652,-0.0022889869287610054,-0.020731909200549126
1690839716310738200,3.14373828125,-0.005360943265259266,-0.000568318588193506,-0.023735156282782555
1690839716320778000,3.153778076171875,-0.006203833501785994,-0.0013345100451260805,-0.021740715950727463
1690839716330818000,3.163818115234375,-0.005305283237248659,-0.002939597237855196,-0.020842431113123894
1690839716340859000,3.17385888671875,-0.0057529606856405735,-0.0006713828770443797,-0.022057631984353065
1690839716350930000,3.183929931640625,-0.004041613079607487,-0.0038059235084801912,-0.021024858579039574
1690839716360970000,3.193969970703125,-0.004394748248159885,-0.002919357270002365,-0.02189810760319233
1690839716371010000,3.204010009765625,-0.004465588368475437,0.0013148026773706079,-0.017168067395687103
1690839716381049900,3.2140498046875,-0.005279184319078922,-0.0027294738683849573,-0.0196852870285511
1690839716391091000,3.224091064453125,-0.0036519928835332394,-0.0011400992516428232,-0.0207526832818985
1690839716401131000,3.234131103515625,-0.006479737348854542,-0.0014740596525371075,-0.020796358585357666
1690839716411171000,3.244171142578125,-0.004216849338263273,-0.0004426173691172153,-0.018314825370907784
1690839716421212000,3.2542119140625,-0.0037955371662974358,0.004014449194073677,-0.018101772293448448
1690839716431252000,3.264251953125,-0.005346029531210661,0.001472728094086051,-0.015896940603852272
1690839716441292000,3.2742919921875,-0.004077033139765263,0.007574562914669514,-0.01601332053542137
1690839716451332000,3.28433203125,-0.004151069093495607,0.009916813112795353,-0.016096411272883415
1690839716461373200,3.294373291015625,-0.003025617217645049,0.007097057998180389,-0.018388329073786736
1690839716471413000,3.3044130859375,-0.0036557212006300688,-0.001222657272592187,-0.021392639726400375
1690839716481453000,3.314453125,-0.005131911486387253,-0.003546531544998288,-0.019844278693199158
1690839716491494000,3.324493896484375,-0.005711681675165892,-0.003233343828469515,-0.020319651812314987
1690839716501564000,3.33456396484375,-0.004323375876992941,-0.0005243764026090503,-0.019459452480077744
1690839716511605000,3.34460498046875,-0.004006725735962391,-0.00267807487398386,-0.020300744101405144
1690839716521645000,3.35464501953125,-0.004597148858010769,-0.0027686222456395626,-0.019941750913858414
1690839716531684900,3.364684814453125,-0.0028826056513935328,-0.003498594742268324,-0.019422167912125587
1690839716541725000,3.374724853515625,-0.003763312939554453,-0.0035364115610718727,-0.020241355523467064
1690839716551766000,3.38476611328125,-0.005635781679302454,-0.0012234562309458852,-0.017844244837760925
1690839716561806000,3.39480615234375,-0.004595550708472729,-0.0038373488932847977,-0.020206468179821968
1690839716571846000,3.404845947265625,-0.005411010701209307,-0.0029622339643538,-0.01996838115155697
1690839716581887000,3.414886962890625,-0.005532983224838972,-0.001945705502294004,-0.02286696620285511
1690839716591927000,3.424927001953125,-0.005592904519289732,-0.0023909860756248236,-0.020077837631106377
1690839716601966800,3.434966796875,-0.004770254250615835,-0.001303084660321474,-0.020556140691041946
1690839716612007000,3.4450068359375,-0.00563897704705596,-0.002638659905642271,-0.01937289908528328
1690839716622048000,3.455048095703125,-0.0052115400321781635,-0.0014333132421597838,-0.017904698848724365
1690839716632088000,3.465088134765625,-0.0041036647744476795,-0.0011291803093627095,-0.02075960673391819
1690839716642128000,3.4751279296875,-0.00467651104554534,-0.0012876383261755109,-0.018874088302254677
1690839716652199000,3.485198974609375,-0.006129798013716936,-0.002430667169392109,-0.018856778740882874
1690839716662239000,3.495239013671875,-0.005025651305913925,-0.0032953955233097076,-0.021161478012800217
1690839716672280000,3.505280029296875,-0.0036844832357019186,-0.0025811356026679277,-0.02149224281311035
1690839716682320000,3.51531982421875,-0.0036517265252768993,-0.003552390495315194,-0.021797174587845802
1690839716692360000,3.52535986328125,-0.005163336638361216,-0.004636829718947411,-0.02129410393536091
1690839716702401000,3.535401123046875,-0.004885036498308182,-0.002123870886862278,-0.020050406455993652
1690839716712441000,3.545441162109375,-0.005076517816632986,-0.0010988202411681414,-0.020773988217115402
1690839716722481000,3.55548095703125,-0.004992894362658262,-0.0016319850692525506,-0.022536734119057655
1690839716732521000,3.56552099609375,-0.004034689161926508,-0.004731638357043266,-0.018753714859485626
1690839716742562000,3.57556201171875,-0.004325772635638714,-0.001823732745833695,-0.01938781328499317
1690839716752601900,3.585601806640625,-0.004428037907928228,-0.00029534456552937627,-0.02058650180697441
1690839716762642000,3.595641845703125,-0.004502606578171253,-0.0028581044171005487,-0.02129277214407921
1690839716772683000,3.60568310546875,-0.005232844967395067,-0.0024762072134763002,-0.01973189227283001
1690839716782723000,3.61572314453125,-0.0059937103651463985,-0.0018232000293210149,-0.018920693546533585
1690839716792794000,3.625794189453125,-0.005510080140084028,-0.004736165516078472,-0.019748670980334282
1690839716802833700,3.635833740234375,-0.005488774739205837,-0.0021579593885689974,-0.02063710056245327
1690839716812873700,3.645873779296875,-0.003960919566452503,-0.004841094370931387,-0.01896383799612522
1690839716822913500,3.65591357421875,-0.00589623861014843,-0.002642122097313404,-0.02124323695898056
1690839716832954600,3.66595458984375,-0.002959570847451687,-0.0008815063047222793,-0.020611535757780075
1690839716842994700,3.67599462890625,-0.0064714811742305756,-0.0011771172285079956,-0.021080518141388893
1690839716853034500,3.686034423828125,-0.006297843065112829,0.00007163903501350433,-0.019775569438934326
1690839716863075600,3.69607568359375,-0.004511927254498005,-0.0012247877893969417,-0.022189991548657417
1690839716873115600,3.70611572265625,-0.004570250865072012,-0.0016943031223490834,-0.021500498056411743
1690839716883155700,3.71615576171875,-0.006186523009091616,-0.0010700580896809697,-0.02027864009141922
1690839716893195500,3.726195556640625,-0.003762780223041773,-0.0012727247085422277,-0.01882908120751381
1690839716903236600,3.736236572265625,-0.0054299188777804375,-0.0027182884514331818,-0.020546553656458855
1690839716913276700,3.746276611328125,-0.006237389519810677,-0.0024610271211713552,-0.01973189227283001
1690839716923316700,3.756316650390625,-0.005620335228741169,-0.0021944446489214897,-0.019722837954759598
1690839716933357800,3.76635791015625,-0.00421418622136116,-0.0024831313639879227,-0.02087625302374363
1690839716943427600,3.776427490234375,-0.0037348170299082994,-0.001276453142054379,-0.01936597377061844
1690839716953468700,3.78646875,-0.005306614562869072,-0.022404374554753304,-0.19417347013950348
1690839716963508500,3.796508544921875,-0.020181700587272644,-0.22743955254554749,-0.09832710027694702
1690839716973548500,3.806548583984375,-0.004799815360456705,0.024036094546318054,-0.04350007325410843
1690839716983588600,3.816588623046875,-0.007731422781944275,-0.006836334243416786,-0.025524534285068512
1690839716993629700,3.826629638671875,-0.007127418182790279,-0.0203982163220644,-0.017739849165081978
1690839717003669500,3.83666943359375,-0.004911401774734259,-0.027587952092289925,-0.015074023976922035
1690839717013709600,3.84670947265625,-0.0055092815309762955,-0.02008902281522751,-0.01329742930829525
1690839717023750700,3.856750732421875,-0.0030056436080485582,-0.000437291048001498,-0.011348261497914791
1690839717033790500,3.86679052734375,-0.00230842805467546,0.014362960122525692,-0.011313107796013355
1690839717043830500,3.87683056640625,-0.00436145905405283,0.024751685559749603,-0.009637180715799332
1690839717053870600,3.88687060546875,-0.004085022956132889,0.024876853451132774,-0.010088587179780006
1690839717063911700,3.89691162109375,-0.003849599277600646,0.01781122200191021,-0.011891813017427921
1690839717073951500,3.906951416015625,-0.004464523401111364,0.005915945861488581,-0.009708287194371223
1690839717083991600,3.916991455078125,-0.005164135713130236,-0.0082102594897151,-0.011750665493309498
1690839717094062600,3.9270625,-0.006057359743863344,-0.01709749363362789,-0.014816496521234512
1690839717104102700,3.9371025390625,-0.006910636555403471,-0.02202806994318962,-0.016536898910999298
1690839717114143500,3.9471435546875,-0.00538331363350153,-0.018430139869451523,-0.020134562626481056
1690839717124183600,3.95718359375,-0.004788097459822893,-0.012940566055476665,-0.024046480655670166
1690839717134223600,3.9672236328125,-0.00503976596519351,-0.0035167040769010782,-0.028178108856081963
1690839717144264700,3.9772646484375,-0.004682902246713638,0.006672816351056099,-0.02959437668323517
1690839717154304500,3.987304443359375,-0.0037116475868970156,0.011547733098268509,-0.03013473190367222
1690839717164344600,3.997344482421875,-0.0034826158080250025,0.01185000129044056,-0.029460953548550606
1690839717174384600,4.007384521484375,-0.0036549223586916924,0.00762862479314208,-0.02863910235464573
1690839717184425500,4.017425537109375,-0.004287156742066145,-0.00034647725988179445,-0.02672322280704975
1690839717194465500,4.027465576171875,-0.004741491749882698,-0.009182047098875046,-0.025967685505747795
1690839717204505600,4.037505615234375,-0.005244562868028879,-0.011657188646495342,-0.021930599585175514
1690839717214546700,4.047546630859375,-0.003949201665818691,-0.013052418828010559,-0.018974490463733673
1690839717224586500,4.05758642578125,-0.007110107224434614,-0.01110138650983572,-0.01683756895363331
1690839717234626600,4.06762646484375,-0.007611314300447702,-0.007391603663563728,-0.014509433880448341
1690839717244697600,4.077697509765625,-0.005333512555807829,0.00023036343918647617,-0.01230620127171278
1690839717254737700,4.087737548828125,-0.005507150664925575,0.005763346794992685,-0.011800999753177166
1690839717264777700,4.09777783203125,-0.003010703483596444,0.006548979319632053,-0.013161075301468372
1690839717274818600,4.107818603515625,-0.0035931370221078396,0.00583764910697937,-0.013716344721615314
1690839717284858600,4.117858642578125,-0.0031577101908624172,0.00446984963491559,-0.014361095614731312
1690839717294898400,4.1278984375,-0.00395639194175601,0.0015670040156692266,-0.016097476705908775
1690839717304939500,4.137939453125,-0.006644853390753269,-0.00595536082983017,-0.018184330314397812
1690839717314979600,4.1479794921875,-0.006238188594579697,-0.009011604823172092,-0.02142939157783985
1690839717325019600,4.15801953125,-0.005188636481761932,-0.006608101539313793,-0.022593459114432335
1690839717335059700,4.168059814453125,-0.0076086511835455894,-0.007381217088550329,-0.026144253090023994
1690839717345100500,4.1781005859375,-0.004463457968086004,-0.004047472029924393,-0.023901337757706642
1690839717355140600,4.188140625,-0.004895422607660294,0.00011398329661460593,-0.02616821974515915
1690839717365180400,4.198180419921875,-0.004445348400622606,0.001511343871243298,-0.027043335139751434
1690839717375221500,4.208221435546875,-0.004804608877748251,0.0013736584223806858,-0.024228639900684357
1690839717385261600,4.218261474609375,-0.004893824923783541,-0.0006138586322776973,-0.025536518543958664
1690839717395332600,4.22833251953125,-0.004083424806594849,-0.001094825565814972,-0.023496272042393684
1690839717405372700,4.23837255859375,-0.004252269398421049,-0.0022000374738126993,-0.02370666153728962
1690839717415412700,4.248412841796875,-0.005703159607946873,-0.004628041293472052,-0.0217116866260767
1690839717425453600,4.25845361328125,-0.006739129312336445,-0.0070280819199979305,-0.021331919357180595
1690839717435493600,4.26849365234375,-0.005536445416510105,-0.003512975759804249,-0.019054651260375977
1690839717445533400,4.278533447265625,-0.0036360137164592743,-0.003698065411299467,-0.018373681232333183
1690839717455573500,4.288573486328125,-0.0036972665693610907,-0.0036570527590811253,-0.017238641157746315
1690839717465614600,4.298614501953125,-0.005160673521459103,0.00039068571641109884,-0.015719307586550713
1690839717475654700,4.308654541015625,-0.00560941593721509,-0.00026525085559114814,-0.016157131642103195
1690839717485694700,4.31869482421875,-0.004419249482452869,0.00199364242143929,-0.014999455772340298
1690839717495734800,4.32873486328125,-0.00449754623696208,-0.0003430151555221528,-0.01581784524023533
1690839717505775600,4.338775634765625,-0.005061071366071701,-0.0023470439482480288,-0.017654361203312874
1690839717515815400,4.3488154296875,-0.004552407655864954,-0.003754524514079094,-0.01930898241698742
1690839717525855500,4.35885546875,-0.0036602485924959183,-0.0020546286832541227,-0.02117878757417202
1690839717535896600,4.368896484375,-0.004446147475391626,-0.0024857944808900356,-0.02263713628053665
1690839717545966600,4.378966552734375,-0.004429901950061321,-0.005647765472531319,-0.023444605991244316
1690839717556007700,4.389007568359375,-0.004808071069419384,-0.0007294398383237422,-0.022120481356978416
1690839717566047700,4.3990478515625,-0.005398760084062815,-0.0031614385079592466,-0.023978836834430695
1690839717576087800,4.409087890625,-0.004855475388467312,-0.0017278589075431228,-0.02436898835003376
1690839717586128600,4.419128662109375,-0.005579056218266487,0.0022562299855053425,-0.024270718917250633
1690839717596168400,4.42916845703125,-0.005498362239450216,-0.0008026767172850668,-0.02305232174694538
1690839717606208500,4.43920849609375,-0.005247492343187332,-0.0026759442407637835,-0.022964172065258026
1690839717616248600,4.44924853515625,-0.004719387739896774,-0.00310497940517962,-0.02256309986114502
1690839717626289700,4.45928955078125,-0.004932706709951162,-0.0041060615330934525,-0.021498367190361023
1690839717636329700,4.469329833984375,-0.0054395063780248165,-0.0019853864796459675,-0.018580075353384018
1690839717646369800,4.479369873046875,-0.003367034485563636,-0.0056831855326890945,-0.020130036398768425
1690839717656410600,4.48941064453125,-0.006078132428228855,-0.0037089844699949026,-0.017298828810453415
1690839717666450400,4.499450439453125,-0.003976099658757448,-0.002668487373739481,-0.019464777782559395
1690839717676490500,4.509490478515625,-0.004087419714778662,-0.0013827132061123848,-0.01853799819946289
1690839717686530600,4.519530517578125,-0.005657086614519358,-0.0016058861510828137,-0.017165670171380043
1690839717696601600,4.5296015625,-0.005600095260888338,-0.0016189356101676822,-0.0175614170730114
1690839717706641700,4.5396416015625,-0.004606469534337521,-0.0028003137558698654,-0.019220832735300064
1690839717716682800,4.549682861328125,-0.005595301277935505,-0.0012402341235429049,-0.020560402423143387
1690839717726722800,4.559722900390625,-0.00458649592474103,-0.0031369375064969063,-0.02008875645697117
1690839717736762600,4.5697626953125,-0.004791559185832739,-0.003674097126349807,-0.019833892583847046
1690839717746803500,4.579803466796875,-0.004771052859723568,-0.00686243362724781,-0.021757759153842926
1690839717756843500,4.589843505859375,-0.004220311529934406,-0.0036069853231310844,-0.021509552374482155
1690839717766883600,4.599883544921875,-0.00586614478379488,-0.0014365090755745769,-0.02233300171792507
1690839717776923600,4.609923583984375,-0.0037491980474442244,-0.003500991500914097,-0.02371465042233467
1690839717786964700,4.61996484375,-0.005106078926473856,-0.001534779672510922,-0.019952403381466866
1690839717796972800,4.629972900390625,-0.005560680292546749,-0.002466353354975581,-0.02251116745173931
1690839717807012900,4.640012939453125,-0.003936418332159519,-0.0008785768295638263,-0.021073060110211372
1690839717817053700,4.6500537109375,-0.005272526293992996,-0.0034346787724643946,-0.02232527919113636
1690839717827093800,4.66009375,-0.005710882600396872,-0.0021286646369844675,-0.02147333323955536
1690839717837164800,4.670164794921875,-0.0034794199746102095,-0.0026399914640933275,-0.019933760166168213
1690839717847204900,4.680204833984375,-0.0038485340774059296,-0.004523112904280424,-0.019662650302052498
1690839717857244700,4.69024462890625,-0.005363073665648699,-0.003043726785108447,-0.017716147005558014
1690839717867286000,4.7002861328125,-0.0030506509356200695,-0.0036722328513860703,-0.02008662559092045
1690839717877325800,4.710325927734375,-0.00512924836948514,-0.0035625104792416096,-0.019423766061663628
1690839717887366000,4.720365966796875,-0.005283445119857788,-0.0010002832859754562,-0.020018449053168297
1690839717897406000,4.730406005859375,-0.004700479097664356,-0.0011174624087288976,-0.019693011417984962
1690839717907446800,4.74044677734375,-0.004393683280795813,-0.0013792511308565736,-0.019147329032421112
1690839717917486800,4.75048681640625,-0.0038048583082854748,-0.0011733887949958444,-0.020503144711256027
1690839717927527000,4.76052685546875,-0.0043808999471366405,-0.0011467571603134274,-0.020613133907318115
1690839717937566700,4.770566650390625,-0.005095425993204117,-0.002540655666962266,-0.020926320925354958
1690839717947607800,4.78060791015625,-0.005322061013430357,-0.003820038167759776,-0.020737236365675926
1690839717957648000,4.79064794921875,-0.00518810423091054,-0.0035020567011088133,-0.020446686074137688
1690839717967688000,4.80068798828125,-0.00407570181414485,-0.0037348170299082994,-0.021223263815045357
1690839717977728800,4.810728759765625,-0.004750014282763004,-0.0029523803386837244,-0.019757458940148354
1690839717987799000,4.820799072265625,-0.0046634613536298275,-0.002666090615093708,-0.019892748445272446
1690839717997840000,4.83083984375,-0.004005926661193371,-0.001207477180287242,-0.02141554281115532
1690839718007879700,4.840879638671875,-0.003691940102726221,0.000056459015468135476,-0.021015269681811333
1690839718017919700,4.850919677734375,-0.003946804907172918,-0.000022370553779182956,-0.02004614658653736
1690839718027960800,4.8609609375,-0.004179032519459724,0.0003230414295103401,-0.02106933295726776
1690839718038001000,4.8710009765625,-0.0033398703671991825,-0.00038003307417966425,-0.021194234490394592
1690839718048041000,4.881041015625,-0.002880475018173456,-0.0035057852510362864,-0.018438927829265594
1690839718058081000,4.8910810546875,-0.0038812910206615925,-0.004303934518247843,-0.01949939876794815
1690839718068121900,4.901121826171875,-0.004544684197753668,-0.002100168727338314,-0.019585153087973595
1690839718078162000,4.911161865234375,-0.006837932392954826,-0.0023489079903811216,-0.019834958016872406
1690839718088201700,4.92120166015625,-0.00515774404630065,-0.0043715788051486015,-0.021468007937073708
1690839718098242800,4.931242919921875,-0.0057500312104821205,-0.003233876544982195,-0.020228838548064232
1690839718108283000,4.941282958984375,-0.005940713454037905,-0.00002103897168126423,-0.019085010513663292
1690839718118323000,4.951322998046875,-0.005841909907758236,0.0008564725867472589,-0.0204504132270813
1690839718128363000,4.961363037109375,-0.004473578184843063,-0.0010972223244607449,-0.020560402423143387
1690839718138434000,4.97143408203125,-0.004176901653409004,-0.0007534082396887243,-0.021080251783132553
1690839718148473900,4.981473876953125,-0.006090915761888027,-0.0012463594321161509,-0.021349497139453888
1690839718158514700,4.9915146484375,-0.00566907087340951,-0.0021758025977760553,-0.020022444427013397
1690839718168554800,5.0015546875,-0.0039116512052714825,-0.003315103007480502,-0.020781178027391434
1690839718178594800,5.0115947265625,-0.005206213798373938,-0.002115348819643259,-0.021398765966296196
1690839718188636000,5.021635986328125,-0.004269313532859087,-0.0022767363116145134,-0.02105894684791565
1690839718198676000,5.031676025390625,-0.005293565336614847,-0.0046908920630812645,-0.02160915546119213
1690839718208716000,5.041716064453125,-0.003603257006034255,-0.0019534286111593246,-0.020892765372991562
1690839718218755800,5.051755859375,-0.004069576505571604,-0.002662628423422575,-0.020850952714681625
1690839718228797000,5.061796875,-0.004935636185109615,-0.0018631474813446403,-0.019782492890954018
1690839718238836700,5.071836669921875,-0.004750280175358057,-0.0030919299460947514,-0.02046133205294609
1690839718248876800,5.081876708984375,-0.005733519326895475,-0.0006215817993506789,-0.02010633423924446
1690839718258918000,5.09191796875,-0.004306331276893616,-0.0009379653492942452,-0.01980086974799633
1690839718268958000,5.1019580078125,-0.004420847166329622,-0.0017872473690658808,-0.018679678440093994
1690839718278998000,5.111998046875,-0.00555322365835309,-0.0020034960471093655,-0.018443988636136055
1690839718289069000,5.122069091796875,-0.0049007488414645195,-0.0031273500062525272,-0.0190192312002182
1690839718299108900,5.13210888671875,-0.004598480183631182,-0.003888215171173215,-0.020314326509833336
1690839718309149700,5.142149658203125,-0.0054626758210361,-0.0012114719720557332,-0.01986824721097946
1690839718319189800,5.152189697265625,-0.005540706682950258,-0.002767024328932166,-0.019757458940148354
1690839718329229800,5.162229736328125,-0.005744704511016607,-0.001502555445767939,-0.021090904250741005
1690839718339270000,5.172269775390625,-0.005638444796204567,-0.0004673847579397261,-0.02191115729510784
1690839718349311000,5.18231103515625,-0.0041465419344604015,-0.0025928535033017397,-0.019829098135232925
1690839718359351000,5.19235107421875,-0.004601942375302315,-0.0038128476589918137,-0.02022058330476284
1690839718369390800,5.202390869140625,-0.0051686628721654415,-0.0030956584960222244,-0.01967996172606945
1690839718379432000,5.212431884765625,-0.0038253646343946457,-0.0019587550777941942,-0.021918615326285362
1690839718389471700,5.2224716796875,-0.004236556589603424,-0.0018516959389671683,-0.0190205629914999
1690839718399511800,5.23251171875,-0.004748682491481304,-0.0010434264549985528,-0.02040833607316017
1690839718409552000,5.2425517578125,-0.005760150961577892,-0.003704190719872713,-0.020471986383199692
1690839718419593000,5.252593017578125,-0.005631520412862301,-0.002612294629216194,-0.022540995851159096
1690839718429633000,5.262633056640625,-0.004049070179462433,-0.0036250948905944824,-0.020803548395633698
1690839718439704000,5.2727041015625,-0.0054605454206466675,-0.002454369328916073,-0.02063150890171528
1690839718449744000,5.282743896484375,-0.005116465035825968,-0.002026133006438613,-0.018935874104499817
1690839718459783700,5.29278369140625,-0.004067179746925831,-0.002810700098052621,-0.020625382661819458
1690839718469824800,5.30282470703125,-0.003753991797566414,0.0003102582704741508,-0.020597420632839203
1690839718479864800,5.31286474609375,-0.0055092815309762955,-0.0023755396250635386,-0.020781977102160454
1690839718489905000,5.32290478515625,-0.0051715923473238945,-0.001782453735359013,-0.019291672855615616
1690839718499945000,5.332945068359375,-0.004070375580340624,-0.0011435613268986344,-0.020866665989160538
1690839718509986000,5.342986083984375,-0.005087436642497778,-0.0003070624661631882,-0.019587550312280655
1690839718520025900,5.35302587890625,-0.004550543148070574,-0.001526257605291903,-0.019997943192720413
1690839718530065700,5.363065673828125,-0.0036554548423737288,-0.001904160133562982,-0.02010153979063034
1690839718540106800,5.373106689453125,-0.004748948849737644,-0.0018282600212842226,-0.019284747540950775
1690839718550146800,5.383146728515625,-0.005033374298363924,-0.0046418895944952965,-0.022519158199429512
1690839718560187000,5.393186767578125,-0.006780407857149839,-0.0038131140172481537,-0.022066686302423477
1690839718570227000,5.40322705078125,-0.005544701125472784,-0.002956907730549574,-0.019895145669579506
1690839718580268000,5.41326806640625,-0.00520754512399435,-0.001957956003025174,-0.020780378952622414
1690839718590337800,5.423337890625,-0.004227768164128065,-0.0018823222490027547,-0.021800370886921883
1690839718600378600,5.433378662109375,-0.00577772781252861,-0.0016879114555194974,-0.020595023408532143
1690839718610418700,5.443418701171875,-0.005226986017078161,-0.0024977787397801876,-0.018911639228463173
1690839718620458800,5.453458740234375,-0.004846154246479273,-0.001026382320560515,-0.020748954266309738
1690839718630499800,5.463499755859375,-0.0040823593735694885,-0.0014780544443055987,-0.01938381791114807
1690839718640540000,5.473539794921875,-0.005880259443074465,-0.0035260252188891172,-0.019300460815429688
1690839718650580000,5.483580078125,-0.0029177593532949686,-0.0037846181076020002,-0.020268786698579788
1690839718660619800,5.493619873046875,-0.0026051041204482317,-0.0026495789643377066,-0.01961604505777359
1690839718670660600,5.50366064453125,-0.004652276169508696,-0.00523657351732254,-0.019155051559209824
1690839718680700700,5.51370068359375,-0.004237089306116104,-0.00355931487865746,-0.01793425902724266
1690839718690740700,5.52374072265625,-0.005118062719702721,-0.003881823504343629,-0.019708722829818726
1690839718700781800,5.53378173828125,-0.005583317019045353,-0.002338788006454706,-0.01973721943795681
1690839718710822000,5.54382177734375,-0.005124188028275967,-0.0013667342718690634,-0.020649617537856102
1690839718720862000,5.553862060546875,-0.005540173966437578,-0.0008506136364303529,-0.02178066223859787
1690839718730902000,5.563902099609375,-0.004220045171678066,-0.0035065840929746628,-0.021030450239777565
1690839718740972800,5.573972900390625,-0.005658152047544718,-0.0008333030855283141,-0.022226475179195404
1690839718751013600,5.584013671875,-0.0043505397625267506,-0.002892459277063608,-0.02225363999605179
1690839718761053700,5.5940537109375,-0.0046362970024347305,-0.00199284334667027,-0.022067751735448837
1690839718771093800,5.60409375,-0.005132177844643593,-0.0016881778137758374,-0.021494640037417412
1690839718781133800,5.6141337890625,-0.004818190820515156,-0.0018287927377969027,-0.021416075527668
1690839718791175000,5.6241748046875,-0.005056011490523815,-0.0024716798216104507,-0.01918701082468033
1690839718801235700,5.634235595703125,-0.0026493126060813665,-0.003629089565947652,-0.021699968725442886
1690839718811275500,5.644275634765625,-0.0038045919500291348,-0.002177933230996132,-0.020263992249965668
1690839718821316600,5.654316650390625,-0.004342284053564072,-0.0019331886433064938,-0.02167120762169361
1690839718831356400,5.6643564453125,-0.005138036794960499,-0.000761664065066725,-0.018788069486618042
1690839718841396500,5.674396484375,-0.0049510826356709,-0.0028461201582103968,-0.01890471577644348
1690839718851436500,5.6844365234375,-0.003718305379152298,-0.0022626216523349285,-0.02002563886344433
1690839718861477600,5.6944775390625,-0.005016862880438566,-0.0023582291323691607,-0.01986638270318508
1690839718871517700,5.704517578125,-0.005658951122313738,-0.003748132847249508,-0.019302591681480408
1690839718881588500,5.71458837890625,-0.005082643125206232,-0.0034378746058791876,-0.019775569438934326
1690839718891628500,5.724628662109375,-0.0039145806804299355,-0.0009382316493429244,-0.02232767641544342
1690839718901668600,5.734668701171875,-0.0029936593491584063,-0.0037787591572850943,-0.020710604265332222
1690839718911709400,5.74470947265625,-0.0039880839176476,-0.0022125542163848877,-0.021326860412955284
1690839718921749500,5.75474951171875,-0.005411277059465647,-0.0016996293561533093,-0.01938168704509735
1690839718931789600,5.76478955078125,-0.005028048064559698,-0.001853826455771923,-0.019876502454280853
1690839718941829400,5.774829345703125,-0.005717806983739138,-0.002834668615832925,-0.022414760664105415
1690839718951870500,5.784870361328125,-0.003997937310487032,-0.0015784555580466986,-0.0189590435475111
1690839718961910500,5.79491064453125,-0.004975051153451204,-0.0025031049735844135,-0.020245883613824844
1690839718971950600,5.80495068359375,-0.004869323689490557,-0.0011195929255336523,-0.020733773708343506
1690839718981991400,5.814991455078125,-0.003879160387441516,-0.0012013519881293178,-0.020172646269202232
1690839718992031500,5.825031494140625,-0.005379319190979004,-0.0031467911321669817,-0.019884224981069565
1690839719002071600,5.835071533203125,-0.004248274490237236,-0.0016173376934602857,-0.019285013899207115
1690839719012111600,5.845111572265625,-0.0056994310580194,-0.0004034689045511186,-0.019659455865621567
1690839719022152700,5.855152587890625,-0.006636330857872963,-0.0030091057997196913,-0.01991005800664425
1690839719032223500,5.865223388671875,-0.004618453793227673,-0.002716158051043749,-0.020805945619940758
1690839719042263600,5.875263671875,-0.003917243797332048,-0.0007739146240055561,-0.0196077898144722
1690839719052303600,5.8853037109375,-0.004839496221393347,-0.00216594897210598,-0.018212558701634407
1690839719062343700,5.89534375,-0.00433136522769928,-0.001336107961833477,-0.01955718919634819
1690839719072384500,5.905384521484375,-0.005083708092570305,-0.0033840788528323174,-0.01889486238360405
1690839719082424600,5.915424560546875,-0.005204349290579557,-0.0027414578944444656,-0.017907893285155296
1690839719092464400,5.92546435546875,-0.0051681301556527615,-0.0002103897277265787,-0.02184670977294445
1690839719102504400,5.93550439453125,-0.00552339619025588,-0.0017598168924450874,-0.021348431706428528
1690839719112545500,5.945545654296875,-0.005658152047544718,-0.0036045885644853115,-0.021449897438287735
1690839719122585600,5.955585693359375,-0.00418276060372591,-0.0028157602064311504,-0.02052951045334339
1690839719132625700,5.965625732421875,-0.005622199270874262,-0.0009054747642949224,-0.021676532924175262
1690839719142666500,5.97566650390625,-0.0052208611741662025,-0.0020756677258759737,-0.019839750602841377
1690839719152706600,5.98570654296875,-0.005343632772564888,-0.003932956140488386,-0.021158015355467796
1690839719162746600,5.99574658203125,-0.006646983791142702,-0.002198173198848963,-0.019473033025860786
1690839719172786400,6.005786376953125,-0.004264785908162594,-0.0019414444686844945,-0.01900777965784073
1690839719182857500,6.015857421875,-0.0046852994710206985,-0.0027113643009215593,-0.01786421798169613
1690839719192898600,6.025898681640625,-0.0040975394658744335,-0.004185423720628023,-0.01876862719655037
1690839719202938600,6.035938720703125,-0.0037441381718963385,-0.0023363912478089333,-0.02225550450384617
1690839719212978700,6.045978759765625,-0.005389971658587456,-0.0012631373247131705,-0.01847994141280651
1690839719223018800,6.056018798828125,-0.004877313040196896,-0.0038277613930404186,-0.020608605816960335
1690839719233059600,6.0660595703125,-0.005248557776212692,-0.0027105652261525393,-0.022166555747389793
1690839719243099400,6.076099365234375,-0.004759334959089756,-0.002189118415117264,-0.020792096853256226
1690839719253139500,6.086139404296875,-0.005585181526839733,0.0000977380113909021,-0.021648837253451347
1690839719263180500,6.0961806640625,-0.005195028148591518,-0.00219524372369051,-0.02046452835202217
1690839719273220600,6.106220703125,-0.004187288228422403,-0.0036389431916177273,-0.019948674365878105
1690839719283260700,6.1162607421875,-0.0047148605808615685,-0.0020128171890974045,-0.019660253077745438
1690839719293300700,6.12630078125,-0.005624329671263695,-0.002447711303830147,-0.020607540383934975
1690839719303341600,6.136341552734375,-0.005546299275010824,-0.0012631373247131705,-0.020437363535165787
1690839719313381600,6.146381591796875,-0.00547386147081852,-0.0025182850658893585,-0.01942829228937626
1690839719323421400,6.15642138671875,-0.004542287439107895,-0.003953995183110237,-0.01955612376332283
1690839719333492500,6.166492431640625,-0.0040914141573011875,0.00035979304811917245,-0.019295932725071907
1690839719343532500,6.176532470703125,-0.004794755019247532,-0.0014064153656363487,-0.019634688273072243
1690839719353573600,6.18657373046875,-0.004775047767907381,-0.0038866172544658184,-0.020804613828659058
1690839719363613700,6.19661376953125,-0.004464523401111364,-0.0033712955191731453,-0.01768631860613823
1690839719373653800,6.20665380859375,-0.006595584563910961,-0.0025531724095344543,-0.02028689533472061
1690839719383693600,6.216693603515625,-0.004620051942765713,-0.002373941708356142,-0.02046053297817707
1690839719393734400,6.226734375,-0.0064989118836820126,-0.003094060579314828,-0.018488995730876923
1690839719403774500,6.2367744140625,-0.004435760900378227,-0.000934236915782094,-0.019361713901162148
1690839719413814500,6.246814453125,-0.004494883120059967,-0.0012101404136046767,-0.02002643793821335
1690839719423855600,6.256855712890625,-0.005259742960333824,-0.0020881847012788057,-0.021633923053741455
1690839719433895700,6.266895751953125,-0.0041031320579349995,-0.004609665367752314,-0.02117186412215233
1690839719443935700,6.276935791015625,-0.0046354979276657104,-0.001910019083879888,-0.020303141325712204
1690839719453975600,6.2869755859375,-0.0054182009771466255,-0.0007360977469943464,-0.0222131609916687
1690839719464016600,6.2970166015625,-0.004062385763972998,-0.004285292699933052,-0.020656542852520943
1690839719474056400,6.307056396484375,-0.0041396175511181355,-0.004571848548948765,-0.018794726580381393
1690839719484127500,6.31712744140625,-0.006168147549033165,-0.0006980145117267966,-0.01878034509718418
1690839719494167600,6.32716748046875,-0.004244812298566103,-0.0004753742541652173,-0.02003256417810917
1690839719504207600,6.33720751953125,-0.005691441707313061,-0.0019020296167582273,-0.01799418032169342
1690839719514248700,6.347248779296875,-0.004591023549437523,-0.0033483924344182014,-0.019212311133742332
1690839719524288800,6.357288818359375,-0.0043910201638937,-0.0023968450259417295,-0.0207526832818985
1690839719534328600,6.36732861328125,-0.0054339137859642506,-0.0013409015955403447,-0.020842164754867554
1690839719544369400,6.377369384765625,-0.005586779210716486,-0.003231213428080082,-0.019631225615739822
1690839719554409500,6.387409423828125,-0.006613960489630699,-0.0028016455471515656,-0.02148425206542015
1690839719564449500,6.397449462890625,-0.004726844374090433,-0.003570500062778592,-0.021741781383752823
1690839719574489600,6.407489501953125,-0.004274906124919653,-0.0008386294357478619,-0.019480224698781967
1690839719584530700,6.41753076171875,-0.0042733084410429,-0.0002764361270237714,-0.02081446722149849
1690839719594570800,6.42757080078125,-0.005508482456207275,-0.0007329019135795534,-0.019027220085263252
1690839719604610600,6.437610595703125,-0.004279433749616146,-0.0003270361921750009,-0.02064003050327301
1690839719614650400,6.447650390625,-0.006484530866146088,-0.004569185432046652,-0.02070021815598011
1690839719624691500,6.45769140625,-0.0037739656399935484,-0.002192314248532057,-0.020745491608977318
1690839719634762500,6.467762451171875,-0.005132444202899933,-0.0004964132094755769,-0.021196365356445312
1690839719644802600,6.477802490234375,-0.005517803598195314,-0.0026200178544968367,-0.01991085708141327
1690839719654842600,6.487842529296875,-0.005644037388265133,-0.0025531724095344543,-0.021208349615335464
1690839719664882700,6.497882568359375,-0.005692773032933474,-0.002301770029589534,-0.020490095019340515
1690839719674923800,6.507923828125,-0.004742557182908058,-0.0036272252909839153,-0.021450430154800415
1690839719684963600,6.517963623046875,-0.003768372815102339,-0.001600826159119606,-0.020916467532515526
1690839719695003400,6.52800341796875,-0.005563876125961542,-0.0007089334540069103,-0.020742030814290047
1690839719705044500,6.53804443359375,-0.0051899682730436325,-0.00233266269788146,-0.02172846533358097
1690839719715084500,6.54808447265625,-0.005371595732867718,-0.001790975802578032,-0.02111673727631569
1690839719725124600,6.55812451171875,-0.005507683381438255,-0.0026072347536683083,-0.022962573915719986
1690839719735164700,6.56816455078125,-0.004078098572790623,-0.0013707289472222328,-0.01913481205701828
1690839719745205800,6.578205810546875,-0.004180896561592817,-0.0004964132094755769,-0.01998862251639366
1690839719755245600,6.58824560546875,-0.004874117206782103,-0.0006908240029588342,-0.018758507445454597
1690839719765285400,6.598285400390625,-0.00561048137024045,-0.0015531554818153381,-0.021557489410042763
1690839719775326500,6.608326416015625,-0.006591590121388435,-0.0037835529074072838,-0.020115388557314873
1690839719785396500,6.618396484375,-0.005195294506847858,-0.0020719394087791443,-0.021703431382775307
1690839719795419400,6.62841943359375,-0.005557484459131956,-0.0021606225054711103,-0.020679179579019547
1690839719805459200,6.638459228515625,-0.0044136568903923035,-0.002636529505252838,-0.019448265433311462
1690839719815499300,6.648499267578125,-0.006480003707110882,-0.0022682142443954945,-0.019144665449857712
1690839719825539300,6.658539306640625,-0.006718090269714594,-0.0005459480453282595,-0.02094682678580284
1690839719835580400,6.668580322265625,-0.004150004126131535,-0.0005219795857556164,-0.021028852090239525
1690839719845620500,6.678620361328125,-0.005695702508091927,-0.0019126823171973228,-0.01997317560017109
1690839719855660500,6.68866064453125,-0.005601426586508751,-0.0019238675013184547,-0.020589962601661682
1690839719865701400,6.698701416015625,-0.00455613574013114,-0.0032674323301762342,-0.02197454124689102
1690839719875741200,6.7087412109375,-0.005653624422848225,-0.0016074840677902102,-0.02141900546848774
1690839719885781200,6.71878125,-0.004823517519980669,0.0019979034550487995,-0.018671421334147453
1690839719895821300,6.7288212890625,-0.005092496518045664,-0.0030208237003535032,-0.020014187321066856
1690839719905862400,6.7388623046875,-0.004244279582053423,-0.003285009181126952,-0.02160409465432167
1690839719915902500,6.74890234375,-0.004201935604214668,-0.001255414099432528,-0.02063869871199131
1690839719925942500,6.758942626953125,-0.0037087181117385626,-0.0013811152894049883,-0.019664248451590538
1690839719936013600,6.769013671875,-0.0037119139451533556,0.0003784351865760982,-0.01932256482541561
1690839719946053400,6.779053466796875,-0.004721784498542547,-0.0014231932582333684,-0.020903151482343674
1690839719956094200,6.78909423828125,-0.006412625312805176,-0.0025933862198144197,-0.020175842568278313
1690839719966134300,6.79913427734375,-0.005151086021214724,-0.002377137541770935,-0.01961258426308632
1690839719976174300,6.80917431640625,-0.005323925521224737,-0.0026101642288267612,-0.0205185916274786
1690839719986215400,6.81921533203125,-0.005358280148357153,-0.0030301446095108986,-0.020006731152534485
1690839719996255500,6.82925537109375,-0.005309011787176132,-0.0034906051587313414,-0.020429641008377075
1690839720006295600,6.839295654296875,-0.005108475685119629,-0.002305764937773347,-0.01992790214717388
1690839720016335400,6.84933544921875,-0.006126602180302143,-0.002912432886660099,-0.018030665814876556
1690839720026376200,6.859376220703125,-0.005750829819589853,-0.0018154769204556942,-0.01931936852633953
1690839720036416300,6.869416259765625,-0.004078098572790623,-0.0024469124618917704,-0.020747888833284378
1690839720046456300,6.879456298828125,-0.004809935111552477,-0.0008412926108576357,-0.019727632403373718
1690839720056496400,6.889496337890625,-0.003922570031136274,-0.002240251051262021,-0.019422700628638268
1690839720066537500,6.899537353515625,-0.004221642855554819,-0.0018730012234300375,-0.019935891032218933
1690839720076608500,6.9096083984375,-0.005194229539483786,-0.0023755396250635386,-0.021763352677226067
1690839720086648600,6.919648681640625,-0.00392842898145318,-0.004288222175091505,-0.021311946213245392
1690839720096688400,6.9296884765625,-0.004767857491970062,-0.0017486315919086337,-0.018377408385276794
1690839720106728200,6.939728271484375,-0.004072239622473717,-0.002936401404440403,-0.01942935772240162
1690839720116769300,6.949769287109375,-0.0055034225806593895,-0.0020879183430224657,-0.020167585462331772
1690839720126809300,6.959809326171875,-0.0025987126864492893,-0.001463673310354352,-0.019588083028793335
1690839720136849400,6.969849365234375,-0.004206196404993534,-0.002660498023033142,-0.018637066707015038
1690839720146890500,6.979890380859375,-0.005079447291791439,-0.00043036683928221464,-0.019748138263821602
1690839720156930600,6.9899306640625,-0.0048916940577328205,-0.0019345202017575502,-0.02099716104567051
1690839720166970400,6.999970458984375,-0.00381391285918653,-0.0007329019135795534,-0.0214829221367836
1690839720177010200,7.01001025390625,-0.0046416232362389565,-0.0006362291751429439,-0.020552946254611015
1690839720187051300,7.02005126953125,-0.005572664551436901,-0.002695119008421898,-0.02105521783232689
1690839720197091300,7.03009130859375,-0.005769205745309591,-0.0030477214604616165,-0.02141794003546238
1690839720207131400,7.04013134765625,-0.004820853937417269,-0.0035481294617056847,-0.021679462864995003
1690839720217172500,7.05017236328125,-0.004881574306637049,-0.0026429209392517805,-0.022110627964138985
1690839720227242200,7.0602421875,-0.0062368568032979965,-0.0027561055030673742,-0.020915135741233826
1690839720237283600,7.07028369140625,-0.004548146389424801,-0.0027292075101286173,-0.019991816952824593
1690839720247323400,7.080323486328125,-0.004041879437863827,-0.002752909669652581,-0.021699169650673866
1690839720257363200,7.09036328125,-0.00680197961628437,-0.0012767193838953972,-0.020560136064887047
1690839720267403300,7.1004033203125,-0.004765726625919342,-0.0020873856265097857,-0.02010074071586132
1690839720277444400,7.1104443359375,-0.006698915269225836,-0.0011020160745829344,-0.019628828391432762
1690839720287484400,7.120484375,-0.005364671815186739,-0.0012652678415179253,-0.020867997780442238
1690839720297524500,7.1305244140625,-0.004608067683875561,-0.002769421087577939,-0.019177688285708427
1690839720307565600,7.140565673828125,-0.005981726106256247,-0.0019504991360008717,-0.021272266283631325
1690839720317605400,7.15060546875,-0.005340436939150095,-0.003665574826300144,-0.020144416019320488
1690839720327645200,7.160645263671875,-0.00564137427136302,0.00015100123709999025,-0.01888900250196457
1690839720337685200,7.170685302734375,-0.004539091605693102,0.0001685781026026234,-0.020968131721019745
1690839720347726300,7.180726318359375,-0.005930593237280846,-0.0019686087034642696,-0.019226158037781715
1690839720357766400,7.190766357421875,-0.003817375050857663,-0.0020391824655234814,-0.020920993760228157
1690839720367806500,7.200806396484375,-0.004502340219914913,-0.001580319833010435,-0.02111034467816353
1690839720377877200,7.210877197265625,-0.0037324202712625265,-0.002520682057365775,-0.020712202414870262
1690839720387917300,7.220917236328125,-0.004830707795917988,-0.0009480853332206607,-0.020442957058548927
1690839720397958400,7.23095849609375,-0.00535588338971138,-0.004667456261813641,-0.02231675758957863
1690839720407998200,7.240998291015625,-0.0041497377678751945,-0.0027419906109571457,-0.021375596523284912
1690839720418038300,7.251038330078125,-0.003864779369905591,-0.0020879183430224657,-0.02034149132668972
1690839720428079400,7.261079345703125,-0.00452710734680295,-0.0015361113473773003,-0.019518574699759483
1690839720438119400,7.271119384765625,-0.004194212146103382,-0.0018618159228935838,-0.019394204020500183
1690839720448159500,7.281159423828125,-0.004791559185832739,-0.0025688852183520794,-0.020440826192498207
1690839720458199300,7.29119921875,-0.005730856209993362,-0.0010492854053154588,-0.021559620276093483
1690839720468240400,7.301240478515625,-0.004746285732835531,-0.002918291836977005,-0.020228039473295212
1690839720478280200,7.3112802734375,-0.0036991306114941835,-0.0030597057193517685,-0.019937755540013313
1690839720488320300,7.3213203125,-0.0037494644057005644,-0.0008141283178701997,-0.02137160114943981
1690839720498361300,7.331361328125,-0.005388640332967043,-0.002129996195435524,-0.022396385669708252
1690839720508401400,7.3414013671875,-0.0026109630707651377,-0.0024016385432332754,-0.021324729546904564
1690839720518441500,7.35144140625,-0.003742007538676262,-0.004609931726008654,-0.01991458609700203
1690839720528512300,7.36151220703125,-0.004703408572822809,-0.0027499801944941282,-0.021637119352817535
1690839720538552300,7.37155224609375,-0.004740426782518625,-0.004329234827309847,-0.020784907042980194
1690839720548592400,7.38159228515625,-0.005049087107181549,-0.00034434671397320926,-0.021625665947794914
1690839720558633200,7.39163330078125,-0.004995557479560375,-0.001193362521007657,-0.019404856488108635
1690839720568673300,7.40167333984375,-0.004852545913308859,-0.0010064085945487022,-0.021286379545927048
1690839720578713300,7.41171337890625,-0.003907123580574989,-0.0013187973527237773,-0.019658124074339867
1690839720588754400,7.42175439453125,-0.005723133217543364,-0.00526560191065073,-0.021494640037417412
1690839720598794500,7.43179443359375,-0.0037436054553836584,-0.0006253102328628302,-0.023019565269351006
1690839720608834300,7.441834228515625,-0.004759334959089756,-0.001383778522722423,-0.019116437062621117
1690839720618874400,7.451874267578125,-0.003751328680664301,-0.002584597794339061,-0.019118301570415497
1690839720628915200,7.461915283203125,-0.005196892656385899,0.000517718493938446,-0.019421901553869247
1690839720638955300,7.471955322265625,-0.005042961798608303,-0.006786533165723085,-0.018375279381871223
1690839720648995300,7.481995361328125,-0.006800381932407618,-0.004135889001190662,-0.02076386846601963
1690839720659036400,7.492036376953125,-0.0043532028794288635,-0.002092179376631975,-0.019401926547288895
1690839720669076500,7.502076416015625,-0.005106078926473856,-0.003611779073253274,-0.020914603024721146
1690839720679147300,7.512147216796875,-0.004974252078682184,-0.0023222763556987047,-0.019033079966902733
1690839720689187300,7.522187255859375,-0.004667722620069981,-0.0038743666373193264,-0.02020966447889805
1690839720699227400,7.532227294921875,-0.004343349486589432,-0.0009470200748182833,-0.02292742021381855
1690839720709267500,7.542267333984375,-0.0052080778405070305,-0.0012663330417126417,-0.017740381881594658
1690839720719308300,7.552308349609375,-0.004347876645624638,-0.003290601773187518,-0.01967649906873703
1690839720729348400,7.562348388671875,-0.004800347611308098,-0.001287904684431851,-0.019346000626683235
1690839720739388400,7.572388427734375,-0.005259742960333824,-0.0020985708106309175,-0.019278623163700104
1690839720749429500,7.582429443359375,-0.005526592023670673,-0.0023582291323691607,-0.01967197097837925
1690839720759469300,7.59246923828125,-0.005922603886574507,-0.002494050422683358,-0.020369719713926315
1690839720769509400,7.60250927734375,-0.0037729002069681883,-0.003369697602465749,-0.02249865047633648
1690839720779549400,7.612549560546875,-0.00484189298003912,-0.002793389605358243,-0.020230436697602272
1690839720789590300,7.62259033203125,-0.004238686989992857,-0.002168079372495413,-0.021744975820183754
1690839720799619800,7.632619873046875,-0.0051862397231161594,-0.0031441280152648687,-0.021689582616090775
1690839720809659600,7.64265966796875,-0.0048978193663060665,-0.0038754320703446865,-0.021402226760983467
1690839720819700700,7.65270068359375,-0.005058940965682268,-0.00202267081476748,-0.01914013922214508
1690839720829770800,7.662770751953125,-0.004345479886978865,0.00018082863243762404,-0.019836554303765297
1690839720839811800,7.672811767578125,-0.004863997455686331,-0.0029414615128189325,-0.018910573795437813
1690839720849852000,7.682851806640625,-0.0038746329955756664,-0.0019140138756483793,-0.018159562721848488
1690839720859892000,7.69289208984375,-0.005516471806913614,-0.002588326344266534,-0.02123711071908474
1690839720869932800,7.702932861328125,-0.004886900540441275,-0.0038163098506629467,-0.021048560738563538
1690839720879972600,7.71297265625,-0.004680239129811525,-0.0005640574963763356,-0.022997194901108742
1690839720890012700,7.7230126953125,-0.005253085400909185,-0.0012258529895916581,-0.019121762365102768
1690839720900052700,7.733052734375,-0.005119927227497101,-0.0038514635525643826,-0.02117665857076645
1690839720910093800,7.74309375,-0.0057343184016644955,-0.003300189273431897,-0.021344169974327087
1690839720920134000,7.7531337890625,-0.004994226153939962,-0.0027486486360430717,-0.021335648372769356
1690839720930174000,7.763174072265625,-0.0043867588974535465,-0.002844256116077304,-0.020417656749486923
1690839720940214800,7.77321484375,-0.004731638357043266,-0.0010759170399978757,-0.019965186715126038
1690839720950254800,7.7832548828125,-0.004098338540643454,0.001365668955259025,-0.01954547129571438
1690839720960294700,7.793294677734375,-0.00535508431494236,-0.0015342470724135637,-0.02124856412410736
1690839720970334700,7.803334716796875,-0.004542553797364235,-0.0037468012887984514,-0.020674118772149086
1690839720980405800,7.81340576171875,0.00865926779806614,-0.029459355399012566,-0.20161621272563934
1690839720990445800,7.82344580078125,0.0018346516881138086,0.018442390486598015,-0.04213254153728485
1690839721000487000,7.83348681640625,-0.0010418286547064781,0.02106986567378044,-0.0016437029698863626
1690839721010527000,7.84352685546875,-0.0043840957805514336,-0.03441762924194336,0.027659591287374496
1690839721020566800,7.85356689453125,-0.011979963630437851,-0.04283241927623749,0.021322065964341164
1690839721030607600,7.863607666015625,-0.013492639176547527,-0.035471443086862564,0.014871890656650066
1690839721040647700,7.873647705078125,-0.010972755961120129,-0.01587483659386635,0.007866977714002132
1690839721050687700,7.883687744140625,-0.005774531979113817,0.010100571438670158,-0.005380916874855757
1690839721060727800,7.893727783203125,-0.0018586200894787908,0.02773549035191536,-0.018556905910372734
1690839721070769000,7.903768798828125,-0.00011851066665258259,0.03699663281440735,-0.02708541415631771
1690839721080809000,7.91380908203125,0.0028479844331741333,0.034028273075819016,-0.03567144647240639
1690839721090849000,7.92384912109375,0.00034594463068060577,0.022227540612220764,-0.04008509963750839
1690839721100889900,7.933889892578125,-0.0031933963764458895,0.004713795147836208,-0.045047368854284286
1690839721110929700,7.9439296875,-0.005185973364859819,-0.012706740759313107,-0.04737204313278198
1690839721120969700,7.9539697265625,-0.007991347461938858,-0.02539750188589096,-0.04754967615008354
1690839721131040800,7.964040771484375,-0.010875551030039787,-0.030784543603658676,-0.04554324969649315
1690839721141080800,7.974080810546875,-0.008846222423017025,-0.0306955948472023,-0.04349740967154503
1690839721151122000,7.984121826171875,-0.005888249259442091,-0.021589981392025948,-0.03928908333182335
1690839721161162000,7.994161865234375,-0.004310326185077429,-0.011268367059528828,-0.03388233482837677
1690839721171201800,8.004201904296876,-0.0032775523141026497,0.003236806020140648,-0.028383171185851097
1690839721181241900,8.014241943359375,-0.0020005665719509125,0.012577843852341175,-0.021807827055454254
1690839721191282700,8.02428271484375,-0.004594219382852316,0.018614163622260094,-0.017612017691135406
1690839721201322800,8.03432275390625,-0.0026165556628257036,0.01955905370414257,-0.008741294033825397
1690839721211362800,8.04436279296875,-0.004549478180706501,0.01269715279340744,-0.004068244714289904
1690839721221403000,8.05440283203125,-0.00657667638733983,0.0034256239887326956,-0.0021145499777048826
1690839721231444000,8.06444384765625,-0.003798999357968569,-0.0034946000669151545,0.0007574030314572155
1690839721241483800,8.07448388671875,-0.006708769127726555,-0.01326653640717268,-0.0002258360618725419
1690839721251523800,8.08452392578125,-0.004947886802256107,-0.016206933185458183,0.0010357033461332321
1690839721261564700,8.094564697265625,-0.003891411004588008,-0.012349610216915607,-0.002817890839651227
1690839721271635000,8.104635009765625,-0.004089283756911755,-0.00987287051975727,-0.006624612957239151
1690839721281675800,8.11467578125,-0.005197691265493631,-0.004255997482687235,-0.0108886007219553
1690839721291715800,8.1247158203125,-0.005419266410171986,0.001910019083879888,-0.018742261454463005
1690839721301756000,8.134755859375,-0.0057561565190553665,0.012704077176749706,-0.019894080236554146
1690839721311797000,8.144796875,-0.005089034326374531,0.008945025503635406,-0.03014165721833706
1690839721321836800,8.1548369140625,-0.0041252365335822105,0.00818229652941227,-0.033850375562906265
1690839721331876900,8.164876953125,-0.0029941920656710863,0.0035388083197176456,-0.033798977732658386
1690839721341916700,8.174916748046876,-0.0044054011814296246,-0.0009262474486604333,-0.03620167821645737
1690839721351957800,8.184957763671875,-0.005721002817153931,-0.008068312890827656,-0.035170238465070724
1690839721361997800,8.194997802734376,-0.0034224283881485462,-0.009438509121537209,-0.03537636622786522
1690839721372038000,8.205037841796875,-0.004863464739173651,-0.01101510040462017,-0.033554498106241226
1690839721382079000,8.215078857421876,-0.0067849354818463326,-0.009554889053106308,-0.030609574168920517
1690839721392118800,8.225118896484375,-0.006451507564634085,-0.006162288598716259,-0.027244670316576958
1690839721402158800,8.235158935546876,-0.005191033706068993,-0.002113218419253826,-0.023847542703151703
1690839721412198700,8.24519873046875,-0.0050687943585217,0.000666589243337512,-0.0170250553637743
1690839721422269700,8.255269775390625,-0.005353220272809267,0.0030146983917802572,-0.016084959730505943
1690839721432309800,8.265309814453126,-0.004698082339018583,0.0033398703671991825,-0.01130964607000351
1690839721442350800,8.275350830078125,-0.004311125259846449,0.004430967383086681,-0.010731207206845284
1690839721452391000,8.285390869140626,-0.0037145770620554686,0.001806155894882977,-0.006395847536623478
1690839721462430700,8.2954306640625,-0.005545233841985464,-0.0018783274572342634,-0.00797137338668108
1690839721472471800,8.305471923828126,-0.004758269991725683,-0.004884770140051842,-0.011068630032241344
1690839721482512000,8.315511962890625,-0.005274923052638769,-0.00413482403382659,-0.008587363176047802
1690839721492551700,8.3255517578125,-0.0050099384970963,-0.00481286458671093,-0.01209953986108303
1690839721502591700,8.335591796875,-0.00436092633754015,-0.00478330347687006,-0.016692960634827614
1690839721512632800,8.3456328125,-0.004444549325853586,-0.003070358419790864,-0.01828419789671898
1690839721522673000,8.3556728515625,-0.00452923821285367,-0.0013097425689920783,-0.02166854403913021
1690839721532712700,8.365712646484376,-0.005632585845887661,-0.0024562333710491657,-0.02606222778558731
1690839721542753800,8.37575390625,-0.004208593629300594,-0.002397377509623766,-0.02889210171997547
1690839721552793900,8.3857939453125,-0.0036464000586420298,-0.0012708604335784912,-0.029630329459905624
1690839721562833700,8.395833740234375,-0.0046360306441783905,-0.0012152004055678844,-0.02991022914648056
1690839721572904700,8.40590478515625,-0.00541314110159874,-0.0020530307665467262,-0.030099311843514442
1690839721582944800,8.41594482421875,-0.003736414946615696,-0.002496447181329131,-0.02846652828156948
1690839721592985900,8.42598583984375,-0.004312722943723202,-0.0029196233954280615,-0.02695704810321331
1690839721603026000,8.43602587890625,-0.004771052859723568,-0.004249606281518936,-0.02472851611673832
1690839721613065700,8.446065673828125,-0.0038802255876362324,-0.0032551817130297422,-0.023150060325860977
1690839721623105800,8.456105712890626,-0.0054240599274635315,-0.003388606244698167,-0.021320734173059464
1690839721633147000,8.46614697265625,-0.005243231542408466,-0.004002464935183525,-0.019660785794258118
1690839721643186700,8.476186767578126,-0.006066947244107723,-0.002528405049815774,-0.01534779742360115
1690839721653226800,8.486226806640625,-0.004042944870889187,-0.0019680759869515896,-0.01617870293557644
1690839721663267800,8.496267822265626,-0.006387059111148119,-0.0010468886466696858,-0.014195980504155159
1690839721673308000,8.506307861328125,-0.004006992094218731,-0.000023169501218944788,-0.014178935438394547
1690839721683347700,8.51634765625,-0.004836833104491234,-0.00070493872044608,-0.01441009808331728
1690839721693387800,8.5263876953125,-0.005462143570184708,-0.0017544905422255397,-0.013096094131469727
1690839721703428900,8.536428955078126,-0.003778226673603058,-0.0021515677217394114,-0.0137789286673069
1690839721713468700,8.54646875,-0.0046759783290326595,-0.0010159959783777595,-0.0142356613650918
1690839721723539700,8.556539794921875,-0.004018177278339863,-0.002469282830134034,-0.015576829202473164
1690839721733579800,8.566579833984376,-0.004907939583063126,-0.0024623586796224117,-0.0205145962536335
1690839721743619800,8.576619873046875,-0.004122573416680098,-0.0028764803428202868,-0.021985992789268494
1690839721753661000,8.586660888671876,-0.0027840686962008476,-0.0035241609439253807,-0.0234637800604105
1690839721763700700,8.59670068359375,-0.006142048165202141,-0.002257827902212739,-0.02370080165565014
1690839721773740800,8.60674072265625,-0.006549512036144733,-0.002514823107048869,-0.026513099670410156
1690839721783780900,8.61678076171875,-0.005013667047023773,-0.001961151836439967,-0.025198563933372498
1690839721793821700,8.62682177734375,-0.003954261541366577,-0.002169144805520773,-0.028116589412093163
1690839721803870000,8.636869873046875,-0.005033374298363924,-0.0005102616851218045,-0.027230288833379745
1690839721813910000,8.646909912109376,-0.00512924836948514,-0.002302036387845874,-0.024464596062898636
1690839721823951000,8.656951171875,-0.004267183132469654,-0.0014583469601348042,-0.02359187789261341
1690839721833991200,8.6669912109375,-0.005037901923060417,-0.0025776736438274384,-0.02220117673277855
1690839721844031000,8.677031005859375,-0.004210457671433687,-0.0011020160745829344,-0.023187611252069473
1690839721854070800,8.68707080078125,-0.0038988678716123104,-0.001958222361281514,-0.02076040580868721
1690839721864111900,8.69711181640625,-0.005511944647878408,-0.0020751350093632936,-0.018369419500231743
1690839721874182000,8.707181884765625,-0.0068419273011386395,-0.0026027073618024588,-0.015411180444061756
1690839721884223000,8.717222900390626,-0.004503405187278986,-0.0019233349012210965,-0.015735819935798645
1690839721894263000,8.727262939453125,-0.0054277884773910046,-0.0019433086272329092,-0.01588016375899315
1690839721904303000,8.73730322265625,-0.004720985423773527,-0.002067412016913295,-0.016573384404182434
1690839721914344200,8.74734423828125,-0.005404086317867041,-0.0014144048327580094,-0.01679708994925022
1690839721924384000,8.757384033203126,-0.0037641117814928293,-0.0007882956997491419,-0.017497766762971878
1690839721934423800,8.767423828125,-0.005530053749680519,-0.0001984054979402572,-0.017764350399374962
1690839721944464000,8.7774638671875,-0.005088235717266798,-0.0004926847759634256,-0.018216021358966827
1690839721954505000,8.7875048828125,-0.00541473925113678,0.0006918892613612115,-0.019944146275520325
1690839721964545000,8.797544921875,-0.0030370689928531647,-0.0012977584265172482,-0.022428076714277267
1690839721974585000,8.807585205078125,-0.003867176128551364,-0.003209375310689211,-0.022888271138072014
1690839721984626200,8.817626220703126,-0.0036195022985339165,-0.003822967642918229,-0.02376365289092064
1690839721994666000,8.827666015625,-0.004147340543568134,-0.0028690234757959843,-0.02394048683345318
1690839722004705800,8.837705810546876,-0.003914314322173595,-0.00478383619338274,-0.023379890248179436
1690839722014745900,8.847745849609375,-0.0041374871507287025,-0.0013699301052838564,-0.02226642332971096
1690839722024817000,8.85781689453125,-0.005160407163202763,-0.0009012137306854129,-0.023301593959331512
1690839722034858000,8.86785791015625,-0.005672266706824303,-0.0008870989549905062,-0.023270169273018837
1690839722044898000,8.87789794921875,-0.003641340183094144,-0.0025180187076330185,-0.023251259699463844
1690839722054938000,8.887938232421876,-0.0028535770252346992,0.0001246359315700829,-0.02142060361802578
1690839722064978000,8.89797802734375,-0.005080512259155512,-0.0016058861510828137,-0.02165389619767666
1690839722075019000,8.90801904296875,-0.004974784795194864,-0.002868490759283304,-0.016941698268055916
1690839722085058800,8.918058837890625,-0.004190750420093536,-0.0020580908749252558,-0.01806049235165119
1690839722095099000,8.928098876953126,-0.003922836389392614,-0.00259418529458344,-0.017964087426662445
1690839722105140000,8.938139892578125,-0.004792091902345419,-0.004357996862381697,-0.016893496736884117
1690839722115180000,8.948179931640626,-0.004819522611796856,-0.001776328426785767,-0.017530256882309914
1690839722125220000,8.95822021484375,-0.005291700828820467,-0.0038149782922118902,-0.01679282821714878
1690839722135260000,8.968260009765626,-0.0046759783290326595,-0.002439189236611128,-0.01919153705239296
1690839722145301000,8.978301025390625,-0.006505303550511599,-0.002522546099498868,-0.01925012655556202
1690839722155340800,8.9883408203125,-0.004348143003880978,0.0003009371866937727,-0.021399565041065216
1690839722165380900,8.998380859375,-0.004207261838018894,-0.0005688511882908642,-0.02028290182352066
1690839722175452000,9.008451904296875,-0.004971588961780071,-0.0004996090428903699,-0.021632591262459755
1690839722185492000,9.018491943359376,-0.006720220670104027,-0.0013821806060150266,-0.019661318510770798
1690839722195533000,9.028532958984375,-0.004770520608872175,-0.0013962953817099333,-0.019586751237511635
1690839722205573000,9.038572998046876,-0.0028759476263076067,-0.003748665563762188,-0.019998742267489433
1690839722215613000,9.048613037109375,-0.0037143107037991285,-0.002240783767774701,-0.021791581064462662
1690839722225653000,9.058653076171876,-0.004265851341187954,-0.004083158448338509,-0.02214311994612217
1690839722235693800,9.06869384765625,-0.0054339137859642506,-0.004887433256953955,-0.022372949868440628
1690839722245734000,9.07873388671875,-0.0036914076190441847,-0.0015227955300360918,-0.021711153909564018
1690839722255774000,9.08877392578125,-0.006786266807466745,-0.0005491438205353916,-0.024086959660053253
1690839722265815000,9.09881494140625,-0.005514607764780521,-0.003073554253205657,-0.01996625028550625
1690839722275855000,9.108855224609375,-0.00472524669021368,-0.0020301276817917824,-0.020661069080233574
1690839722285895000,9.11889501953125,-0.004794222768396139,-0.003020024625584483,-0.021319137886166573
1690839722295935000,9.12893505859375,-0.004954012110829353,-0.0017662084428593516,-0.019336147233843803
1690839722305975800,9.138975830078126,-0.005001416429877281,-0.00034727618913166225,-0.018494056537747383
1690839722316015900,9.149015869140625,-0.004186222795397043,-0.002424541860818863,-0.019778497517108917
1690839722326087000,9.1590869140625,-0.005073588341474533,-0.0023576964158564806,-0.016712401062250137
1690839722336127000,9.169126953125,-0.005338572897017002,-0.0025244103744626045,-0.018459966406226158
1690839722346167000,9.1791669921875,-0.005112203769385815,-0.004880242515355349,-0.018015218898653984
1690839722356208000,9.1892080078125,-0.003798999357968569,-0.003087402554228902,-0.01877075806260109
1690839722366248000,9.199248046875,-0.0048855687491595745,-0.0030682277865707874,-0.0203928891569376
1690839722376288000,9.2092880859375,-0.0037707698065787554,-0.0026375947054475546,-0.0194352176040411
1690839722386328000,9.219328125,-0.0062067629769444466,-0.0031278827227652073,-0.02082192525267601
1690839722396369000,9.229368896484376,-0.005185707006603479,-0.000984836951829493,-0.019457321614027023
1690839722406409000,9.239408935546875,-0.004107926040887833,-0.0007771103992126882,-0.020229903981089592
1690839722416449000,9.249448974609376,-0.006503173150122166,-0.0021198762115091085,-0.01853480190038681
1690839722426490000,9.259489990234375,-0.006718356627970934,-0.0014953649369999766,-0.018025605008006096
1690839722436530000,9.269530029296876,-0.005147091578692198,-0.0017243968322873116,-0.021757226437330246
1690839722446570000,9.279570068359375,-0.003224022686481476,-0.0021883193403482437,-0.022056566551327705
1690839722456610000,9.289610107421876,-0.0037494644057005644,-0.003067695302888751,-0.02245337702333927
1690839722466681000,9.29968115234375,-0.004320446401834488,-0.0041044638492167,-0.020926320925354958
1690839722476722000,9.309721923828125,-0.004508199170231819,-0.004885302856564522,-0.021515145897865295
1690839722486762000,9.319761962890626,-0.004770520608872175,-0.003865045728161931,-0.020256802439689636
1690839722496802000,9.329802001953125,-0.004997155629098415,-0.0020871192682534456,-0.019357718527317047
1690839722506841900,9.339841796875,-0.006825415417551994,-0.0017957695527002215,-0.019605126231908798
1690839722516883000,9.349883056640625,-0.0051803807727992535,-0.0024176177103072405,-0.017728397622704506
1690839722526923000,9.359923095703126,-0.006813963875174522,-0.001445830101147294,-0.019569972530007362
1690839722536963000,9.369963134765625,-0.005126052536070347,-0.002590723102912307,-0.01895531453192234
1690839722547004000,9.38000390625,-0.0065282066352665424,0.000988032785244286,-0.01792680285871029
1690839722557044000,9.3900439453125,-0.0028988507110625505,-0.002624545246362686,-0.019474631175398827
1690839722567084000,9.400083984375,-0.003929760307073593,-0.0020604876335710287,-0.021763086318969727
1690839722577123800,9.410123779296875,-0.004928978625684977,-0.003576891729608178,-0.018577411770820618
1690839722587165000,9.4201650390625,-0.006667490117251873,-0.0060150157660245895,-0.02088477462530136
1690839722597205000,9.430205078125,-0.004860535264015198,-0.0036634444259107113,-0.019459186121821404
1690839722607245000,9.4402451171875,-0.005029646214097738,-0.0013337110867723823,-0.01943601667881012
1690839722617316000,9.450316162109376,-0.004462658893316984,0.00025220136740244925,-0.01865996979176998
1690839722627356200,9.460356201171875,-0.0057289921678602695,-0.0019377160351723433,-0.018990468233823776
1690839722637397000,9.47039697265625,-0.00370099488645792,-0.0017888452857732773,-0.022549783810973167
1690839722647436800,9.480436767578125,-0.0065649584867060184,-0.004547081422060728,-0.021805163472890854
1690839722657476900,9.490476806640626,-0.0057500312104821205,-0.0020940436515957117,-0.02123444899916649
1690839722667517000,9.500516845703125,-0.004117513541132212,-0.0020546286832541227,-0.02141501009464264
1690839722677558000,9.51055810546875,-0.005694637540727854,-0.002177933230996132,-0.02286936342716217
1690839722687598000,9.52059814453125,-0.004891161806881428,-0.0046179210767149925,-0.019275160506367683
1690839722697638100,9.53063818359375,-0.005229915492236614,-0.004348675720393658,-0.020195815712213516
1690839722707679000,9.540678955078125,-0.003739877138286829,-0.003581685246899724,-0.018911106511950493
1690839722717719000,9.550718994140626,-0.005291967187076807,-0.006237389519810677,-0.02280491404235363
1690839722727758800,9.5607587890625,-0.005313805304467678,-0.0036586506757885218,-0.018515095114707947
1690839722737799000,9.570798828125,-0.003483947366476059,-0.004280765075236559,-0.019294602796435356
1690839722747840000,9.580840087890625,-0.0043803672306239605,-0.002002697205170989,-0.019750535488128662
1690839722757880000,9.590880126953126,-0.004702343605458736,-0.0024322650860995054,-0.019996877759695053
1690839722767951000,9.600951171875,-0.0052054147236049175,-0.0016767261549830437,-0.019633889198303223
1690839722777991200,9.6109912109375,-0.004151601810008287,-0.0023939155507832766,-0.01913667656481266
1690839722788031000,9.621031005859376,-0.004348143003880978,0.00019281286222394556,-0.019747339189052582
1690839722798071800,9.63107177734375,-0.0057012951001524925,-0.0020623519085347652,-0.020493824034929276
1690839722808081700,9.64108154296875,-0.005111405160278082,-0.003947869874536991,-0.019232284277677536
1690839722818121700,9.651121826171876,-0.0057564228773117065,-0.003245594445616007,-0.020265590399503708
1690839722828161800,9.661161865234375,-0.005434180144220591,-0.003552124137058854,-0.019822441041469574
1690839722838202600,9.67120263671875,-0.0049281795509159565,-0.002389121800661087,-0.021678663790225983
1690839722848242700,9.68124267578125,-0.003698598127812147,-0.0014743260107934475,-0.022776952013373375
1690839722858282500,9.691282470703126,-0.0039265644736588,-0.0023968450259417295,-0.02143045701086521
1690839722868323600,9.701323486328125,-0.003712712787091732,0.0007976167253218591,-0.02237508073449135
1690839722878363600,9.71136376953125,-0.004739627707749605,-0.0022359900176525116,-0.021150559186935425
1690839722888403700,9.72140380859375,-0.005083441734313965,-0.0017904432024806738,-0.020985975861549377
1690839722898443800,9.73144384765625,-0.00504136411473155,-0.0010990865994244814,-0.020983045920729637
1690839722908484600,9.741484619140625,-0.003766242414712906,-0.0034940673504024744,-0.02178652212023735
1690839722918555600,9.7515556640625,-0.006561762653291225,-0.0031939290929585695,-0.02261822670698166
1690839722928595700,9.761595703125,-0.0046538738533854485,-0.0018218684708699584,-0.021752433851361275
1690839722938635500,9.771635498046875,-0.004686098080128431,0.00017789915727917105,-0.01895212009549141
1690839722948675600,9.781675537109376,-0.003995806910097599,-0.0020610203500837088,-0.020112458616495132
1690839722958716700,9.791716552734375,-0.005351355765014887,-0.002484995638951659,-0.01973215863108635
1690839722968756700,9.8017568359375,-0.005343100056052208,-0.0011531487107276917,-0.01907462440431118
1690839722978796800,9.811796875,-0.005105812568217516,-0.0011664645280689,-0.01894732564687729
1690839722988837600,9.821837646484376,-0.004051466938108206,-0.003596598980948329,-0.02207281067967415
1690839722998877700,9.831877685546875,-0.005086371209472418,-0.002484462922438979,-0.02004401572048664
1690839723008917500,9.84191748046875,-0.005260009318590164,-0.003114300547167659,-0.020859209820628166
1690839723018957600,9.85195751953125,-0.003724697045981884,-0.0024173513520509005,-0.01991218887269497
1690839723028998700,9.86199853515625,-0.0043952809646725655,-0.0027475832030177116,-0.019109778106212616
1690839723039038700,9.872038818359375,-0.004935370292514563,-0.0029148298781365156,-0.021638449281454086
1690839723049078800,9.882078857421876,-0.005869074258953333,-0.0016346483025699854,-0.019604859873652458
1690839723059119600,9.89211962890625,-0.004252535756677389,-0.00152306177187711,-0.020709538832306862
1690839723069190000,9.90218994140625,-0.0038956720381975174,-0.0032205607276409864,-0.021346034482121468
1690839723079230700,9.912230712890626,-0.005507417023181915,-0.0003275688213761896,-0.019144931808114052
1690839723089270500,9.9222705078125,-0.0046211169101297855,-0.004579305648803711,-0.02075161784887314
1690839723099310600,9.932310546875,-0.0044077979400753975,-0.0036669063847512007,-0.018757974728941917
1690839723109350700,9.9423505859375,-0.004293548408895731,-0.0023009711876511574,-0.020318055525422096
1690839723119391700,9.952391845703126,-0.004101268015801907,-0.0024522386956959963,-0.01991378702223301
1690839723129431800,9.962431884765625,-0.003959321416914463,-0.001680987305007875,-0.02191142365336418
1690839723139472000,9.972471923828126,-0.005535912699997425,-0.0016082830261439085,-0.020131099969148636
1690839723149512700,9.9825126953125,-0.004863198380917311,-0.0018884475575760007,-0.020892765372991562
1690839723159552500,9.992552490234376,-0.004513525404036045,-0.0026487798895686865,-0.021740449592471123
1690839723169592600,10.002592529296875,-0.004312722943723202,0.0021899172570556402,-0.019904732704162598
1690839723179632600,10.012632568359376,-0.005593437235802412,-0.001802960061468184,-0.021635254845023155
1690839723189673700,10.022673828125,-0.006621417589485645,0.000007723167072981596,-0.018995795398950577
1690839723199713800,10.0327138671875,-0.004744953941553831,-0.0009137305896729231,-0.01888740435242653
1690839723209753900,10.04275390625,-0.0041761030443012714,-0.0024056334514170885,-0.020053336396813393
1690839723219825000,10.052824951171875,-0.0038061898667365313,-0.002861566608771682,-0.021019797772169113
1690839723229864700,10.06286474609375,-0.003715642262250185,-0.0030455910600721836,-0.02179104834794998
1690839723239905500,10.072905517578125,-0.006732737645506859,-0.001130511867813766,-0.018797123804688454
1690839723249945600,10.082945556640626,-0.004477838985621929,-0.0010223875287920237,-0.022190788760781288
1690839723259985700,10.092985595703125,-0.005075718741863966,-0.0027481159195303917,-0.019454391673207283
1690839723270026800,10.10302685546875,-0.004471980035305023,-0.002460494404658675,-0.020256269723176956
1690839723280066800,10.11306689453125,-0.004504204262048006,0.0001371527905575931,-0.02039102464914322
1690839723290107000,10.12310693359375,-0.0057252636179327965,-0.0007153250626288354,-0.021208882331848145
1690839723300146700,10.133146728515625,-0.006295179948210716,-0.0018245317041873932,-0.019781161099672318
1690839723310187500,10.1431875,-0.005106344819068909,-0.004059989005327225,-0.021696772426366806
1690839723320227600,10.1532275390625,-0.005645901430398226,-0.004059456288814545,-0.021706094965338707
1690839723330267600,10.163267578125,-0.006702910177409649,-0.002007490722462535,-0.02220117673277855
1690839723340307700,10.1733076171875,-0.004790760576725006,-0.003498594742268324,-0.021275993436574936
1690839723350348800,10.183348876953126,-0.003995806910097599,-0.0032975259236991405,-0.02076067216694355
1690839723360388900,10.193388916015625,-0.0046879625879228115,-0.001038366463035345,-0.019897008314728737
1690839723370460000,10.2034599609375,-0.005923402961343527,-0.0023451796732842922,-0.02190876007080078
1690839723380499700,10.213499755859376,-0.004803277086466551,0.00041518680518493056,-0.01812014728784561
1690839723390539500,10.22353955078125,-0.005372927524149418,-0.0036165728233754635,-0.020536167547106743
1690839723400580600,10.23358056640625,-0.003793406533077359,-0.0008452873444184661,-0.020710870623588562
1690839723410620700,10.24362060546875,-0.005425125360488892,-0.00070520507870242,-0.018756110221147537
1690839723420660700,10.25366064453125,-0.006106362212449312,-0.0026469158474355936,-0.01780722662806511
1690839723430701800,10.263701904296875,-0.005043760873377323,-0.0024772724136710167,-0.021769477054476738
1690839723440742000,10.273741943359376,-0.0057676080614328384,-0.002038117265328765,-0.017891915515065193
1690839723450781700,10.28378173828125,-0.003668504301458597,-0.002251968951895833,-0.019951337948441505
1690839723460821500,10.293821533203126,-0.00461712246760726,-0.008583367802202702,-0.02292022854089737
1690839723470862600,10.303862548828125,-0.005650429055094719,-0.002353701740503311,-0.019166769459843636
1690839723480902700,10.313902587890626,-0.004995024763047695,-0.0024562333710491657,-0.02040966786444187
1690839723490942700,10.323942626953125,-0.004719121381640434,-0.003029612125828862,-0.020926054567098618
1690839723500983800,10.33398388671875,-0.005350024439394474,-0.0020684772171080112,-0.019936157390475273
1690839723511023900,10.34402392578125,-0.005540173966437578,-0.0008317052270285785,-0.01882908120751381
1690839723521095000,10.354094970703125,-0.003858387703076005,-0.0033369408920407295,-0.021734589710831642
1690839723531134700,10.364134765625,-0.0059654805809259415,-0.0031491878908127546,-0.02039715088903904
1690839723541174500,10.374174560546875,-0.005238970275968313,-0.001961151836439967,-0.018812304362654686
1690839723551214600,10.384214599609376,-0.004978246986865997,-0.004025101661682129,-0.021317539736628532
1690839723561255700,10.394255615234375,-0.005464540328830481,-0.0022216090001165867,-0.018999790772795677
1690839723571295700,10.404295654296876,-0.005591573193669319,-0.0032706281635910273,-0.020747888833284378
1690839723581335800,10.414335693359375,-0.0035337484441697598,-0.0007384945638477802,-0.019999807700514793
1690839723591377000,10.424376953125,-0.004914064891636372,-0.002691656816750765,-0.01894253119826317
1690839723601416700,10.434416748046875,-0.004705006722360849,-0.0019321233266964555,-0.019771041348576546
1690839723611456500,10.44445654296875,-0.00378994457423687,-0.0032168321777135134,-0.01895824447274208
1690839723621496600,10.45449658203125,-0.004117247182875872,-0.0027688886038959026,-0.020437629893422127
1690839723631537700,10.46453759765625,-0.004283694550395012,-0.005166798830032349,-0.021876003593206406
1690839723641577700,10.47457763671875,-0.004457066301256418,-0.001659948262386024,-0.021643510088324547
1690839723651617800,10.48461767578125,-0.0049164616502821445,0.00009108010999625549,-0.01926051266491413
1690839723661659000,10.494658935546875,-0.0052083441987633705,-0.002650910522788763,-0.01883893460035324
1690839723671728600,10.504728759765625,-0.0065564364194869995,-0.00387410051189363,-0.019900737330317497
1690839723681769700,10.514769775390626,-0.006700513418763876,-0.002817091764882207,-0.021937256678938866
1690839723691809500,10.5248095703125,-0.004399808589369059,-0.003466104157269001,-0.019515378400683403
1690839723701849600,10.534849609375,-0.003891677362844348,0.00026791400159709156,-0.017247164621949196
1690839723711890700,10.544890625,-0.003722566645592451,-0.0008812400046736002,-0.020799288526177406
1690839723721930800,10.5549306640625,-0.004324440844357014,-0.002630670554935932,-0.021675467491149902
1690839723731970800,10.564970703125,-0.0049500176683068275,-0.0021856562234461308,-0.02184857428073883
1690839723742010600,10.5750107421875,-0.0028972530271857977,-0.0037521275226026773,-0.020806744694709778
1690839723752051700,10.5850517578125,-0.005049087107181549,-0.0005432848702184856,-0.02063869871199131
1690839723762091500,10.595091552734376,-0.004591023549437523,-0.0013462279457598925,-0.02171781286597252
1690839723772131600,10.605131591796875,-0.005571332760155201,-0.0009624664089642465,-0.01948501728475094
1690839723782172700,10.615172607421876,-0.006022738758474588,-0.0007448861724697053,-0.019298329949378967
1690839723792212700,10.625212646484375,-0.0049225869588553905,-0.0014500912511721253,-0.02051912248134613
1690839723802264600,10.6352646484375,-0.004908472299575806,-0.003157177474349737,-0.01944427192211151
1690839723812335600,10.645335693359375,-0.005498362239450216,-0.003305249148979783,-0.0211819838732481
1690839723822375400,10.65537548828125,-0.003020024625584483,-0.002311357529833913,-0.021249894052743912
1690839723832415500,10.66541552734375,-0.004650145769119263,-0.0007648598402738571,-0.020677847787737846
1690839723842456600,10.67545654296875,-0.0029406624380499125,-0.0009464874165132642,-0.021086109802126884
1690839723852496400,10.685496337890624,-0.004352404270321131,-0.0038637141697108746,-0.02257481776177883
1690839723862536400,10.695536376953125,-0.0041558630764484406,0.0012029499048367143,-0.020310597494244576
1690839723872577500,10.70557763671875,-0.006292516831308603,-0.00010466222738614306,-0.020297281444072723
1690839723882617600,10.71561767578125,-0.004089283756911755,-0.0018570221727713943,-0.019346000626683235
1690839723892657400,10.725657470703124,-0.0051806471310555935,-0.0005185174522921443,-0.019602995365858078
1690839723902697500,10.735697509765625,-0.004303668159991503,-0.003784085623919964,-0.02160116657614708
1690839723912738600,10.745738525390625,-0.004275705199688673,-0.00022157499915920198,-0.0188386682420969
1690839723922778400,10.7557783203125,-0.0036724992096424103,-0.00433189794421196,-0.019725501537322998
1690839723932818400,10.765818359375,-0.004577441141009331,-0.0027230822015553713,-0.021872540935873985
1690839723942859500,10.775859619140626,-0.005425391718745232,-0.004495682194828987,-0.020372383296489716
1690839723952899600,10.785899658203125,-0.0030269487760961056,-0.003881557146087289,-0.01943282037973404
1690839723962970400,10.795970458984375,-0.004002997186034918,-0.0031380027066916227,-0.020615262910723686
1690839723973010400,10.806010498046875,-0.005923136603087187,-0.0016098808264359832,-0.020073043182492256
1690839723983050500,10.816050537109374,-0.0036661075428128242,-0.002775546396151185,-0.020557206124067307
1690839723993090300,10.82609033203125,-0.00660517206415534,-0.0017321199411526322,-0.020841898396611214
1690839724003131400,10.83613134765625,-0.0038602519780397415,0.0007352987886406481,-0.019714316353201866
1690839724013171500,10.84617138671875,-0.003877029987052083,-0.00042770366417244077,-0.0200410857796669
1690839724023211500,10.85621142578125,-0.003736414946615696,-0.003567037871107459,-0.020746557042002678
1690839724033252400,10.86625244140625,-0.004891161806881428,-0.0020607539918273687,-0.01926557347178459
1690839724043292400,10.87629248046875,-0.004426972474902868,-0.00015472965606022626,-0.01895531453192234
1690839724053332500,10.88633251953125,-0.005628590937703848,-0.004599545616656542,-0.021081317216157913
1690839724063372300,10.896372314453124,-0.004375840071588755,-0.0028280108235776424,-0.019047195091843605
1690839724073413400,10.906413330078125,-0.005387042183429003,-0.0020879183430224657,-0.020603278651833534
1690839724083453400,10.916453369140624,-0.005477589555084705,-0.0036549223586916924,-0.020129770040512085
1690839724093493500,10.926493408203125,-0.005224056541919708,-0.0008902947301976383,-0.019275693222880363
1690839724103534300,10.936534423828125,-0.00506932707503438,-0.001065264455974102,-0.02033243514597416
1690839724113604600,10.9466044921875,-0.005369731690734625,0.0003350256592966616,-0.01775982230901718
1690839724123645400,10.9566455078125,-0.005194761790335178,-0.00010093380114994943,-0.02099289931356907
1690839724133685500,10.966685546875,-0.005054413340985775,-0.0036935380194336176,-0.019102588295936584
1690839724143725300,10.976725341796875,-0.004729773849248886,-0.001023186487145722,-0.02101047709584236
1690839724153766400,10.986766357421875,-0.0052384380251169205,-0.002906307578086853,-0.02070048451423645
1690839724163806500,10.996806396484375,-0.0056770602241158485,-0.0012679309584200382,-0.020050140097737312
1690839724173846500,11.006846435546874,-0.004604339133948088,-0.004343349486589432,-0.021289309486746788
1690839724183886600,11.016886474609375,-0.004859469830989838,-0.002109223511070013,-0.021329257637262344
1690839724193927400,11.026927490234375,-0.004850415047258139,-0.002016279147937894,-0.021465344354510307
1690839724203967500,11.036967529296875,-0.00572979124262929,-0.004485296085476875,-0.02058170735836029
1690839724214007300,11.04700732421875,-0.004233893472701311,-0.0015632755821570754,-0.018975822255015373
1690839724224048400,11.05704833984375,-0.004129763692617416,-0.00019494339358061552,-0.019895676523447037
1690839724234088400,11.06708837890625,-0.006673615425825119,-0.002557699801400304,-0.021684788167476654
1690839724244128500,11.07712841796875,-0.005711681675165892,-0.0015507587231695652,-0.019874904304742813
1690839724254168600,11.08716845703125,-0.005630188621580601,-0.003272492438554764,-0.02141687460243702
1690839724264239600,11.097239501953124,-0.005692773032933474,-0.0019092201255261898,-0.021794244647026062
1690839724274279400,11.107279541015625,-0.0037121803034096956,-0.0017563547007739544,-0.019752399995923042
1690839724284320500,11.117320556640625,-0.0043590618297457695,-0.0039007319137454033,-0.019519371911883354
1690839724294360300,11.1273603515625,-0.005944442003965378,-0.003846403444185853,-0.020494889467954636
1690839724304400400,11.137400390625,-0.003710316028445959,-0.002257561543956399,-0.0206309761852026
1690839724314441500,11.14744140625,-0.004714327864348888,-0.0027888622134923935,-0.019723370671272278
1690839724324481500,11.1574814453125,-0.004061587154865265,-0.0030895331874489784,-0.020549483597278595
1690839724334521600,11.167521484375,-0.004796086810529232,-0.0017441042000427842,-0.020735371857881546
1690839724344561700,11.177561767578124,-0.006806773599237204,-0.0014178669080138206,-0.02082165889441967
1690839724354602500,11.1876025390625,-0.004852812271565199,-0.0022274679504334927,-0.021623536944389343
1690839724364642300,11.197642333984374,-0.004495948553085327,0.00018455706594977528,-0.019883427768945694
1690839724374682400,11.207682373046875,-0.0037944719661027193,-0.003640807466581464,-0.018080733716487885
1690839724384723500,11.217723388671875,-0.004965197294950485,-0.0029851372819393873,-0.019919378682971
1690839724394763500,11.227763427734375,-0.004414722323417664,-0.0018783274572342634,-0.020306603983044624
1690839724404803600,11.237803466796874,-0.006073605269193649,-0.0028972530271857977,-0.019839750602841377
1690839724414874600,11.24787451171875,-0.004258926957845688,-0.0024615598376840353,-0.02015719935297966
1690839724424914400,11.25791455078125,-0.004735899157822132,-0.004472246393561363,-0.019571037963032722
1690839724434955300,11.267955322265625,-0.0043742419220507145,-0.0010373012628406286,-0.018185928463935852
1690839724444995300,11.277995361328125,-0.003771835006773472,-0.0007217166712507606,-0.0194285586476326
1690839724455035400,11.288035400390624,-0.005703425966203213,-0.0002596582053229213,-0.019208582118153572
1690839724465075500,11.298075439453125,-0.005062136333435774,-0.0015358449891209602,-0.020417124032974243
1690839724475116500,11.308116455078125,-0.004701544530689716,-0.002758768619969487,-0.020411532372236252
1690839724485156600,11.318156494140625,-0.003960653208196163,-0.0034940673504024744,-0.020117253065109253
1690839724495196700,11.32819677734375,-0.003888481529429555,-0.0008583368035033345,-0.020611802116036415
1690839724505236500,11.338236572265625,-0.005406483076512814,-0.001440237509086728,-0.01774996891617775
1690839724515277300,11.34827734375,-0.006187588442116976,-0.0036698358599096537,-0.020116453990340233
1690839724525317400,11.3583173828125,-0.006295179948210716,-0.00034594463068060577,-0.017915084958076477
1690839724535357400,11.368357421875,-0.006254167295992374,-0.0023156185634434223,-0.02003256417810917
1690839724545398500,11.3783984375,-0.00574816670268774,-0.003942277282476425,-0.019947608932852745
1690839724555438600,11.3884384765625,-0.00404454255476594,-0.0013430321123450994,-0.022944197058677673
1690839724565509600,11.398509521484375,-0.00529676117002964,-0.001680454588495195,-0.019507654011249542
1690839724575549400,11.408549560546875,-0.004988633096218109,-0.0033992587123066187,-0.02149171009659767
1690839724585589500,11.418589599609374,-0.004516188520938158,-0.0008948221220634878,-0.020595289766788483
1690839724595630300,11.42863037109375,-0.004354001954197884,-0.001326786819845438,-0.020917532965540886
1690839724605670400,11.43867041015625,-0.0026027073618024588,-0.004238420631736517,-0.021454425528645515
1690839724615710500,11.44871044921875,-0.005850432440638542,-0.00236222380772233,-0.02101180888712406
1690839724625750500,11.45875048828125,-0.006684534251689911,-0.0014831144362688065,-0.01872388646006584
1690839724635791600,11.46879150390625,-0.005514075048267841,-0.003686880227178335,-0.02057132124900818
1690839724645831700,11.478831787109375,-0.005546299275010824,-0.0027182884514331818,-0.020080767571926117
1690839724655871500,11.48887158203125,-0.005051750224083662,-0.00424268189817667,-0.019147861748933792
1690839724665912300,11.498912353515625,-0.004836833104491234,-0.0021574266720563173,-0.021074125543236732
1690839724675952400,11.508952392578125,-0.0043928842060267925,-0.003073021536692977,-0.021161211654543877
1690839724685992400,11.518992431640624,-0.004455202259123325,-0.0010511496802791953,-0.02075294964015484
1690839724696032500,11.529032470703125,-0.0062800003215670586,-0.001228516222909093,-0.020115388557314873
1690839724706073600,11.539073486328125,-0.004839229863137007,-0.002124936319887638,-0.021088773384690285
1690839724716143400,11.549143310546874,-0.0057622818276286125,-0.002353968098759651,-0.01895212009549141
1690839724726184400,11.559184326171875,-0.004421912599354982,-0.0031992553267627954,-0.020827516913414
1690839724736224500,11.569224609375,-0.00458676228299737,-0.0011611381778493524,-0.021793179214000702
1690839724746264600,11.5792646484375,-0.0027632960118353367,-0.00021971078240312636,-0.020589962601661682
1690839724756305400,11.589305419921875,-0.0057617491111159325,-0.0004721784498542547,-0.020309265702962875
1690839724766345500,11.599345458984375,-0.004215251188725233,-0.0018037590198218822,-0.02178119495511055
1690839724776385500,11.609385498046874,-0.00436145905405283,0.00018242653459310532,-0.021823007613420486
1690839724786425600,11.619425537109375,-0.0052078114822506905,0.00006950850365683436,-0.019231218844652176
1690839724796466700,11.629466796875,-0.005705023650079966,-0.004531368613243103,-0.022757243365049362
1690839724806480600,11.639480712890625,-0.005428054835647345,-0.0028429245576262474,-0.021399565041065216
1690839724816520700,11.649520751953125,-0.005714611150324345,-0.00293373828753829,-0.02189837396144867
1690839724826561800,11.659561767578126,-0.004732171073555946,-0.002316950121894479,-0.019779030233621597
1690839724836601900,11.669601806640625,-0.003780623432248831,-0.001499625970609486,-0.018913237378001213
1690839724846641700,11.6796416015625,-0.004700212739408016,-0.0009171926649287343,-0.020435234531760216
1690839724856681500,11.689681396484374,-0.00481472909450531,-0.001784850494004786,-0.02003496140241623
1690839724866752500,11.69975244140625,-0.009826531633734703,-0.16023734211921692,-0.024690965190529823
1690839724876793600,11.709793701171876,-0.01239275373518467,0.0025861957110464573,0.03906884044408798
1690839724886833700,11.719833740234375,-0.005062935408204794,-0.020018715411424637,-0.06018717214465141
1690839724896873700,11.729873779296875,0.0024117587599903345,-0.03596865385770798,-0.07467184215784073
1690839724906913800,11.739913818359375,0.008506668731570244,-0.044627655297517776,-0.09245163947343826
1690839724916955000,11.749954833984376,0.005045358557254076,-0.03398965671658516,-0.08153826743364334
1690839724926994700,11.75999462890625,-0.0008431567694060504,-0.01600160263478756,-0.07671208679676056
