time,seconds_elapsed,z,y,x
1690840372144312000,0.03331201171875,-0.0021755362395197153,0.0003382214636076242,0.069290392100811
1690840372154352000,0.04335205078125,-0.0010721886064857244,0.0049257827922701836,0.08033638447523117
1690840372164392200,0.05339208984375,-0.0013185309944674373,0.005141232628375292,0.08407200127840042
1690840372174433300,0.063433349609375,-0.0036637107841670513,0.0004487426485866308,0.0822109803557396
1690840372184473300,0.073473388671875,-0.0032266860362142324,0.0031875374261289835,0.07179535925388336
1690840372194513400,0.083513427734375,-0.005016330163925886,-0.0041369544342160225,0.0604657419025898
1690840372204554200,0.09355419921875,-0.005018726922571659,-0.010777014307677746,0.03615454211831093
1690840372214624300,0.103624267578125,-0.005072256550192833,-0.007784686051309109,0.015139271505177021
1690840372224665000,0.1136650390625,-0.0038211036007851362,-0.007993478327989578,-0.007772169075906277
1690840372234705200,0.123705078125,-0.005724464543163776,-0.003686081152409315,-0.03191026300191879
1690840372244745200,0.1337451171875,-0.004205930046737194,-0.00013156015484128147,-0.05384032800793648
1690840372254786300,0.143786376953125,-0.004875981714576483,0.004071174189448357,-0.07309658080339432
1690840372264826400,0.153826416015625,-0.0036099147982895374,0.00478463526815176,-0.0886281356215477
1690840372274866400,0.163866455078125,-0.004347876645624638,0.003008306724950671,-0.09741417318582535
1690840372284906200,0.17390625,-0.004895955324172974,0.001091629732400179,-0.10013698786497116
1690840372294947000,0.183947021484375,-0.006956443190574646,-0.003114300547167659,-0.09993884712457657
1690840372304987100,0.193987060546875,-0.004768922459334135,-0.004316717851907015,-0.09085400402545929
1690840372315027200,0.204027099609375,-0.006375341210514307,-0.008442486636340618,-0.07821943610906601
1690840372325068300,0.214068359375,-0.005259210709482431,-0.00923291314393282,-0.06443917751312256
1690840372335108400,0.2241083984375,-0.004453604109585285,-0.006798783782869577,-0.04580264165997505
1690840372345148400,0.2341484375,-0.0033816818613559008,-0.0049460227601230145,-0.02821166440844536
1690840372355188200,0.244188232421875,-0.0038189729675650597,-0.0024881914723664522,-0.01200126949697733
1690840372365259300,0.25425927734375,-0.0037950044497847557,-0.000024767397917457856,0.004233893472701311
1690840372375299300,0.26429931640625,-0.003724963404238224,0.004505269695073366,0.02002590522170067
1690840372385340200,0.274340087890625,-0.003999801818281412,0.0010314423125237226,0.030005834996700287
1690840372395380200,0.284380126953125,-0.0031553131993860006,0.002016545506194234,0.03652258962392807
1690840372405420300,0.294420166015625,-0.006195311434566975,-0.003397394670173526,0.038416631519794464
1690840372415458000,0.3044580078125,-0.005396896041929722,-0.00008309062832267955,0.03881717100739479
1690840372425497900,0.314497802734375,-0.0018458369886502624,-0.0037670412566512823,0.033372871577739716
1690840372435538000,0.324537841796875,-0.005512743256986141,-0.006328469607979059,0.022431006655097008
1690840372445578000,0.334577880859375,-0.004974784795194864,-0.005772934295237064,0.009896839037537575
1690840372455618800,0.344618896484375,-0.004385427106171846,-0.003319630166515708,-0.002651176881045103
1690840372465659000,0.354658935546875,-0.004719654098153114,-0.0025861957110464573,-0.016634903848171234
1690840372475699000,0.364698974609375,-0.005014732480049133,-0.000330231967382133,-0.030948327854275703
1690840372485740000,0.374739990234375,-0.005316734779626131,0.0007147924043238163,-0.041557297110557556
1690840372495779800,0.38477978515625,-0.0036647759843617678,-0.0008977515972219408,-0.05176013335585594
1690840372505851000,0.394850830078125,-0.004839762579649687,0.0006090649403631687,-0.060322195291519165
1690840372515891000,0.404890869140625,-0.0035510589368641376,-0.003166498616337776,-0.06470868736505508
1690840372525931000,0.414930908203125,-0.004829376470297575,-0.00390339526347816,-0.06493426114320755
1690840372535971800,0.424971923828125,-0.004044010303914547,-0.00273133791051805,-0.062306784093379974
1690840372546012000,0.435011962890625,-0.004041346721351147,-0.0046938215382397175,-0.055337026715278625
1690840372556052000,0.445052001953125,-0.006619553081691265,-0.005139900837093592,-0.04746179282665253
1690840372566091800,0.455091796875,-0.004297809209674597,-0.002939330879598856,-0.03995700180530548
1690840372576132900,0.4651328125,-0.003823500359430909,-0.003343598684296012,-0.027838289737701416
1690840372586173000,0.4751728515625,-0.005322061013430357,-0.0020937772933393717,-0.019148128107190132
1690840372596212700,0.485212646484375,-0.004429901950061321,-0.0015137407463043928,-0.008323975838720798
1690840372606252800,0.495252685546875,-0.004631769843399525,-0.0000021305288555595325,0.0012146678054705262
1690840372616294000,0.5052939453125,-0.0032147017773240805,-0.0007693872321397066,0.005695702508091927
1690840372626334000,0.515333984375,-0.004138285759836435,-0.001270594191737473,0.009435845538973808
1690840372636373800,0.525373779296875,-0.00440912926569581,-0.001916410750709474,0.01242284756153822
1690840372646444800,0.53544482421875,-0.003941744565963745,-0.002082591876387596,0.010280068032443523
1690840372656484900,0.54548486328125,-0.0036693033762276173,-0.0026589001063257456,0.009619071148335934
1690840372666526000,0.55552587890625,-0.004569451790302992,-0.002989664673805237,0.003290868131443858
1690840372676565800,0.565565673828125,-0.005845372099429369,-0.0016769925132393837,-0.0041305627673864365
1690840372686605800,0.575605712890625,-0.00401737866923213,-0.0027353328187018633,-0.009722668677568436
1690840372696647000,0.58564697265625,-0.00418355967849493,-0.002109489869326353,-0.018874088302254677
1690840372706686700,0.595686767578125,-0.005908489227294922,-0.002682602033019066,-0.02713548019528389
1690840372716726800,0.605726806640625,-0.005233377683907747,-0.002243713242933154,-0.033607494086027145
1690840372726766800,0.615766845703125,-0.004305799026042223,-0.0027827369049191475,-0.03850425034761429
1690840372736808000,0.625807861328125,-0.005017129238694906,-0.0030421288684010506,-0.04319407418370247
1690840372746847700,0.63584765625,-0.004893025849014521,-0.00063383235828951,-0.04368835687637329
1690840372756887800,0.6458876953125,-0.0057614827528595924,-0.0029880667570978403,-0.04475202411413193
1690840372766929000,0.655928955078125,-0.005948170088231564,-0.004012851044535637,-0.04170243814587593
1690840372776969000,0.665968994140625,-0.006725546903908253,-0.003882356220856309,-0.03936152160167694
1690840372787008800,0.6760087890625,-0.00446798512712121,-0.0018940401496365666,-0.0340072363615036
1690840372797079800,0.686079833984375,-0.003948402591049671,-0.002442385070025921,-0.0312186386436224
1690840372807120000,0.696119873046875,-0.005234443116933107,-0.0033009881153702736,-0.024644359946250916
1690840372817160000,0.706159912109375,-0.005191565956920385,-0.0029265477787703276,-0.017127588391304016
1690840372827200800,0.71620068359375,-0.0054245926439762115,-0.0012932310346513987,-0.011356251314282417
1690840372837240800,0.72624072265625,-0.003712446428835392,-0.0011249192757532,-0.007164435926824808
1690840372847280600,0.73628076171875,-0.004749481566250324,-0.0005155879771336913,-0.005140699911862612
1690840372857321700,0.74632177734375,-0.005550027824938297,-0.0007379619055427611,-0.003952663857489824
1690840372867361800,0.75636181640625,-0.00500940578058362,-0.0006684534018859267,-0.0030658310279250145
1690840372877401900,0.76640185546875,-0.005791576579213142,-0.0018287927377969027,-0.0033888723701238632
1690840372887442000,0.77644189453125,-0.0027153589762747288,-0.002767290687188506,-0.006884537637233734
1690840372897482800,0.786482666015625,-0.0054791877046227455,-0.00079735042527318,-0.008182828314602375
1690840372907522800,0.796522705078125,-0.005512476898729801,-0.002673813607543707,-0.014827681705355644
1690840372917563000,0.80656298828125,-0.005115665961056948,-0.003460245206952095,-0.019177954643964767
1690840372927604000,0.81660400390625,-0.003698065411299467,-0.0005214469274505973,-0.021941252052783966
1690840372937673700,0.826673828125,-0.006096508353948593,-0.00361790438182652,-0.027477163821458817
1690840372947714800,0.83671484375,-0.005089300684630871,-0.00005699164830730297,-0.029800506308674812
1690840372957755000,0.8467548828125,-0.005606486462056637,-0.001038632821291685,-0.030795995146036148
1690840372967795000,0.856794921875,-0.005336974747478962,-0.0026972496416419744,-0.032102808356285095
1690840372977835800,0.866835693359375,-0.004426706116646528,-0.0018261295044794679,-0.03534254431724548
1690840372987875800,0.876875732421875,-0.003227751236408949,-0.0024349282030016184,-0.033668749034404755
1690840372997915600,0.88691552734375,-0.004481301177293062,-0.0008769789128564298,-0.03279523178935051
1690840373007955700,0.896955810546875,-0.004229366313666105,-0.0015430354978889227,-0.02774135023355484
1690840373017996800,0.906996826171875,-0.005348426289856434,-0.003222425002604723,-0.027844147756695747
1690840373028036900,0.917036865234375,-0.00504109775647521,-0.0019262643763795495,-0.024048877879977226
1690840373038077000,0.927076904296875,-0.003254116512835026,-0.0010295780375599861,-0.019147595390677452
1690840373048117800,0.93711767578125,-0.004500475712120533,-0.00021385183208622038,-0.0167347714304924
1690840373058157800,0.94715771484375,-0.0050099384970963,-0.0027486486360430717,-0.012328305281698704
1690840373068198000,0.957197998046875,-0.00452923821285367,-0.0018093516118824482,-0.011471300385892391
1690840373078237700,0.96723779296875,-0.003778493031859398,-0.004484497010707855,-0.010526943020522594
1690840373088308700,0.977308837890625,-0.0054765245877206326,-0.0037523938808590174,-0.010945325717329979
1690840373098348800,0.987348876953125,-0.00478330347687006,-0.0021494373213499784,-0.011452924460172653
1690840373108390000,0.997389892578125,-0.003754790872335434,-0.001279382617212832,-0.011087005957961082
1690840373118430000,1.007429931640625,-0.004869590047746897,-0.0017707358347252011,-0.013038303703069687
1690840373128470000,1.017469970703125,-0.005685582756996155,-0.0006905576447024941,-0.015983493998646736
1690840373138510800,1.0275107421875,-0.004327103961259127,-0.0020479708909988403,-0.0200437493622303
1690840373148550700,1.037550537109375,-0.005613144487142563,-0.0018604843644425273,-0.02052737958729267
1690840373158590700,1.0475908203125,-0.004532699938863516,-0.0010492854053154588,-0.02383369393646717
1690840373168630800,1.057630859375,-0.005357747431844473,-0.002639192622154951,-0.02532559633255005
1690840373178671900,1.067671875,-0.0035979305393993855,-0.0046453517861664295,-0.02532932534813881
1690840373188712000,1.0777119140625,-0.006088785361498594,-0.002376871183514595,-0.026446521282196045
1690840373198752000,1.087751953125,-0.002974484581500292,-0.0011544802691787481,-0.02696530520915985
1690840373208792800,1.097792724609375,-0.004879443906247616,-0.00487198680639267,-0.027511784806847572
1690840373218833000,1.1078330078125,-0.004434163216501474,-0.002234125742688775,-0.02617221511900425
1690840373228903700,1.117903564453125,-0.005155880004167557,-0.0031526500824838877,-0.024384435266256332
1690840373238943700,1.12794384765625,-0.004427771549671888,-0.0023196132387965918,-0.02629552036523819
1690840373248983800,1.13798388671875,-0.0046517434529960155,-0.0006727144937030971,-0.0213050227612257
1690840373259024000,1.14802392578125,-0.006243781186640263,-0.002098038326948881,-0.018746789544820786
1690840373269065000,1.15806494140625,-0.004247209057211876,-0.0012463594321161509,-0.018764367327094078
1690840373279105000,1.16810498046875,-0.006081328261643648,-0.0015417039394378662,-0.016986973583698273
1690840373289144800,1.178144775390625,-0.005354018881917,-0.0008396946941502392,-0.016473781317472458
1690840373299185700,1.188185546875,-0.005516738165169954,-0.0013712616637349129,-0.014473214745521545
1690840373309225700,1.198225830078125,-0.004425108432769775,-0.001270061475224793,-0.014993596822023392
1690840373319265800,1.208265869140625,-0.004314587451517582,-0.0012721919920295477,-0.01449984684586525
1690840373329305900,1.218305908203125,-0.004699147772043943,-0.002115615177899599,-0.01631479151546955
1690840373339347000,1.228346923828125,-0.004481833893805742,-0.001919340225867927,-0.01599840819835663
1690840373349387000,1.238386962890625,-0.003905792022123933,-0.003570766421034932,-0.017791779711842537
1690840373359426800,1.2484267578125,-0.004047205671668053,-0.001826662220992148,-0.020477311685681343
1690840373369497900,1.258497802734375,-0.004995024763047695,-0.0027332021854817867,-0.02159690484404564
1690840373379538000,1.268537841796875,-0.004723116289824247,-0.0014511564513668418,-0.024023843929171562
1690840373389578800,1.278578857421875,-0.004188619554042816,-0.0034887411165982485,-0.023782560601830482
1690840373399618800,1.288618896484375,-0.004144411068409681,-0.0025566346012055874,-0.02491999790072441
1690840373409659000,1.298658935546875,-0.004501008428633213,-0.0035662390291690826,-0.02503318153321743
1690840373419699000,1.308698974609375,-0.00564004248008132,-0.0034120420459657907,-0.023324230685830116
1690840373429739000,1.318739013671875,-0.005763879511505365,-0.002409894485026598,-0.02454209513962269
1690840373439778800,1.32877880859375,-0.0054669370874762535,-0.0011848403373733163,-0.022289060056209564
1690840373449819000,1.33881884765625,-0.0057468353770673275,-0.002186188939958811,-0.020801683887839317
1690840373459860000,1.34885986328125,-0.004492486361414194,-0.0010426276130601764,-0.021135378628969193
1690840373469899800,1.358899658203125,-0.004924184642732143,-0.002415487077087164,-0.018752383068203926
1690840373479939800,1.36893994140625,-0.005437908694148064,-0.0010162622202187777,-0.020432304590940475
1690840373489981000,1.37898095703125,-0.004020574036985636,-0.0012740562669932842,-0.019538281485438347
1690840373500021000,1.38902099609375,-0.003870371961966157,-0.0018722022650763392,-0.01613076590001583
1690840373510060800,1.399060791015625,-0.0038453382439911366,-0.0016666061710566282,-0.016682308167219162
1690840373520131800,1.4091318359375,-0.004638161510229111,-0.0038043255917727947,-0.017047692090272903
1690840373530172000,1.419171875,-0.004248274490237236,-0.0006679208017885685,-0.016164589673280716
1690840373540212000,1.4292119140625,-0.004653341136872768,-0.0012452941155061126,-0.018069282174110413
1690840373550252800,1.439252685546875,-0.0036666402593255043,-0.002898051869124174,-0.020503144711256027
1690840373560292900,1.44929296875,-0.003865312086418271,-0.0035145736765116453,-0.021036310121417046
1690840373570333000,1.4593330078125,-0.003695935010910034,-0.0022543659433722496,-0.02148398756980896
1690840373580374000,1.4693740234375,-0.0055028898641467094,-0.001119060325436294,-0.020771058276295662
1690840373590413800,1.479413818359375,-0.003964381758123636,-0.0025600967928767204,-0.022246450185775757
1690840373600454000,1.489453857421875,-0.003769704606384039,-0.0019212043844163418,-0.022722622379660606
1690840373610494000,1.499493896484375,-0.0046301716938614845,-0.001127582392655313,-0.021996645256876945
1690840373620534800,1.50953466796875,-0.004541488364338875,-0.0024109596852213144,-0.0217116866260767
1690840373630574800,1.519574951171875,-0.005512743256986141,-0.002094576135277748,-0.025555161759257317
1690840373640615000,1.529614990234375,-0.004042145796120167,-0.0041191112250089645,-0.022299446165561676
1690840373650656000,1.539656005859375,-0.003703924361616373,-0.0038751657120883465,-0.022358568385243416
1690840373660725800,1.549725830078125,-0.003896470880135894,-0.0026964505668729544,-0.022608373314142227
1690840373670766800,1.559766845703125,-0.006157494615763426,-0.002398176584392786,-0.021441642194986343
1690840373680807000,1.569806884765625,-0.005543103441596031,-0.0035265579354017973,-0.020622454583644867
1690840373690847000,1.579846923828125,-0.003910585772246122,-0.003370763035491109,-0.020963339135050774
1690840373700887800,1.5898876953125,-0.005121791269630194,-0.0030866037122905254,-0.0189603753387928
1690840373710928000,1.599927978515625,-0.004840828012675047,-0.0028101676143705845,-0.02064668945968151
1690840373720968000,1.609968017578125,-0.003768639173358679,-0.0018074874533340335,-0.01836196333169937
1690840373731007700,1.6200078125,-0.004817125853151083,-0.0008546083699911833,-0.0173219982534647
1690840373741048800,1.630048828125,-0.0052229915745556355,-0.0035148400347679853,-0.018074341118335724
1690840373751089000,1.6400888671875,-0.003955326974391937,-0.002769421087577939,-0.019455989822745323
1690840373761129000,1.65012890625,-0.0047058057971298695,-0.0014197311829775572,-0.019393404945731163
1690840373771169000,1.6601689453125,-0.0049036783166229725,-0.002163019496947527,-0.018853316083550453
1690840373781209900,1.6702099609375,-0.005744704511016607,-0.002808836055919528,-0.018803514540195465
1690840373791250000,1.68025,-0.00412390474230051,-0.003344131400808692,-0.022350313141942024
1690840373801289700,1.690289794921875,-0.0033726270776242018,0.0013960290234535933,-0.020603012293577194
1690840373811360800,1.70036083984375,-0.0041428133845329285,-0.0014961638953536749,-0.02153165638446808
1690840373821400800,1.71040087890625,-0.0051809134893119335,-0.0032855418976396322,-0.022843530401587486
1690840373831442000,1.72044189453125,-0.005377987399697304,-0.0017539578257128596,-0.02245337702333927
1690840373841482000,1.73048193359375,-0.0037614486645907164,-0.0015936355339363217,-0.021923407912254333
1690840373851522000,1.74052197265625,-0.0041763694025576115,-0.0008354336023330688,-0.020905015990138054
1690840373861563000,1.75056298828125,-0.00376011710613966,-0.0008761800127103925,-0.02129250578582287
1690840373871602700,1.760602783203125,-0.004277302883565426,-0.0027867318131029606,-0.021252557635307312
1690840373881642800,1.770642822265625,-0.0054664043709635735,-0.0008588694618083537,-0.02207467518746853
1690840373891682800,1.780682861328125,-0.004400074947625399,-0.002671683207154274,-0.020425112918019295
1690840373901724000,1.790723876953125,-0.004232295788824558,-0.00023276027059182525,-0.02184431254863739
1690840373911764000,1.800763916015625,-0.005395031534135342,-0.003072755178436637,-0.01882801577448845
1690840373921804000,1.810803955078125,-0.005621666554361582,-0.0016466324450448155,-0.019290074706077576
1690840373931844900,1.820844970703125,-0.004707403481006622,-0.0027164241764694452,-0.018611501902341843
1690840373941885000,1.830885009765625,-0.005539108533412218,-0.0010724549647420645,-0.017777930945158005
1690840373951955700,1.840955810546875,-0.003683151677250862,-0.0019371833186596632,-0.021212344989180565
1690840373961995800,1.850995849609375,-0.005673065781593323,-0.0023901870008558035,-0.018748920410871506
1690840373972035800,1.861035888671875,-0.005468268413096666,-0.0021315941121429205,-0.02052631415426731
1690840373982076000,1.871075927734375,-0.004935902543365955,-0.0023153522051870823,-0.020192885771393776
1690840373992117000,1.881116943359375,-0.00464694993570447,-0.0007323693134821951,-0.020730579271912575
1690840374002157000,1.891156982421875,-0.005584116093814373,-0.0027510453946888447,-0.018983278423547745
1690840374012196900,1.90119677734375,-0.0038988678716123104,-0.0008215851848945022,-0.023260582238435745
1690840374022237700,1.91123779296875,-0.004505802411586046,-0.0024642229545861483,-0.022837406024336815
1690840374032277800,1.92127783203125,-0.00358754419721663,-0.0023989754263311625,-0.020839767530560493
1690840374042317800,1.93131787109375,-0.0052086105570197105,-0.002389388158917427,-0.022227540612220764
1690840374052358000,1.94135791015625,-0.003635481232777238,-0.002627474721521139,-0.022127406671643257
1690840374062399000,1.95139892578125,-0.004027498420327902,-0.0014178669080138206,-0.022764701396226883
1690840374072439000,1.96143896484375,-0.005756955128163099,-0.0022471752017736435,-0.022914903238415718
1690840374082479000,1.97147900390625,-0.003989148885011673,-0.0020061591640114784,-0.020838435739278793
1690840374092520000,1.98152001953125,-0.0052118063904345036,-0.003323358716443181,-0.021678397431969643
1690840374102590000,1.99158984375,-0.004541222471743822,-0.0018607506062835455,-0.020534835755825043
1690840374112630800,2.001630859375,-0.005256014876067638,-0.0011712582781910896,-0.022770559415221214
1690840374122670800,2.0116708984375,-0.004145476501435041,-0.002147306688129902,-0.019949207082390785
1690840374132711000,2.0217109375,-0.004356665071099997,-0.0017275925492867827,-0.018330803140997887
1690840374142752000,2.031751953125,-0.005149754695594311,-0.0018578211311250925,-0.01937263272702694
1690840374152792000,2.0417919921875,-0.004296744242310524,-0.0015459649730473757,-0.01859072782099247
1690840374162832000,2.051831787109375,-0.003147589974105358,-0.002427471335977316,-0.019235746935009956
1690840374172872000,2.061871826171875,-0.0046485476195812225,-0.0009816411184147,-0.02105868048965931
1690840374182912800,2.071912841796875,-0.00509835546836257,-0.0025302693247795105,-0.02159823663532734
1690840374192952800,2.081952880859375,-0.00487305223941803,-0.0010905644157901406,-0.02082059346139431
1690840374202993000,2.091992919921875,-0.005411543417721987,-0.0018647453980520368,-0.02070501260459423
1690840374213034000,2.102033935546875,-0.004030427895486355,-0.0019590212032198906,-0.020388096570968628
1690840374223074000,2.112073974609375,-0.0031193606555461884,-0.0014602112350985408,-0.02058064192533493
1690840374233114000,2.122114013671875,-0.0028005801141262054,-0.0004087952256668359,-0.020667994394898415
1690840374243185000,2.132184814453125,-0.00512711750343442,-0.0003755057114176452,-0.02069036476314068
1690840374253225000,2.142224853515625,-0.005328985396772623,-0.0028634308837354183,-0.021317007020115852
1690840374263264800,2.1522646484375,-0.0038802255876362324,-0.0017917747609317303,-0.022721823304891586
1690840374273305900,2.162305908203125,-0.004575310740619898,-0.003629089565947652,-0.021451495587825775
1690840374283346000,2.172345947265625,-0.0043769050389528275,-0.0028013791888952255,-0.020670924335718155
1690840374293386000,2.182385986328125,-0.004110589157789946,-0.00273133791051805,-0.021856829524040222
1690840374303427000,2.192427001953125,-0.005318066570907831,-0.003567836945876479,-0.021792380139231682
1690840374313467000,2.202466796875,-0.0037172401789575815,-0.002525209216400981,-0.021803831681609154
1690840374323507000,2.2125068359375,-0.004936701618134975,-0.0018077536951750517,-0.021165473386645317
1690840374333546800,2.222546630859375,-0.0049737198278307915,-0.001350755337625742,-0.019626697525382042
1690840374343587800,2.232587890625,-0.005616873037070036,-0.003734284546226263,-0.021103421226143837
1690840374353628000,2.2426279296875,-0.004031759686768055,-0.0016974988393485546,-0.020777450874447823
1690840374363668000,2.25266796875,-0.00472498033195734,-0.0033100428991019726,-0.022825688123703003
1690840374373709000,2.262708984375,-0.00415373221039772,-0.0015283881220966578,-0.0189028512686491
1690840374383749000,2.2727490234375,-0.004281297791749239,-0.00017017599020618945,-0.021494906395673752
1690840374393820000,2.28281982421875,-0.005432049743831158,-0.0018136126454919577,-0.020720990374684334
1690840374403860000,2.29285986328125,-0.0037846181076020002,-0.0033574472181499004,-0.020714066922664642
1690840374413878300,2.302878173828125,-0.0049550775438547134,-0.002419215627014637,-0.019843213260173798
1690840374423918300,2.31291845703125,-0.0054664043709635735,-0.003067428944632411,-0.0203366968780756
1690840374433959200,2.322959228515625,-0.004020574036985636,-0.004503405187278986,-0.0217143502086401
1690840374443999200,2.332999267578125,-0.0033244239166378975,-0.0036788906436413527,-0.019165704026818275
1690840374454039300,2.343039306640625,-0.004740693140774965,-0.0010245180455967784,-0.021526863798499107
1690840374464080400,2.353080322265625,-0.00464694993570447,-0.0002061286650132388,-0.019579825922846794
1690840374474120200,2.3631201171875,-0.004667722620069981,-0.0010780475568026304,-0.019690347835421562
1690840374484160300,2.37316015625,-0.0057343184016644955,-0.0016764599131420255,-0.02057638205587864
1690840374494200300,2.383200439453125,-0.0046754456125199795,-0.002350239548832178,-0.021019265055656433
1690840374504241200,2.3932412109375,-0.004769455175846815,-0.0010641991393640637,-0.020611535757780075
1690840374514281200,2.40328125,-0.004551075864583254,-0.0007893609581515193,-0.02052471600472927
1690840374524321300,2.4133212890625,-0.00327275856398046,-0.0009182579233311117,-0.01974627375602722
1690840374534392000,2.42339208984375,-0.005317800212651491,-0.001166198286227882,-0.02010180614888668
1690840374544432000,2.43343212890625,-0.004866926930844784,-0.0019060244085267186,-0.020649617537856102
1690840374554473200,2.44347314453125,-0.003940945956856012,0.00046392265358008444,-0.021509818732738495
1690840374564513300,2.45351318359375,-0.0032866070978343487,-0.0027055053506046534,-0.01985146850347519
1690840374574553300,2.46355322265625,-0.004870122764259577,-0.0030186930671334267,-0.021878400817513466
1690840374584594200,2.47359423828125,-0.004277835600078106,-0.0025752766523510218,-0.02214977703988552
1690840374594634200,2.48363427734375,-0.006641657557338476,-0.004453337751328945,-0.021407820284366608
1690840374604674300,2.49367431640625,-0.005605954211205244,-0.0019867182709276676,-0.021333783864974976
1690840374614714000,2.503714111328125,-0.004056793171912432,-0.0028096348978579044,-0.01990766078233719
1690840374624755200,2.513755126953125,-0.004483431577682495,-0.0016231966437771916,-0.021695975214242935
1690840374634795300,2.523795166015625,-0.0031846079509705305,-0.000008788431841821875,-0.019871974363923073
1690840374644835300,2.53383544921875,-0.005735650192946196,-0.0037670412566512823,-0.021398765966296196
1690840374654876200,2.543876220703125,-0.0029979203827679157,-0.0026903252582997084,-0.01901257410645485
1690840374664916200,2.553916259765625,-0.00515721132978797,-0.000952080066781491,-0.02147333323955536
1690840374674956300,2.563956298828125,-0.002924949862062931,-0.002466353354975581,-0.0211806520819664
1690840374685027000,2.574027099609375,-0.004018443636596203,0.00011851066665258259,-0.02112818881869316
1690840374695067100,2.584067138671875,-0.005530053749680519,-0.0015214639715850353,-0.02052897773683071
1690840374705107200,2.594107177734375,-0.004619519226253033,-0.0032059133518487215,-0.020854681730270386
1690840374715148300,2.604148193359375,-0.0039020637050271034,-0.002669020090252161,-0.02160702459514141
1690840374725188400,2.614188232421875,-0.0057380469515919685,-0.0036709012929350138,-0.021150026470422745
1690840374735228400,2.624228515625,-0.006702910177409649,-0.003026149934157729,-0.021927136927843094
1690840374745269200,2.634269287109375,-0.0049470881931483746,-0.003894074121490121,-0.02214338444173336
1690840374755309300,2.644309326171875,-0.0032349417451769114,-0.002412823960185051,-0.020353475585579872
1690840374765349000,2.65434912109375,-0.0026144252624362707,-0.00030173614504747093,-0.021092236042022705
1690840374775389200,2.66438916015625,-0.005486644338816404,-0.0011118697002530098,-0.020796092227101326
1690840374785430300,2.67443017578125,-0.003981425892561674,-0.0007866977830417454,-0.020072244107723236
1690840374795470300,2.68447021484375,-0.004278368316590786,-0.002235191175714135,-0.02045334316790104
1690840374805510400,2.694510498046875,-0.0056712012737989426,-0.002728142309933901,-0.019600067287683487
1690840374815551200,2.70455126953125,-0.004321777727454901,-0.0016785904299467802,-0.01967809721827507
1690840374825621200,2.714621337890625,-0.004228300880640745,-0.0027712853625416756,-0.019995812326669693
1690840374835662000,2.724662109375,-0.003995540551841259,-0.0011121360585093498,-0.019594740122556686
1690840374845702100,2.7347021484375,-0.003935619257390499,-0.0018911106744781137,-0.020535634830594063
1690840374855742200,2.7447421875,-0.0036826191935688257,-0.0009432916413061321,-0.02064802125096321
1690840374865782300,2.7547822265625,-0.003964115399867296,-0.003599528456106782,-0.01997051201760769
1690840374875823400,2.7648232421875,-0.004110855516046286,-0.003971305675804615,-0.01968155987560749
1690840374885863400,2.774863525390625,-0.004731371998786926,-0.002086054068058729,-0.018879681825637817
1690840374895903200,2.7849033203125,-0.005349758081138134,-0.004906075540930033,-0.020850153639912605
1690840374905944000,2.794944091796875,-0.0051771849393844604,-0.0011201255256310105,-0.02166428230702877
1690840374915984100,2.804984130859375,-0.003952397499233484,-0.0005203816690482199,-0.019957728683948517
1690840374926024200,2.815024169921875,-0.0037033918779343367,-0.00138031633105129,-0.021654162555933
1690840374936064300,2.825064208984375,-0.005087703000754118,-0.00098217383492738,-0.02160968817770481
1690840374946105300,2.835105224609375,-0.004630970768630505,-0.0005075985100120306,-0.02046985551714897
1690840374956145400,2.8451455078125,-0.005608883686363697,-0.0015907060587778687,-0.020019248127937317
1690840374966185200,2.855185302734375,-0.003838147735223174,-0.0007542071980424225,-0.021887188777327538
1690840374976256300,2.86525634765625,-0.004442685283720493,-0.0007470166892744601,-0.020433636382222176
1690840374986296000,2.875296142578125,-0.003233343828469515,-0.001407480682246387,-0.019389942288398743
1690840374996337200,2.885337158203125,-0.005303152836859226,-0.0023640880826860666,-0.021433919668197632
1690840375006377200,2.895377197265625,-0.005375856999307871,-0.0018381137633696198,-0.020207799971103668
1690840375016417300,2.905417236328125,-0.006311958190053701,-0.004795287735760212,-0.022495722398161888
1690840375026458400,2.915458251953125,-0.005252819042652845,-0.00205223192460835,-0.02183579094707966
1690840375036498400,2.92549853515625,-0.004250404890626669,-0.003326820908114314,-0.022413430735468864
1690840375046538200,2.935538330078125,-0.004867991898208857,-0.0033459956757724285,-0.0217143502086401
1690840375056578000,2.945578125,-0.005529787857085466,-0.0016197345685213804,-0.01985599659383297
1690840375066619100,2.955619140625,-0.004083691164851189,-0.00006817692337790504,-0.02123631350696087
1690840375076659200,2.9656591796875,-0.004309527110308409,-0.0019489012192934752,-0.020269319415092468
1690840375086699300,2.97569921875,-0.005037102848291397,-0.003831756068393588,-0.02087332308292389
1690840375096740400,2.985740234375,-0.004720453172922134,-0.0009347695158794522,-0.018677547574043274
1690840375106780400,2.995780517578125,-0.004634432960301638,-0.0010956244077533484,-0.02082458883523941
1690840375116851500,3.0058515625,-0.003915379289537668,-0.0018037590198218822,-0.020143084228038788
1690840375126891300,3.015891357421875,-0.005648830905556679,-0.002031459240242839,-0.021434452384710312
1690840375136931000,3.02593115234375,-0.004178766161203384,-0.0036732980515807867,-0.019820043817162514
1690840375146971100,3.03597119140625,-0.006128998938947916,-0.004113518632948399,-0.021383052691817284
1690840375157012200,3.04601220703125,-0.0054480284452438354,-0.004167846869677305,-0.020299678668379784
1690840375167052300,3.05605224609375,-0.004203000571578741,-0.000979244359768927,-0.02057451754808426
1690840375177092400,3.06609228515625,-0.004077565856277943,0.00030306773260235786,-0.019962256774306297
1690840375187133400,3.076133544921875,-0.004156661685556173,-0.0041460092179477215,-0.022731145843863487
1690840375197173000,3.086173095703125,-0.0034410704392939806,-0.0008905610884539783,-0.022961774840950966
1690840375207213000,3.096213134765625,-0.004686364438384771,-0.0008958873804658651,-0.020539630204439163
1690840375217253000,3.106253173828125,-0.004509530495852232,-0.0020040287636220455,-0.01895451545715332
1690840375227294200,3.116294189453125,-0.005034972447901964,-0.0015662050573155284,-0.021462414413690567
1690840375237334300,3.126334228515625,-0.002915362361818552,-0.002615224104374647,-0.022115688771009445
1690840375247374300,3.136374267578125,-0.0054552191868424416,-0.000428502622526139,-0.021209415048360825
1690840375257415200,3.146415283203125,-0.005447229836136103,-0.0033630398102104664,-0.022458171471953392
1690840375267485200,3.156485107421875,-0.004825115203857422,0.00138084904756397,-0.02033882774412632
1690840375277526000,3.166526123046875,-0.003924966789782047,-0.003594202222302556,-0.019593674689531326
1690840375287566000,3.176566162109375,-0.005045092198997736,-0.0006804376607760787,-0.02009887620806694
1690840375297606100,3.186606201171875,-0.005617139395326376,-0.0043622576631605625,-0.019651465117931366
1690840375307647200,3.196647216796875,-0.0041673146188259125,0.00018242653459310532,-0.021677598357200623
1690840375317687300,3.206687255859375,-0.004900216590613127,-0.0033457293175160885,-0.01781574822962284
1690840375327727400,3.216727294921875,-0.003823234001174569,-0.0007014766451902688,-0.02015320584177971
1690840375337767200,3.22676708984375,-0.003835484618321061,-0.004869590047746897,-0.020614463835954666
1690840375347808000,3.23680810546875,-0.005590774118900299,-0.0025531724095344543,-0.020958011969923973
1690840375357848000,3.24684814453125,-0.0034908715169876814,-0.0011558119440451264,-0.02124909497797489
1690840375367888100,3.25688818359375,-0.004510862287133932,-0.003510579001158476,-0.021518342196941376
1690840375377928200,3.26692822265625,-0.0028418591246008873,-0.0026375947054475546,-0.02189650945365429
1690840375387969300,3.27696923828125,-0.005431250669062138,-0.0012029499048367143,-0.01890658028423786
1690840375398009300,3.28700927734375,-0.0036048549227416515,-0.003376621985808015,-0.020059728994965553
1690840375408080400,3.297080322265625,-0.003772634081542492,0.0000021305288555595325,-0.020308732986450195
1690840375418116400,3.307116455078125,-0.005676261615008116,-0.0017784589435905218,-0.02154603786766529
1690840375428156200,3.31715625,-0.0057500312104821205,-0.001972869737073779,-0.01998888887465
1690840375438197200,3.327197265625,-0.0038962047547101974,-0.002281263703480363,-0.020202739164233208
1690840375448237000,3.337237060546875,-0.004034689161926508,-0.004561196081340313,-0.020066918805241585
1690840375458277000,3.347277099609375,-0.004732969682663679,-0.0005560680292546749,-0.019695142284035683
1690840375468318200,3.357318115234375,-0.00478410255163908,-0.00013901700731366873,-0.021681593731045723
1690840375478358300,3.367358154296875,-0.003728425595909357,-0.004368915688246489,-0.02196761593222618
1690840375488398300,3.3773984375,-0.004701278172433376,-0.00361790438182652,-0.020537232980132103
1690840375498438100,3.387438232421875,-0.006030461750924587,-0.0008764463127590716,-0.020126840099692345
1690840375508479200,3.397479248046875,-0.00430100504308939,-0.004286091309040785,-0.02082299068570137
1690840375518519000,3.40751904296875,-0.0037145770620554686,-0.0001496696495451033,-0.02069835364818573
1690840375528559000,3.41755908203125,-0.0051537491381168365,-0.001663410454057157,-0.020560668781399727
1690840375538600200,3.42760009765625,-0.00310497940517962,-0.0019979034550487995,-0.0217183455824852
1690840375548640300,3.43764013671875,-0.004466387443244457,-0.001469532260671258,-0.0205707885324955
1690840375558711300,3.447711181640625,-0.004877313040196896,-0.0027481159195303917,-0.021349763497710228
1690840375568751400,3.45775146484375,-0.004835235420614481,-0.0012096078135073185,-0.020127905532717705
1690840375578791200,3.467791259765625,-0.004800347611308098,-0.0035894084721803665,-0.020861072465777397
1690840375588831200,3.477831298828125,-0.005371862091124058,-0.0020234698895365,-0.021623004227876663
1690840375598872000,3.4878720703125,-0.00552179804071784,-0.0019648801535367966,-0.02063284069299698
1690840375608912100,3.497912109375,-0.004326571244746447,-0.00086872314568609,-0.020071977749466896
1690840375618952200,3.5079521484375,-0.004830441437661648,0.0000774979853304103,-0.020789168775081635
1690840375628993300,3.5179931640625,-0.0041614556685090065,0.0002769687562249601,-0.020363062620162964
1690840375639033300,3.528033447265625,-0.004475442226976156,-0.00281948852352798,-0.018623219802975655
1690840375649073200,3.5380732421875,-0.004963865969330072,-0.0025875272694975138,-0.021043766289949417
1690840375659113200,3.54811328125,-0.004604871850460768,-0.0011472897604107857,-0.02237747795879841
1690840375669154000,3.558154052734375,-0.0042733084410429,0.0005158542771823704,-0.02220623567700386
1690840375679194000,3.568194091796875,-0.004643487744033337,-0.003177950158715248,-0.018926819786429405
1690840375689234200,3.578234130859375,-0.00392709719017148,-0.0027867318131029606,-0.019872507080435753
1690840375699305200,3.58830517578125,-0.00449807895347476,-0.001859685406088829,-0.02070368081331253
1690840375709345300,3.59834521484375,-0.003665308468043804,-0.001814411603845656,-0.019954532384872437
1690840375719386400,3.608386474609375,-0.006110090296715498,-0.003204315435141325,-0.02262754738330841
1690840375729426200,3.61842626953125,-0.005652825813740492,-0.002638659905642271,-0.020049074664711952
1690840375739466200,3.62846630859375,-0.003980893176048994,-0.0038871499709784985,-0.02015693299472332
1690840375749507000,3.638507080078125,-0.005197957623749971,-0.0016969662392511964,-0.022099975496530533
1690840375759547100,3.648547119140625,-0.003968376200646162,-0.0031241541728377342,-0.021336181089282036
1690840375769587200,3.658587158203125,-0.005597432143986225,-0.0008849684381857514,-0.021858161315321922
1690840375779627300,3.668627197265625,-0.0049558766186237335,-0.003311108099296689,-0.020446419715881348
1690840375789668400,3.67866845703125,-0.0057737333700060844,-0.0015475628897547722,-0.018984343856573105
1690840375799708200,3.688708251953125,-0.005300223361700773,-0.000949150591623038,-0.020250942558050156
1690840375809748200,3.698748291015625,-0.0036754286848008633,-0.0022146848496049643,-0.02256576344370842
1690840375819789000,3.7087890625,-0.004933239426463842,-0.0019233349012210965,-0.020176108926534653
1690840375829829000,3.7188291015625,-0.003322825999930501,-0.0018897791160270572,-0.01991485245525837
1690840375839869200,3.728869140625,-0.004819522611796856,-0.0015217302134260535,-0.021942583844065666
1690840375849940200,3.738940185546875,-0.0028386632911860943,-0.003632551757618785,-0.021687718108296394
1690840375859980000,3.74897998046875,-0.0030357372015714645,0.00021678130724467337,-0.020986242219805717
1690840375870020000,3.75902001953125,-0.004254133440554142,-0.003343332326039672,-0.02178678847849369
1690840375880061200,3.769061279296875,-0.005249623209238052,-0.0032442628871649504,-0.019633889198303223
1690840375890101200,3.779101318359375,-0.004315386060625315,-0.002103630919009447,-0.021212877705693245
1690840375900141300,3.789141357421875,-0.004281297791749239,-0.0016319850692525506,-0.021228322759270668
1690840375910182100,3.79918212890625,-0.0032557144295424223,-0.0024823325220495462,-0.020122578367590904
1690840375920222200,3.80922216796875,-0.005434979218989611,-0.001889246515929699,-0.021321533247828484
1690840375930262300,3.81926220703125,-0.0018010957865044475,-0.0016825852217152715,-0.022342856973409653
1690840375940302000,3.829302001953125,-0.004260791465640068,-0.002682602033019066,-0.01991991139948368
1690840375950343200,3.83934326171875,-0.004459196701645851,-0.0009270463488064706,-0.02099582925438881
1690840375960383200,3.84938330078125,-0.004935370292514563,-0.003394198836758733,-0.02155003324151039
1690840375970423300,3.85942333984375,-0.004782238509505987,-0.0011891013709828258,-0.01894705928862095
1690840375980464000,3.869464111328125,-0.0041521345265209675,-0.0035926043055951595,-0.021257884800434113
1690840375990534400,3.879534423828125,-0.0046757119707763195,-0.003695668652653694,-0.020188892260193825
1690840376000575200,3.8895751953125,-0.004322843160480261,-0.0008149272762238979,-0.019841082394123077
1690840376010615000,3.899614990234375,-0.00520727876573801,-0.003469299990683794,-0.02105282060801983
1690840376020655000,3.909655029296875,-0.005227518733590841,-0.002633333671838045,-0.019183814525604248
1690840376030695200,3.919695068359375,-0.0046149916015565395,-0.0007278419216163456,-0.020388362929224968
1690840376040736300,3.929736328125,-0.004402471706271172,-0.001847701147198677,-0.02177240699529648
1690840376050776300,3.9397763671875,-0.005393966566771269,-0.0014655375853180885,-0.020902352407574654
1690840376060816400,3.94981640625,-0.004687163513153791,-0.0029403960797935724,-0.021352160722017288
1690840376070857200,3.959857177734375,-0.005080245900899172,-0.0006242449744604528,-0.0205761156976223
1690840376080897300,3.969897216796875,-0.004278368316590786,-0.0025843314360827208,-0.0213638786226511
1690840376090937000,3.97993701171875,-0.004178499802947044,-0.0023459785152226686,-0.01961205154657364
1690840376100977200,3.98997705078125,-0.004598480183631182,-0.0017457021167501807,-0.019301259890198708
1690840376111018200,4.000018310546875,-0.006464823614805937,-0.0027355989441275597,-0.021836057305336
1690840376121058300,4.010058349609375,-0.005333778914064169,-0.002713228575885296,-0.019226424396038055
1690840376131129300,4.02012939453125,-0.004452805500477552,-0.002989931032061577,-0.022165223956108093
1690840376141169400,4.03016943359375,-0.004013916477560997,-0.0005725796218030155,-0.017373664304614067
1690840376151209200,4.040209228515625,-0.003924434073269367,-0.0027057717088609934,-0.02238413505256176
1690840376161250000,4.05025,-0.003070891136303544,-0.0011891013709828258,-0.02009248547255993
1690840376171290000,4.0602900390625,-0.005081044975668192,-0.0014591459184885025,-0.019998742267489433
1690840376181330200,4.070330078125,-0.004987834487110376,-0.0033864756114780903,-0.020309265702962875
1690840376191371300,4.080371337890625,-0.0049276468344032764,-0.003692739177495241,-0.021446436643600464
1690840376201411300,4.090411376953125,-0.004659732803702354,0.00130894361063838,-0.020495953038334846
1690840376211451400,4.100451416015625,-0.020674385130405426,0.05149834603071213,-0.11223519593477249
1690840376221491500,4.110491455078125,-0.03409591689705849,-0.03590020909905434,-0.04596429690718651
1690840376231532300,4.1205322265625,-0.004522580187767744,0.0013488910626620054,-0.031923044472932816
1690840376241572000,4.130572021484375,-0.004604072775691748,-0.029825007542967796,-0.017591243609786034
1690840376251612200,4.140612060546875,-0.005233910400420427,-0.016159795224666595,-0.03123355284333229
1690840376261653200,4.1506533203125,-0.006336458958685398,-0.0057441722601652145,-0.040828920900821686
1690840376271693300,4.160693359375,-0.00370179396122694,0.0008487494196742773,-0.04018523544073105
1690840376281764400,4.170764404296875,-0.0026317357551306486,0.006638461723923683,-0.03994155675172806
1690840376291804400,4.180804443359375,-0.0029353362042456865,0.010900052264332771,-0.038550056517124176
1690840376301844200,4.19084423828125,-0.0024466461036354303,0.006676012184470892,-0.031802937388420105
1690840376311884300,4.20088427734375,-0.0029257487040013075,0.00222001108340919,-0.02768542431294918
1690840376321925000,4.210925048828125,-0.004600078333169222,-0.0011701929615810513,-0.024338362738490105
1690840376331965200,4.220965087890625,-0.005173456855118275,-0.011504589579999447,-0.018671421334147453
1690840376342005200,4.231005126953125,-0.005574794951826334,-0.00860227644443512,-0.013496367260813713
1690840376352046300,4.24104638671875,-0.006266417913138866,-0.009561813436448574,-0.01073679979890585
1690840376362086400,4.25108642578125,-0.005190767347812653,-0.005256813485175371,-0.007890147157013416
1690840376372126500,4.26112646484375,-0.005031510256230831,-0.00010892329009948298,-0.005136971361935139
1690840376382166300,4.271166259765625,-0.005686914082616568,0.003989947959780693,-0.006414756178855896
1690840376392207000,4.28120703125,-0.003482881933450699,0.0068901302292943,-0.006741792429238558
1690840376402247200,4.2912470703125,-0.004539624322205782,0.004892493132501841,-0.0073077138513326645
1690840376412287200,4.301287353515625,-0.003822701284661889,-0.0001525991247035563,-0.01363165583461523
1690840376422344400,4.311344482421875,-0.0049095372669398785,-0.0041284323669970036,-0.01543514896184206
1690840376432384300,4.32138427734375,-0.004448011517524719,-0.007755124941468239,-0.02027757465839386
1690840376442425300,4.33142529296875,-0.006125270389020443,-0.009246761910617352,-0.024672856554389
1690840376452465400,4.34146533203125,-0.00683207344263792,-0.006518353242427111,-0.02582067809998989
1690840376462505200,4.351505126953125,-0.005060272291302681,-0.0054245926439762115,-0.029886260628700256
1690840376472546300,4.36154638671875,-0.005379851907491684,-0.0019180085510015488,-0.0322711206972599
1690840376482586400,4.37158642578125,-0.005045891273766756,0.0029553098138421774,-0.03190786391496658
1690840376492626400,4.38162646484375,-0.003906324505805969,0.0024557008873671293,-0.0321294404566288
1690840376502666200,4.391666259765625,-0.003866909770295024,-0.00038828887045383453,-0.033675938844680786
1690840376512707300,4.401707275390625,-0.0043838294222950935,0.000046072687837295234,-0.03182903677225113
1690840376522747400,4.411747314453125,-0.005133242812007666,-0.0018309232546016574,-0.029084116220474243
1690840376532787200,4.421787109375,-0.0054943677969276905,-0.005815544631332159,-0.027244403958320618
1690840376542827300,4.4318271484375,-0.005045624915510416,-0.004274107050150633,-0.023735422641038895
1690840376552868400,4.441868408203125,-0.0049127331003546715,-0.0030186930671334267,-0.01853826455771923
1690840376562908400,4.451908447265625,-0.003712979145348072,-0.002909237053245306,-0.018134795129299164
1690840376572979500,4.4619794921875,-0.0031366711482405663,-0.002703907433897257,-0.014155499637126923
1690840376583019300,4.472019287109375,-0.003879693103954196,0.0013944311067461967,-0.014104899950325489
1690840376593059300,4.482059326171875,-0.003905525663867593,0.00006285060226218775,-0.011607120744884014
1690840376603100400,4.492100341796875,-0.00461712246760726,0.0011749867117032409,-0.012528841383755207
1690840376613140200,4.50214013671875,-0.005281314719468355,-0.0007185208378359675,-0.012040417641401291
1690840376623180300,4.51218017578125,-0.004711132030934095,-0.002139050979167223,-0.013617541640996933
1690840376633221400,4.522221435546875,-0.004110589157789946,-0.0030775489285588264,-0.011691010557115078
1690840376643261400,4.532261474609375,-0.005080512259155512,-0.004838431254029274,-0.015361911617219448
1690840376653301200,4.54230126953125,-0.004884503781795502,-0.003944940399378538,-0.019042667001485825
1690840376663341300,4.55234130859375,-0.005297826137393713,-0.003367034485563636,-0.021105285733938217
1690840376673382400,4.56238232421875,-0.005631254054605961,-0.0019084211671724916,-0.022846726700663567
1690840376683422200,4.572422119140625,-0.005359611473977566,-0.001449292292818427,-0.0252198688685894
1690840376693462300,4.582462158203125,-0.004178766161203384,0.00040666470886208117,-0.025313878431916237
1690840376703503400,4.59250341796875,-0.003934287931770086,-0.002496713539585471,-0.02623426727950573
1690840376713573400,4.602573486328125,-0.005285841878503561,-0.000051399008953012526,-0.028689434751868248
1690840376723614500,4.612614501953125,-0.005389971658587456,-0.004773982334882021,-0.02720552124083042
1690840376733654300,4.622654296875,-0.0052205948159098625,-0.004716458264738321,-0.027967985719442368
1690840376743694300,4.6326943359375,-0.003879959462210536,-0.006318349856883287,-0.026275545358657837
1690840376753734400,4.642734375,-0.005480519030243158,-0.0028636970091611147,-0.024273380637168884
1690840376763775200,4.652775146484375,-0.002895122393965721,-0.001478320686146617,-0.022582540288567543
1690840376773815300,4.662815185546875,-0.0028431906830519438,-0.0018168084789067507,-0.020911673083901405
1690840376783855400,4.67285546875,-0.0033430662006139755,-0.0005938849062658846,-0.018494322896003723
1690840376793896400,4.682896484375,-0.005389705300331116,-0.001654622028581798,-0.01731880195438862
1690840376803936300,4.692936279296875,-0.003837881376966834,0.0014021543320268393,-0.017530256882309914
1690840376813976300,4.702976318359375,-0.005627525504678488,-0.0031758195254951715,-0.01649189181625843
1690840376824016400,4.713016357421875,-0.0048887645825743675,-0.00031079089967533946,-0.014642858877778053
1690840376834057200,4.72305712890625,-0.0018391790799796581,-0.0021781993564218283,-0.016378439962863922
1690840376844097300,4.73309716796875,-0.006624347064644098,-0.0021811288315802813,-0.016464194282889366
1690840376854137300,4.743137451171875,-0.003885019337758422,-0.0029502499382942915,-0.01764077879488468
1690840376864208400,4.75320849609375,-0.0054304515942931175,-0.003847468877211213,-0.01902216114103794
1690840376874248200,4.763248291015625,-0.004601942375302315,0.0001507349224993959,-0.01980406418442726
1690840376884289300,4.773289306640625,-0.0060142166912555695,-0.0016215987270697951,-0.02263207547366619
1690840376894329300,4.783329345703125,-0.004577707499265671,-0.000526506919413805,-0.021446969360113144
1690840376904369400,4.793369384765625,-0.0038123151753097773,-0.0007350324303843081,-0.020621122792363167
1690840376914410200,4.80341015625,-0.002144643571227789,0.0005352954030968249,-0.023805197328329086
1690840376924450300,4.8134501953125,-0.003640541108325124,-0.0010732539230957627,-0.02359081245958805
1690840376934490400,4.823490478515625,-0.005120193585753441,-0.0011936287628486753,-0.02334393747150898
1690840376944530200,4.8335302734375,-0.0036312201991677284,-0.0037646444980055094,-0.025311214849352837
1690840376954571300,4.8435712890625,-0.004489823244512081,-0.003781156148761511,-0.024622255936264992
1690840376964611300,4.853611328125,-0.0028365328907966614,-0.00430127140134573,-0.022184398025274277
1690840376974651400,4.8636513671875,-0.0027925907634198666,-0.004817924462258816,-0.023249397054314613
1690840376984691500,4.87369140625,-0.004408863373100758,-0.0009472863748669624,-0.02232661098241806
1690840376994732300,4.883732177734375,-0.004224572330713272,-0.0001304948964389041,-0.022776685655117035
1690840377004803300,4.89380322265625,-0.0029169602785259485,0.0009720537927933037,-0.020079968497157097
1690840377014843400,4.903843505859375,-0.00600462919101119,0.0005169195355847478,-0.020117253065109253
1690840377024883200,4.91388330078125,-0.0035475967451930046,-0.002561428351327777,-0.01883973367512226
1690840377034923300,4.92392333984375,-0.005487177055329084,-0.004305799026042223,-0.019695939496159554
1690840377044964400,4.93396435546875,-0.004899683874100447,-0.002680737990885973,-0.019699934870004654
1690840377055004400,4.94400439453125,-0.004758536349982023,-0.00045353634050115943,-0.01913028582930565
1690840377065044500,4.95404443359375,-0.003453853540122509,-0.00041998049709945917,-0.02082698419690132
1690840377075085300,4.964085205078125,-0.004895688965916634,-0.00002157160452043172,-0.019171297550201416
1690840377085125400,4.97412548828125,-0.004062119405716658,-0.0014016216155141592,-0.019299928098917007
1690840377095165200,4.984165283203125,-0.003891144646331668,-0.002466619713231921,-0.018034394830465317
1690840377105205200,4.994205322265625,-0.004509264137595892,-0.004835501778870821,-0.01998036541044712
1690840377115246300,5.004246337890625,-0.0054578823037445545,-0.005957757588475943,-0.02040220983326435
1690840377125286400,5.014286376953125,-0.004030694253742695,-0.0030988543294370174,-0.02316763624548912
1690840377135326500,5.024326416015625,-0.004339620936661959,-0.003637611633166671,-0.022219818085432053
1690840377145367300,5.0343671875,-0.003849599277600646,-0.0016594156622886658,-0.022123944014310837
1690840377155437600,5.0444375,-0.0038919434882700443,-0.0012748552253469825,-0.021391574293375015
1690840377165478400,5.054478515625,-0.005307679995894432,-0.00026258768048137426,-0.023741548880934715
1690840377175518200,5.064518310546875,-0.005756688769906759,-0.004652808886021376,-0.025910692289471626
1690840377185558300,5.074558349609375,-0.006454170681536198,-0.0028415927663445473,-0.02478976920247078
1690840377195598300,5.084598388671875,-0.006110623013228178,-0.004969192203134298,-0.0224419254809618
1690840377205639400,5.094639404296875,-0.005111671518534422,-0.0052115400321781635,-0.021192369982600212
1690840377215679500,5.104679443359375,-0.002831472782418132,-0.003734284546226263,-0.01907382532954216
1690840377225719600,5.114719482421875,-0.003712446428835392,-0.0017752632265910506,-0.018338527530431747
1690840377235760400,5.124760498046875,-0.0031526500824838877,-0.001930525409989059,-0.0196666456758976
1690840377245800200,5.13480029296875,-0.004403803031891584,-0.00466505903750658,-0.018757708370685577
1690840377255840300,5.14484033203125,-0.005711415316909552,-0.0018788601737469435,-0.020258933305740356
1690840377265880300,5.15488037109375,-0.004287689458578825,-0.002216548891738057,-0.01889432966709137
1690840377275921400,5.16492138671875,-0.00481366366147995,0.0007275756215676665,-0.018669025972485542
1690840377285961500,5.17496142578125,-0.004530303180217743,0.0003680488734971732,-0.019658923149108887
1690840377296032500,5.185032470703125,-0.0034051176626235247,0.0003640541108325124,-0.02069808728992939
1690840377306072300,5.195072265625,-0.003805657150223851,-0.0014146711910143495,-0.019890084862709045
1690840377316112400,5.2051123046875,-0.0052229915745556355,-0.003186738584190607,-0.021376129239797592
1690840377326153200,5.2151533203125,-0.0041244374588131905,-0.00475400872528553,-0.019171031191945076
1690840377336193300,5.225193359375,-0.0065447185188531876,-0.002912166528403759,-0.020534835755825043
1690840377346233300,5.2352333984375,-0.005827262531965971,-0.0019686087034642696,-0.021023260429501534
1690840377356274400,5.2452744140625,-0.005612345412373543,-0.000278300343779847,-0.02141927182674408
1690840377366314500,5.255314453125,-0.004072505980730057,-0.0014652712270617485,-0.02286723256111145
1690840377376354600,5.2653544921875,-0.004033890087157488,-0.000012250540748937055,-0.02316337637603283
1690840377386394400,5.275394287109375,-0.0046160570345819,0.00007909588020993397,-0.022456306964159012
1690840377396435200,5.285435302734375,-0.005120992194861174,0.0012546151410788298,-0.022012891247868538
1690840377406475300,5.295475341796875,-0.0036693033762276173,0.000041811628761934116,-0.02220091037452221
1690840377416510500,5.305510498046875,-0.003919906914234161,-0.0014530207263305783,-0.022050706669688225
1690840377426551300,5.31555126953125,-0.00631914846599102,-0.0008114652009680867,-0.020359599962830544
1690840377436591400,5.32559130859375,-0.005603024736046791,-0.0036093820817768574,-0.020124975591897964
1690840377446662400,5.335662353515625,-0.00498197553679347,-0.0022184131667017937,-0.01907009817659855
1690840377456702200,5.3457021484375,-0.004760666750371456,-0.003469299990683794,-0.0200397539883852
1690840377466742300,5.3557421875,-0.006841128226369619,-0.0012855078093707561,-0.01950179599225521
1690840377476782300,5.3657822265625,-0.004920190200209618,-0.0014495585346594453,-0.01956384815275669
1690840377486823400,5.375823486328125,-0.004819522611796856,-0.0038224351592361927,-0.01877075806260109
1690840377496863500,5.385863525390625,-0.004067446105182171,-0.0008335694437846541,-0.019703663885593414
1690840377506903300,5.3959033203125,-0.004424842074513435,-0.0027510453946888447,-0.02100648172199726
1690840377516944400,5.4059443359375,-0.004265318624675274,-0.0027925907634198666,-0.019942814484238625
1690840377526984400,5.415984375,-0.0040975394658744335,-0.0023451796732842922,-0.0201548021286726
1690840377537024300,5.426024169921875,-0.005268265027552843,-0.002764893928542733,-0.021580658853054047
1690840377547064300,5.436064208984375,-0.0034946000669151545,-0.0022471752017736435,-0.019962256774306297
1690840377557105400,5.44610546875,-0.004444282967597246,-0.004206995479762554,-0.020711136981844902
1690840377567145500,5.4561455078125,-0.005358280148357153,-0.004324440844357014,-0.02033083699643612
1690840377577185300,5.466185302734375,-0.005483714863657951,-0.0026040389202535152,-0.024057665839791298
1690840377587256300,5.47625634765625,-0.004821386653929949,-0.0027803401462733746,-0.022655244916677475
1690840377597296000,5.486296142578125,-0.0037081853952258825,-0.0035774242132902145,-0.02298201434314251
1690840377607337200,5.496337158203125,-0.00458702864125371,-0.0016277240356430411,-0.02292209304869175
1690840377617377300,5.506377197265625,-0.003732952754944563,0.000294545607175678,-0.022072013467550278
1690840377627417300,5.516417236328125,-0.004081560764461756,-0.0007270429632626474,-0.01986691541969776
1690840377637457400,5.52645751953125,-0.003905792022123933,-0.0017062872648239136,-0.020856013521552086
1690840377647498500,5.53649853515625,-0.005663211923092604,-0.0031241541728377342,-0.02111354097723961
1690840377657538300,5.546538330078125,-0.004887433256953955,-0.0009720537927933037,-0.01985280029475689
1690840377667578400,5.556578369140625,-0.003769704606384039,-0.0026370619889348745,-0.021627264097332954
1690840377677619500,5.566619384765625,-0.003867176128551364,-0.0008042746339924634,-0.022733008489012718
1690840377687659300,5.5766591796875,-0.003606186481192708,-0.0018793927738443017,-0.021588383242487907
1690840377697699300,5.58669921875,-0.004058657679706812,-0.0017246630741283298,-0.02069862000644207
1690840377707739400,5.596739501953125,-0.0018250643042847514,-0.0013076120521873236,-0.01925944909453392
1690840377717780200,5.6067802734375,-0.004605138208717108,-0.0024655545130372047,-0.020145215094089508
1690840377727820300,5.6168203125,-0.0037374801468104124,-0.0038506644777953625,-0.021015269681811333
1690840377737891300,5.626891357421875,-0.005402488633990288,-0.0025992451701313257,-0.021863752976059914
1690840377747931100,5.63693115234375,-0.005784119479358196,-0.0032591766212135553,-0.018920693546533585
1690840377757971200,5.64697119140625,-0.003998736385256052,-0.001065264455974102,-0.0210709311068058
1690840377768012300,5.65701220703125,-0.0036828855518251657,-0.000015712650565546937,-0.019225092604756355
1690840377778052400,5.66705224609375,-0.0051928977482020855,-0.0018719359068199992,-0.021760689094662666
1690840377788092400,5.677092529296875,-0.005015264730900526,-0.0007896272582001984,-0.021812088787555695
1690840377798133200,5.68713330078125,-0.00427357479929924,-0.002928145695477724,-0.021522868424654007
1690840377808173300,5.69717333984375,-0.004428570624440908,-0.0034884747583419085,-0.02208266593515873
1690840377818213400,5.70721337890625,-0.004126834217458963,-0.0032775523141026497,-0.021501829847693443
1690840377828253200,5.717253173828125,-0.004405933897942305,-0.003343865042552352,-0.02184324711561203
1690840377838294300,5.727294189453125,-0.004032558295875788,-0.0029379993211477995,-0.020001670345664024
1690840377848334300,5.737334228515625,-0.004463990684598684,-0.0013009541435167193,-0.01986078917980194
1690840377858374400,5.74737451171875,-0.00330258603207767,-0.00029640982393175364,-0.021562017500400543
1690840377868415200,5.757415283203125,-0.0039116512052714825,-0.001820803270675242,-0.021792380139231682
1690840377878485500,5.767485595703125,-0.003980094101279974,-0.000601075473241508,-0.019388612359762192
1690840377888526300,5.7775263671875,-0.005783853121101856,0.00038003307417966425,-0.019002452492713928
1690840377898566100,5.787566162109375,-0.003686081152409315,-0.002043443499132991,-0.020118052139878273
1690840377908606200,5.797606201171875,-0.003698864486068487,-0.003350256709381938,-0.02106587029993534
1690840377918646300,5.807646240234375,-0.0043532028794288635,-0.003363838652148843,-0.01943681389093399
1690840377928687400,5.817687255859375,-0.005421929527074099,-0.0025478461757302284,-0.018883144482970238
1690840377938727400,5.8277275390625,-0.0044048684649169445,-0.0024535702541470528,-0.017782991752028465
1690840377948767500,5.837767578125,-0.002895388752222061,0.0007084008539095521,-0.01901283860206604
1690840377958808300,5.847808349609375,-0.0046908920630812645,-0.0022596921771764755,-0.020432837307453156
1690840377968848400,5.857848388671875,-0.003905259305611253,-0.00031638352083973587,-0.020607007667422295
1690840377978888200,5.86788818359375,-0.0055215316824615,-0.00027057717670686543,-0.020960409194231033
1690840377988928300,5.87792822265625,-0.003742273896932602,0.0000774979853304103,-0.0201627928763628
1690840377998969300,5.88796923828125,-0.006115682888776064,-0.00279046013019979,-0.0226746853441
1690840378009009400,5.898009521484375,-0.004098604898899794,-0.0018282600212842226,-0.022766033187508583
1690840378019049500,5.908049560546875,-0.004397944081574678,-0.004579305648803711,-0.023383352905511856
1690840378029120500,5.91812060546875,-0.004924184642732143,-0.0024112260434776545,-0.020733773708343506
1690840378039160300,5.928160400390625,-0.005105812568217516,-0.0021675468888133764,-0.02040327526628971
1690840378049201200,5.938201171875,-0.005130846053361893,-0.0024525050539523363,-0.021742314100265503
1690840378059241200,5.9482412109375,-0.004915129859000444,-0.0028130970895290375,-0.020349746569991112
1690840378069281300,5.95828125,-0.004029895178973675,-0.0026996464002877474,-0.021929800510406494
1690840378079322400,5.968322265625,-0.004769188817590475,-0.0021526331547647715,-0.02129303850233555
1690840378089362400,5.978362548828125,-0.0049678608775138855,-0.0011646003695204854,-0.021738585084676743
1690840378099402500,5.988402587890625,-0.0036690370179712772,-0.003781422507017851,-0.02015693299472332
1690840378109442300,5.9984423828125,-0.004599012900143862,-0.0007776430575177073,-0.019955597817897797
1690840378119483100,6.008483154296875,-0.0037491980474442244,-0.0025246767327189445,-0.02280065417289734
1690840378129523200,6.018523193359375,-0.0035065840929746628,-0.00253399764187634,-0.01961497962474823
1690840378139563300,6.028563232421875,-0.0038956720381975174,-0.003947603516280651,-0.02076093852519989
1690840378149603300,6.038603271484375,-0.0026735474821180105,0.0001560612436151132,-0.020532438531517982
1690840378159644400,6.04864453125,-0.005572930909693241,-0.0007672567153349519,-0.02129250578582287
1690840378169715500,6.058715576171875,-0.004677842371165752,-0.0030146983917802572,-0.017916150391101837
1690840378179755500,6.068755615234375,-0.006083725020289421,-0.0016018913593143225,-0.020787570625543594
1690840378189795300,6.07879541015625,-0.0037649108562618494,-0.002302302746102214,-0.020204337313771248
1690840378199835400,6.08883544921875,-0.0062424493953585625,-0.0022562299855053425,-0.02117506042122841
1690840378209876200,6.098876220703125,-0.004518851637840271,-0.00293373828753829,-0.021734589710831642
1690840378219916300,6.108916259765625,-0.003766242414712906,-0.0016258598770946264,-0.021216072142124176
1690840378229956400,6.118956298828125,-0.005213137716054916,-0.0019835224375128746,-0.02281104028224945
1690840378239997400,6.12899755859375,-0.0037585191894322634,-0.003447994589805603,-0.021202489733695984
1690840378250037500,6.13903759765625,-0.0036218990571796894,-0.002606435678899288,-0.02148931287229061
1690840378260077300,6.149077392578125,-0.004351072479039431,-0.003091397462412715,-0.02076812833547592
1690840378270117400,6.159117431640625,-0.0028091021813452244,-0.002416286151856184,-0.02190929278731346
1690840378280158200,6.169158203125,-0.0036485306918621063,-0.00039974047103896737,-0.022275477647781372
1690840378290198300,6.1791982421875,-0.004471713677048683,-0.004805940669029951,-0.017944378778338432
1690840378300238300,6.18923828125,-0.003406981937587261,-0.001353418454527855,-0.019749203696846962
1690840378310279400,6.199279541015625,-0.004006725735962391,-0.003921504598110914,-0.02221289463341236
1690840378320349400,6.209349365234375,-0.005660815164446831,-0.0018242653459310532,-0.01943202130496502
1690840378330390500,6.219390625,-0.0059569585137069225,-0.0019028285751119256,-0.021801169961690903
1690840378340430300,6.229430419921875,-0.004516454879194498,-0.003279150230810046,-0.019947342574596405
1690840378350470400,6.239470458984375,-0.0026549051981419325,-0.0008205199264921248,-0.020311130210757256
1690840378360510500,6.249510498046875,-0.005138036794960499,-0.0010306433541700244,-0.020183032378554344
1690840378370551300,6.25955126953125,-0.0037233654875308275,-0.001975532853975892,-0.019302591681480408
1690840378380591400,6.26959130859375,-0.003703924361616373,-0.0023390543647110462,-0.020602745935320854
1690840378390631400,6.27963134765625,-0.0038120488170534372,-0.002406965009868145,-0.018027203157544136
1690840378400672500,6.289672607421875,-0.005389971658587456,-0.0014154701493680477,-0.0198671817779541
1690840378410712300,6.29971240234375,-0.0049532135017216206,-0.0011880361707881093,-0.022562300786376
1690840378420763100,6.30976318359375,-0.004583033733069897,-0.002374208066612482,-0.020800620317459106
1690840378430803000,6.319802978515625,-0.003876497270539403,-0.0038573225028812885,-0.021623536944389343
1690840378440844000,6.329843994140625,-0.005323925521224737,-0.000940095866099,-0.022972960025072098
1690840378450883800,6.3398837890625,-0.004197940696030855,-0.0024341291282325983,-0.022413430735468864
1690840378460955000,6.349954833984375,-0.004027764778584242,-0.0007962851668708026,-0.020308732986450195
1690840378470995000,6.359994873046875,-0.004166781902313232,-0.0025989788118749857,-0.02136920392513275
1690840378481035000,6.370034912109375,-0.004456799943000078,-0.0023813985753804445,-0.020246949046850204
1690840378491076000,6.380076171875,-0.004090349189937115,-0.0025686188600957394,-0.02027464471757412
1690840378501116200,6.3901162109375,-0.0028240159153938293,-0.0026852653827518225,-0.020832311362028122
1690840378511156000,6.400156005859375,-0.005126585252583027,-0.003366768127307296,-0.020441891625523567
1690840378521197000,6.410197021484375,-0.005067729391157627,-0.0028671592008322477,-0.021756960079073906
1690840378531236900,6.42023681640625,-0.0036770266015082598,-0.002314287004992366,-0.02052791230380535
1690840378541277000,6.43027685546875,-0.002709500025957823,-0.0030059099663048983,-0.020195549353957176
1690840378551317000,6.44031689453125,-0.006070942152291536,-0.004893292207270861,-0.019245333969593048
1690840378561358000,6.450358154296875,-0.004482100252062082,-0.0012434299569576979,-0.020679179579019547
1690840378571398100,6.460398193359375,-0.0036546560004353523,-0.0027712853625416756,-0.021739117801189423
1690840378581438000,6.47043798828125,-0.0026732811238616705,-0.002291117561981082,-0.01973775215446949
1690840378591479000,6.48047900390625,-0.005661614239215851,-0.002157160546630621,-0.02082804962992668
1690840378601518800,6.490518798828125,-0.0027265443932265043,-0.0009925601771101356,-0.01888340897858143
1690840378611590000,6.50058984375,-0.004267183132469654,-0.0006237123161554337,-0.019887421280145645
1690840378621630000,6.5106298828125,-0.004881840664893389,-0.0012540825409814715,-0.022519158199429512
1690840378631670000,6.520669921875,-0.003697799053043127,-0.002225603675469756,-0.02160169929265976
1690840378641710000,6.5307099609375,-0.004378503188490868,-0.0019353191601112485,-0.019812854006886482
1690840378651751200,6.540751220703125,-0.005131911486387253,-0.003732952754944563,-0.021526863798499107
1690840378661791000,6.550791015625,-0.003722300287336111,-0.00355798308737576,-0.021623803302645683
1690840378671830800,6.560830810546875,-0.0046911584213376045,-0.0021020330023020506,-0.02082911506295204
1690840378681872000,6.570871826171875,-0.003513242118060589,-0.0015195996966212988,-0.01912815496325493
1690840378691912000,6.580911865234375,-0.003725229762494564,-0.003641073824837804,-0.021755894646048546
1690840378701952000,6.590951904296875,-0.004576642066240311,-0.001541171339340508,-0.01877262257039547
1690840378711992000,6.600991943359375,-0.004726844374090433,-0.0014263890916481614,-0.02087545394897461
1690840378722033000,6.611032958984375,-0.005441637244075537,-0.0035569178871810436,-0.020255470648407936
1690840378732073000,6.621072998046875,-0.0027624969370663166,-0.003581951605156064,-0.020373715087771416
1690840378742112800,6.63111279296875,-0.005032042972743511,-0.0032898029312491417,-0.021504493430256844
1690840378752183800,6.641183837890625,-0.004156395327299833,-0.00012543488992378116,-0.020604876801371574
1690840378762223900,6.651223876953125,-0.004195543937385082,-0.0008546083699911833,-0.020736437290906906
1690840378772265000,6.661264892578125,-0.004500209353864193,-0.001514273346401751,-0.020686103031039238
1690840378782305000,6.671304931640625,-0.005321261938661337,-0.0013262542197480798,-0.02021818608045578
1690840378792345000,6.681344970703125,-0.00458676228299737,-0.003490072675049305,-0.020719924941658974
1690840378802385200,6.69138525390625,-0.0041587925516068935,-0.0008226504432968795,-0.01888660527765751
1690840378812426000,6.701426025390625,-0.0051931641064584255,-0.0014716627774760127,-0.020197680220007896
1690840378822465800,6.7114658203125,-0.005301288329064846,-0.002980876248329878,-0.01991218887269497
1690840378832505900,6.721505859375,-0.0052200620993971825,-0.002519350266084075,-0.021696239709854126
1690840378842547000,6.731546875,-0.006674680393189192,-0.001885784324258566,-0.019208315759897232
1690840378852587000,6.7415869140625,-0.003937750123441219,-0.002669286448508501,-0.020793162286281586
1690840378862627000,6.751626953125,-0.004162786994129419,-0.0027712853625416756,-0.021770009770989418
1690840378872667100,6.761667236328125,-0.0038986015133559704,0.0009872338268905878,-0.02093937061727047
1690840378882708000,6.7717080078125,-0.003582484321668744,-0.00041492050513625145,-0.02160622552037239
1690840378892747800,6.781747802734375,-0.0036543896421790123,0.0000029294772048160667,-0.019693544134497643
1690840378902818800,6.79181884765625,-0.003742007538676262,-0.0010716560063883662,-0.01990739442408085
1690840378912859000,6.80185888671875,-0.003750795964151621,-0.0019598202779889107,-0.020187294110655785
1690840378922899000,6.81189892578125,-0.004078364931046963,-0.001141963410191238,-0.022597454488277435
1690840378932940000,6.82193994140625,-0.0045572011731565,-0.0025153555907309055,-0.02273407392203808
1690840378942980000,6.83197998046875,-0.004889297299087048,0.0002181128947995603,-0.021289842203259468
1690840378953020000,6.84202001953125,-0.00558092026039958,-0.001978195970878005,-0.020666396245360374
1690840378963061000,6.85206103515625,-0.00532472413033247,-0.0023515713401138783,-0.022282935678958893
1690840378973100800,6.862100830078125,-0.004150802735239267,-0.002712429501116276,-0.021766282618045807
1690840378983140900,6.872140869140625,-0.004845355171710253,-0.0022096247412264347,-0.021093301475048065
1690840378993181000,6.882180908203125,-0.00321869645267725,-0.0016703346045687795,-0.01937210001051426
1690840379003222000,6.892221923828125,-0.004352404270321131,-0.0014197311829775572,-0.018879681825637817
1690840379013262000,6.902261962890625,-0.005181978922337294,-0.0017028251895681024,-0.02099716104567051
1690840379023302100,6.91230224609375,-0.004540423396974802,-0.0011137339752167463,-0.02081819623708725
1690840379033343000,6.922343017578125,-0.00475454144179821,-0.002811232814565301,-0.022057631984353065
1690840379043413000,6.9324130859375,-0.004653607495129108,-0.001386175281368196,-0.01865863986313343
1690840379053453800,6.942453857421875,-0.005920207127928734,-0.0025246767327189445,-0.01937769167125225
1690840379063494000,6.952493896484375,-0.004581169690936804,-0.001389371114782989,-0.02130475640296936
1690840379073534000,6.962533935546875,-0.003910585772246122,-0.0018522285390645266,-0.01900564879179001
1690840379083574000,6.972573974609375,-0.004314853344112635,-0.0009049421059899032,-0.02033722959458828
1690840379093615000,6.982614990234375,-0.005717806983739138,-0.001955559244379401,-0.021207816898822784
1690840379103655000,6.992655029296875,-0.00395719101652503,-0.0019113506423309445,-0.020260529592633247
1690840379113695000,7.002695068359375,-0.004516987595707178,-0.0020897823851555586,-0.020380372181534767
1690840379123735800,7.01273583984375,-0.00410419749096036,-0.0009765811264514923,-0.019519105553627014
1690840379133776000,7.02277587890625,-0.005682120565325022,-0.0010793792316690087,-0.01986132189631462
1690840379143816000,7.03281591796875,-0.005579322576522827,-0.002301770029589534,-0.021155085414648056
1690840379153856000,7.04285595703125,-0.002701244316995144,-0.0023257385473698378,-0.021817946806550026
1690840379163897000,7.05289697265625,-0.004357730504125357,-0.002801911672577262,-0.02107066474854946
1690840379173937200,7.062937255859375,-0.004391818773001432,-0.0019917781464755535,-0.021639781072735786
1690840379183977000,7.07297705078125,-0.005928729195147753,-0.0013480921043083072,-0.019238408654928207
1690840379194048000,7.083048095703125,-0.003930026665329933,-0.0014229270163923502,-0.020197147503495216
1690840379204088000,7.093088134765625,-0.003976898267865181,-0.0016626114957034588,-0.01926424168050289
1690840379214129000,7.10312890625,-0.004160390235483646,-0.003261040663346648,-0.02111141011118889
1690840379224169000,7.1131689453125,-0.005417668726295233,-0.002388855442404747,-0.022012624889612198
1690840379234209000,7.123208984375,-0.0016506272368133068,-0.001913481275551021,-0.020011791959404945
1690840379244250000,7.13325,-0.004510329570621252,-0.0033007217571139336,-0.020072510465979576
1690840379254290000,7.1432900390625,-0.0041401502676308155,-0.002540389308705926,-0.021982530131936073
1690840379264330000,7.153330078125,-0.003916711080819368,-0.001767273643054068,-0.020739633589982986
1690840379274370000,7.1633701171875,-0.004552940372377634,-0.0007936219917610288,-0.020795293152332306
1690840379284411000,7.173410888671875,-0.004824316129088402,-0.00012490226072259247,-0.020485300570726395
1690840379294451000,7.183450927734375,-0.003952663857489824,-0.0009092031978070736,-0.020558005198836327
1690840379304491000,7.193490966796875,-0.004020308144390583,-0.0019036275334656239,-0.020311662927269936
1690840379314531000,7.203531005859375,-0.005330316722393036,-0.0006434197421185672,-0.020326044410467148
1690840379324572200,7.213572265625,-0.005181978922337294,-0.0024586303625255823,-0.020503144711256027
1690840379334643000,7.223642822265625,-0.004116714466363192,-0.0002620550512801856,-0.020922059193253517
1690840379344683000,7.23368310546875,-0.005622465629130602,-0.000040746363083599135,-0.020657874643802643
1690840379354723000,7.24372314453125,-0.0056890444830060005,-0.0012367720482870936,-0.020487165078520775
1690840379364763100,7.25376318359375,-0.0049585397355258465,-0.002683933824300766,-0.02105628326535225
1690840379374804000,7.263803955078125,-0.0038096518255770206,-0.0010074737947434187,-0.020501546561717987
1690840379384844000,7.273843994140625,-0.004998753312975168,-0.003433080855756998,-0.02167067490518093
1690840379394883800,7.2838837890625,-0.005738845560699701,-0.0011622034944593906,-0.021316207945346832
1690840379404925000,7.293925048828125,-0.005538043566048145,-0.002065015025436878,-0.021212344989180565
1690840379414965000,7.303965087890625,-0.003888215171173215,-0.0012626046082004905,-0.01998862251639366
1690840379425002200,7.314002197265625,-0.0034557178150862455,-0.001651426195167005,-0.02106054313480854
1690840379435042300,7.324042236328125,-0.006695719435811043,0.002739860210567713,-0.01786182075738907
1690840379445083400,7.33408349609375,-0.0062453788705170155,-0.002554770326241851,-0.022344186902046204
1690840379455123500,7.34412353515625,-0.004326305352151394,-0.00021305288828443736,-0.019990485161542892
1690840379465163500,7.35416357421875,-0.004051999654620886,-0.0013869742397218943,-0.02153831534087658
1690840379475204400,7.364204345703125,-0.00487172044813633,-0.0031353395897895098,-0.021621139720082283
1690840379485274400,7.3742744140625,-0.0032988577149808407,-0.00008735168376006186,-0.022227007895708084
1690840379495315200,7.384315185546875,-0.004577707499265671,-0.001418932224623859,-0.022158831357955933
1690840379505355300,7.394355224609375,-0.004096474498510361,-0.0018096179701387882,-0.020232833921909332
1690840379515395300,7.404395263671875,-0.005456816870719194,-0.003486610483378172,-0.022955382242798805
1690840379525435400,7.414435302734375,-0.005088235717266798,-0.0011835087789222598,-0.01991911232471466
1690840379535476500,7.4244765625,-0.00523604080080986,-0.0022367890924215317,-0.020727382972836494
1690840379545516300,7.434516357421875,-0.004938565660268068,-0.0022572954185307026,-0.021822208538651466
1690840379555556400,7.444556396484375,-0.00498144282028079,-0.0008647284121252596,-0.020597154274582863
1690840379565597200,7.45459716796875,-0.005656021647155285,-0.0028517129831016064,-0.01980406418442726
1690840379575637200,7.46463720703125,-0.005234975833445787,-0.0007877630414441228,-0.021229388192296028
1690840379585677300,7.47467724609375,-0.004867991898208857,-0.002257827902212739,-0.021688783541321754
1690840379595717400,7.48471728515625,-0.0038831550627946854,-0.0007025419035926461,-0.019450929015874863
1690840379605758500,7.494758544921875,-0.0044054011814296246,-0.0023936491925269365,-0.019149193540215492
1690840379615798300,7.50479833984375,-0.004501008428633213,-0.0036096484400331974,-0.02190529927611351
1690840379625869300,7.514869384765625,-0.005197159014642239,-0.001484179636463523,-0.020052270963788033
1690840379635909400,7.524909423828125,-0.003946804907172918,-0.0013049489352852106,-0.01991724967956543
1690840379645949400,7.534949462890625,-0.005035505164414644,-0.0011622034944593906,-0.01882774941623211
1690840379655990300,7.544990234375,-0.005222458858042955,-0.0018170748371630907,-0.021704230457544327
1690840379666030300,7.5550302734375,-0.0038216360844671726,-0.0027140274178236723,-0.02021845243871212
1690840379676070400,7.5650703125,-0.0040823593735694885,-0.00079735042527318,-0.020794760435819626
1690840379686111500,7.575111572265625,-0.0038213697262108326,-0.0018160095205530524,-0.020052270963788033
1690840379696151300,7.5851513671875,-0.003913515247404575,-0.003703658003360033,-0.021253623068332672
1690840379706191400,7.59519140625,-0.003102849004790187,0.00009906959166983142,-0.02189704217016697
1690840379716231400,7.6052314453125,-0.004197407979518175,-0.002823483431711793,-0.021893847733736038
1690840379726272300,7.615272216796875,-0.003939614165574312,-0.0008977515972219408,-0.02022005058825016
1690840379736312300,7.625312255859375,-0.004566788673400879,-0.0006061354652047157,-0.02171621471643448
1690840379746352400,7.635352294921875,-0.0043532028794288635,-0.003169428091496229,-0.021454691886901855
1690840379756392200,7.64539208984375,-0.0046970173716545105,-0.0018482337472960353,-0.020558005198836327
1690840379766433300,7.655433349609375,-0.004887699615210295,-0.0011877698125317693,-0.021454425528645515
1690840379776504300,7.66550439453125,-0.005757221486419439,-0.002386458683758974,-0.021682925522327423
1690840379786544400,7.67554443359375,-0.005365470424294472,0.00037230990710668266,-0.020145747810602188
1690840379796584400,7.68558447265625,-0.004427238833159208,-0.0036525253672152758,-0.020428042858839035
1690840379806624500,7.69562451171875,-0.0031577101908624172,-0.0013310478534549475,-0.022542594000697136
1690840379816665300,7.705665283203125,-0.004700745455920696,-0.0014791196445003152,-0.02124723233282566
1690840379826705400,7.715705322265625,-0.004989698529243469,-0.0005864280392415822,-0.01985306665301323
1690840379836745200,7.7257451171875,-0.005149754695594311,-0.001805623178370297,-0.019584886729717255
1690840379846786300,7.735786376953125,-0.005085572600364685,-0.0024053670931607485,-0.021806761622428894
1690840379856826400,7.745826416015625,-0.0049153962172567844,-0.0036043222062289715,-0.021225925534963608
1690840379866866400,7.755866455078125,-0.006039516534656286,-0.0030772825703024864,-0.021616345271468163
1690840379876906500,7.765906494140625,-0.0057588196359574795,0.000009054747351910919,-0.021512748673558235
1690840379886947300,7.775947265625,-0.004874916281551123,-0.0034903388004750013,-0.020721523091197014
1690840379896987400,7.7859873046875,-0.004295146092772484,-0.0028698223177343607,-0.02171514928340912
1690840379907027200,7.796027099609375,-0.0041010016575455666,-0.004686630796641111,-0.02069835364818573
1690840379917098200,7.80609814453125,-0.004030161537230015,-0.0023124227300286293,-0.021764418110251427
1690840379927138300,7.81613818359375,-0.005063734482973814,-0.00016831177345011383,-0.020445620641112328
1690840379937179400,7.826179443359375,-0.005352154839783907,-0.001041295938193798,-0.018922291696071625
1690840379947219500,7.836219482421875,-0.004060788080096245,-0.001148088718764484,-0.02149304188787937
1690840379957259500,7.846259521484375,-0.005963882897049189,-0.0023723437916487455,-0.021078387275338173
1690840379967299600,7.856299560546875,-0.0039020637050271034,-0.0013949638232588768,-0.022172413766384125
1690840379977340400,7.86634033203125,-0.004454669542610645,-0.001321194227784872,-0.01902375929057598
1690840379987380200,7.876380126953125,-0.00552206439897418,-0.0027680895291268826,-0.02147466503083706
1690840379997420300,7.886420166015625,-0.0052355085499584675,-0.0026405241806060076,-0.02159184403717518
1690840380007461400,7.89646142578125,-0.006679474376142025,-0.001612544059753418,-0.01882748305797577
1690840380017501400,7.90650146484375,-0.005025384947657585,-0.0025300029665231705,-0.02172340452671051
1690840380027541500,7.91654150390625,-0.005352953914552927,-0.0035180358681827784,-0.0217772014439106
1690840380037581600,7.92658154296875,-0.004777178168296814,-0.0025124261155724525,-0.02047092095017433
1690840380047622400,7.936622314453125,-0.004445614758878946,-0.0007731156656518579,-0.01991511881351471
1690840380057662200,7.946662109375,-0.0051926313899457455,-0.0019094864837825298,-0.020685303956270218
1690840380067733200,7.956733154296875,-0.005481051746755838,-0.0013337110867723823,-0.0228738896548748
1690840380077773300,7.966773193359375,-0.0025987126864492893,-0.0013222594279795885,-0.02107013203203678
1690840380087813400,7.9768134765625,-0.005149488337337971,-0.003525226376950741,-0.019951071590185165
1690840380097854500,7.9868544921875,-0.005612611770629883,-0.0038866172544658184,-0.02027331292629242
1690840380107894500,7.99689453125,-0.004740160424262285,-0.0011446266435086727,-0.019834691658616066
1690840380117934600,8.0069345703125,-0.0038421424105763435,-0.0018780612153932452,-0.021253623068332672
1690840380127975400,8.016975341796876,-0.0046964846551418304,-0.0009270463488064706,-0.021819012239575386
1690840380138015200,8.02701513671875,-0.005545766558498144,-0.0018722022650763392,-0.020381171256303787
1690840380148055300,8.03705517578125,-0.00401684595271945,-0.0014554174849763513,-0.02051219902932644
1690840380158095400,8.047095458984375,-0.0037920749746263027,-0.0037997981999069452,-0.020689832046628
1690840380168136400,8.057136474609376,-0.003192064817994833,-0.0011033476330339909,-0.021812621504068375
1690840380178176500,8.067176513671875,-0.004236023873090744,-0.001853826455771923,-0.021350828930735588
1690840380188216300,8.07721630859375,-0.00370179396122694,-0.001639441936276853,-0.021747106686234474
1690840380198257400,8.08725732421875,-0.005833654198795557,-0.001886317040771246,-0.01894466206431389
1690840380208327200,8.0973271484375,-0.004329234827309847,-0.0025132251903414726,-0.022723954170942307
1690840380218368300,8.1073681640625,-0.004614725708961487,-0.002674612682312727,-0.021638182923197746
1690840380228408300,8.117408203125,-0.004796619527041912,-0.0010367685463279486,-0.02063550427556038
1690840380238448400,8.127448486328126,-0.003998470026999712,-0.002502838848158717,-0.021466676145792007
1690840380248488400,8.137488525390625,-0.005306880921125412,-0.0024056334514170885,-0.020137758925557137
1690840380258529500,8.147529541015626,-0.004718588665127754,-0.001711081014946103,-0.02160329557955265
1690840380268569300,8.1575693359375,-0.003913781605660915,-0.0009177253232337534,-0.021648837253451347
1690840380278609200,8.167609130859375,-0.005304484162479639,-0.00016058860637713224,-0.020556939765810966
1690840380288650200,8.177650146484375,-0.004994226153939962,-0.0007611314067617059,-0.020380105823278427
1690840380298690300,8.187690185546876,-0.0037465349305421114,-0.003441869281232357,-0.02177533693611622
1690840380308730400,8.19773046875,-0.00552366254851222,-0.0019587550777941942,-0.020437363535165787
1690840380318770400,8.2077705078125,-0.003067961661145091,-0.0033832797780632973,-0.020447751507163048
1690840380328811500,8.2178115234375,-0.003996073268353939,-0.002176867797970772,-0.021514613181352615
1690840380338851300,8.227851318359376,-0.005061870440840721,-0.0024860608391463757,-0.018811771646142006
1690840380348891100,8.23789111328125,-0.0036719664931297302,-0.0010157296201214194,-0.01901710033416748
1690840380358962200,8.247962158203125,-0.005277053453028202,-0.0027212179265916348,-0.02076839469373226
1690840380369002200,8.258002197265625,-0.004740693140774965,-0.0022825952619314194,-0.02118171751499176
1690840380379043300,8.268043212890625,-0.003978762775659561,-0.003352653468027711,-0.02105308696627617
1690840380389083400,8.27808349609375,-0.005245628301054239,-0.002954510971903801,-0.02070234902203083
1690840380399123500,8.28812353515625,-0.00407383730635047,-0.0018293253378942609,-0.01985066942870617
1690840380409163300,8.298163330078125,-0.003712446428835392,-0.0022863238118588924,-0.02068903297185898
1690840380419188000,8.30818798828125,-0.003999535460025072,-0.0022085595410317183,-0.02190236933529377
1690840380429228000,8.31822802734375,-0.003424292430281639,-0.002463690238073468,-0.020260263234376907
1690840380439267800,8.328267822265625,-0.00455640209838748,-0.0012913667596876621,-0.021385716274380684
1690840380449309000,8.338308837890626,-0.005106611177325249,-0.0008013451588340104,-0.021499432623386383
1690840380459349000,8.348348876953125,-0.002650910522788763,-0.001353418454527855,-0.019481556490063667
1690840380469389000,8.35838916015625,-0.0025987126864492893,-0.0018434401135891676,-0.020653346553444862
1690840380479429000,8.36842919921875,-0.003772367723286152,-0.0007621967233717442,-0.02287096157670021
1690840380489470000,8.378469970703126,-0.003644536016508937,-0.0027164241764694452,-0.0210067480802536
1690840380499541000,8.388541015625,-0.0037374801468104124,0.0010519486386328936,-0.021337246522307396
1690840380509581000,8.3985810546875,-0.00436065997928381,-0.0026224146131426096,-0.02039102464914322
1690840380519620900,8.408620849609376,-0.005115932319313288,-0.0018660769565030932,-0.021495172753930092
1690840380529661000,8.418660888671875,-0.00490181427448988,-0.0015715312911197543,-0.01937476359307766
1690840380539702000,8.428701904296876,-0.005101551301777363,-0.0030455910600721836,-0.020298613235354424
1690840380549742000,8.4387421875,-0.004119910299777985,-0.0029052423778921366,-0.02034468576312065
1690840380559782100,8.4487822265625,-0.003430417738854885,-0.001347559504210949,-0.021348698064684868
1690840380569823000,8.458822998046875,-0.005856823641806841,-0.003734018187969923,-0.020986774936318398
1690840380579863000,8.468863037109376,-0.004746019374579191,-0.0018293253378942609,-0.021815815940499306
1690840380589902800,8.47890283203125,-0.005239502992480993,-0.0016311861108988523,-0.020626181736588478
1690840380599943000,8.48894287109375,-0.003846669802442193,-0.002142513170838356,-0.02070075087249279
1690840380609984000,8.49898388671875,-0.004690092988312244,-0.0022921827621757984,-0.020661868155002594
1690840380620024000,8.509024169921876,-0.005301554687321186,-0.0033513219095766544,-0.021823007613420486
1690840380630064000,8.519064208984375,-0.003969974350184202,-0.0015188007382676005,-0.02082511968910694
1690840380640105000,8.52910498046875,-0.003998470026999712,-0.0027017768006771803,-0.02099476382136345
1690840380650175000,8.539175048828126,-0.005536445416510105,0.00001917476038215682,-0.0195449385792017
1690840380660216000,8.549216064453125,-0.0037233654875308275,-0.0017438378417864442,-0.020417124032974243
1690840380670255900,8.559255859375,-0.0046243127435445786,-0.0034232272300869226,-0.02244618721306324
1690840380680296000,8.5692958984375,-0.003742273896932602,-0.002989398315548897,-0.020681044086813927
1690840380690336000,8.5793359375,-0.004288488067686558,-0.0024564997293055058,-0.0211793202906847
1690840380700377000,8.589377197265625,-0.0041579934768378735,-0.0007427555974572897,-0.020369719713926315
1690840380710417200,8.599417236328126,-0.006411027628928423,-0.0011733887949958444,-0.021035777404904366
1690840380720457000,8.60945703125,-0.0057098171673715115,0.0001704423048067838,-0.020556407049298286
1690840380730498000,8.619498046875,-0.003907922655344009,-0.00352868833579123,-0.021015802398324013
1690840380740537900,8.629537841796875,-0.0041278996504843235,-0.002151035238057375,-0.022708507254719734
1690840380750578000,8.639577880859376,-0.00571833923459053,-0.0015912387752905488,-0.019958527758717537
1690840380760618000,8.649617919921875,-0.005540706682950258,-0.0013166668359190226,-0.02239159122109413
1690840380770659000,8.6596591796875,-0.005489041097462177,-0.0009981527691707015,-0.020485566928982735
1690840380780699100,8.66969921875,-0.005021922755986452,-0.0009925601771101356,-0.020771058276295662
1690840380790770200,8.679770263671875,-0.005376921966671944,-0.0012242551892995834,-0.020431505516171455
1690840380800810000,8.68981005859375,-0.005030977539718151,-0.0019022959750145674,-0.01985839381814003
1690840380810849800,8.699849853515625,-0.0036762275267392397,-0.0023470439482480288,-0.02129330486059189
1690840380820891000,8.709890869140626,-0.004515655804425478,-0.0014530207263305783,-0.021819278597831726
1690840380830931000,8.719930908203125,-0.005404885392636061,-0.0010913633741438389,-0.021453093737363815
1690840380840971000,8.729970947265626,-0.005035771057009697,-0.0017656758427619934,-0.018739067018032074
1690840380851012000,8.74001220703125,-0.002817624481394887,-0.0018282600212842226,-0.020746557042002678
1690840380861052200,8.75005224609375,-0.004430701024830341,-0.0022921827621757984,-0.020083164796233177
1690840380871092000,8.760092041015625,-0.004713262431323528,-0.0008191883680410683,-0.022954318672418594
1690840380881131800,8.7701318359375,-0.005560147576034069,-0.0018738001817837358,-0.02153884805738926
1690840380891172900,8.7801728515625,-0.004529770463705063,-0.002442385070025921,-0.019963055849075317
1690840380901213000,8.790212890625,-0.005222458858042955,-0.002972354181110859,-0.019941218197345734
1690840380911253000,8.8002529296875,-0.0038506644777953625,-0.0027614317368716,-0.02123631350696087
1690840380921293000,8.81029296875,-0.0028096348978579044,-0.0008069378091022372,-0.01973642036318779
1690840380931334100,8.820334228515625,-0.00424135010689497,-0.0027228158432990313,-0.02208053506910801
1690840380941405200,8.8304052734375,-0.004305532667785883,-0.00119602563790977,-0.01998196355998516
1690840380951445000,8.840445068359376,-0.005520466715097427,-0.0025569009594619274,-0.0200384221971035
1690840380961484800,8.85048486328125,-0.004021106753498316,0.00020213393145240843,-0.021638981997966766
1690840380971524900,8.86052490234375,-0.005331382155418396,-0.002587793627753854,-0.02088051475584507
1690840380981566000,8.87056591796875,-0.004177168011665344,-0.004852812271565199,-0.02105708234012127
1690840380991606000,8.88060595703125,-0.004536162130534649,-0.002514823107048869,-0.019843213260173798
1690840381001646000,8.89064599609375,-0.004960936494171619,-0.0024796691723167896,-0.019238675013184547
1690840381011687200,8.900687255859374,-0.007198790553957224,-0.0013664679136127234,-0.020777184516191483
1690840381021727000,8.91072705078125,-0.0038064562249928713,-0.0021933794487267733,-0.02009914256632328
1690840381031766800,8.920766845703126,-0.005020325072109699,-0.002523611532524228,-0.020591294392943382
1690840381041806800,8.930806884765625,-0.005608350969851017,-0.0036780918017029762,-0.02106773480772972
1690840381051848000,8.940847900390626,-0.004178766161203384,-0.0027473168447613716,-0.021673336625099182
1690840381061888000,8.950887939453125,-0.00481419637799263,-0.0027838023379445076,-0.019996877759695053
1690840381071928000,8.960927978515626,-0.003822967642918229,-0.0023270701058208942,-0.020384900271892548
1690840381081999000,8.9709990234375,-0.0036812876351177692,-0.002287122653797269,-0.0219670832157135
1690840381092039000,8.981038818359375,-0.0025925873778760433,-0.0008287757518701255,-0.020793961361050606
1690840381102079700,8.991079833984376,-0.004620584659278393,-0.001868473831564188,-0.02058064192533493
1690840381112119800,9.001119873046875,-0.005486644338816404,-0.0008586031035520136,-0.01926504075527191
1690840381122159900,9.011159912109376,-0.005736182443797588,-0.0011371697764843702,-0.022357236593961716
1690840381132200000,9.021199951171875,-0.00333214714191854,0.000036485307646216825,-0.021687451750040054
1690840381142241000,9.031240966796876,-0.0037920749746263027,-0.0023963123094290495,-0.02075667679309845
1690840381152281000,9.041281005859375,-0.005305283237248659,7.989483492565341e-7,-0.021498367190361023
1690840381162321200,9.051321044921876,-0.00401657959446311,-0.002662095706909895,-0.022889336571097374
1690840381172362000,9.061362060546875,-0.004942027851939201,-0.0016253271605819464,-0.020770259201526642
1690840381182401800,9.07140185546875,-0.0046482812613248825,-0.002254898427054286,-0.021154819056391716
1690840381192441900,9.08144189453125,-0.002814428647980094,-0.0036631780676543713,-0.01949620246887207
1690840381202482000,9.09148193359375,-0.003899400355294347,-0.0026639599818736315,-0.01925172470510006
1690840381212523000,9.10152294921875,-0.0015787219163030386,-0.0022985744290053844,-0.020063988864421844
1690840381222594000,9.111593994140625,-0.005363340023905039,-0.0018333201296627522,-0.022669360041618347
1690840381232634000,9.121634033203126,-0.004232029430568218,-0.002609098795801401,-0.018983544781804085
1690840381242674000,9.131673828125,-0.004893558565527201,-0.001764077926054597,-0.022367089986801147
1690840381252714000,9.1417138671875,-0.0038005972746759653,-0.0023851271253079176,-0.021457888185977936
1690840381262754800,9.1517548828125,-0.004114584065973759,-0.002359827049076557,-0.02087891660630703
1690840381272795000,9.161794921875,-0.0041468082927167416,-0.0021736719645559788,-0.02172979712486267
1690840381282835000,9.1718349609375,0.0027537085115909576,0.35547953844070435,-0.021572137251496315
1690840381292876000,9.1818759765625,-0.00020825919636990875,0.39326101541519165,-0.10045497119426727
1690840381302916000,9.191916015625,-0.02725265920162201,0.018027469515800476,-0.10027547180652618
1690840381312956000,9.201955810546876,-0.007166566327214241,-0.0469248965382576,-0.09761018306016922
1690840381322996000,9.211995849609375,0.015240205451846123,-0.026547720655798912,-0.11257101595401764
1690840381333036800,9.222036865234376,0.02064242772758007,-0.10985086858272552,-0.0945797711610794
1690840381343076900,9.232076904296875,0.018511632457375526,-0.07706309109926224,-0.06510923057794571
1690840381353117000,9.242116943359376,0.009576461277902126,-0.04609452560544014,-0.05199822038412094
1690840381363158000,9.252157958984375,-0.006929545197635889,-0.002377670258283615,-0.03798786178231239
1690840381373228000,9.26222802734375,-0.018615761771798134,0.031920649111270905,-0.02214684709906578
1690840381383269000,9.27226904296875,-0.02604731358587742,0.05675196275115013,-0.01028885692358017
1690840381393309000,9.282308837890625,-0.02652641572058201,0.07515227794647217,0.004291151650249958
1690840381403349000,9.292348876953126,-0.02016359195113182,0.06816627085208893,0.019210712984204292
1690840381413389000,9.30238916015625,-0.00714552728459239,0.04610331356525421,0.02809102274477482
1690840381423423000,9.312423095703124,0.003290601773187518,0.01931590773165226,0.0357540026307106
1690840381433463000,9.322463134765625,0.012003399431705475,-0.01599920727312565,0.04301084950566292
1690840381443503000,9.332503173828124,0.009608152322471142,-0.03934767097234726,0.045635394752025604
1690840381453544200,9.342544189453125,0.005123123060911894,-0.05338918790221214,0.0408070832490921
1690840381463584300,9.352584228515624,-0.001948368619196117,-0.049912963062524796,0.036912478506565094
1690840381473624300,9.362624267578125,-0.009955961257219315,-0.035100195556879044,0.0279109925031662
1690840381483664100,9.3726640625,-0.014448980800807476,-0.014120079576969147,0.015394935384392738
1690840381493705000,9.382705078125,-0.015973906964063644,0.01019884180277586,0.002091646660119295
1690840381503745000,9.3927451171875,-0.010037720203399658,0.027247333899140358,-0.012929114513099194
1690840381513816000,9.402816162109374,-0.0032533176708966494,0.03760676458477974,-0.026105636730790138
1690840381523856100,9.412856201171875,-0.00018801917030941695,0.03491430729627609,-0.039150599390268326
1690840381533896200,9.422896240234374,0.003375822911038995,0.022036327049136162,-0.04974651709198952
1690840381543937300,9.432937255859375,0.000565122754778713,0.0027947211638092995,-0.06018424406647682
1690840381553977300,9.442977294921874,-0.002520415699109435,-0.014723286032676697,-0.06365939974784851
1690840381564017200,9.45301708984375,-0.0083660539239645,-0.027630029246211052,-0.06812658905982971
1690840381574057200,9.46305712890625,-0.009584716521203518,-0.03147882968187332,-0.0672440156340599
1690840381584098000,9.47309814453125,-0.009403355419635773,-0.027814321219921112,-0.06658168882131577
1690840381594138000,9.48313818359375,-0.010853447020053864,-0.018724951893091202,-0.061838600784540176
1690840381604178200,9.49317822265625,-0.005527656991034746,-0.009243831969797611,-0.05403367429971695
1690840381614219300,9.50321923828125,-0.004293548408895731,0.0014125406742095947,-0.04628893360495567
1690840381624259300,9.51325927734375,-0.00036964676110073924,0.010359164327383041,-0.03814126178622246
1690840381634299100,9.523299072265624,0.0005760417552664876,0.015898538753390312,-0.027655329555273056
1690840381644339200,9.533339111328125,-0.0021499700378626585,0.017948107793927193,-0.020673319697380066
1690840381654380000,9.543380126953124,-0.004461061209440231,0.011289671994745731,-0.00899775605648756
1690840381664451000,9.553451171875,-0.007833155803382397,0.004262921866029501,0.0002383529208600521
1690840381674491100,9.5634912109375,-0.006403304636478424,-0.004303668159991503,0.00574816670268774
1690840381684531200,9.57353125,-0.006067213602364063,-0.00923397857695818,0.009767143055796623
1690840381694571300,9.5835712890625,-0.005193696822971106,-0.01317918486893177,0.014000770635902882
1690840381704612400,9.5936123046875,-0.005245894659310579,-0.013348296284675598,0.0161811001598835
1690840381714652200,9.603652099609375,-0.003058906877413392,-0.011414840817451477,0.015201856382191181
1690840381724692200,9.613692138671874,-0.003228283952921629,-0.005305815953761339,0.010235327295958996
1690840381734733000,9.623733154296875,-0.0028597023338079453,-0.00037230990710668266,0.006354834884405136
1690840381744773000,9.633773193359374,-0.003920439630746841,0.005423527676612139,-0.001401355373673141
1690840381754813200,9.643813232421875,-0.0051902346312999725,0.008684035390615463,-0.0073561836034059525
1690840381764853200,9.653853271484374,-0.005813414230942726,0.007719438523054123,-0.014989868737757206
1690840381774894300,9.663894287109375,-0.00481393001973629,0.005366802215576172,-0.023251792415976524
1690840381784934100,9.67393408203125,-0.005434979218989611,0.0033220271579921246,-0.0300228800624609
1690840381794974200,9.68397412109375,-0.0044322991743683815,-0.006097041070461273,-0.037694383412599564
1690840381805045200,9.694045166015625,-0.004217382054775953,-0.007894141599535942,-0.04015567526221275
1690840381815085000,9.7040849609375,-0.002930542454123497,-0.00900015328079462,-0.04492592811584473
1690840381825126100,9.714126220703125,-0.0046541402116417885,-0.010743457823991776,-0.04711957648396492
1690840381835166200,9.724166259765624,-0.004716724622994661,-0.00800226628780365,-0.04572327807545662
1690840381845206300,9.734206298828125,-0.00555082643404603,-0.0031321437563747168,-0.04477359727025032
1690840381855246000,9.74424609375,-0.005880792159587145,-0.001743571599945426,-0.044322457164525986
1690840381865287200,9.754287109375,-0.006447779480367899,0.0002825613773893565,-0.039864324033260345
1690840381875327200,9.7643271484375,-0.00455746753141284,0.002928145695477724,-0.0343068391084671
1690840381885367000,9.774366943359375,-0.004151069093495607,0.0034234935883432627,-0.02960742637515068
1690840381895408000,9.784408203125,-0.004578772932291031,0.0008772452711127698,-0.02568645402789116
1690840381905448200,9.7944482421875,-0.002989664673805237,-0.0005789712304249406,-0.019877301529049873
1690840381915488300,9.80448828125,-0.003341468283906579,-0.003029079409316182,-0.014166685752570629
1690840381925528000,9.814528076171875,-0.0029936593491584063,-0.0035292210523039103,-0.008975385688245296
1690840381935569200,9.824569091796874,-0.005449892953038216,-0.003820837242528796,-0.005417136009782553
1690840381945609200,9.834609130859375,-0.004227501805871725,-0.005252819042652845,-0.0016873788554221392
1690840381955680300,9.84468017578125,-0.0036456012167036533,-0.004478105343878269,-0.0012535499408841133
1690840381965720000,9.854719970703124,-0.0058656120672822,-0.004120176658034325,-0.0014061490073800087
1690840381975760100,9.864760009765625,-0.0041273669339716434,-0.0011283813510090113,-0.0026581010315567255
1690840381985801200,9.87480126953125,-0.004826446995139122,-0.00009986854274757206,-0.004706870764493942
1690840381995841000,9.884841064453125,-0.0032988577149808407,0.0008873652550391853,-0.008067247457802296
1690840382005881000,9.894881103515624,-0.005250421818345785,0.002939330879598856,-0.010831075720489025
1690840382015921200,9.904921142578125,-0.0027515781112015247,0.0020295949652791023,-0.016931045800447464
1690840382025962200,9.914962158203124,-0.004522047471255064,-0.0025798040442168713,-0.021872010082006454
1690840382036002000,9.925001953125,-0.003864246653392911,-0.0009717874927446246,-0.023855265229940414
1690840382046042000,9.9350419921875,-0.004433630499988794,-0.003766508772969246,-0.02665131725370884
1690840382056083200,9.945083251953125,-0.005514607764780521,-0.004013117402791977,-0.030245253816246986
1690840382066123300,9.955123291015624,-0.003620567498728633,-0.004917260725051165,-0.03424745425581932
1690840382076163000,9.9651630859375,-0.00512685114517808,-0.004679706413298845,-0.034810177981853485
1690840382086203100,9.975203125,-0.0030360035598278046,-0.004315119702368975,-0.03429964929819107
1690840382096274200,9.985274169921874,-0.004209392238408327,-0.0032056469935923815,-0.03521045297384262
1690840382106315000,9.99531494140625,-0.003269829088822007,-0.0008684568456374109,-0.034157704561948776
1690840382116355000,10.00535498046875,-0.0051923650316894054,-0.0011182613670825958,-0.03139520809054375
1690840382126395100,10.01539501953125,-0.00481366366147995,-0.0016769925132393837,-0.02839515544474125
1690840382136435000,10.02543505859375,-0.004534031730145216,0.000014114753867033869,-0.027629230171442032
1690840382146476000,10.03547607421875,-0.005726329050958157,-0.0028991170693188906,-0.02395220473408699
1690840382156516000,10.04551611328125,-0.004495415836572647,-0.00046312372433021665,-0.019818712025880814
1690840382166556200,10.05555615234375,-0.004408863373100758,-0.002484462922438979,-0.01702159456908703
1690840382176597000,10.065596923828124,-0.0037830201908946037,-0.0014085458824411035,-0.014597850851714611
1690840382186637000,10.075636962890625,-0.005585447885096073,-0.0023497070651501417,-0.012937103398144245
1690840382196677000,10.085677001953124,-0.004274639766663313,-0.005596899427473545,-0.010512827895581722
1690840382206717200,10.09571728515625,-0.0032408006954938173,-0.0017768610268831253,-0.011080347932875156
1690840382216758300,10.10575830078125,-0.00637880340218544,-0.004482632502913475,-0.009153018705546856
1690840382226798000,10.115798095703125,-0.005281314719468355,0.0011760519118979573,-0.010694989003241062
1690840382236838100,10.125838134765624,-0.005660016089677811,-0.0024852619972079992,-0.011224690824747086
1690840382246909200,10.1359091796875,-0.004116980824619532,-0.00006950850365683436,-0.01404497865587473
1690840382256949200,10.14594921875,-0.006395847536623478,0.0009954896522685885,-0.01739763282239437
1690840382266990000,10.155989990234374,-0.00455879932269454,-0.0013555489713326097,-0.01733344979584217
1690840382277030100,10.166030029296875,-0.004071174189448357,-0.001419198582880199,-0.019568907096982002
1690840382287070000,10.176070068359374,-0.004054396413266659,-0.004561728797852993,-0.022305838763713837
1690840382297110000,10.186110107421875,-0.005080245900899172,-0.003573695896193385,-0.02641376480460167
1690840382307151000,10.196151123046874,-0.0041036647744476795,-0.003623496973887086,-0.02719859778881073
1690840382317191200,10.206191162109375,-0.0027888622134923935,-0.0032530513126403093,-0.029203692451119423
1690840382327231200,10.216231201171874,-0.004426706116646528,-0.0043864925391972065,-0.029771210625767708
1690840382337272000,10.22627197265625,-0.005290902219712734,-0.0023877902422100306,-0.030239395797252655
1690840382347312000,10.23631201171875,-0.005390770733356476,-0.0018375811632722616,-0.029399700462818146
1690840382357352200,10.246352294921875,-0.003674363251775503,-0.0023094932548701763,-0.025644643232226372
1690840382367392000,10.25639208984375,-0.004179564770311117,-0.0024434502702206373,-0.026573020964860916
1690840382377433000,10.26643310546875,-0.004601676017045975,0.00007430219557136297,-0.02544490620493889
1690840382387504000,10.276504150390625,-0.004867459647357464,-0.0026285399217158556,-0.022055501118302345
1690840382397544200,10.286544189453124,-0.0056925066746771336,-0.0027172232512384653,-0.020775852724909782
1690840382407584300,10.296584228515625,-0.004319114610552788,-0.0013012205017730594,-0.02010233886539936
1690840382417624300,10.306624267578124,-0.0046815709210932255,-0.002926813904196024,-0.018506573513150215
1690840382427667200,10.316667236328126,-0.003681021276861429,-0.003054911969229579,-0.01715661585330963
1690840382437707300,10.326707275390625,-0.004150802735239267,-0.004536162130534649,-0.013636982999742031
1690840382447747300,10.336747314453126,-0.004930576309561729,-0.0029345371294766665,-0.015476960688829422
1690840382457788200,10.3467880859375,-0.005021390039473772,-0.0023310647811740637,-0.013524331152439117
1690840382467828200,10.356828125,-0.004101800732314587,-0.00045353634050115943,-0.013173059560358524
1690840382477868300,10.366868408203125,-0.0044256411492824554,0.001327053178101778,-0.01417520735412836
1690840382487908000,10.376908203125,-0.002672215923666954,-0.0033718282356858253,-0.01486310176551342
1690840382497949200,10.38694921875,-0.004542021080851555,0.0007795072160661221,-0.016887104138731956
1690840382507989200,10.3969892578125,-0.0038695731200277805,-0.0018793927738443017,-0.01870843954384327
1690840382518029300,10.407029296875,-0.0035206989850848913,-0.0012269183062016964,-0.020074374973773956
1690840382528069400,10.4170693359375,-0.004544151946902275,-0.0007273092633113265,-0.02107013203203678
1690840382538140400,10.427140380859376,-0.003968109842389822,-0.0033598439767956734,-0.020485300570726395
1690840382548181200,10.43718115234375,-0.004220577888190746,-0.00427144393324852,-0.023493874818086624
1690840382558221300,10.44722119140625,-0.005289570428431034,-0.002229332225397229,-0.024566063657402992
1690840382568261000,10.45726123046875,-0.005333246197551489,-0.0032258869614452124,-0.023964988067746162
1690840382578301200,10.46730126953125,-0.005035505164414644,-0.00032676986302249134,-0.025479793548583984
1690840382588342300,10.47734228515625,-0.005630188621580601,-0.002055694116279483,-0.02412850596010685
1690840382598382300,10.48738232421875,-0.004707403481006622,0.000041811628761934116,-0.025410285219550133
1690840382608422400,10.49742236328125,-0.0043779704719781876,-0.0005065332516096532,-0.02569231390953064
1690840382618463200,10.507463134765626,-0.0038136467337608337,-0.0005387574783526361,-0.024527980014681816
1690840382628503300,10.51750341796875,-0.004433364141732454,-0.0016325177857652307,-0.02208160050213337
1690840382638543000,10.527543212890626,-0.0056890444830060005,-0.002122006844729185,-0.022706111893057823
1690840382648583200,10.537583251953125,-0.0049675945192575455,-0.0021944446489214897,-0.020738568156957626
1690840382658624300,10.547624267578126,-0.004237622022628784,-0.004547081422060728,-0.019959859549999237
1690840382668664300,10.557664306640625,-0.0057007623836398125,-0.002703641075640917,-0.01948395185172558
1690840382678735400,10.5677353515625,-0.004916728008538485,-0.0009126652730628848,-0.017231984063982964
1690840382688775400,10.577775390625,-0.005532184615731239,-0.001678057829849422,-0.018664764240384102
1690840382698815200,10.587815185546875,-0.0027366643771529198,-0.0027949875220656395,-0.01666313223540783
1690840382708856300,10.597856201171876,-0.003704989794641733,-0.0023441144730895758,-0.01702612079679966
1690840382718896000,10.607896240234375,-0.0038951393216848373,-0.0031132353469729424,-0.01588043011724949
1690840382728936200,10.617936279296876,-0.005608350969851017,0.00012756542128045112,-0.018623752519488335
1690840382738976300,10.627976318359375,-0.004055195488035679,-0.0015781891997903585,-0.019123094156384468
1690840382749017300,10.638017333984376,-0.0052197957411408424,-0.002755839144811034,-0.020125508308410645
1690840382759057400,10.648057373046875,-0.003576359013095498,-0.0038402783684432507,-0.021621672436594963
1690840382769097200,10.65809716796875,-0.006555637344717979,-0.0018426411552354693,-0.020867198705673218
1690840382779138300,10.66813818359375,-0.0031132353469729424,-0.0023971113841980696,-0.02160196378827095
1690840382789178000,10.67817822265625,-0.005959355738013983,-0.004462925251573324,-0.022250710055232048
1690840382799218200,10.68821826171875,-0.0064776064828038216,-0.002406965009868145,-0.02389015257358551
1690840382809258200,10.69825830078125,-0.005677326582372189,-0.0008037420338951051,-0.023958861827850342
1690840382819299300,10.70829931640625,-0.005692773032933474,-0.0015180017799139023,-0.024573786184191704
1690840382829370400,10.718370361328125,-0.005861084908246994,-0.002814428647980094,-0.020924456417560577
1690840382839410400,10.728410400390626,-0.004133225884288549,-0.00006817692337790504,-0.023036876693367958
1690840382849450000,10.738449951171875,-0.0065343319438397884,-0.0022767363116145134,-0.023933561518788338
1690840382859490000,10.748489990234376,-0.0017592841759324074,-0.002575809368863702,-0.021992383524775505
1690840382869531100,10.75853125,-0.0027214842848479748,-0.0031963258516043425,-0.023262178525328636
1690840382879571200,10.7685712890625,-0.00586800929158926,-0.0025563682429492474,-0.020559336990118027
1690840382889611300,10.778611328125,-0.003379018744453788,-0.002430667169392109,-0.02104989066720009
1690840382899652400,10.78865234375,-0.004176635295152664,-0.0009470200748182833,-0.020625649020075798
1690840382909692200,10.798692138671875,-0.004171042703092098,-0.0021971079986542463,-0.01883893460035324
1690840382919732200,10.808732177734376,-0.004036819562315941,-0.0025835325941443443,-0.019480224698781967
1690840382929772000,10.81877197265625,-0.006198773626238108,-0.0008325041271746159,-0.019448798149824142
1690840382939813000,10.828813232421876,-0.004866127856075764,-0.0034874093253165483,-0.017724668607115746
1690840382949853200,10.838853271484375,-0.0043715788051486015,-0.0015704660909250379,-0.019034145399928093
1690840382959893200,10.848893310546876,-0.004172907210886478,-0.0023094932548701763,-0.019268769770860672
1690840382969964300,10.85896435546875,-0.005051750224083662,-0.0027110979426652193,-0.017972342669963837
1690840382980004400,10.86900439453125,-0.004910602699965239,-0.002222940558567643,-0.018819227814674377
1690840382990045200,10.879045166015626,-0.003966512158513069,-0.0027230822015553713,-0.020554011687636375
1690840383000085000,10.8890849609375,-0.003780623432248831,-0.002829342382028699,-0.020545221865177155
1690840383010125000,10.899125,-0.005106344819068909,-0.0025843314360827208,-0.019478626549243927
1690840383020165000,10.9091650390625,-0.005620601586997509,-0.002314020646736026,-0.022702649235725403
1690840383030206200,10.919206298828126,-0.004224305972456932,-0.0009515474666841328,-0.022659506648778915
1690840383040246300,10.929246337890625,-0.003944674041122198,-0.0023875238839536905,-0.022001972422003746
1690840383050286300,10.939286376953126,-0.005540440324693918,-0.0007142598042264581,-0.02298467792570591
1690840383060327200,10.9493271484375,-0.004018709994852543,-0.0028663603588938713,-0.023246200755238533
1690840383070367200,10.9593671875,-0.003888747887685895,-0.0019118833588436246,-0.023322632536292076
1690840383080407000,10.969406982421875,-0.004519117996096611,-0.0016351809026673436,-0.020085560157895088
1690840383090447000,10.979447021484376,-0.004356665071099997,-0.004790760576725006,-0.022846726700663567
1690840383100488200,10.98948828125,-0.003861317178234458,-0.0015571502735838294,-0.02287282608449459
1690840383110528300,10.9995283203125,-0.006643787957727909,-0.0012889700010418892,-0.021504227072000504
1690840383120599300,11.009599365234376,-0.00475560687482357,-0.0026325348298996687,-0.019998742267489433
1690840383130639400,11.019639404296875,-0.004705006722360849,-0.0011891013709828258,-0.02165043354034424
1690840383140679200,11.02967919921875,-0.003832022426649928,-0.0031736891251057386,-0.020502878352999687
1690840383150720000,11.039719970703125,-0.003668504301458597,-0.0025363946333527565,-0.019876236096024513
1690840383160760000,11.049760009765626,-0.005000350996851921,-0.004523645620793104,-0.01888793706893921
1690840383170800000,11.059800048828125,-0.004422178957611322,-0.001511876587755978,-0.018795259296894073
1690840383180840200,11.069840087890626,-0.006195311434566975,-0.002523611532524228,-0.018728148192167282
1690840383190881300,11.07988134765625,-0.003943609073758125,-0.0008596684201620519,-0.019703131169080734
1690840383200921300,11.08992138671875,-0.0030780816450715065,-0.00398701848462224,-0.02075108513236046
1690840383210961400,11.09996142578125,-0.00481339730322361,-0.0007930893916636705,-0.01948395185172558
1690840383221002200,11.110002197265626,-0.005411277059465647,-0.0024381240364164114,-0.019662916660308838
1690840383231042000,11.1200419921875,-0.005524461157619953,-0.0020783308427780867,-0.019828831776976585
1690840383241082000,11.13008203125,-0.00567013630643487,-0.0016458334866911173,-0.01991964504122734
1690840383251122200,11.1401220703125,-0.0048951562494039536,-0.0030897995457053185,-0.019934292882680893
1690840383261193200,11.150193115234375,-0.0038629150949418545,-0.002490321872755885,-0.020245883613824844
1690840383271234300,11.160234375,-0.004652808886021376,-0.002484729280695319,-0.022478677332401276
1690840383281274400,11.1702744140625,-0.004707403481006622,-0.0009773800848051906,-0.020661069080233574
1690840383291314200,11.180314208984376,-0.005117264110594988,-0.0030810111202299595,-0.02274366095662117
1690840383301354200,11.190354248046875,-0.004567055031657219,-0.0022066952660679817,-0.02160382829606533
1690840383311395000,11.20039501953125,-0.004994226153939962,-0.0024892566725611687,-0.021882129833102226
1690840383321435100,11.21043505859375,-0.005126052536070347,-0.001669269404374063,-0.021090371534228325
1690840383331475200,11.22047509765625,-0.00544403400272131,-0.0031164311803877354,-0.021997977048158646
1690840383341516300,11.230516357421875,-0.004563859198242426,-0.0015539544401690364,-0.021641645580530167
1690840383351556400,11.240556396484376,-0.005018460564315319,-0.002727875951677561,-0.02165203168988228
1690840383361596200,11.25059619140625,-0.005250954534858465,-0.004738828632980585,-0.02273806929588318
1690840383371636200,11.26063623046875,-0.0056954361498355865,-0.0007403587806038558,-0.02101260796189308
1690840383381677000,11.270677001953125,-0.004051733296364546,-0.0035060516092926264,-0.019780894741415977
1690840383391717000,11.280717041015626,-0.004002997186034918,-0.001528920722194016,-0.021875204518437386
1690840383401757200,11.290757080078125,-0.0043473439291119576,-0.00020373181905597448,-0.019786488264799118
1690840383411828200,11.300828125,-0.0028943235520273447,0.00020133497309871018,-0.020504742860794067
1690840383421837600,11.310837646484375,-0.006590258330106735,-0.0009182579233311117,-0.018458370119333267
1690840383431878700,11.320878662109376,-0.0031230889726430178,0.000005592638444795739,-0.019454658031463623
1690840383441918700,11.330918701171875,-0.004847751930356026,-0.000844754686113447,-0.020683174952864647
1690840383451958800,11.340958740234376,-0.005366269499063492,-0.003291400847956538,-0.01895744539797306
1690840383461998600,11.35099853515625,-0.003710316028445959,-0.002740659052506089,-0.020847758278250694
1690840383472039700,11.361039794921876,-0.0044051348231732845,0.0003193130251020193,-0.019539080560207367
1690840383482079500,11.37107958984375,-0.004043211229145527,-0.0013544837711378932,-0.020849354565143585
1690840383492119600,11.38111962890625,-0.002764627570286393,-0.002132659312337637,-0.021464278921484947
1690840383502160600,11.39116064453125,-0.005282380152493715,-0.0038450718857347965,-0.020591827109456062
1690840383512200700,11.40120068359375,-0.0040887510403990746,-0.0037326866295188665,-0.020134296268224716
1690840383522240500,11.411240478515625,-0.005538309924304485,-0.0027257453184574842,-0.020478909835219383
1690840383532280600,11.421280517578126,-0.005621133837848902,-0.0036783581599593163,-0.021470937877893448
1690840383542321700,11.43132177734375,-0.0057412427850067616,-0.0010663296561688185,-0.02171967551112175
1690840383552392400,11.441392333984375,-0.004798483569175005,-0.00279046013019979,-0.021879466250538826
1690840383562432500,11.4514326171875,-0.004992361646145582,-0.0044048684649169445,-0.021470405161380768
1690840383572472600,11.46147265625,-0.005520999431610107,-0.002633866388350725,-0.022001706063747406
1690840383582512600,11.4715126953125,-0.005563343409448862,-0.0015792545164003968,-0.022525016218423843
1690840383592553700,11.4815537109375,-0.0036914076190441847,-0.003447994589805603,-0.022348714992403984
1690840383602593500,11.491593505859376,-0.005624329671263695,-0.0017512947088107467,-0.02165869064629078
1690840383612633600,11.501633544921875,-0.003846936160698533,-0.0032748891972005367,-0.02160196378827095
1690840383622674700,11.5116748046875,-0.004232828039675951,-0.0002460760879330337,-0.020539363846182823
1690840383632714500,11.521714599609375,-0.0034261567052453756,-0.0034554514568299055,-0.01986664906144142
1690840383642754600,11.531754638671876,-0.005453887395560741,-0.0013257216196507215,-0.020233366638422012
1690840383652794600,11.541794677734375,-0.00574843306094408,-0.002163019496947527,-0.021166803315281868
1690840383662835700,11.551835693359376,-0.005773467011749744,-0.0027659591287374496,-0.020207799971103668
1690840383672875500,11.56187548828125,-0.004501541145145893,-0.0019022959750145674,-0.020658673718571663
1690840383682915600,11.57191552734375,-0.004316185135394335,-0.001208009896799922,-0.01990952529013157
1690840383692955400,11.581955322265625,-0.0046730488538742065,-0.0021853898651897907,-0.020650682970881462
1690840383703026400,11.5920263671875,-0.0038541266694664955,-0.0014365090755745769,-0.020732441917061806
1690840383713067500,11.602067626953126,-0.0037465349305421114,-0.0008402272942475975,-0.018500447273254395
1690840383723107600,11.612107666015625,-0.004275971557945013,-0.0014980280539020896,-0.020974790677428246
1690840383733147600,11.622147705078126,-0.003826429834589362,-0.0035172367934137583,-0.020206734538078308
1690840383743187700,11.632187744140625,-0.005375856999307871,-0.000895621080417186,-0.020387031137943268
1690840383753228500,11.642228515625,-0.0034293525386601686,-0.003745203372091055,-0.021739384159445763
1690840383763268600,11.6522685546875,-0.004520982038229704,-0.0007965514669194818,-0.02232128381729126
1690840383773308400,11.662308349609376,-0.004926581867039204,-0.00044661210267804563,-0.019830696284770966
1690840383783349500,11.672349609375,-0.00376011710613966,-0.0025798040442168713,-0.021213410422205925
