time,seconds_elapsed,z,y,x
1690838945586157600,0.196157470703125,-0.0006369487382471561,0.0005604078760370612,0.09292000532150269
1690838945596197600,0.20619775390625,0.0007879924960434437,0.009279219433665276,0.10010326653718948
1690838945606237700,0.21623779296875,-0.0003696833737194538,0.00840783305466175,0.09899991750717163
1690838945616277500,0.226277587890625,-0.0007889028638601303,-0.001020354451611638,0.08789122104644775
1690838945626318300,0.236318359375,-0.0013479003682732582,-0.012418150901794434,0.06419041752815247
1690838945636358400,0.2463583984375,-0.0013845376670360565,-0.01787104830145836,0.03566405922174454
1690838945646398500,0.2563984375,-0.0012931912206113338,-0.015981534495949745,0.005467274226248264
1690838945656439600,0.266439453125,0.0008803680539131165,-0.007278425619006157,-0.02352163754403591
1690838945666479600,0.276479736328125,-0.00038010627031326294,0.0031622308306396008,-0.04874736815690994
1690838945676519700,0.286519775390625,0.0005822828970849514,0.014007736928761005,-0.06978439539670944
1690838945686559700,0.296559814453125,0.00013354048132896423,0.01834043301641941,-0.0813576951622963
1690838945696600600,0.3066005859375,0.0014090808108448982,0.01691332273185253,-0.08116977661848068
1690838945706640400,0.316640380859375,0.0004570009186863899,0.01446081604808569,-0.07316803932189941
1690838945716680400,0.326680419921875,0.0011738482862710953,0.0064741382375359535,-0.05662020295858383
1690838945726751500,0.33675146484375,0.002238313900306821,0.0014106696471571922,-0.03459665924310684
1690838945736791600,0.34679150390625,0.002851377706974745,-0.0031312552746385336,-0.008508944883942604
1690838945746832600,0.35683251953125,0.002334191696718335,-0.004231673665344715,0.017068851739168167
1690838945756872700,0.366872802734375,-0.0012867618352174759,-0.008355953730642796,0.03899548947811127
1690838945766912500,0.37691259765625,-0.00028674444183707237,-0.011700351722538471,0.055529192090034485
1690838945776952600,0.38695263671875,-0.0032275202684104443,-0.008812875486910343,0.0625835433602333
1690838945786993400,0.396993408203125,-0.0031939647160470486,-0.008357741869986057,0.06254066526889801
1690838945797033500,0.407033447265625,-0.00004674913361668587,-0.004335926380008459,0.0567595511674881
1690838945807073500,0.417073486328125,0.00046457769349217415,-0.0021185786463320255,0.042164627462625504
1690838945817114600,0.427114501953125,0.0017804899252951145,0.0025711480993777514,0.025695383548736572
1690838945827154700,0.43715478515625,0.0006731473840773106,0.0035029882565140724,0.004415927454829216
1690838945837194800,0.44719482421875,0.00006346357986330986,0.0029402030631899834,-0.010798225179314613
1690838945847234600,0.457234619140625,-0.0019389670342206955,0.001160678919404745,-0.027675742283463478
1690838945857275400,0.467275390625,-0.0011013536714017391,0.0010554814944043756,-0.037497300654649734
1690838945867315500,0.4773154296875,0.0001399456523358822,0.0030571133829653263,-0.04396212100982666
1690838945877355500,0.48735546875,0.0021960909944027662,0.004721362143754959,-0.04326584190130234
1690838945887426600,0.497426513671875,0.0032807965762913227,0.005853205919265747,-0.03895312547683716
1690838945897466600,0.507466552734375,0.0007022214122116566,0.004489058628678322,-0.032859016209840775
1690838945907507700,0.5175078125,0.0009381775744259357,0.005071491934359074,-0.02206149324774742
1690838945917547500,0.527547607421875,-0.0008697696030139923,0.0033184532076120377,-0.0073821451514959335
1690838945927587600,0.537587646484375,-0.0014127879403531551,-0.0021796429064124823,0.0043890271335840225
1690838945937628400,0.54762841796875,-0.0001874379813671112,-0.0036774487234652042,0.01813759282231331
1690838945947668500,0.55766845703125,-0.002864980138838291,-0.0030611935071647167,0.027559857815504074
1690838945957708500,0.56770849609375,-0.000742773525416851,-0.0023498779628425837,0.035663723945617676
1690838945967748600,0.57774853515625,0.000014629680663347244,-0.0031112756114453077,0.03832928091287613
1690838945977789700,0.587789794921875,0.0009088828228414059,-0.0024692483711987734,0.035264644771814346
1690838945987829500,0.59782958984375,0.0007336465641856194,-0.003959020599722862,0.026635736227035522
1690838945997869600,0.60786962890625,-0.0011179391294717789,-0.005843824241310358,0.012248950079083443
1690838946007910400,0.617910400390625,-0.0003853035159409046,-0.003556701820343733,-0.00045352987945079803
1690838946017950500,0.627950439453125,0.00017014984041452408,-0.0006681992672383785,-0.013286368921399117
1690838946027990500,0.637990478515625,-0.0008493079803884029,0.001204801956191659,-0.022490253672003746
1690838946038030600,0.648030517578125,0.0010700039565563202,0.007811351679265499,-0.025948110967874527
1690838946048101600,0.6581015625,0.0020018441136926413,0.009585017338395119,-0.026014424860477448
1690838946058141400,0.668141357421875,0.0010306255426257849,0.009080941788852215,-0.022653380408883095
1690838946068181800,0.678181640625,-0.00011906120926141739,0.006020969711244106,-0.018693258985877037
1690838946078221600,0.6882216796875,-0.0001426897943019867,0.0005885082064196467,-0.012510990723967552
1690838946088261600,0.69826171875,-0.0010340497829020023,-0.0020877025090157986,-0.004731364548206329
1690838946098302700,0.708302734375,-0.00008436618372797966,-0.006652360316365957,0.0025561079382896423
1690838946108342500,0.718342529296875,0.000990485306829214,-0.00594928627833724,0.008428378961980343
1690838946118382600,0.728382568359375,0.0007907724939286709,-0.003269430249929428,0.013379329815506935
1690838946128422700,0.738422607421875,-0.0010020672343671322,-0.00257328012958169,0.016367129981517792
1690838946138463700,0.748463623046875,0.0006425650790333748,0.0015167179517447948,0.01608256809413433
1690838946148503600,0.758503662109375,-0.00102563900873065,0.0010029941331595182,0.01526710856705904
1690838946158543600,0.768543701171875,-0.001050940714776516,0.0024668006226420403,0.013648290187120438
1690838946168584700,0.778584716796875,-0.0016775825060904026,0.0013533331220969558,0.009525449946522713
1690838946178624500,0.78862451171875,-0.00008999882265925407,0.0016879457980394363,0.003962649032473564
1690838946188664600,0.79866455078125,0.00029296381399035454,0.0021939463913440704,-0.0027077700942754745
1690838946198704600,0.80870458984375,0.0007553384639322758,0.00024533853866159916,-0.009210696443915367
1690838946208775700,0.818775634765625,-0.0008113989606499672,0.00005412357859313488,-0.013119682669639587
1690838946218815500,0.8288154296875,0.0006655976176261902,0.00187510228715837,-0.015681162476539612
1690838946228856600,0.838856689453125,-0.00032030465081334114,-0.00031694560311734676,-0.018049512058496475
1690838946238896600,0.848896728515625,0.0006036749109625816,0.0012016890104860067,-0.013616204261779785
1690838946248936700,0.858936767578125,0.0020822619553655386,0.0008490865584462881,-0.011609245091676712
1690838946258977500,0.8689775390625,0.0031884347554296255,0.003056487999856472,-0.006410412490367889
1690838946269017600,0.879017578125,-0.000775680411607027,0.001937694032676518,0.0012333933264017105
1690838946279057700,0.8890576171875,-0.000280862208455801,0.003585300873965025,0.006703436374664307
1690838946289097500,0.899097412109375,-0.0008150925859808922,0.0004041548818349838,0.011110967956483364
1690838946299138600,0.909138671875,-0.00003283331170678139,0.001957749715074897,0.012181730009615421
1690838946309178600,0.9191787109375,-0.000991305336356163,-0.0025416610296815634,0.011983057484030724
1690838946319218700,0.92921875,0.0007971925660967827,-0.0037910903338342905,0.009987852536141872
1690838946329259500,0.939259521484375,-0.0006323922425508499,-0.004627322778105736,0.005831191316246986
1690838946339299600,0.949299560546875,-0.00007579056546092033,-0.0019126224797219038,0.0016657058149576187
1690838946349339600,0.959339599609375,0.0014840227086097002,-0.001426861621439457,-0.0022275689989328384
1690838946359379500,0.96937939453125,-0.00033661210909485817,0.0005037527298554778,-0.006462467834353447
1690838946369450500,0.979450439453125,0.0005403668619692326,0.002428951906040311,-0.0066025517880916595
1690838946379491600,0.98949169921875,0.0007499931380152702,0.001892888336442411,-0.005101099610328674
1690838946389531600,0.99953173828125,0.0013659819960594177,0.0012092548422515392,-0.007090747356414795
1690838946399571700,1.00957177734375,0.00003399420529603958,0.002115268260240555,-0.005779393017292023
1690838946409611800,1.01961181640625,-0.00020222831517457962,0.0015432212967425585,-0.00473703071475029
1690838946419652600,1.029652587890625,0.0005978615954518318,0.0014042279217392206,-0.002773584797978401
1690838946429692700,1.039692626953125,0.0005856109783053398,-0.0025138144847005606,-0.0019541289657354355
1690838946439732500,1.049732421875,-0.0017314278520643711,-0.002435014583170414,0.0009906142950057983
1690838946449773600,1.059773681640625,0.0010758102871477604,-0.0009247360285371542,0.0033768080174922943
1690838946459813600,1.069813720703125,-0.001923982985317707,-0.001090586418285966,0.0016943849623203278
1690838946469853700,1.079853759765625,0.0008196053095161915,-0.0014581026043742895,0.003551675006747246
1690838946479893800,1.089893798828125,0.0013620718382298946,-0.0001563839614391327,0.004749888554215431
1690838946489934600,1.0999345703125,0.0013130696024745703,0.0022090356796979904,0.0026843398809432983
1690838946499974700,1.109974609375,0.0010592637117952108,0.0031108534894883633,0.0036887601017951965
1690838946510014500,1.120014404296875,-0.0002611316740512848,0.0009156096493825316,0.0019768793135881424
1690838946520054500,1.130054443359375,-0.0001873709261417389,-0.0012231867294758558,0.0011718086898326874
1690838946530125600,1.14012548828125,-0.0008417097851634026,-0.002181924879550934,-0.0018532760441303253
1690838946540166700,1.150166748046875,-0.00021271267905831337,-0.0005861017853021622,-0.0037679411470890045
1690838946550206700,1.160206787109375,-0.0011568032205104828,0.0001233643852174282,-0.004471283406019211
1690838946560246800,1.170246826171875,0.0006365249864757061,-0.00017816247418522835,-0.005086086690425873
1690838946570286800,1.180286865234375,-0.00016109179705381393,0.0018618189496919513,-0.00536864809691906
1690838946580327700,1.19032763671875,-0.00003942986950278282,0.0011459612287580967,-0.0034817997366189957
1690838946590367500,1.200367431640625,-0.0006511579267680645,0.003539344295859337,-0.0011043958365917206
1690838946600407600,1.210407470703125,0.00033589592203497887,0.0015090180095285177,-0.0012203603982925415
1690838946610448600,1.22044873046875,-0.00012855930253863335,-0.000819383654743433,0.0022513363510370255
1690838946620488700,1.23048876953125,-0.0019709886983036995,-0.00045341625809669495,0.0029044877737760544
1690838946630528800,1.24052880859375,-0.0016612629406154156,-0.001905371667817235,0.0003909952938556671
1690838946640568800,1.25056884765625,0.00009992299601435661,0.0000376447569578886,0.002190828323364258
1690838946650609700,1.260609619140625,0.00037209829315543175,-0.0005985845346003771,0.00208190456032753
1690838946660649500,1.2706494140625,-0.000051227863878011703,0.0006513226544484496,0.0009804945439100266
1690838946670689500,1.280689453125,-0.0005582938902080059,0.0005032508634030819,-0.00003070756793022156
1690838946680730600,1.290730712890625,0.0011179449502378702,0.0011466554133221507,0.0003475211560726166
1690838946690800600,1.300800537109375,0.0006718654185533524,0.00003238883800804615,-0.0010136216878890991
1690838946700841700,1.310841796875,-0.0008253534324467182,0.0004439444746822119,-0.0006814505904912949
1690838946710881800,1.3208818359375,-0.00045623956248164177,0.0004508686251938343,-0.001297440379858017
1690838946720921900,1.330921875,-0.0004961462691426277,-0.0003245305269956589,-0.0022995471954345703
1690838946730961700,1.340961669921875,0.0011132019571959972,0.0024219874758273363,-0.002685707062482834
1690838946741002500,1.35100244140625,-0.001366546843200922,-0.00020159827545285225,-0.001849547028541565
1690838946751042600,1.36104248046875,0.0007432093843817711,-0.0004641858395189047,-0.00011742860078811646
1690838946761082600,1.37108251953125,-0.0010330057702958584,0.0013299607671797276,-0.0021743886172771454
1690838946771123700,1.381123779296875,-0.0005357936024665833,-0.00030788336880505085,-0.002714211121201515
1690838946781163800,1.391163818359375,-0.00249469093978405,0.00025436922442168,-0.002108462154865265
1690838946791203800,1.401203857421875,0.0004973704926669598,-0.00019437330774962902,-0.0016970019787549973
1690838946801243600,1.41124365234375,0.000018878839910030365,-0.006295558996498585,-0.004271717742085457
1690838946811284500,1.421284423828125,0.0011227591894567013,-0.0008083824068307877,0.002202959731221199
1690838946821324500,1.431324462890625,-0.000748705118894577,-0.0016622364055365324,0.003998029977083206
1690838946831364600,1.441364501953125,-0.000017667654901742935,-0.0005056255031377077,0.00498313270509243
1690838946841405700,1.45140576171875,0.0006082090549170971,0.001294311136007309,0.0022826101630926132
1690838946851475700,1.461475830078125,-0.0005721035413444042,0.0001238519325852394,0.0007744617760181427
1690838946861516800,1.471516845703125,-0.0009327707812190056,-0.00428706593811512,-0.0015381239354610443
1690838946871556900,1.481556884765625,-0.00033888593316078186,0.0007590920431539416,-0.0021932609379291534
1690838946881596700,1.4915966796875,-0.0003948039375245571,-0.002710948931053281,-0.0013230498880147934
1690838946891637500,1.501637451171875,0.0009498260915279388,0.002470497041940689,-0.004835493862628937
1690838946901677600,1.511677490234375,-0.00035450980067253113,-0.0024746714625507593,-0.003182312473654747
1690838946911717600,1.521717529296875,-0.0007806154899299145,0.00015919492579996586,-0.002566324546933174
1690838946921757700,1.5317578125,-0.0007030623964965343,0.00024152675177901983,-0.0020300447940826416
1690838946931798800,1.541798828125,0.0015302642714232206,0.001438351348042488,0.0012363214045763016
1690838946941838800,1.5518388671875,-0.002039581537246704,0.0008658645674586296,0.0008664932101964951
1690838946951878700,1.561878662109375,0.0010571419261395931,0.0014834515750408173,0.0029898304492235184
1690838946961919500,1.57191943359375,-0.0002267765812575817,0.0018416724633425474,0.0031497739255428314
1690838946971959600,1.58195947265625,-0.0018217437900602818,0.0008027734002098441,0.0011185798794031143
1690838946981999600,1.59199951171875,-0.0014110556803643703,0.0014099548570811749,0.000881468877196312
1690838946992039700,1.602039794921875,-0.0008496609516441822,-0.0020971621852368116,-0.0016107168048620224
1690838947002080800,1.612080810546875,-0.0018859757110476494,0.00028815295081585646,-0.0024838782846927643
1690838947012150800,1.62215087890625,0.00034841615706682205,-0.0014628753997385502,-0.0025491248816251755
1690838947022191900,1.63219189453125,0.000005373731255531311,-0.0015576952137053013,-0.00401577353477478
1690838947032231700,1.642231689453125,-0.000046558212488889694,0.000656989635899663,-0.0019861776381731033
1690838947042271500,1.652271484375,-0.0005716616287827492,0.00002915831282734871,-0.003669705241918564
1690838947052312600,1.6623125,0.000005978159606456757,0.0020337195601314306,-0.0027184244245290756
1690838947062352600,1.6723525390625,-0.0015660244971513748,0.0010731746442615986,0.001065405085682869
1690838947072380400,1.68238037109375,0.0007147067226469517,0.0008691765833646059,0.0024774130433797836
1690838947082420200,1.692420166015625,0.0004912186414003372,-0.0000973832793533802,0.002113182097673416
1690838947092461300,1.70246142578125,0.0006608618423342705,0.0008837253553792834,0.005013630725443363
1690838947102501400,1.71250146484375,-0.00003774696961045265,0.001283792546018958,0.00498556811362505
1690838947112541400,1.72254150390625,-0.00011231563985347748,0.0011093554785475135,0.0038308221846818924
1690838947122582500,1.73258251953125,0.00035700714215636253,0.0008535129018127918,0.003802374005317688
1690838947132622600,1.74262255859375,0.0006651352159678936,-0.0000855177640914917,0.0004606395959854126
1690838947142662400,1.752662353515625,-0.00012149056419730186,-0.00146409310400486,0.00033675506711006165
1690838947152702200,1.7627021484375,0.00047718826681375504,-0.0021016537211835384,-0.00011784769594669342
1690838947162743300,1.772743408203125,-0.0002682548947632313,-0.000466673169285059,-0.004609953612089157
1690838947172813300,1.782813232421875,0.00019540125504136086,-0.0008405810222029686,-0.004500230774283409
1690838947182854400,1.7928544921875,0.0005452069453895092,0.0005690846592187881,-0.0038266051560640335
1690838947192894500,1.80289453125,0.0011835666373372078,0.0037302570417523384,-0.0044921282678842545
1690838947202934500,1.8129345703125,-0.0009293197654187679,0.003184256609529257,-0.0033879075199365616
1690838947212975600,1.8229755859375,0.0008097244426608086,0.0035049011930823326,-0.003943176940083504
1690838947223015400,1.833015380859375,0.0002617328427731991,0.0028887083753943443,-0.002428783103823662
1690838947233055200,1.84305517578125,0.00023376941680908203,0.001374168787151575,-0.0013153143227100372
1690838947243095300,1.85309521484375,-0.0003135204315185547,-0.0006483739707618952,0.00024000369012355804
1690838947253136400,1.863136474609375,0.0005890247412025928,-0.0025831605307757854,0.0008357521146535873
1690838947263176400,1.873176513671875,-0.001914135180413723,-0.0039019021205604076,0.0012923702597618103
1690838947273216500,1.883216552734375,0.00023876409977674484,-0.0024816379882395267,0.0019584279507398605
1690838947283257600,1.893257568359375,0.00046222517266869545,-0.0018992605619132519,0.003735402598977089
1690838947293297400,1.90329736328125,0.001094193197786808,0.0012912063393741846,0.005477109923958778
1690838947303337200,1.913337158203125,0.00027871038764715195,0.0017287636874243617,0.004928764887154102
1690838947313377300,1.923377197265625,-0.00012049777433276176,0.003993515856564045,0.003290388733148575
1690838947323418400,1.93341845703125,0.000953668961301446,0.002149163745343685,0.0027774181216955185
1690838947333489400,1.943489501953125,0.000813586637377739,0.0004276965046301484,0.000999491661787033
1690838947343529500,1.953529541015625,0.0008999037090688944,0.0010708346962928772,-0.0007951986044645309
1690838947353569500,1.963569580078125,-0.000004505738615989685,0.002813607221469283,-0.004683414474129677
1690838947363609300,1.973609375,0.0008672876283526421,-0.00045312545262277126,-0.006302140653133392
1690838947373650400,1.983650390625,-0.0008736206218600273,-0.0009729745797812939,-0.006802549585700035
1690838947383690200,1.993690185546875,0.0005083787254989147,0.0011161393485963345,-0.005001172423362732
1690838947393730300,2.003730224609375,-0.0006253290921449661,0.00025993306189775467,-0.005146846175193787
1690838947403771400,2.013771484375,0.0002905074506998062,-0.001583159901201725,-0.0018913056701421738
1690838947413811500,2.0238115234375,0.00068998197093606,0.0011340633500367403,0.0014770608395338058
1690838947423851500,2.0338515625,-0.00008603185415267944,0.0022960728965699673,0.0015355180948972702
1690838947433891300,2.043891357421875,-0.0006921673193573952,0.0005093580111861229,0.0033251624554395676
1690838947443932400,2.053932373046875,0.0013066933024674654,0.0034078867174685,0.003157762810587883
1690838947453972200,2.06397216796875,0.000435839407145977,0.002860074397176504,0.004416106268763542
1690838947464012300,2.07401220703125,0.0001726304180920124,0.0034340987913310528,0.002749806270003319
1690838947474053400,2.084053466796875,-0.000783444382250309,-0.0027566852513700724,0.0016139671206474304
1690838947484093400,2.094093505859375,0.0007306267507374287,-0.002960530109703541,0.0024387091398239136
1690838947494164500,2.10416455078125,-0.00010134512558579445,-0.0022473358549177647,-0.0016737449914216995
1690838947504204500,2.11420458984375,-0.0002457583323121071,-0.004321518819779158,-0.0023600850254297256
1690838947514244400,2.124244384765625,-0.0009839865379035473,-0.0016964408569037914,-0.002657826989889145
1690838947524284400,2.134284423828125,-0.0004275334067642689,-0.0007100778166204691,-0.0033788904547691345
1690838947534325200,2.1443251953125,-0.00024377554655075073,0.004425561986863613,-0.0013314522802829742
1690838947544365300,2.154365234375,-0.0006410474888980389,0.004186118021607399,-0.0037343446165323257
1690838947554405400,2.1644052734375,-0.0008266698569059372,0.004260420333594084,-0.002112746238708496
1690838947564446500,2.174446533203125,0.0009643451776355505,0.001827622763812542,-0.0024882517755031586
1690838947574486500,2.184486572265625,0.0012724727857857943,0.0012302757240831852,-0.0006919503211975098
1690838947584526300,2.1945263671875,0.0009260028600692749,-0.0023063200060278177,-0.0003262162208557129
1690838947594566400,2.20456640625,0.0007896488532423973,-0.002758790971711278,0.0006170757114887238
1690838947604607200,2.214607177734375,0.000889939721673727,-0.002904508262872696,0.00024246610701084137
1690838947614647300,2.224647216796875,-0.0011995765380561352,-0.00455220602452755,0.0007868148386478424
1690838947624687400,2.234687255859375,0.00048161670565605164,-0.0018983280751854181,0.0013846289366483688
1690838947634728400,2.244728515625,0.0005926704034209251,0.0019741745200008154,0.0024528224021196365
1690838947644768500,2.2547685546875,-0.0016959947533905506,0.004219826776534319,0.0009591691195964813
1690838947654839600,2.264839599609375,-0.0008823992684483528,0.002890376839786768,-0.00029198452830314636
1690838947664879400,2.27487939453125,-0.0005202558822929859,0.0032080214004963636,0.0006969701498746872
1690838947674919400,2.28491943359375,-0.00031279586255550385,0.0029496948700398207,0.002416040748357773
1690838947684959500,2.29495947265625,-0.0017000120133161545,0.00020943023264408112,-0.00004335679113864899
1690838947695000300,2.305000244140625,-0.00017215684056282043,0.00018972286488860846,-0.0012793298810720444
1690838947705040400,2.315040283203125,0.000589422881603241,0.0002959830453619361,-0.003751542419195175
1690838947715080400,2.32508056640625,-0.0000699758529663086,0.0010653702775016427,-0.003799745813012123
1690838947725121500,2.33512158203125,0.001382708316668868,-0.0010003100614994764,-0.004727592691779137
1690838947735161300,2.345161376953125,-0.000875918660312891,0.0006729541346430779,-0.0017925221472978592
1690838947745201400,2.355201416015625,0.0005170698277652264,0.0017420795047655702,-0.0019256789237260818
1690838947755241500,2.365241455078125,-0.0008267611265182495,0.002093084156513214,0.0010709092020988464
1690838947765282300,2.3752822265625,0.0006044264882802963,0.0026671485975384712,0.0015603546053171158
1690838947775322400,2.385322265625,0.00014955876395106316,0.002598705468699336,0.0034698396921157837
1690838947785362400,2.395362548828125,-0.00009061209857463837,0.0002639277372509241,0.004410704597830772
1690838947795403500,2.405403564453125,-0.00038462504744529724,0.0005422281101346016,0.0044975243508815765
1690838947805443300,2.415443359375,-0.0006353715434670448,-0.00046318862587213516,0.0008145123720169067
1690838947815514400,2.425514404296875,-0.0008183307945728302,0.00046918413136154413,-0.0008161403238773346
1690838947825554400,2.435554443359375,0.0007140794768929482,-0.0013858424499630928,-0.002056894823908806
1690838947835594500,2.445594482421875,-0.00018633529543876648,0.0010397647274658084,-0.004692358896136284
1690838947845635300,2.45563525390625,-0.0007909368723630905,-0.00206600409001112,-0.0046868231147527695
1690838947855675400,2.46567529296875,-0.00009372131898999214,-0.0012191187124699354,-0.004635956138372421
1690838947865715500,2.475715576171875,0.0005659773014485836,0.000549058779142797,-0.00434238463640213
1690838947875755300,2.48575537109375,-0.000024978071451187134,0.002125383820384741,-0.001757519319653511
1690838947885796400,2.49579638671875,0.00035417405888438225,0.0011666836217045784,-0.0001668892800807953
1690838947895836400,2.50583642578125,-0.00036381417885422707,0.00337311252951622,0.0024866852909326553
1690838947905876500,2.51587646484375,-0.0008074133656919003,0.002794313710182905,0.0032554641366004944
1690838947915917300,2.525917236328125,-0.0008265883661806583,0.0019958980847150087,0.004260273650288582
1690838947925957400,2.535957275390625,-0.0011478187516331673,-0.0018199742771685123,0.0026066359132528305
1690838947935997400,2.54599755859375,-0.00004713423550128937,-0.0017635154072195292,0.002771751955151558
1690838947946037200,2.556037353515625,0.00005982676520943642,-0.0023204972967505455,-0.0003487076610326767
1690838947956078300,2.566078369140625,-0.000025927089154720306,-0.0015625616069883108,-0.0014371424913406372
1690838947966118400,2.576118408203125,0.0005813371390104294,0.0006395308300852776,-0.0013126190751791
1690838947976189400,2.586189453125,0.00027161138132214546,0.001512248651124537,-0.0016114264726638794
1690838947986229500,2.5962294921875,0.0007021804340183735,0.0010264148004353046,-0.0017543118447065353
1690838947996269600,2.60626953125,-0.000780934002250433,0.0042962441220879555,0.0002752840518951416
1690838948006310400,2.616310302734375,0.0008151479996740818,0.0026972228661179543,-0.00282183475792408
1690838948016350500,2.6263505859375,0.001997058978304267,0.001179221086204052,-0.0014942493289709091
1690838948026390300,2.636390380859375,0.0018676058389246464,0.001896542846225202,-0.00031579844653606415
1690838948036430300,2.646430419921875,-0.00001764576882123947,-0.0006294655613601208,-0.002676689997315407
1690838948046471400,2.656471435546875,0.0006316793151199818,-0.001128250965848565,-0.0001382492482662201
1690838948056511500,2.666511474609375,-0.000993913970887661,-0.0020803308580070734,-0.001269826665520668
1690838948066540000,2.6765400390625,-0.0016656606458127499,0.0010076753096655011,-0.0004811156541109085
1690838948076581000,2.6865810546875,-0.0009338236413896084,-0.0013620054814964533,-0.0006129425019025803
1690838948086621000,2.696620849609375,-0.0006753816269338131,-0.000558625441044569,-0.00008330494165420532
1690838948096660700,2.70666064453125,0.001989909913390875,0.0006168938707560301,0.0018048770725727081
1690838948106700800,2.71670068359375,0.00023260200396180153,0.0027014631778001785,0.003456609323620796
1690838948116742000,2.726741943359375,0.0009910701774060726,0.0016135619953274727,0.002714386209845543
1690838948126813000,2.73681298828125,0.000735962763428688,0.001105359522625804,0.0013581756502389908
1690838948136853000,2.74685302734375,0.0002464735880494118,0.0014811315340921283,0.000942721962928772
1690838948146892800,2.756892822265625,0.0008283946663141251,-0.0004378503654152155,-0.002604786306619644
1690838948156932900,2.766932861328125,-0.0011207731440663338,-0.0003068228252232075,-0.001984270289540291
1690838948166974000,2.776973876953125,-0.0018140687607228756,0.00007412419654428959,-0.0012417491525411606
1690838948177013800,2.787013671875,-0.00024333642795681953,0.0010440475307404995,-0.0046071857213974
1690838948187053800,2.7970537109375,-0.00019033951684832573,0.0006678984500467777,-0.002530248835682869
1690838948197094000,2.807093994140625,-0.0018369718454778194,0.0006852089427411556,-0.0008758921176195145
1690838948207135000,2.817135009765625,-0.0001995367929339409,0.0007126916898414493,-0.002226470038294792
1690838948217175000,2.827175048828125,0.0009445571340620518,0.0008533066138625145,0.0007826369255781174
1690838948227214800,2.83721484375,-0.0006650658324360847,-0.00012154481373727322,0.0009466931223869324
1690838948237256000,2.847255859375,0.0006673135794699192,0.0000547564122825861,0.0018028989434242249
1690838948247295700,2.857295654296875,-0.0002026236616075039,0.0014043329283595085,0.0028718505054712296
1690838948257335800,2.867335693359375,-0.0002894424833357334,-0.0010982395615428686,0.0006321314722299576
1690838948267375900,2.8773759765625,-0.0011833817698061466,-0.0001420315820723772,0.0006172209978103638
1690838948277417000,2.8874169921875,-0.00005207117646932602,-0.001390521414577961,0.0024452153593301773
1690838948287488000,2.897488037109375,-0.00022689485922455788,-0.0003905638586729765,0.0015320777893066406
1690838948297527800,2.90752783203125,0.0003299717791378498,0.0006589877884835005,-0.000020012259483337402
1690838948307567900,2.91756787109375,0.0007516774348914623,0.0024221378844231367,-0.002782195806503296
1690838948317608000,2.92760791015625,-0.0000661793164908886,-0.0012168055400252342,-0.0034660957753658295
1690838948327648800,2.937648681640625,0.00039312057197093964,-0.0001296764239668846,-0.0014056991785764694
1690838948337688800,2.947688720703125,-0.0002678758464753628,0.0007190731121227145,-0.002591606229543686
1690838948347729000,2.95772900390625,0.0006280280649662018,-0.000607489375397563,-0.002085501328110695
1690838948357770000,2.96777001953125,-0.00036293454468250275,0.0006902689347043633,-0.0016242414712905884
1690838948367810000,2.97781005859375,-0.0004021064378321171,0.0005243693012744188,-0.0012151934206485748
1690838948377849900,2.987849853515625,-0.00011634919792413712,-0.0017313282005488873,-0.002521740272641182
1690838948387890000,2.997889892578125,-0.0013591335155069828,0.0004368065856397152,0.0003868546336889267
1690838948397930800,3.0079306640625,-0.00013993820175528526,-0.00033364584669470787,0.001902727410197258
1690838948407970800,3.017970703125,-0.0009983270429074764,-0.000390008557587862,-0.0011057816445827484
1690838948418011000,3.028010986328125,0.00035961857065558434,0.000151944812387228,-0.0004900582134723663
1690838948428052000,3.038052001953125,0.0005767173133790493,0.0012728304136544466,0.0008346866816282272
1690838948438092000,3.048092041015625,-0.0009649866260588169,0.0008224899647757411,0.0014530736953020096
1690838948448162800,3.058162841796875,-0.001515640877187252,0.0010640773689374328,-0.0008091051131486893
1690838948458203000,3.068202880859375,0.00035256659612059593,-0.0006179751362651587,0.0012449901551008224
1690838948468243000,3.078242919921875,0.000013168435543775558,0.0007817854639142752,0.0010963864624500275
1690838948478283000,3.088282958984375,-0.0005652699619531631,0.0007764591136947274,0.0009270105510950089
1690838948488323800,3.09832373046875,-0.0013629067689180374,-0.0011665832716971636,-0.0008075069636106491
1690838948498364000,3.108364013671875,-0.0020412136800587177,0.000058470992371439934,-0.001150522381067276
1690838948508404000,3.118404052734375,-0.0005107480101287365,0.0012393300421535969,-0.0024740993976593018
1690838948518445000,3.128445068359375,0.0011132473591715097,-0.0005950552877038717,-0.0007244013249874115
1690838948528484900,3.13848486328125,0.0007587219588458538,-0.0018034044187515974,-0.002294003963470459
1690838948538525000,3.14852490234375,-0.00046073924750089645,-0.0003985869698226452,-0.001712903380393982
1690838948548565000,3.15856494140625,0.0011001692619174719,0.0009315256029367447,0.0006537754088640213
1690838948558605800,3.168605712890625,0.00016832910478115082,-0.0004940645303577185,0.00015603192150592804
1690838948568646000,3.17864599609375,-0.0008307448588311672,0.0008258378366008401,0.00014680065214633942
1690838948578686000,3.18868603515625,-0.0005215518176555634,0.0009821653366088867,0.002233387902379036
1690838948588727000,3.19872705078125,-0.0005207476206123829,0.0014957910170778632,0.0012880228459835052
1690838948598766800,3.208766845703125,0.00012054154649376869,0.0023895478807389736,0.001468319445848465
1690838948608838000,3.218837890625,-0.000763139221817255,-0.0007501570507884026,-0.00025287456810474396
1690838948618878000,3.2288779296875,0.00018121767789125443,0.00026557256933301687,0.0012198518961668015
1690838948628918000,3.23891796875,0.0011155020911246538,0.00009560585021972656,-0.00046845152974128723
1690838948638958000,3.2489580078125,-0.002754869870841503,0.0011731209233403206,-0.0020588915795087814
1690838948648999000,3.2589990234375,0.00012352922931313515,0.0008411330636590719,-0.00020579807460308075
1690838948659038700,3.269038818359375,0.000612218864262104,0.00003020046278834343,-0.0015352480113506317
1690838948669078800,3.279078857421875,0.003005397040396929,-0.10525894165039062,0.011985653080046177
1690838948679120000,3.289119873046875,0.013491060584783554,-0.024082329124212265,-0.0720120519399643
1690838948689160000,3.299159912109375,-0.019662896171212196,-0.4709665775299072,0.011167146265506744
1690838948699200000,3.309199951171875,-0.011119741946458817,-0.05830521881580353,-0.020497038960456848
1690838948709240000,3.319239990234375,0.006714613176882267,0.030170733109116554,-0.010843921452760696
1690838948719281000,3.329281005859375,0.013595955446362495,0.04803202301263809,0.008668260648846626
1690838948729321000,3.339321044921875,0.010804555378854275,0.07828930020332336,0.019727200269699097
1690838948739360800,3.34936083984375,0.003717883722856641,0.06728032976388931,0.030745763331651688
1690838948749401900,3.35940185546875,-0.004796920344233513,0.03521621972322464,0.033797070384025574
1690838948759442000,3.36944189453125,-0.007927732542157173,-0.014389414340257645,0.03425726294517517
1690838948769513000,3.379512939453125,-0.006779341958463192,-0.05268668010830879,0.031712766736745834
1690838948779553000,3.389552978515625,-0.006419548764824867,-0.06860971450805664,0.023668423295021057
1690838948789593000,3.399593017578125,-0.0004143328405916691,-0.05465083569288254,0.019781678915023804
1690838948799634000,3.409634033203125,0.003388661192730069,-0.021998882293701172,0.013061990961432457
1690838948809673700,3.419673828125,0.00406142883002758,0.018320292234420776,0.0070235878229141235
1690838948819713800,3.4297138671875,0.002516529057174921,0.04637403041124344,-0.0009549763053655624
1690838948829753900,3.43975390625,-0.000761271920055151,0.05242140218615532,-0.009845409542322159
1690838948839795000,3.449794921875,0.0008470108732581139,0.03511112183332443,-0.018673522397875786
1690838948849835000,3.4598349609375,-0.0008123144507408142,0.008409455418586731,-0.027167659252882004
1690838948859875000,3.469875,-0.0015526730567216873,-0.021189451217651367,-0.030953608453273773
1690838948869916000,3.479916015625,-0.0003972887061536312,-0.03316258639097214,-0.03125061094760895
1690838948879956000,3.4899560546875,0.0012067332863807678,-0.03107919543981552,-0.026369838044047356
1690838948889995800,3.499995849609375,-0.0002804649993777275,-0.015130572021007538,-0.016036000102758408
1690838948900035800,3.510035888671875,-0.0003089611418545246,0.008663972839713097,-0.005888823419809341
1690838948910077000,3.520076904296875,0.00026033446192741394,0.024278907105326653,0.0038990527391433716
1690838948920117000,3.530116943359375,0.00040094926953315735,0.02980310097336769,0.010822472162544727
1690838948930188000,3.54018798828125,-0.00023673521354794502,0.022715002298355103,0.01792530156672001
1690838948940228000,3.55022802734375,-0.00021782703697681427,0.007832992821931839,0.01906833052635193
1690838948950268000,3.560267822265625,0.0022002181503921747,-0.011355249211192131,0.019802620634436607
1690838948960308700,3.570308837890625,-0.0002807825803756714,-0.022920558229088783,0.014452330768108368
1690838948970348800,3.580348876953125,-0.00032278988510370255,-0.024202493950724602,0.013550367206335068
1690838948980388900,3.590388916015625,-0.0011337222531437874,-0.016091570258140564,0.009301028214395046
1690838948990429000,3.600428955078125,-0.0005483594723045826,-0.002586946589872241,0.006198711693286896
1690838949000470000,3.610469970703125,0.0008644470945000648,0.01293369010090828,0.0011187326163053513
1690838949010510000,3.620510009765625,0.0011062074918299913,0.018505360931158066,-0.002498771995306015
1690838949020550000,3.6305498046875,0.0013533488381654024,0.018074195832014084,-0.007807517424225807
1690838949030591000,3.640591064453125,0.0018564739730209112,0.0074194069020450115,-0.009761188179254532
1690838949040630800,3.650630859375,0.0010857551824301481,-0.00504445331171155,-0.015742115676403046
1690838949050670800,3.6606708984375,-0.0004965891130268574,-0.010877463966608047,-0.015433141961693764
1690838949060711000,3.6707109375,-0.0025999536737799644,-0.012954729609191418,-0.013453083112835884
1690838949070735000,3.680735107421875,-0.0016918336041271687,-0.008447462692856789,-0.011595519259572029
1690838949080806100,3.69080615234375,-0.0009189839474856853,0.0019292777869850397,-0.007118746638298035
1690838949090846000,3.700845947265625,0.00023038312792778015,0.009254055097699165,-0.0012771561741828918
1690838949100886000,3.710885986328125,0.0014996456447988749,0.013565447181463242,0.005120822228491306
1690838949110926000,3.720926025390625,0.0014133406803011894,0.009560715407133102,0.009843154810369015
1690838949120967200,3.73096728515625,-0.0002537979744374752,0.003311874344944954,0.010975530371069908
1690838949131007000,3.741007080078125,-0.0015420564450323582,-0.00580357201397419,0.01072887796908617
1690838949141047000,3.751047119140625,-0.001631272491067648,-0.01112882886081934,0.012604542076587677
1690838949151087000,3.761087158203125,-0.0011164825409650803,-0.012401871383190155,0.007867930456995964
1690838949161128000,3.7711279296875,-0.001719688531011343,-0.00869927927851677,0.006778165698051453
1690838949171168000,3.78116796875,-0.000029309652745723724,-0.0011009026784449816,0.003948073834180832
1690838949181208000,3.7912080078125,0.00009372830390930176,0.00523768737912178,0.001277988776564598
1690838949191249200,3.801249267578125,0.0019942682702094316,0.007577238604426384,-0.0010609962046146393
1690838949201289200,3.811289306640625,-0.0008342750370502472,0.00720918970182538,-0.004238147288560867
1690838949211329000,3.8213291015625,0.0010704707819968462,0.0037405556067824364,-0.0064400602132081985
1690838949221369000,3.831369140625,-0.0007671103812754154,-0.00030638393945991993,-0.00801505334675312
1690838949231410000,3.841409912109375,-0.0018670870922505856,-0.005118701606988907,-0.008226519450545311
1690838949241481000,3.85148095703125,0.0007699751295149326,-0.002766597783192992,-0.008804691955447197
1690838949251521000,3.86152099609375,-0.001229526475071907,-0.004132799804210663,-0.005858968943357468
1690838949261561000,3.87156103515625,-0.0011514956131577492,0.0001847172388806939,-0.003323640674352646
1690838949271601000,3.881600830078125,-0.00023488979786634445,0.0047454540617764,-0.00026540644466876984
1690838949281642000,3.89164208984375,0.0001310287043452263,0.005574495997279882,-0.0006121490150690079
1690838949291682000,3.90168212890625,0.0008257599547505379,0.0024823208805173635,0.0015931706875562668
1690838949301722000,3.91172216796875,0.000017490237951278687,0.0012918879510834813,0.005551692098379135
1690838949311763000,3.921762939453125,0.00043878378346562386,-0.002068412723019719,0.003985872492194176
1690838949321803000,3.931802978515625,-0.001160177867859602,-0.0017943733837455511,0.004803462885320187
1690838949331843000,3.941843017578125,0.0008269879035651684,-0.0020274294074624777,0.004348084330558777
1690838949341883100,3.951883056640625,0.0019798704888671637,-0.003075383370742202,0.002515830099582672
1690838949351924200,3.96192431640625,0.00009156251326203346,-0.0009528878144919872,0.0038610976189374924
1690838949361964000,3.971964111328125,-0.0004394715651869774,0.0014293097192421556,0.0021151285618543625
1690838949372004000,3.982004150390625,-0.0008325385861098766,0.0011978013208135962,-0.0002495795488357544
1690838949382045000,3.992044921875,0.0005086292512714863,0.004352581687271595,-0.0019010063260793686
1690838949392085000,4.0020849609375,0.00008133566007018089,0.0008367564296349883,-0.003951020538806915
1690838949402156000,4.012156005859375,-0.00018498068675398827,0.000800004811026156,-0.004439176991581917
1690838949412196000,4.022196044921875,-0.00046296510845422745,-0.0006849737837910652,-0.003741161897778511
1690838949422236000,4.03223583984375,0.0002217334695160389,-0.0004396967124193907,-0.0035251807421445847
1690838949432276000,4.04227587890625,0.000045795924961566925,-0.0025314718950539827,-0.0023078639060258865
1690838949442317000,4.052317138671875,-0.00020933477208018303,-0.0028489206451922655,-0.0007435232400894165
1690838949452357000,4.062357177734375,0.0002448135055601597,0.001666479860432446,-0.0007294062525033951
1690838949462397200,4.072397216796875,-0.000945087056607008,-0.0008675178978592157,0.0015646405518054962
1690838949472438000,4.08243798828125,-0.0006786016747355461,-0.00006997655145823956,0.0008462723344564438
1690838949482478000,4.09247802734375,0.0008047791197896004,0.0017926383297890425,0.0023685358464717865
1690838949492518000,4.102517822265625,0.0005087773315608501,0.00003881426528096199,0.0010220389813184738
1690838949502558000,4.112557861328125,-0.001851049717515707,0.0008295066654682159,0.0027685407549142838
1690838949512599000,4.12259912109375,-0.0003837607800960541,-0.0015044312458485365,0.000697815790772438
1690838949522639000,4.13263916015625,0.0008309069089591503,-0.0025332102086395025,0.0013367068022489548
1690838949532679200,4.14267919921875,-0.000019593629986047745,-0.0017877914942800999,-0.001073187217116356
1690838949542720000,4.152719970703125,0.00040811020880937576,0.0010490076383575797,-0.0006534736603498459
1690838949552760000,4.162760009765625,0.000039620790630578995,-0.0002470931503921747,-0.000057052820920944214
1690838949562831000,4.1728310546875,0.00019488343968987465,0.0021156633738428354,-0.00008048862218856812
1690838949572871000,4.182870849609375,0.000767433550208807,0.0016511852154508233,-0.0014943014830350876
1690838949582911000,4.192910888671875,-0.0004413751885294914,0.0014109681360423565,-0.0019883178174495697
1690838949592952000,4.2029521484375,-0.0003612833097577095,0.0009523349581286311,-0.00061831995844841
1690838949602992000,4.2129921875,0.0009623079095035791,0.0013382269535213709,-0.002703040838241577
1690838949613032200,4.2230322265625,0.00036272406578063965,0.0012509706430137157,-0.0023532863706350327
1690838949623072300,4.233072265625,-0.0001986706629395485,-0.0007008600514382124,-0.0002856086939573288
1690838949633113000,4.243113037109375,-0.00012878840789198875,0.000494655454531312,0.0015543177723884583
1690838949643153000,4.25315283203125,-0.00003850739449262619,0.0012155731674283743,0.0009409915655851364
1690838949653193000,4.26319287109375,0.00004841107875108719,0.0006605110829696059,-0.00015717744827270508
1690838949663233000,4.27323291015625,0.0007070107385516167,-0.0011379215866327286,0.00022791698575019836
1690838949673274000,4.283274169921875,0.0014250169042497873,0.001333356136456132,0.0008122231811285019
1690838949683314200,4.293314208984375,0.0022042577620595694,-0.0004877133760601282,-0.00002800486981868744
1690838949693354200,4.303354248046875,0.0010649655014276505,0.0015026036417111754,0.003478558734059334
1690838949703395000,4.31339501953125,-0.0009020455181598663,-0.0018292770255357027,0.0018260683864355087
1690838949713435100,4.32343505859375,0.0011321138590574265,-0.0008005392737686634,0.001330014318227768
1690838949723506000,4.333505859375,-0.0004149163141846657,-0.0011185207404196262,0.0005377233028411865
1690838949733546000,4.3435458984375,-0.00033775344491004944,-0.0015143218915909529,0.0005064085125923157
1690838949743586000,4.3535859375,0.0010651997290551662,-0.00023600459098815918,0.0004864335060119629
1690838949753627100,4.363627197265625,0.0005659889429807663,0.0018057071138173342,-0.00045525096356868744
1690838949763667200,4.373667236328125,-0.0006806366145610809,0.001858704024925828,-0.0008126478642225266
1690838949773707300,4.383707275390625,-0.00009727990254759789,0.0024928818456828594,-0.0014727488160133362
1690838949783747000,4.3937470703125,-0.0013867821544408798,0.0006355933146551251,-0.0022019222378730774
1690838949793788000,4.403787841796875,-0.00029134098440408707,-0.00032288115471601486,-0.0032605230808258057
1690838949803828000,4.413827880859375,0.0007211929187178612,-0.002024374669417739,-0.003029627725481987
1690838949813868000,4.423867919921875,0.000059291254729032516,-0.004078014753758907,-0.004705389961600304
1690838949823909000,4.4339091796875,0.0006883298046886921,-0.002231112215667963,-0.0011410154402256012
1690838949833949200,4.44394921875,0.00026393914595246315,-0.0005335942842066288,0.0004978403449058533
1690838949843989200,4.4539892578125,-0.0016838968731462955,0.0031540850177407265,0.0014826785773038864
1690838949854029000,4.464029052734375,-0.0009914315305650234,0.002876012120395899,0.005232498049736023
1690838949864070100,4.474070068359375,-0.0002510729245841503,0.003397991880774498,0.00711295660585165
1690838949874110000,4.48410986328125,-0.0003769705072045326,0.0015141470357775688,0.004980943165719509
1690838949884181000,4.494180908203125,-0.000504535622894764,-0.0014150638598948717,0.0035050194710493088
1690838949894221000,4.504220947265625,-0.0007533775642514229,-0.0009831550996750593,0.0031773000955581665
1690838949904261000,4.51426123046875,0.00033319229260087013,-0.002011667937040329,0.00016792863607406616
1690838949914302200,4.52430224609375,0.00047540897503495216,-0.003959523513913155,-0.003556465730071068
1690838949924342300,4.53434228515625,-0.0004377886652946472,0.00005439296364784241,-0.004270458593964577
1690838949934382000,4.544382080078125,0.00027562910690903664,0.001136129954829812,-0.004874385893344879
1690838949944422000,4.554421875,-0.00024768197908997536,0.0023920766543596983,-0.002889532595872879
1690838949954463000,4.564462890625,0.00040061725303530693,0.0032879640348255634,-0.0019590239971876144
1690838949964503000,4.5745029296875,-0.0002228287048637867,0.00043145741801708937,-0.0011022835969924927
1690838949974543000,4.584543212890625,-0.0014529135078191757,0.002270198892802,0.0005007460713386536
1690838949984584200,4.594584228515625,-0.0009186835959553719,0.0012952155666425824,0.0011377744376659393
1690838949994624300,4.604624267578125,-0.0009599602781236172,-0.002356091747060418,0.0013217572122812271
1690838950004664000,4.6146640625,-0.00073572201654315,-0.003670361591503024,0.000962497666478157
1690838950014703900,4.624703857421875,-0.0012503070756793022,-0.0020218652207404375,0.002105260267853737
1690838950024745000,4.634744873046875,-0.001052966807037592,-0.0009723131079226732,0.00007806159555912018
1690838950034785000,4.644784912109375,-0.0000798315741121769,-0.0015569166280329227,-0.0016638319939374924
1690838950044856000,4.65485595703125,0.0003183106891810894,0.0023880237713456154,0.000567898154258728
1690838950054896000,4.664896240234375,0.0007674116641283035,0.002092889742925763,0.001909445971250534
1690838950064936200,4.674936279296875,0.000363676343113184,0.00200660340487957,0.002353660762310028
1690838950074971400,4.684971435546875,-0.0018376009538769722,0.0004033425357192755,0.0015784893184900284
1690838950085011500,4.695011474609375,-0.0005869804881513119,-0.000392143614590168,0.0008037760853767395
1690838950095051500,4.705051513671875,0.0007496168836951256,-0.0005807289853692055,0.00031834468245506287
1690838950105092600,4.715092529296875,-0.00025972118601202965,0.0007540473015978932,-0.0031549502164125443
1690838950115132700,4.725132568359375,0.001064665848389268,0.00002751452848315239,-0.004848668351769447
1690838950125172700,4.7351728515625,0.0014356442261487246,-0.0016966159455478191,-0.001965263858437538
1690838950135212500,4.745212646484375,-0.0001706928014755249,-0.0008715125732123852,-0.005114302039146423
1690838950145253400,4.75525341796875,-0.00033394433557987213,0.0012832509819418192,-0.00202050618827343
1690838950155293400,4.76529345703125,-0.0007361164316534996,-0.0004672070499509573,-0.0007792823016643524
1690838950165333500,4.77533349609375,0.000042325351387262344,0.0005895353388041258,0.0011144913733005524
1690838950175373600,4.78537353515625,-0.0005947351455688477,-0.004097113385796547,0.00004472583532333374
1690838950185414700,4.79541455078125,-0.00010364828631281853,0.0010499783093109727,0.0022463612258434296
1690838950195454700,4.805454833984375,-0.0012431605719029903,0.0004481772193685174,0.0032225362956523895
1690838950205525800,4.81552587890625,-0.00020026648417115211,-0.000012549571692943573,0.002402549609541893
1690838950215565600,4.825565673828125,-0.0009614503942430019,-0.00021633715368807316,-0.00020963139832019806
1690838950225605400,4.83560546875,0.0008039590902626514,0.0012752993497997522,-0.0016866214573383331
1690838950235646500,4.845646484375,0.0009655416943132877,0.0011539873667061329,0.00027423538267612457
1690838950245686500,4.8556865234375,0.0004816455766558647,-0.0005395167972892523,-0.0013497602194547653
1690838950255726600,4.8657265625,0.0008023334667086601,0.00025278213433921337,-0.002294108271598816
1690838950265767700,4.875767578125,-0.0005827764980494976,-0.0010242036078125238,-0.0026363246142864227
1690838950275807700,4.885807861328125,-0.0000486643984913826,-0.0016907206736505032,-0.0008396226912736893
1690838950285847600,4.89584765625,0.0019713432993739843,0.0006621822249144316,-0.0014135334640741348
1690838950295887400,4.905887451171875,-0.0006287512369453907,0.0009759805398061872,-0.001179862767457962
1690838950305928400,4.915928466796875,0.00002984842285513878,0.002618085592985153,-0.0005212631076574326
1690838950315968500,4.925968505859375,0.0009125170763581991,0.0015417878748849034,-0.0010896176099777222
1690838950326008600,4.936008544921875,-0.0005969624035060406,0.0013601602986454964,0.00018443912267684937
1690838950336049700,4.946049560546875,0.00010870490223169327,0.00002011377364397049,-0.0005770735442638397
1690838950346089700,4.95608984375,-0.000033241696655750275,0.002124543534591794,0.0008304063230752945
1690838950356129300,4.96612939453125,0.0010821581818163395,-0.0004919539205729961,-0.00020754151046276093
1690838950366200300,4.976200439453125,-0.00023184530436992645,0.0003069945378229022,-0.0012573599815368652
1690838950376240400,4.986240478515625,-0.00220530666410923,-0.0011109868064522743,-0.0025466326624155045
1690838950386280400,4.996280517578125,-0.0015208744443953037,0.0004075475735589862,-0.0013490095734596252
1690838950396321500,5.006321533203125,0.0002162768505513668,-0.00033066142350435257,-0.0005509108304977417
1690838950406361600,5.016361572265625,0.0007560993544757366,0.0026749821845442057,0.00003525055944919586
1690838950416401700,5.026401611328125,-0.0004692203365266323,0.0012316792272031307,0.0014997366815805435
1690838950426442500,5.0364423828125,0.00006208010017871857,0.0005701499758288264,0.003201764076948166
1690838950436482300,5.046482421875,0.0008971136994659901,-0.00018320023082196712,0.003414170816540718
1690838950446522400,5.0565224609375,0.0008624927140772343,-0.0022306381724774837,0.003399522975087166
1690838950456562400,5.0665625,-0.0009315134957432747,-0.0028025121428072453,0.0017232485115528107
1690838950466603500,5.076603515625,0.0010394921991974115,-0.0023428509011864662,0.0014726463705301285
1690838950476643600,5.0866435546875,0.00032324856147170067,0.0013377529103308916,-0.0013113915920257568
1690838950486683600,5.09668359375,-0.0008583958260715008,-0.0006819884292781353,-0.0031574945896863937
1690838950496724500,5.106724365234375,0.001396058825775981,0.002212868770584464,-0.00310424342751503
1690838950506764300,5.116764404296875,0.0009142928756773472,0.0011715727159753442,-0.00286269374191761
1690838950516804400,5.126804443359375,0.0009761019609868526,-0.0011789561249315739,-0.0018516983836889267
1690838950526875400,5.13687548828125,0.0007044593803584576,0.0012530426029115915,-0.001004813238978386
1690838950536915500,5.14691552734375,0.0016721740830689669,0.00048627739306539297,-0.001364395022392273
1690838950546956500,5.15695654296875,-0.001714301761239767,0.0022668668534606695,0.00012404471635818481
1690838950556996600,5.16699658203125,0.0008638775907456875,-0.0012236132752150297,-0.0012337174266576767
1690838950567036700,5.17703662109375,-0.00006529921665787697,0.00010716845281422138,-0.00040866993367671967
1690838950577076500,5.187076416015625,-0.0005176635459065437,-0.0004997602663934231,-0.0014113690704107285
1690838950587117300,5.197117431640625,-0.00033576972782611847,-0.000051283976063132286,0.000379340723156929
1690838950597157400,5.207157470703125,0.001229261513799429,0.0012953435070812702,-0.00021110102534294128
1690838950607197400,5.217197509765625,0.0009243295062333345,0.0010322232265025377,0.0002775881439447403
1690838950617238500,5.227238525390625,-0.0002061566337943077,0.0015409765765070915,0.001285601407289505
1690838950627278600,5.237278564453125,0.0006662951782345772,0.0009361727861687541,0.0018824152648448944
1690838950637318700,5.247318603515625,-0.0009207776747643948,-0.0005110176280140877,0.0015703178942203522
1690838950647358500,5.2573583984375,-0.0010864264331758022,0.001674905070103705,0.002749832347035408
1690838950657399300,5.2673994140625,-0.00013317260891199112,-0.001052099047228694,-0.0002746526151895523
1690838950667439400,5.277439453125,0.00020558107644319534,0.0007007935782894492,-0.0016650892794132233
1690838950677479400,5.2874794921875,0.0009741622488945723,0.00003651110455393791,-0.0012172628194093704
1690838950687550500,5.297550537109375,0.0006007873453199863,0.0009816669626161456,-0.0038018599152565002
1690838950697590500,5.307590576171875,0.001603906275704503,-0.0008476041257381439,-0.00303078256547451
1690838950707631600,5.317631591796875,0.0018864674493670464,0.00045361637603491545,-0.003935724496841431
1690838950717671700,5.327671630859375,-0.0001068231649696827,0.0008947496535256505,-0.0023538097739219666
1690838950727711500,5.33771142578125,-0.00030922330915927887,-0.0014192711096256971,-0.0024803094565868378
1690838950737751600,5.34775146484375,-0.00014429865404963493,-0.0008485098369419575,-0.0002546403557062149
1690838950747792400,5.35779248046875,0.0008735614828765392,0.0004417917225509882,-0.00029671937227249146
1690838950757832400,5.36783251953125,-0.00038265669718384743,0.0018062690505757928,0.0016718655824661255
1690838950767872500,5.37787255859375,-0.0007038339972496033,0.0011474029161036015,0.0006233789026737213
1690838950777913600,5.38791357421875,-0.00010409345850348473,-0.0014107166789472103,0.00048667192459106445
1690838950787953700,5.39795361328125,-0.0003605559468269348,-0.00037288269959390163,-0.002520037814974785
1690838950797993500,5.407993408203125,-0.00022105546668171883,-0.0012244503013789654,0.0005134604871273041
1690838950808033500,5.418033447265625,0.0028477052692323923,-0.002570678247138858,-0.0009100008755922318
1690838950818074400,5.428074462890625,0.0014433746691793203,0.0008249515667557716,-0.0035047922283411026
1690838950828114400,5.438114501953125,-0.00042216992005705833,-0.0016200966201722622,-0.000282900407910347
1690838950838154500,5.448154541015625,0.0009127815719693899,-0.0024861565325409174,0.0013203229755163193
1690838950848225500,5.4582255859375,-0.0016798055730760098,0.0008475884096696973,0.0012279115617275238
1690838950858265600,5.468265625,-0.0009703771211206913,-0.0003574141301214695,0.0013817138969898224
1690838950868306700,5.478306640625,0.0001649283803999424,0.0014561985153704882,0.0008325688540935516
1690838950878346500,5.488346435546875,-0.00041223829612135887,0.00016716867685317993,0.002839900553226471
1690838950888386600,5.498386474609375,0.0006399764679372311,-0.0011718686437234282,0.0005620978772640228
1690838950898426600,5.508426513671875,-0.0009615379385650158,-0.001189657486975193,0.00020814687013626099
1690838950908467500,5.518467529296875,-0.0007117334753274918,-0.0017182950396090746,0.00012745335698127747
1690838950918507500,5.528507568359375,0.0011408040300011635,-0.00021091068629175425,-0.0002537090331315994
1690838950928547600,5.538547607421875,-0.0006778687238693237,-0.0000745569122955203,0.0006967727094888687
1690838950938588700,5.548588623046875,-0.0009721363894641399,0.0005887767765671015,0.0010460913181304932
1690838950948628500,5.55862841796875,-0.0002701273187994957,0.0006681389641016722,0.0012860409915447235
1690838950958668500,5.56866845703125,0.00023151608183979988,-0.00134135945700109,0.00048664212226867676
1690838950968708600,5.57870849609375,-0.0007019219920039177,-0.0010721138678491116,-0.00017302297055721283
1690838950978749400,5.58874951171875,0.000841143075376749,-0.0008131989743560553,0.0004062168300151825
1690838950988789500,5.59878955078125,-0.0005274554714560509,-0.0009415633976459503,-0.0019362997263669968
1690838950998829600,5.60882958984375,-0.0005968613550066948,-0.0017046721186488867,-0.0012275688350200653
1690838951008900600,5.618900634765625,0.0016662930138409138,0.00004502478986978531,-0.0032877903431653976
1690838951018940400,5.6289404296875,0.0001882375217974186,0.0008436074713245034,-0.0012562442570924759
1690838951028981500,5.6389814453125,0.0004652063362300396,0.00045931327622383833,-0.0013124365359544754
1690838951039021600,5.649021484375,-0.0019291061908006668,0.0006261318922042847,0.0020832717418670654
1690838951049061600,5.6590615234375,0.0004008933901786804,-0.00031822489108890295,0.0002286471426486969
1690838951059102500,5.6691025390625,-0.0008347285911440849,-0.00021550734527409077,0.0005283746868371964
1690838951069131000,5.679131103515625,0.0008968587499111891,0.00011179526336491108,0.0025963205844163895
1690838951079171000,5.689171142578125,-0.00035539641976356506,0.00023733137641102076,0.0030627138912677765
1690838951089211100,5.699211181640625,-0.00039001740515232086,-0.0006028958596289158,0.0018592309206724167
1690838951099252200,5.709252197265625,-0.00011474313214421272,-0.0005490842740982771,-0.0013869702816009521
1690838951109292300,5.719292236328125,0.0007936614565551281,-0.0006769159808754921,0.0007323715835809708
1690838951119332000,5.72933203125,-0.0002867644652724266,-0.0005120742134749889,0.00037766434252262115
1690838951129372200,5.7393720703125,-0.0002904930151998997,-0.00014748750254511833,-0.0005941223353147507
1690838951139413000,5.7494130859375,-0.00033625029027462006,-0.001957434695214033,-0.0027010031044483185
1690838951149453000,5.759453125,0.001398799242451787,-0.00008576503023505211,-0.0013076364994049072
1690838951159493000,5.7694931640625,0.002072858391329646,0.0005801169900223613,0.0017444044351577759
1690838951169564200,5.779564208984375,0.0004656407982110977,0.0008253941778093576,-0.00021941028535366058
1690838951179604200,5.789604248046875,0.00012545054778456688,0.00038966606371104717,0.0012379437685012817
1690838951189645300,5.799645263671875,0.0008650100789964199,0.00041603134013712406,0.0007468573749065399
1690838951199685000,5.80968505859375,-0.00001030927523970604,0.0018167274538427591,0.0013517923653125763
1690838951209725200,5.81972509765625,-0.0008263019844889641,-0.00018117588479071856,0.00011768192052841187
1690838951219766000,5.82976611328125,0.0004514353349804878,0.000533582060597837,0.00008417852222919464
1690838951229806000,5.83980615234375,0.001369160832837224,0.00003636989276856184,-0.0000841338187456131
1690838951239846100,5.84984619140625,0.0009354595094919205,0.0008627931820228696,0.0003041215240955353
1690838951249886200,5.85988623046875,0.0009599605109542608,-0.0012533545959740877,7.860362529754639e-7
1690838951259927300,5.86992724609375,0.002066755900159478,0.0010560187511146069,0.0004239790141582489
1690838951269967000,5.879967041015625,-0.0003050551749765873,-0.0018068794161081314,-0.00015206262469291687
1690838951280007200,5.890007080078125,-0.00044717220589518547,-0.0011972390348091722,0.0011022668331861496
1690838951290048000,5.900048095703125,-0.0013092374429106712,-0.0011298611061647534,-0.0014612916857004166
1690838951300088000,5.910088134765625,0.0006496994756162167,0.0009706799755804241,-0.0002779196947813034
1690838951310128000,5.920128173828125,-0.000497590284794569,0.0002846496645361185,-0.0002054814249277115
1690838951320168200,5.930168212890625,-0.00009432528167963028,0.0008968259207904339,-0.00004246272146701813
1690838951330239200,5.9402392578125,0.0003064805641770363,-0.0006747053703293204,-0.0016869641840457916
1690838951340279000,5.950279052734375,-0.0007142960093915462,0.003325236029922962,-0.000234873965382576
1690838951350320000,5.960320068359375,0.00045563047751784325,-0.0002828144934028387,0.000662878155708313
1690838951360360200,5.970360107421875,-0.000766717828810215,-0.00022873631678521633,-0.0004085507243871689
1690838951370400300,5.980400146484375,0.0006255828775465488,-0.001509983092546463,-0.0007073581218719482
1690838951380441000,5.990441162109375,-0.0008810795843601227,-0.0011438548099249601,-0.0008471272885799408
1690838951390481200,6.000481201171875,0.00006727222353219986,-0.0011268106754869223,0.0002900436520576477
1690838951400521200,6.010521240234375,-0.0015360158868134022,-0.0010489714331924915,-0.0014808978885412216
1690838951410561000,6.02056103515625,0.000218207947909832,0.0013318946585059166,-0.0013930145651102066
1690838951420602000,6.03060205078125,-0.0009613963775336742,0.0014794657472521067,0.0021552927792072296
1690838951430642200,6.04064208984375,-0.0006266371347010136,0.0010451043490320444,0.0006926842033863068
1690838951440682200,6.05068212890625,0.000320380087941885,-0.0001232563517987728,0.00017901882529258728
1690838951450723000,6.06072314453125,-0.00012623192742466927,-0.0025400749873369932,-0.0004644002765417099
1690838951460763100,6.07076318359375,-0.0009774561040103436,-0.0004536719061434269,0.0009762514382600784
1690838951470803200,6.08080322265625,-0.0007811812683939934,-0.0009306441061198711,0.000588495284318924
1690838951480843300,6.09084326171875,-0.00012064678594470024,-0.0008188518695533276,0.000623578205704689
1690838951490914000,6.1009140625,-0.0004878966137766838,0.0012219283962622285,0.001064065843820572
1690838951500955100,6.110955078125,0.0011041949037462473,0.000302855740301311,-0.00010160356760025024
1690838951510995200,6.1209951171875,-0.0009584231302142143,-0.0002635987475514412,0.0006715115159749985
1690838951521035300,6.13103515625,-0.00019756564870476723,-0.000013094628229737282,-0.002492224797606468
1690838951531075300,6.141075439453125,0.001831762958317995,0.00046414381358772516,0.0004002358764410019
1690838951541116200,6.1511162109375,0.00008297571912407875,-0.00006965664215385914,-0.00047038495540618896
1690838951551156200,6.16115625,-0.00016256747767329216,0.0010962752858176827,0.0009791720658540726
1690838951561196000,6.171196044921875,-0.00003935582935810089,-0.0003806308377534151,0.00036590732634067535
1690838951571237000,6.181237060546875,-0.0000241757370531559,0.0011474909260869026,0.0001667030155658722
1690838951581277200,6.191277099609375,0.00001392420381307602,-0.0010934616439044476,0.0012321360409259796
1690838951591317200,6.201317138671875,-0.00010778242722153664,0.00019897043239325285,0.0024374835193157196
1690838951601357300,6.211357421875,-0.000861035194247961,-0.0009413999505341053,0.0012611988931894302
1690838951611398100,6.221398193359375,-0.0001499713398516178,-0.0009741568937897682,0.00008141808211803436
1690838951621438200,6.231438232421875,-0.00011595571413636208,-0.0002688099630177021,0.00022212043404579163
1690838951631478300,6.241478271484375,-0.00018200231716036797,0.000543187721632421,-0.0011222437024116516
1690838951641518000,6.25151806640625,0.0003086421638727188,-0.0007506613619625568,0.0005672797560691833
1690838951651589000,6.261589111328125,-0.0013829977251589298,-0.0013453452847898006,-0.000275343656539917
1690838951661630200,6.271630126953125,0.0002448679879307747,0.0008314993465319276,-0.0005022119730710983
1690838951671670300,6.281670166015625,-0.0016318620182573795,-0.0007711909711360931,-0.0011791884899139404
1690838951681710300,6.29171044921875,0.00008941395208239555,0.00032249512150883675,-0.00021983683109283447
1690838951691750400,6.30175048828125,-0.0004682522267103195,-0.0008479640819132328,0.0008012186735868454
1690838951701791200,6.311791259765625,0.000715513713657856,-0.0010247761383652687,-0.0010017193853855133
1690838951711831000,6.3218310546875,0.0005043251439929008,0.0005906972801312804,0.0007836651057004929
1690838951721871000,6.33187109375,0.0009267206769436598,0.0019748820923268795,0.0013581663370132446
1690838951731912200,6.341912109375,0.0002279072068631649,-0.0018661951180547476,0.001425277441740036
1690838951741952300,6.3519521484375,-0.0014546173624694347,-0.0006041049491614103,0.00021273083984851837
1690838951751992300,6.361992431640625,0.0002412833273410797,0.0018657105974853039,0.0011698715388774872
1690838951762032400,6.372032470703125,-0.0009545269422233105,0.002111835405230522,-0.001349233090877533
1690838951772073200,6.3820732421875,0.00014722300693392754,0.0014250061940401793,0.00006570294499397278
1690838951782113000,6.392113037109375,0.00041422899812459946,-0.0007638328243046999,-0.0015707612037658691
1690838951792153000,6.402153076171875,-0.0009655547328293324,-0.0005699547473341227,0.0008282158523797989
1690838951802194200,6.412194091796875,0.0003553507849574089,-0.0015516404528170824,0.00153360515832901
1690838951812264200,6.42226416015625,-0.00012987712398171425,-0.001383594935759902,-0.00037268735468387604
1690838951822305300,6.43230517578125,-0.00008931569755077362,-0.001756045501679182,0.0015936680138111115
1690838951832345300,6.442345458984375,-0.0019324892200529575,-0.0018910677172243595,0.0008117649704217911
1690838951842385400,6.452385498046875,0.0007681366987526417,-0.0012738045770674944,0.002293439581990242
1690838951852425200,6.46242529296875,-0.0009980713948607445,-0.0005046834703534842,-0.000028038397431373596
1690838951862466000,6.472466064453125,0.000052442774176597595,0.00017055368516594172,-0.00015301257371902466
1690838951872506000,6.482506103515625,0.0007027867250144482,0.00118308758828789,-0.0013775341212749481
1690838951882546200,6.492546142578125,0.00004951423034071922,0.0009032313246279955,0.0012155883014202118
1690838951892587300,6.502587158203125,-0.0004101474769413471,0.001368485507555306,-0.0004645995795726776
1690838951902627300,6.51262744140625,0.00019676843658089638,-0.0006420791614800692,-0.0002479385584592819
1690838951912667400,6.52266748046875,-0.00042348168790340424,-0.0000910712406039238,-0.0001296941190958023
1690838951922707200,6.532707275390625,0.0005960641428828239,-0.001775319455191493,-0.000346185639500618
1690838951932748000,6.542748046875,-0.002042329404503107,-0.0010602606926113367,-0.0003373976796865463
1690838951942788000,6.5527880859375,-0.0006119539029896259,-0.0006763821002095938,-0.000310773029923439
1690838951952828200,6.562828125,0.00032361457124352455,-0.0005501483101397753,-0.00012568198144435883
1690838951962869200,6.572869140625,-0.0007542255334556103,-0.00017086835578083992,-0.0009103789925575256
1690838951972939300,6.582939208984375,-0.0005196011625230312,0.00036868813913315535,0.00023664534091949463
1690838951982980400,6.59298046875,-0.0007520765066146851,0.0005186379421502352,0.00021000206470489502
1690838951993020400,6.6030205078125,-0.00027830014005303383,-0.00012478185817599297,0.00033543631434440613
1690838952003060200,6.613060302734375,0.00039238063618540764,0.0018649131525307894,-0.00018519721925258636
1690838952013101000,6.62310107421875,-0.0001841937191784382,0.0003671514568850398,0.0009109601378440857
1690838952023141000,6.63314111328125,-0.0013153981417417526,0.0002298521576449275,0.0013356059789657593
1690838952033181200,6.64318115234375,0.0007711886428296566,-0.0017243754118680954,0.0003430452197790146
1690838952043221200,6.65322119140625,-0.0006678556092083454,-0.0004192695487290621,-0.00047189928591251373
1690838952053262300,6.663262451171875,0.000552937388420105,-0.0016824069898575544,-0.0009078588336706161
1690838952063302400,6.673302490234375,-0.0004331972450017929,-0.00013624527491629124,0.0001327376812696457
1690838952073332000,6.68333203125,-0.0019594551995396614,0.000008364208042621613,-0.0006678085774183273
1690838952083373000,6.693373046875,-0.008356966078281403,0.06355663388967514,0.14642317593097687
1690838952093413000,6.7034130859375,0.04269237071275711,-0.28372275829315186,0.06118897348642349
1690838952103453200,6.713453125,0.002752670319750905,0.013041719794273376,-0.05435366928577423
1690838952113493000,6.723492919921875,-0.002996295690536499,0.018694013357162476,-0.07919083535671234
1690838952123534000,6.7335341796875,-0.008430758491158485,0.04513001814484596,-0.11903254687786102
1690838952133604000,6.74360400390625,-0.009266724810004234,0.03452451154589653,-0.12099955976009369
1690838952143645000,6.75364501953125,-0.003026281949132681,0.025362206622958183,-0.1084689199924469
1690838952153685000,6.76368505859375,0.0043264394626021385,0.01538920123130083,-0.09316080063581467
1690838952163725000,6.77372509765625,0.009872471913695335,0.005832447670400143,-0.07057586312294006
1690838952173766100,6.78376611328125,0.008538494817912579,-0.004887574817985296,-0.044710978865623474
1690838952183806200,6.79380615234375,0.004703285172581673,-0.01479604933410883,-0.020664457231760025
1690838952193846000,6.803845947265625,0.000315194483846426,-0.01880251057446003,0.005901907570660114
1690838952203886000,6.813885986328125,-0.0047310939989984035,-0.019336054101586342,0.028507903218269348
1690838952213927000,6.823927001953125,-0.008011309430003166,-0.010260535404086113,0.05283880978822708
1690838952223967000,6.833967041015625,-0.005142638459801674,-0.003195141674950719,0.0722302794456482
1690838952234007000,6.844007080078125,-0.003121566027402878,0.004142932128161192,0.08373912423849106
1690838952244048100,6.854048095703125,0.0022389169316738844,0.005302855744957924,0.08840926736593246
1690838952254088200,6.864088134765625,0.003543599508702755,0.008270150050520897,0.09021595865488052
1690838952264128000,6.8741279296875,0.004037823993712664,0.0007589772576466203,0.08213488757610321
1690838952274168000,6.88416796875,0.0005498817190527916,-0.003552946960553527,0.0680512934923172
1690838952284209000,6.894208984375,-0.0023441286757588387,-0.009173138998448849,0.05351085215806961
1690838952294279200,6.904279052734375,-0.004543366841971874,-0.010220027528703213,0.03436245769262314
1690838952304320000,6.914320068359375,-0.003653616178780794,-0.010999887250363827,0.01443428173661232
1690838952314360000,6.924360107421875,-0.0018812818452715874,-0.008059225045144558,-0.008291004225611687
1690838952324399900,6.93439990234375,0.0016683908179402351,0.0015406864695250988,-0.02893931046128273
1690838952334441000,6.94444091796875,0.0033437854144722223,0.008914180099964142,-0.04399895295500755
1690838952344481000,6.95448095703125,0.003912814427167177,0.013174459338188171,-0.05527828633785248
1690838952354521000,6.96452099609375,0.001850462518632412,0.013639180921018124,-0.06361690908670425
1690838952364561200,6.97456103515625,-0.0009663775563240051,0.011458192020654678,-0.06650912761688232
1690838952374602000,6.98460205078125,-0.0025277892127633095,0.005408289842307568,-0.06689155846834183
1690838952384642000,6.99464208984375,-0.0008486299775540829,0.0034903378691524267,-0.058934953063726425
1690838952394682000,7.00468212890625,0.000446464866399765,-0.0009781799744814634,-0.04992574825882912
1690838952404723200,7.01472314453125,0.002677359152585268,-0.00586087629199028,-0.03772488981485367
1690838952414763000,7.024762939453125,0.0016440527979284525,-0.005077906884253025,-0.02251637540757656
1690838952424803000,7.034802978515625,0.0009623551741242409,-0.004551549442112446,-0.007064953446388245
1690838952434843100,7.044843017578125,0.0021242923103272915,-0.00038902880623936653,0.006987748667597771
1690838952444884000,7.054884033203125,-0.0008419002406299114,0.0008512650383636355,0.02116735838353634
1690838952454955000,7.064955078125,-0.0024632327258586884,0.0022177330683916807,0.03473243489861488
1690838952464995000,7.0749951171875,-0.002102395985275507,0.002610613824799657,0.04277587682008743
1690838952475035000,7.085034912109375,-0.0012350045144557953,0.002153349108994007,0.047008171677589417
1690838952485075000,7.095074951171875,0.0008294424042105675,-0.0013783273752778769,0.05207202583551407
1690838952495116000,7.105115966796875,0.0008776457980275154,0.0003601841162890196,0.04610095173120499
1690838952505156000,7.115156005859375,0.001970411976799369,-0.005079204216599464,0.04126468300819397
1690838952515196200,7.125196044921875,-0.0010754452086985111,-0.007737837731838226,0.035085614770650864
1690838952525237000,7.135237060546875,-0.00040599796921014786,-0.004932848270982504,0.023705365136265755
1690838952535277000,7.145277099609375,-0.001959952525794506,-0.003550401423126459,0.015113475732505322
1690838952545317000,7.155317138671875,-0.000363366212695837,-0.002372551243752241,0.0026523880660533905
1690838952555357000,7.16535693359375,0.0002835155464708805,0.0022237985394895077,-0.009882312268018723
1690838952565398000,7.17539794921875,-0.0026992815546691418,0.0036323536187410355,-0.01821107603609562
1690838952575438000,7.18543798828125,0.0012328755110502243,0.005019860342144966,-0.027399780228734016
1690838952585478100,7.19547802734375,0.0002299649640917778,0.004725637845695019,-0.03177546709775925
1690838952595519000,7.20551904296875,0.00115301669575274,0.0032699541188776493,-0.035855695605278015
1690838952605559000,7.21555908203125,-0.0011017159558832645,0.0030179214663803577,-0.03684624284505844
1690838952615630000,7.225630126953125,0.0003467770293354988,0.0016101746587082744,-0.034057386219501495
1690838952625670000,7.235669921875,0.00045370589941740036,-0.0001758516300469637,-0.031111659482121468
1690838952635710000,7.2457099609375,-0.0002594888210296631,0.0005437345243990421,-0.024165870621800423
1690838952645750000,7.25575,0.00186087004840374,0.0006495440611615777,-0.017296429723501205
1690838952655791000,7.265791015625,0.000002782326191663742,-0.0014444994740188122,-0.008971389383077621
1690838952665831200,7.2758310546875,0.0006997464224696159,0.0008454121416434646,0.00006048940122127533
1690838952675871200,7.285871337890625,-0.0008273101411759853,-0.000010261544957756996,0.0079477084800601
1690838952685912000,7.295912109375,-0.00011908728629350662,0.00116017647087574,0.016948437318205833
1690838952695952100,7.3059521484375,-0.0001595676876604557,-0.00034371064975857735,0.020436646416783333
1690838952705992000,7.315991943359375,-0.0008842805400490761,-0.0014979690313339233,0.023516923189163208
1690838952716032000,7.326031982421875,0.0000624731183052063,-0.002479077782481909,0.027791829779744148
1690838952726073000,7.336072998046875,0.0008702958002686501,0.00043439469300210476,0.025890668854117393
1690838952736113200,7.346113037109375,0.000681478064507246,-0.0001624198630452156,0.02213587798178196
1690838952746153200,7.3561533203125,-0.0009602019563317299,-0.0038406862877309322,0.019197432324290276
1690838952756194000,7.366194091796875,0.001917343819513917,-0.0006582087371498346,0.014317190274596214
1690838952766234000,7.376234130859375,-0.002007019240409136,-0.0033183221239596605,0.0061975084245204926
1690838952776305000,7.386304931640625,-0.0012727854773402214,-0.0014652949757874012,0.0017199348658323288
1690838952786345000,7.396344970703125,0.000844715628772974,0.0003708879230543971,-0.0038750004023313522
1690838952796385000,7.406385009765625,-0.0007888674736022949,0.0022734501399099827,-0.01012064516544342
1690838952806425000,7.416425048828125,0.0005805804394185543,0.0011716168373823166,-0.014074711129069328
1690838952816466200,7.426466064453125,-0.0007416792213916779,0.0019500588532537222,-0.016940535977482796
1690838952826506200,7.43650634765625,0.000380080658942461,0.0007668728940188885,-0.02003791183233261
1690838952836546300,7.44654638671875,0.00046796491369605064,-0.00032022944651544094,-0.019156940281391144
1690838952846587100,7.456587158203125,0.001201665960252285,0.001166879665106535,-0.018860794603824615
1690838952856627000,7.466626953125,-0.00038957269862294197,0.0012651503784582019,-0.015734244138002396
1690838952866667000,7.4766669921875,-0.0008548996411263943,0.00044850935228168964,-0.012709453701972961
1690838952876707000,7.48670703125,0.0008708285167813301,0.0029356353916227818,-0.00891844555735588
1690838952886748200,7.496748046875,0.0005744188092648983,0.002060254570096731,-0.0031628217548131943
1690838952896788200,7.506788330078125,0.0016745706088840961,-0.0006654909811913967,-0.0021156668663024902
1690838952906828300,7.516828369140625,-0.0008019865490496159,-0.0013697466347366571,0.0019773170351982117
1690838952916869000,7.526869140625,-0.00027041975408792496,0.0009469371289014816,0.008898072876036167
1690838952926909000,7.536908935546875,-0.0011774632148444653,-0.0005603870376944542,0.011020281352102757
1690838952936980000,7.54697998046875,-0.0019132946617901325,-0.0027124874759465456,0.013906881213188171
1690838952947020000,7.55702001953125,0.0006732931360602379,-0.0025287894532084465,0.014664631336927414
1690838952957060000,7.56706005859375,-0.00017146160826086998,-0.002696035895496607,0.01741940528154373
1690838952967101200,7.57710107421875,-0.0007289545610547066,-0.0007303562015295029,0.014925397001206875
1690838952977141200,7.587141357421875,-0.001993956044316292,-0.0007897447794675827,0.012512306682765484
1690838952987181000,7.59718115234375,0.0010532084852457047,0.0021854822989553213,0.00998721644282341
1690838952997221000,7.60722119140625,-0.0007116682827472687,0.0015513836406171322,0.004463819786906242
1690838953007262000,7.617261962890625,0.0007513337768614292,0.0024267053231596947,-0.000017095357179641724
1690838953017302000,7.627302001953125,0.00016943318769335747,0.0008844689000397921,-0.005550345405936241
1690838953027342000,7.637342041015625,0.00004832493141293526,0.0024515585973858833,-0.006365465000271797
1690838953037383200,7.647383056640625,0.001047010300680995,0.0003990603145211935,-0.01204013079404831
1690838953047423200,7.65742333984375,0.0008202353492379189,0.00012046727351844311,-0.012060826644301414
1690838953057463300,7.66746337890625,0.0003440622240304947,0.0019196989014744759,-0.013303456827998161
1690838953067502800,7.6775029296875,-0.000489559955894947,-0.0015691581647843122,-0.013550098985433578
1690838953077561900,7.687561767578125,-0.000723118893802166,-0.0007507686968892813,-0.01180599257349968
1690838953087602000,7.697601806640625,-0.0008054282516241074,0.002112568123266101,-0.009778883308172226
1690838953097673000,7.7076728515625,0.0006214934401214123,0.0028145774267613888,-0.007801219820976257
1690838953107713000,7.717713134765625,0.000030881259590387344,0.0008282127091661096,-0.004126524552702904
1690838953117752800,7.7277529296875,0.0005046576261520386,0.0010077097686007619,-0.003736104816198349
1690838953127793700,7.737793701171875,0.0006339810788631439,0.0023876274935901165,0.002375354990363121
1690838953137833700,7.747833740234375,-0.000026749446988105774,-0.0005399854853749275,0.003979641944169998
1690838953147873800,7.757873779296875,-0.00015654275193810463,0.0010040707420557737,0.008933926932513714
1690838953157913900,7.767913818359375,0.00027196016162633896,-0.00161328399553895,0.009884675964713097
1690838953167955000,7.777954833984375,0.0006424938328564167,-0.0010296017862856388,0.009704092517495155
1690838953177995000,7.7879951171875,-0.0003053252585232258,-0.0007281319703906775,0.01129399985074997
1690838953188035000,7.79803515625,-0.00007305899634957314,-0.0009410411585122347,0.00919665303081274
1690838953198076000,7.808075927734375,0.00015916861593723297,0.0009511347161605954,0.007797162048518658
1690838953208115700,7.81811572265625,-0.000179327093064785,0.00230810372158885,0.005955480970442295
1690838953218155800,7.82815576171875,0.0006968528032302856,0.0021845330484211445,0.0035256128758192062
1690838953228195800,7.83819580078125,-0.0008893683552742004,-0.0004860868211835623,-0.0026686768978834152
1690838953238237000,7.84823681640625,0.0009639251511543989,0.0008492220658808947,-0.0030926521867513657
1690838953248277000,7.858277099609375,0.00021273083984851837,0.0001347323413938284,-0.004936635494232178
1690838953258348000,7.86834814453125,0.0006383038125932217,-0.001321217743679881,-0.0068663619458675385
1690838953268387800,7.878387939453125,0.000358077697455883,-0.00231611798517406,-0.00523982010781765
1690838953278428000,7.888427978515625,-0.00005710870027542114,-0.0007275424432009459,-0.006361810490489006
1690838953288468700,7.89846875,0.0008326689712703228,0.0005132501246407628,-0.005233822390437126
1690838953298508800,7.9085087890625,0.0009823387954384089,0.0012565384386107326,-0.007985668256878853
1690838953308548900,7.918548828125,0.000813694205135107,0.0018208955880254507,-0.006876718252897263
1690838953318589000,7.9285888671875,-0.0002294657751917839,0.0017615071265026927,-0.003815680742263794
1690838953328630000,7.938630126953125,-0.0003414587117731571,0.004323734436184168,-0.0037650801241397858
1690838953338670000,7.948670166015625,-0.0018932828679680824,0.0031743140425533056,-0.0031831804662942886
1690838953348710000,7.9587099609375,0.0007328693754971027,0.00048096594400703907,-0.00043223053216934204
1690838953358750700,7.968750732421875,0.0007970514707267284,0.0009379643015563488,0.000146474689245224
1690838953368790800,7.978790771484375,-0.0007391315884888172,-0.0025352106895297766,0.0016969870775938034
1690838953378830800,7.988830810546875,-0.00011595198884606361,-0.0035735771525651217,0.0027191098779439926
1690838953388871000,7.998870849609375,0.00061007309705019,-0.0022374691907316446,0.006054718047380447
1690838953398912000,8.008912109375,0.00015866709873080254,-0.0036329657305032015,0.006035277619957924
1690838953408952000,8.0189521484375,0.00017262203618884087,0.00007749698124825954,0.0061670830473303795
1690838953419022800,8.02902294921875,0.00042508961632847786,0.00016351707745343447,0.004300739616155624
1690838953429063000,8.03906298828125,-0.00039640767499804497,0.0031009609811007977,0.002766026183962822
1690838953439103000,8.04910302734375,-0.0010936232283711433,0.0005089064361527562,0.0018392447382211685
1690838953449143800,8.059143798828124,-0.0006574164144694805,0.0006869781063869596,0.0034386496990919113
1690838953459183900,8.069183837890625,-0.0017008427530527115,0.002383944345638156,0.0013051927089691162
1690838953469224000,8.079223876953124,0.0009689584840089083,0.001013508765026927,0.0000965707004070282
1690838953479265000,8.08926513671875,0.00029624393209815025,-0.0028880222234874964,-0.0035929717123508453
1690838953489304800,8.099304931640624,0.0002628816291689873,-0.0010810673702508211,-0.0023764390498399734
1690838953499345000,8.109344970703125,-0.0004809391684830189,-0.0029026695992797613,-0.004023071378469467
1690838953509385000,8.119385009765624,0.00011087814345955849,-0.00005850149318575859,-0.006152372807264328
1690838953519425800,8.12942578125,0.0009210119023919106,-0.0001421249471604824,-0.005422135815024376
1690838953529465900,8.1394658203125,-0.000979921780526638,0.0006164981750771403,-0.005813080817461014
1690838953539506000,8.149505859375,-0.000435038935393095,0.0008484594291076064,-0.002896387130022049
1690838953549547000,8.159547119140624,0.0007879221811890602,0.0020403400994837284,-0.004630608484148979
1690838953559587000,8.169587158203125,-0.0007279487326741219,0.002488283673301339,-0.0019227061420679092
1690838953569627000,8.179626953125,0.0011578327976167202,0.0004176112124696374,-0.001712227240204811
1690838953579698000,8.189697998046874,0.0005077552050352097,0.0011712857522070408,-0.0000911615788936615
1690838953589738000,8.199738037109375,0.0010259866248816252,-0.0024798475205898285,0.0022269971668720245
1690838953599778000,8.209778076171874,-0.000691486056894064,-0.0007807507645338774,0.0027537699788808823
1690838953609819000,8.21981884765625,0.0015841289423406124,-0.0009845115710049868,0.0032076574862003326
1690838953619859000,8.22985888671875,-0.00014239829033613205,0.0023689407389611006,0.002868371084332466
1690838953629898800,8.239898681640625,-0.0005620606243610382,0.00026214297395199537,0.0032789446413517
1690838953639939800,8.24993994140625,0.0009391633793711662,0.0020653693936765194,0.002432059496641159
1690838953649980000,8.25997998046875,-0.0009726495482027531,0.001721054664812982,0.0001925043761730194
1690838953660020000,8.27002001953125,-0.0009420234709978104,0.0019455591682344675,-0.0004892647266387939
1690838953670060000,8.28006005859375,-0.00019798427820205688,-0.0005171268712729216,-0.00018813833594322205
1690838953680100900,8.290100830078124,0.0010835290886461735,0.0020962331909686327,-0.00017988309264183044
1690838953690141000,8.300140869140625,0.0009625363163650036,-0.00014688773080706596,-0.0013478044420480728
1690838953700181000,8.310180908203124,0.00021472061052918434,-0.0008707349188625813,-0.0012655127793550491
1690838953710222000,8.32022216796875,-0.0008679758757352829,-0.0011924447026103735,-0.0005797483026981354
1690838953720262000,8.330261962890624,0.0007277904078364372,0.00014925573486834764,-0.0018687192350625992
1690838953730302000,8.340302001953125,-0.00025715818628668785,-0.0028222419787198305,-0.0035218652337789536
1690838953740373000,8.350373046875,-0.00038978317752480507,-0.0000749251339584589,-0.0019953418523073196
1690838953750413000,8.3604130859375,0.00091524887830019,0.0005918133538216352,-0.0017844382673501968
1690838953760452900,8.370452880859375,0.0009520004969090223,0.0015236535109579563,-0.0001346096396446228
1690838953770494000,8.380493896484374,-0.001696284394711256,0.0016288168262690306,-0.0006381738930940628
1690838953780533800,8.39053369140625,-0.0007852166891098022,0.0031428239308297634,-0.000332709401845932
1690838953790573800,8.40057373046875,-0.00080085638910532,0.00021530338563024998,0.00018105283379554749
1690838953800615000,8.410614990234375,-0.0012083197943866253,-0.0007144061382859945,0.0010380595922470093
1690838953810655000,8.420655029296874,0.0008850032463669777,-0.00166897545568645,0.0016830377280712128
1690838953820695000,8.430695068359375,0.0005249441601336002,-0.00016988208517432213,0.002238307148218155
1690838953830734800,8.44073486328125,-0.0006236126646399498,-0.0022509342525154352,-0.00015974603593349457
1690838953840776000,8.45077587890625,-0.00039484724402427673,-0.00257983454503119,0.0013542622327804565
1690838953850816000,8.46081591796875,-0.0007412359118461609,-0.0019235131330788136,0.0032901298254728317
1690838953860855800,8.470855712890625,0.0009349577594548464,-0.001446807524189353,0.00213511660695076
1690838953870897000,8.48089697265625,-0.0011203009635210037,-0.000014404766261577606,0.001363338902592659
1690838953880937000,8.49093701171875,0.0010182172991335392,-0.0005198726430535316,0.0014719963073730469
1690838953890977000,8.50097705078125,-0.00016094278544187546,0.0039542606100440025,0.0028583724051713943
1690838953901048000,8.511048095703124,0.000253977719694376,-0.0005328995175659657,0.0023414529860019684
1690838953911087900,8.521087890625,-0.00043233903124928474,0.000356537289917469,-0.0006614532321691513
1690838953921129000,8.53112890625,-0.000861107837408781,0.00028116977773606777,-0.0007586590945720673
1690838953931168800,8.541168701171875,0.00022696051746606827,0.0006295408820733428,-0.0008356552571058273
1690838953941208800,8.551208740234374,0.0006682462990283966,-0.002055458026006818,-0.00127481110394001
1690838953951249000,8.561248779296875,-0.0002748551778495312,0.0008381557418033481,-0.0019381027668714523
1690838953961290000,8.5712900390625,-0.0007699369452893734,0.0007172483019530773,-0.002106146886944771
1690838953971330000,8.581330078125,0.000938440440222621,-0.001127283088862896,-0.002667739987373352
1690838953981369900,8.591369873046874,-0.00007196282967925072,-0.0016018582973629236,-0.00241207517683506
1690838953991411000,8.601410888671875,0.0000920221209526062,-0.0004363998305052519,-0.002192750573158264
1690838954001451000,8.611450927734374,-0.0015804427675902843,0.0013729518977925181,0.002327166497707367
1690838954011490800,8.62149072265625,-0.0004967418499290943,0.0017754391301423311,-0.001483481377363205
1690838954021531000,8.63153076171875,0.0006356346420943737,0.0006694283802062273,0.0023994073271751404
1690838954031572000,8.641572021484375,0.00035584671422839165,0.0014994784723967314,-0.0011752303689718246
1690838954041612000,8.651612060546874,0.0006370763294398785,-0.0007399737369269133,0.0005640797317028046
1690838954051651800,8.66165185546875,-0.00014487886801362038,-0.0016611611936241388,-0.0010247621685266495
1690838954061723000,8.671722900390625,0.0014375713653862476,-0.0010009633842855692,0.0012210812419652939
1690838954071743000,8.681742919921875,0.00013155117630958557,0.000006782589480280876,0.0014748945832252502
1690838954081784000,8.6917841796875,-0.0000820341520011425,-0.0006877696141600609,0.00037607550621032715
1690838954091824000,8.70182421875,0.0008881138637661934,0.0001797623699530959,-0.00007270276546478271
1690838954101864200,8.7118642578125,-0.000028013717383146286,0.001022120239213109,-0.0001549944281578064
1690838954111904000,8.721904052734375,-0.0009350287728011608,0.0012805401347577572,0.001701056957244873
1690838954121945000,8.731945068359375,0.0010556841734796762,0.0014395308680832386,0.0012499168515205383
1690838954131985000,8.74198486328125,0.0010591568425297737,0.00031148851849138737,0.0006211530417203903
1690838954142025000,8.75202490234375,0.0009265313856303692,-0.00007387087680399418,-0.0018611792474985123
1690838954152066000,8.762066162109376,0.0008949001785367727,-0.0002056171651929617,-0.0025264471769332886
1690838954162106000,8.772106201171875,-0.0002454654313623905,0.0006093102274462581,-0.0033980999141931534
1690838954172146200,8.782146240234376,-0.0002985643222928047,0.00027429743204265833,-0.003387726843357086
1690838954182186200,8.792186279296875,0.002128374530002475,0.0010964153334498405,-0.0011408179998397827
1690838954192227000,8.80222705078125,-0.00007890630513429642,-0.0018420408014208078,-0.0007957033812999725
1690838954202267000,8.812266845703125,0.0004910100251436234,0.000537493615411222,0.00034546107053756714
1690838954212307000,8.822306884765625,0.001114710234105587,0.0010408546077087522,-0.0002646520733833313
1690838954222378000,8.8323779296875,-0.0004190043546259403,0.0028709787875413895,0.0009393636137247086
1690838954232418000,8.84241796875,0.000542239286005497,0.0003139384789392352,0.0010787080973386765
1690838954242459100,8.852459228515626,0.0006418414413928986,0.0018330055754631758,0.00013248808681964874
1690838954252499200,8.862499267578125,-0.0015552062541246414,-0.00048045162111520767,-0.001044129952788353
1690838954262539000,8.8725390625,-0.000019094906747341156,-0.0016277413815259933,0.0004227384924888611
1690838954272579000,8.8825791015625,0.0001460895873606205,-0.00014508794993162155,0.00019795820116996765
1690838954282620000,8.892619873046876,0.0000981530174612999,-0.0013621526304632425,0.0014190170913934708
1690838954292660000,8.902659912109375,-0.0005788500420749187,0.0010326936608180404,0.0013402681797742844
1690838954302700000,8.912699951171875,-0.0006816480308771133,0.0007898133480921388,0.0014364086091518402
1690838954312741000,8.9227412109375,-0.0002420465461909771,0.0005084417061880231,0.0013537071645259857
1690838954322781200,8.93278125,-0.0007861303165555,0.002694896887987852,-0.00044818781316280365
1690838954332821200,8.9428212890625,-0.0013140402734279633,0.001702609471976757,0.0002243444323539734
1690838954342861000,8.952861083984375,-0.0002668849192559719,-0.0009235336910933256,0.000970030203461647
1690838954352902000,8.96290185546875,-0.00008338456973433495,0.0004389771493151784,0.0009199753403663635
1690838954362942000,8.97294189453125,0.0007118349894881248,-0.00016476144082844257,-0.0027085822075605392
1690838954372982000,8.98298193359375,0.0003973408602178097,-0.001322839641943574,-0.0018330421298742294
1690838954383053000,8.993052978515625,0.001997900428250432,-0.0009713023900985718,-0.0021174661815166473
1690838954393093000,9.003093017578125,0.0010729299392551184,-0.001817542128264904,-0.000626642256975174
1690838954403134200,9.01313427734375,-0.0012938212603330612,-0.002571749035269022,-0.0012921672314405441
1690838954413174000,9.023174072265626,0.00005656760185956955,0.0001088049029931426,-0.0001042485237121582
1690838954423214000,9.033214111328125,-0.0006142826750874519,-0.001555937109515071,-0.0011266358196735382
1690838954433255000,9.0432548828125,-0.00007953867316246033,0.00016986066475510597,0.0001698024570941925
1690838954443295000,9.053294921875,-0.0011448031291365623,0.0029571251943707466,0.00029470399022102356
1690838954453335000,9.0633349609375,-0.0006987950764596462,-0.0009557413868606091,0.0002562049776315689
1690838954463375000,9.073375,0.00003463961184024811,-0.0005826326087117195,-0.0019329134374856949
1690838954473416200,9.083416259765626,-0.0011068414896726608,-0.0025895023718476295,-0.00006084330379962921
1690838954483456300,9.093456298828125,-0.0006122924387454987,-0.0008392729796469212,0.0011274591088294983
1690838954493496000,9.10349609375,-0.00019404711201786995,0.0006122235208749771,0.0006336160004138947
1690838954503537000,9.113536865234375,-0.0004923208616673946,-0.0004501114599406719,0.002447761595249176
1690838954513577000,9.123576904296876,0.00044615473598241806,0.0022767260670661926,-0.000047963112592697144
1690838954523617000,9.133616943359375,0.0006368369795382023,-0.00044555729255080223,0.00036642514169216156
1690838954533657000,9.143656982421875,-0.0010187402367591858,-0.0007424429059028625,0.0011242274194955826
1690838954543728000,9.15372802734375,-0.0004762541502714157,0.0010384130291640759,-0.0021344181150197983
1690838954553768000,9.163767822265624,-0.00042358366772532463,0.0009562603663653135,0.0010530110448598862
1690838954563809000,9.17380908203125,0.0005402141250669956,-0.0027636431623250246,-0.0010245218873023987
1690838954573849000,9.18384912109375,-0.0005619395524263382,-0.0023224365431815386,0.0013705343008041382
1690838954583889000,9.193888916015625,0.0007035946473479271,-0.0005604892503470182,-0.001366129145026207
1690838954593930000,9.203929931640625,-0.0006553195416927338,-0.0006116346921771765,0.0002539288252592087
1690838954603970000,9.213969970703126,0.000696500763297081,-0.00039298925548791885,0.000022234395146369934
1690838954614010000,9.224010009765625,0.0006990209221839905,0.0006827234756201506,-0.0004292689263820648
1690838954624050200,9.23405029296875,0.0002785078249871731,-0.0008422024548053741,-0.0015424694865942001
1690838954634091300,9.24409130859375,-0.001481426414102316,0.00013629277236759663,0.00014868192374706268
1690838954644131000,9.254131103515626,0.0005020960234105587,-0.00018355296924710274,-0.0015429593622684479
1690838954654171000,9.2641708984375,0.0014906746800988913,-0.00008558295667171478,0.00013913586735725403
1690838954664212000,9.2742119140625,-0.0006486424244940281,0.0006862011505290866,0.0013037361204624176
1690838954674252000,9.284251953125,0.0009487236384302378,-0.0018664353992789984,-0.000413333997130394
1690838954684292000,9.2942919921875,-0.00034504011273384094,-0.0008216775022447109,-0.0012122821062803268
1690838954694332200,9.304332275390625,0.00051922257989645,-0.00009430642239749432,0.0015434660017490387
1690838954704403000,9.31440283203125,-0.00015881797298789024,0.0010758864227682352,0.00010429508984088898
1690838954714444000,9.324444091796876,0.0005588713102042675,0.0003476436249911785,0.00042560137808322906
1690838954724483800,9.33448388671875,-0.00008960813283920288,0.000022471649572253227,0.0015539824962615967
1690838954734524000,9.34452392578125,0.0000863061286509037,0.002011394826695323,-0.0007307212799787521
1690838954744564000,9.35456396484375,0.0005430378951132298,-0.000758026260882616,0.0010013990104198456
1690838954754605000,9.36460498046875,0.0010497230105102062,0.0009811811614781618,0.0010796375572681427
1690838954764645000,9.37464501953125,-0.00021634390577673912,0.0007899662014096975,-0.0037249717861413956
1690838954774685000,9.384684814453125,0.0009614727459847927,0.0013614115305244923,-0.0014355368912220001
1690838954784725000,9.39472509765625,0.0013297877740114927,-0.00010678917169570923,-0.0025846920907497406
1690838954794765800,9.404765869140626,0.0009728493168950081,0.0011668024817481637,-0.004201995208859444
1690838954804806000,9.414805908203125,-0.0008972221985459328,-0.0022577564232051373,-0.00035212934017181396
1690838954814846000,9.424845947265625,-0.0008477545343339443,0.001996845006942749,-0.00010383501648902893
1690838954824887000,9.434886962890625,-0.0009164642542600632,0.0010202638804912567,-0.0026756487786769867
1690838954834927000,9.444927001953126,-0.0021007107570767403,0.0006731642642989755,-0.0012759864330291748
1690838954844967200,9.45496728515625,0.00033421721309423447,-0.0005367097910493612,-0.0026653576642274857
1690838954855007000,9.465007080078125,0.000013234559446573257,-0.0001803648192435503,0.00019345059990882874
1690838954865078000,9.475078125,-0.0009076865389943123,-0.001470400020480156,-0.00026381388306617737
1690838954875118800,9.485118896484375,0.0005975989624857903,0.0003008991479873657,0.0007001906633377075
1690838954885159000,9.495158935546876,-0.00023037800565361977,-0.0007222872227430344,-0.0013435184955596924
1690838954895199000,9.505198974609375,0.0006800577975809574,-0.0018481099978089333,0.0003289785236120224
1690838954905239000,9.515239013671875,-0.0008533899672329426,0.0005452728364616632,0.001494644209742546
1690838954915280100,9.525280029296875,-0.00031021609902381897,0.0000896259443834424,-0.001514604315161705
1690838954925320000,9.53531982421875,-0.0005640150047838688,0.0006451613735407591,0.0010529495775699615
1690838954935360000,9.545360107421875,-0.0001794719137251377,0.0020185266621410847,0.00025290995836257935
1690838954945400800,9.55540087890625,0.00033025722950696945,-0.00022891489788889885,0.00046969205141067505
1690838954955441000,9.56544091796875,-0.000916079618036747,0.00009692029561847448,0.0004893764853477478
1690838954965481000,9.57548095703125,0.00012042233720421791,0.0011664456687867641,-0.0013364870101213455
1690838954975521000,9.58552099609375,0.0004592081531882286,-0.0012526584323495626,-0.0005564000457525253
1690838954985562000,9.59556201171875,0.0002248501405119896,0.0026893524918705225,-0.0019481685012578964
1690838954995602200,9.605602294921875,0.0016042571514844894,0.00019573653116822243,-0.0015071798115968704
1690838955005642000,9.61564208984375,-0.00008658412843942642,0.0003400798887014389,-0.0010206196457147598
1690838955015682800,9.625682861328125,-0.0000677015632390976,0.00007808511145412922,0.00006865710020065308
1690838955025753000,9.635753173828125,-0.0007702433504164219,-0.0004433619324117899,0.00042711757123470306
1690838955035794000,9.6457939453125,-0.0007782629691064358,0.001645580749027431,0.00013221800327301025
1690838955045834000,9.655833984375,-0.0003172694705426693,0.001065011601895094,-0.0014928430318832397
1690838955055874000,9.6658740234375,0.0002250485122203827,0.00004569441080093384,0.0003694407641887665
1690838955065913900,9.675913818359374,-0.0006926767528057098,0.0007255993550643325,-0.0008881036192178726
1690838955075956200,9.685956298828126,0.0005192593671381474,0.0004560067318379879,-0.0014852061867713928
1690838955085996300,9.695996337890625,0.007490083575248718,-0.32649466395378113,-0.07947960495948792
1690838955096036400,9.706036376953126,-0.009926864877343178,0.041288334876298904,-0.15236803889274597
1690838955106077400,9.716077392578125,0.0013470947742462158,-0.0007696349639445543,-0.0817979946732521
1690838955116117500,9.726117431640626,0.006941507570445538,-0.039057016372680664,-0.07153470069169998
1690838955126157300,9.7361572265625,0.006832317914813757,-0.08093947917222977,-0.06490795314311981
1690838955136197400,9.746197265625,0.009410499595105648,-0.13650627434253693,-0.04052358120679855
1690838955146238200,9.75623828125,0.001647651195526123,-0.0735827088356018,-0.04024741053581238
1690838955156278300,9.7662783203125,-0.00760619156062603,-0.009934050031006336,-0.024205699563026428
1690838955166318300,9.776318359375,-0.01068134419620037,0.013626137748360634,-0.028088588267564774
1690838955176359400,9.786359375,-0.005957173649221659,0.033869508653879166,-0.02535467967391014
1690838955186429400,9.796429443359376,-0.0049390471540391445,0.06116211414337158,-0.005318386480212212
1690838955196470500,9.806470458984375,0.0012126252986490726,0.07249791920185089,0.0219248216599226
1690838955206510300,9.81651025390625,0.0068260361440479755,0.060550715774297714,0.03632187098264694
1690838955216550400,9.82655029296875,0.00707769300788641,0.03320635110139847,0.04312519729137421
1690838955226591200,9.83659130859375,0.004572989884763956,0.008927376009523869,0.05120309814810753
1690838955236631300,9.84663134765625,0.0012864905875176191,-0.016691524535417557,0.0622125044465065
1690838955246671400,9.85667138671875,-0.0033530020155012608,-0.03964051231741905,0.06737185269594193
1690838955256711400,9.86671142578125,-0.006081955507397652,-0.053929559886455536,0.07041017711162567
1690838955266752500,9.87675244140625,-0.005465966649353504,-0.050130292773246765,0.06848631054162979
1690838955276792300,9.886792236328125,-0.0027608475647866726,-0.038477394729852676,0.06444418430328369
1690838955286832400,9.896832275390626,0.00151965138502419,-0.021848879754543304,0.05295903608202934
1690838955296872400,9.90687255859375,0.004071732982993126,-0.00012116064317524433,0.042974796146154404
1690838955306913300,9.916913330078126,0.004960962571203709,0.019297543913125992,0.02610580064356327
1690838955316953300,9.926953369140625,0.0034639155492186546,0.03151509538292885,0.010802379809319973
1690838955326993400,9.936993408203126,0.00025880103930830956,0.0360344797372818,-0.004337957128882408
1690838955337034500,9.947034423828125,-0.000826630275696516,0.029397202655673027,-0.018301434814929962
1690838955347104300,9.957104248046875,-0.003957708366215229,0.017513643950223923,-0.031090199947357178
1690838955357145300,9.967145263671876,-0.0025064321234822273,0.005819731391966343,-0.039609141647815704
1690838955367185400,9.977185302734375,-0.0007956176996231079,-0.005544775631278753,-0.046110183000564575
1690838955377225500,9.9872255859375,0.001908979844301939,-0.015812506899237633,-0.04834925755858421
1690838955387266300,9.997266357421875,0.003176644444465637,-0.02144402638077736,-0.04646666720509529
1690838955397306400,10.007306396484376,0.0005341717042028904,-0.01991480588912964,-0.043801743537187576
1690838955407346400,10.017346435546875,0.0007733236998319626,-0.018082018941640854,-0.04040062054991722
1690838955417386200,10.02738623046875,0.0010486214887350798,-0.01005137711763382,-0.04348031431436539
1690838955427427300,10.03742724609375,-0.0024776700884103775,-0.0008970270864665508,-0.03908742964267731
1690838955437467400,10.04746728515625,-0.0011603329330682755,0.011357639916241169,-0.026005279272794724
1690838955447507500,10.057507568359375,-0.002198167145252228,0.01962915062904358,-0.013944622129201889
1690838955457548300,10.06754833984375,-0.00045168260112404823,0.024107687175273895,-0.007596110925078392
1690838955467588400,10.07758837890625,0.0002370108850300312,0.017909180372953415,0.0004442371428012848
1690838955477628400,10.08762841796875,0.003148899879306555,0.012004571035504341,0.008458669297397137
1690838955487668500,10.09766845703125,0.000056170858442783356,0.0015580547042191029,0.018090790137648582
1690838955497709600,10.10770947265625,0.00039191311225295067,-0.006282494403421879,0.022504674270749092
1690838955507779300,10.117779296875,-0.0005532428622245789,-0.013004579581320286,0.028309565037488937
1690838955517820400,10.1278203125,-0.0024858410470187664,-0.017977241426706314,0.030583087354898453
1690838955527860500,10.137860595703126,-0.0018711835145950317,-0.016777753829956055,0.03418873995542526
1690838955537900500,10.147900634765625,-0.002032692078500986,-0.013800366781651974,0.033982113003730774
1690838955547941400,10.15794140625,-0.0008630319498479366,-0.007634083740413189,0.03271711245179176
1690838955557981400,10.1679814453125,-0.0009586499072611332,0.0025236313231289387,0.028830133378505707
1690838955568021200,10.178021240234376,0.0010645536240190268,0.00886222068220377,0.024889718741178513
1690838955578061300,10.188061279296875,-0.0002582147717475891,0.011763700284063816,0.016757121309638023
1690838955588102400,10.198102294921876,-0.0007650144398212433,0.011710969731211662,0.008037399500608444
1690838955598142500,10.208142578125,0.0007369485683739185,0.007762807421386242,-0.001433633267879486
1690838955608182500,10.2181826171875,-0.001272406429052353,0.0032833702862262726,-0.00885532982647419
1690838955618223400,10.228223388671875,-0.000668245367705822,-0.000391173642128706,-0.013969812542200089
1690838955628263400,10.238263427734376,0.0007136687636375427,-0.0042727310210466385,-0.017859093844890594
1690838955638303200,10.24830322265625,0.0005821087397634983,-0.0075167277827858925,-0.017985325306653976
1690838955648343300,10.25834326171875,0.0006042132154107094,-0.008302359841763973,-0.02090175449848175
1690838955658384400,10.26838427734375,0.0007403367199003696,-0.0044404491782188416,-0.023298196494579315
1690838955668455400,10.278455322265625,0.0007675010710954666,-0.0034295134246349335,-0.023119229823350906
1690838955678495500,10.28849560546875,-0.000022162217646837234,-0.0011874588672071695,-0.02421152964234352
1690838955688535600,10.29853564453125,0.0007775849662721157,0.003072001039981842,-0.023766249418258667
1690838955698575600,10.30857568359375,0.000539898406714201,0.005862876772880554,-0.020113956183195114
1690838955708616400,10.318616455078125,-0.0005112509243190289,0.007753454614430666,-0.014260329306125641
1690838955718656300,10.32865625,-0.000021351967006921768,0.008665821515023708,-0.011025343090295792
1690838955728696300,10.3386962890625,0.0005014268681406975,0.00611824169754982,-0.007869763299822807
1690838955738736400,10.348736328125,0.0005529969930648804,0.00027252035215497017,-0.0009342841804027557
1690838955748777500,10.358777587890625,0.0008392869494855404,-0.0006713040638715029,0.005623483099043369
1690838955758817500,10.368817626953126,-0.00007070507854223251,-0.004712271504104137,0.009300611913204193
1690838955768857600,10.378857666015625,0.0009263823740184307,-0.005609490443021059,0.014388048090040684
1690838955778898400,10.3888984375,-0.0018138531595468521,-0.00574389286339283,0.01628885604441166
1690838955788938200,10.398938232421875,-0.0010013226419687271,-0.00405970960855484,0.017626561224460602
1690838955798978300,10.408978271484376,0.00019552791491150856,-0.0019356266129761934,0.017773883417248726
1690838955809018400,10.419018310546875,0.00034200167283415794,-0.00045224581845104694,0.019811734557151794
1690838955819059500,10.4290595703125,0.0000622505322098732,0.004160856828093529,0.015087295323610306
1690838955829130500,10.439130615234374,-0.0007082019001245499,0.004308662377297878,0.011496555991470814
1690838955839170600,10.449170654296875,-0.000495055690407753,0.0017603625310584903,0.00820110272616148
1690838955849210600,10.459210693359376,-0.0021635261364281178,0.004126581363379955,0.006141147576272488
1690838955859250400,10.46925048828125,-0.0011836038902401924,0.0009257008787244558,0.0008691828697919846
1690838955869291300,10.479291259765626,-0.0008333981968462467,-0.0029153763316571712,-0.002437131479382515
1690838955879331300,10.489331298828125,0.0001759883016347885,-0.0002576324623078108,-0.0028451774269342422
1690838955889371400,10.499371337890626,-0.0009526591747999191,-0.0013849486131221056,-0.008872177451848984
1690838955899412500,10.50941259765625,0.000683832447975874,-0.0019598864018917084,-0.009097935631871223
1690838955909452500,10.51945263671875,-0.0018139462918043137,-0.00266056414693594,-0.011442849412560463
1690838955919492600,10.52949267578125,-0.0007961164228618145,0.001925253076478839,-0.01207144558429718
1690838955929532400,10.539532470703126,-0.0006317994557321072,0.000628293608315289,-0.013966817408800125
1690838955939573200,10.5495732421875,-0.00007092626765370369,0.0018048689235001802,-0.01337432861328125
1690838955949613300,10.55961328125,0.0017219139263033867,0.0004453251603990793,-0.011501327157020569
1690838955959653400,10.5696533203125,-0.0008540046401321888,0.0009876644471660256,-0.008283421397209167
1690838955969694500,10.579694580078124,-0.00013894587755203247,0.0026779728941619396,-0.0060684699565172195
1690838955979734500,10.589734619140625,-0.0015919124707579613,-0.0007194806821644306,-0.00436844676733017
1690838955989805600,10.5998056640625,0.00045206397771835327,-0.0004875191953033209,-0.0017921049147844315
1690838955999845600,10.609845703125,-0.0002974485978484154,-0.0018012886866927147,0.0012048538774251938
1690838956009885200,10.61988525390625,0.0010069676209241152,-0.00152485235594213,0.002276510000228882
1690838956019925200,10.62992529296875,-0.00026990706101059914,-0.0028906359802931547,0.0045211948454380035
1690838956029966300,10.63996630859375,-0.001367395743727684,0.00011181167792528868,0.007940427400171757
1690838956040006400,10.65000634765625,-0.0006906688213348389,0.0005826272536069155,0.008919823914766312
1690838956050046500,10.66004638671875,0.00007232697680592537,0.0022241997066885233,0.009152051992714405
1690838956060087600,10.670087646484374,-0.00048651546239852905,0.0021923272870481014,0.01045253872871399
1690838956070127400,10.68012744140625,-0.00013764109462499619,-0.0015986824873834848,0.008728674612939358
1690838956080139300,10.69013916015625,0.000518149696290493,0.0007261992432177067,0.009289395064115524
1690838956090179300,10.700179443359374,-0.00014364579692482948,-0.00016516074538230896,0.006962058134377003
1690838956100220200,10.71022021484375,0.0003649406135082245,-0.001694937702268362,0.0051056211814284325
1690838956110260200,10.72026025390625,0.0002885079011321068,-0.0011210264638066292,0.0029077138751745224
1690838956120300000,10.730300048828125,0.0012384583242237568,-0.0016312908846884966,0.0003665946424007416
1690838956130341000,10.740341064453125,-0.0003629005514085293,0.0020372134167701006,-0.0027106888592243195
1690838956140381200,10.750381103515625,0.0016949395649135113,0.0011641466990113258,-0.004988415166735649
1690838956150452200,10.7604521484375,-0.0006334623321890831,0.001616884022951126,-0.007367150858044624
1690838956160492300,10.7704921875,-0.0002489062026143074,0.0013136051129549742,-0.0038970913738012314
1690838956170532400,10.780532470703125,-0.0015834164805710316,-0.0003609906416386366,-0.006937887519598007
1690838956180573200,10.7905732421875,-0.001932770013809204,-0.0004882896319031715,-0.008672671392560005
1690838956190613000,10.800613037109375,-0.00038041314110159874,-0.00007177144289016724,-0.007238293066620827
1690838956200653000,10.810653076171874,-0.0010619214735925198,-0.0022545750252902508,-0.008680351078510284
1690838956210693000,10.820693115234375,-0.0009679119102656841,-0.001446838490664959,-0.006643032655119896
1690838956220734200,10.830734130859375,-0.0008501908741891384,0.0012244167737662792,-0.007424483075737953
1690838956230774300,10.840774169921875,-0.0004690922796726227,0.0004851231351494789,-0.006245234981179237
1690838956240814300,10.850814453125,-0.00005260715261101723,0.0009696121560409665,-0.00451483391225338
1690838956250854100,10.860854248046875,-0.0009623426012694836,0.0014226158382371068,-0.002105206251144409
1690838956260895200,10.870895263671875,0.00013727694749832153,0.0023370578419417143,0.0013322923332452774
1690838956270935000,10.88093505859375,-0.00035860342904925346,0.001000417280010879,0.0027629416435956955
1690838956280975000,10.89097509765625,-0.0009670299477875233,-0.0002607388887554407,0.004439469426870346
1690838956291016200,10.90101611328125,-0.00019604479894042015,-0.0021981883328408003,0.00491324532777071
1690838956301056300,10.91105615234375,0.0001774374395608902,-0.002738366834819317,0.007882301695644855
1690838956311127300,10.921127197265625,0.0005470840260386467,-0.0011689660605043173,0.006422090344130993
1690838956321167000,10.9311669921875,-0.0006691338494420052,-0.002767537022009492,0.005948252975940704
1690838956331207000,10.94120703125,-0.0013386523351073265,-0.002765140263363719,0.005447312258183956
1690838956341248000,10.951248046875,-0.00007939944043755531,0.00048072042409330606,0.0060981884598731995
1690838956351288000,10.9612880859375,-0.000935073010623455,0.0009955094428732991,0.005841992795467377
1690838956361328000,10.971328125,-0.0003061392344534397,0.0013983515091240406,0.002504490315914154
1690838956371368200,10.9813681640625,0.00010372092947363853,0.0019661374390125275,0.0006048586219549179
1690838956381409300,10.9914091796875,0.0010599377565085888,0.004442640580236912,-0.00024578720331192017
1690838956391449000,11.001448974609374,-0.0009813751094043255,0.0026143803261220455,-0.0031576883047819138
1690838956401489200,11.0114892578125,-0.0006594224832952023,0.002261808840557933,-0.003531957045197487
1690838956411530200,11.0215302734375,-0.00044983159750699997,-0.0015739421360194683,-0.0070119090378284454
1690838956421570000,11.031570068359375,-0.0003714170306921005,-0.0013429531827569008,-0.004971370100975037
1690838956431610000,11.041610107421874,-0.00154214259237051,-0.0029871889855712652,-0.006142096593976021
1690838956441650200,11.051650146484375,0.00047466810792684555,0.00020945852156728506,-0.00623028539121151
1690838956451691300,11.061691162109375,0.0017487246077507734,-0.0018009617924690247,-0.0078622717410326
1690838956461731000,11.07173095703125,-0.00015704939141869545,0.0010213409550487995,-0.005678199231624603
1690838956471802000,11.081802001953125,0.0007409681566059589,-0.0006897400598973036,-0.002478409558534622
1690838956481842000,11.091842041015624,-0.0007112575694918633,0.0011326284147799015,-0.0017841234803199768
1690838956491882000,11.101882080078125,-0.0007304325699806213,0.0015305046690627933,-0.0012014247477054596
1690838956501923000,11.111923095703125,-0.0005250554531812668,0.0016420031897723675,0.00007224641740322113
1690838956511963100,11.121963134765625,0.00016683386638760567,0.0007229462498798966,0.000017918646335601807
1690838956522003200,11.132003173828124,0.0016140334773808718,-0.0003165709786117077,0.0026932060718536377
1690838956532043300,11.142043212890625,-0.000733543187379837,0.001449903822503984,0.0007996987551450729
1690838956542084000,11.152083984375,-0.001082555390894413,-0.0017541453707963228,0.0017299409955739975
1690838956552124200,11.162124267578125,-0.0004444615915417671,-0.0007812925614416599,0.00373157300055027
1690838956562164000,11.1721640625,-0.00009110011160373688,-0.002686757594347,0.003125689923763275
1690838956572205000,11.182205078125,-0.001649848185479641,-0.002129890490323305,0.00321410596370697
1690838956582245000,11.1922451171875,-0.0009000264108181,-0.0011430156882852316,0.00335761159658432
1690838956592285200,11.20228515625,0.0004802900366485119,0.0012671451549977064,0.004173602908849716
1690838956602325200,11.2123251953125,-0.0009706816636025906,0.000898509519174695,0.0019973162561655045
1690838956612366000,11.222365966796875,-0.0016641686670482159,-0.000702316639944911,-0.00025704875588417053
1690838956622406100,11.23240625,0.000799249392002821,0.0009520077146589756,0.0005319323390722275
1690838956632477000,11.242476806640624,-0.0010093031451106071,0.0023970389738678932,0.0002725403755903244
1690838956642517000,11.25251708984375,0.00005584629252552986,0.0004266829928383231,-0.0009083393961191177
1690838956652557000,11.26255712890625,0.0009253681637346745,-0.0010324628092348576,-0.0029025133699178696
1690838956662598100,11.27259814453125,0.00008061295375227928,-0.0013244920410215855,-0.004560321569442749
1690838956672638200,11.28263818359375,-0.0003417646512389183,0.0004307974595576525,-0.0032692216336727142
1690838956682678300,11.29267822265625,-0.0014780922792851925,-0.00008236616849899292,-0.004733448848128319
1690838956692719000,11.302718994140625,-0.0004831352271139622,-0.0003369643818587065,-0.003346208482980728
1690838956702759200,11.31275927734375,-0.0000016386620700359344,-0.0003182617947459221,-0.002066951245069504
1690838956712799000,11.322799072265624,0.0006226063705980778,-0.0011664784979075193,-0.0021140892058610916
1690838956722839000,11.332839111328125,-0.00008460693061351776,0.0008893634658306837,-0.0016440562903881073
1690838956732880100,11.342880126953125,0.00008956389501690865,0.0013852440752089024,-0.0007439088076353073
1690838956742920200,11.352920166015625,-0.0007317699491977692,0.0018707659328356385,0.00011439248919487
1690838956752960300,11.362960205078124,0.0005135238170623779,0.0016135044861584902,-0.0013082679361104965
1690838956763000300,11.373000244140625,-0.0001577800139784813,-0.00040579214692115784,-0.0008290018886327744
1690838956773041200,11.383041259765625,0.000550620723515749,-0.000054787611588835716,0.002829914912581444
1690838956783081000,11.3930810546875,-0.0005753803998231888,0.0004966642009094357,0.002397622913122177
1690838956793152000,11.403152099609375,0.0020393109880387783,-0.0023752886336296797,0.003714289516210556
1690838956803192000,11.413192138671874,0.0005276165902614594,-0.001554708695039153,0.0020112842321395874
1690838956813232000,11.423232177734375,-0.00020315451547503471,-0.00204020319506526,0.0037247631698846817
1690838956823273200,11.433273193359375,-0.0008775303140282631,0.0006827897159382701,0.0012234784662723541
1690838956833313300,11.443313232421875,0.000468431506305933,0.0015922591555863619,0.0010293349623680115
1690838956843353000,11.45335302734375,-0.0016462020576000214,0.0012997270096093416,-0.0003147851675748825
1690838956853394000,11.463393798828125,-0.000015016179531812668,0.0007907968247309327,0.002478603273630142
1690838956863434000,11.47343408203125,0.00039581721648573875,-0.0007579820230603218,0.0014256611466407776
1690838956873474000,11.48347412109375,0.0005542752332985401,0.0003195329336449504,-0.001120053231716156
1690838956883514000,11.49351416015625,-0.0009749173186719418,0.0017856084741652012,-0.0017673280090093613
1690838956893555200,11.50355517578125,0.000665589701384306,-0.0007308123167604208,-0.0016986168920993805
1690838956903595300,11.51359521484375,-0.00024158461019396782,0.0003126997034996748,-0.0023109670728445053
1690838956913635300,11.52363525390625,-0.0003806017339229584,-0.0008066268637776375,-0.0028715617954730988
1690838956923676200,11.53367626953125,0.00004281383007764816,-0.000875009223818779,-0.0006621256470680237
1690838956933716000,11.543716064453125,-0.0009281747043132782,0.000793993822298944,-0.0017191339284181595
1690838956943756000,11.553756103515624,0.0008975053206086159,0.00026780960615724325,-0.0006127282977104187
1690838956953827000,11.5638271484375,-0.0005856091156601906,0.00015888642519712448,-0.001970672979950905
1690838956963867100,11.5738671875,0.0007756790146231651,0.0005915809888392687,-0.0010595973581075668
1690838956973907200,11.5839072265625,-0.0013268864713609219,0.00036973971873521805,-0.0010050013661384583
1690838956983948300,11.5939482421875,-0.0007138065993785858,-0.0005197736900299788,-0.002546209841966629
1690838956993988000,11.603988037109374,-0.00007890909910202026,0.0005137990228831768,0.00010336935520172119
1690838957004028200,11.614028076171875,0.002173663815483451,0.00013757601846009493,-0.0014547407627105713
1690838957014069000,11.624069091796875,-0.0006660646758973598,-0.00010903272777795792,0.0015554297715425491
1690838957024109000,11.634109130859375,-0.0006397129036486149,-0.0015384701546281576,0.002742065116763115
1690838957034149000,11.644149169921874,-0.0004644771106541157,0.0005348008126020432,0.001534588634967804
1690838957044189200,11.654189208984375,0.0009706232231110334,0.0003302707336843014,0.0018512178212404251
1690838957054230300,11.664230224609375,0.00177063699811697,-0.003942770883440971,0.0010107234120368958
1690838957064270300,11.674270263671875,0.001226696651428938,0.000575906247831881,0.0017168764024972916
1690838957074303500,11.684303466796875,-0.0005245981737971306,0.0006422189762815833,0.0010660011321306229
1690838957084344300,11.69434423828125,-0.0007732664234936237,0.0002819604706019163,-0.0013200752437114716
1690838957094384000,11.704384033203125,-0.0002363733947277069,0.003779756370931864,0.0011766385287046432
1690838957104424200,11.714424072265626,0.0003371839411556721,-0.0010537239722907543,-0.0010555516928434372
1690838957114495200,11.7244951171875,-0.000396516639739275,-0.00034372531808912754,-0.00032185204327106476
1690838957124535300,11.734535400390625,0.0005622226744890213,-0.000655145151540637,-0.001403752714395523
1690838957134576400,11.744576416015626,0.0011728855315595865,0.00041517941281199455,0.0005941521376371384
1690838957144616400,11.754616455078125,0.0002956865355372429,-0.0007579252123832703,-0.0018399134278297424
1690838957154656300,11.76465625,0.0006805132143199444,0.0003645970718935132,0.0003830287605524063
1690838957164696300,11.7746962890625,-0.0005544433370232582,-0.00025197071954607964,-0.00027799420058727264
