time,seconds_elapsed,z,y,x
1690841645383429600,0.0324296875,-0.9874420166015625,-0.013397216796875,-0.009307861328125
1690841645393469400,0.042469482421875,-0.9897003173828125,-0.02130126953125,-0.0034942626953125
1690841645403509500,0.052509521484375,-0.99237060546875,-0.0252227783203125,0.00567626953125
1690841645413549300,0.06254931640625,-0.9933013916015625,-0.0239715576171875,0.0126953125
1690841645423590400,0.07259033203125,-0.9916839599609375,-0.0182037353515625,0.0164031982421875
1690841645433630500,0.08263037109375,-0.9898834228515625,-0.00799560546875,0.01593017578125
1690841645443670500,0.09267041015625,-0.985504150390625,0.002777099609375,0.00958251953125
1690841645453741600,0.102741455078125,-0.9803619384765625,0.014434814453125,0.00262451171875
1690841645463781400,0.112781494140625,-0.9777679443359375,0.0244598388671875,-0.002655029296875
1690841645473822500,0.122822509765625,-0.974365234375,0.03216552734375,-0.004791259765625
1690841645483862500,0.132862548828125,-0.9729461669921875,0.0369415283203125,-0.0025634765625
1690841645493902300,0.14290234375,-0.973175048828125,0.03887939453125,0.0018310546875
1690841645503942400,0.1529423828125,-0.974884033203125,0.0378570556640625,0.00732421875
1690841645513983500,0.1629833984375,-0.976898193359375,0.035552978515625,0.012664794921875
1690841645524023600,0.1730234375,-0.978302001953125,0.0303955078125,0.013916015625
1690841645534063400,0.1830634765625,-0.979583740234375,0.0230560302734375,0.0112762451171875
1690841645544104400,0.1931044921875,-0.9820556640625,0.0143890380859375,0.00665283203125
1690841645554144300,0.203144287109375,-0.9832916259765625,0.005340576171875,0.0011749267578125
1690841645564184300,0.213184326171875,-0.9849700927734375,-0.001312255859375,-0.0024261474609375
1690841645574224400,0.223224365234375,-0.985595703125,-0.0067291259765625,-0.001983642578125
1690841645584265500,0.233265380859375,-0.9864044189453125,-0.0092315673828125,0.0006866455078125
1690841645594336500,0.24333642578125,-0.9875640869140625,-0.009124755859375,0.0070343017578125
1690841645604372200,0.253372314453125,-0.9876556396484375,-0.0053558349609375,0.0107421875
1690841645614412300,0.263412353515625,-0.9860382080078125,0.0015106201171875,0.0124969482421875
1690841645624452000,0.2734521484375,-0.9846343994140625,0.008087158203125,0.01007080078125
1690841645634493200,0.2834931640625,-0.981292724609375,0.0153045654296875,0.0058746337890625
1690841645644533200,0.293533203125,-0.9786224365234375,0.021575927734375,0.0026702880859375
1690841645654573300,0.3035732421875,-0.97711181640625,0.0255584716796875,-0.00030517578125
1690841645664614100,0.3136142578125,-0.975494384765625,0.0282135009765625,-0.0005950927734375
1690841645674654200,0.323654296875,-0.9765777587890625,0.0289154052734375,0.00244140625
1690841645684694300,0.3336943359375,-0.97735595703125,0.0271453857421875,0.0055389404296875
1690841645694734000,0.343734130859375,-0.9793548583984375,0.0237274169921875,0.008148193359375
1690841645704775200,0.353775146484375,-0.9808807373046875,0.01904296875,0.009735107421875
1690841645714815200,0.363815185546875,-0.9823760986328125,0.01361083984375,0.009765625
1690841645724886300,0.37388623046875,-0.984344482421875,0.0086517333984375,0.0073089599609375
1690841645734926300,0.38392626953125,-0.9841461181640625,0.0033416748046875,0.0035400390625
1690841645744966100,0.393966064453125,-0.9848480224609375,0.0013427734375,0.001617431640625
1690841645755007200,0.40400732421875,-0.9848175048828125,0,0.0002593994140625
1690841645765047300,0.41404736328125,-0.9839019775390625,0.00079345703125,0.0023345947265625
1690841645775087000,0.424087158203125,-0.983123779296875,0.00372314453125,0.004638671875
1690841645785127200,0.434127197265625,-0.9817352294921875,0.0075225830078125,0.0066986083984375
1690841645795168300,0.444168212890625,-0.983978271484375,0.0113983154296875,0.0081939697265625
1690841645805208300,0.454208251953125,-0.9789886474609375,0.015411376953125,0.007476806640625
1690841645815248100,0.464248046875,-0.980316162109375,0.019134521484375,0.0061187744140625
1690841645825289200,0.474289306640625,-0.977752685546875,0.020843505859375,0.004058837890625
1690841645835329300,0.484329345703125,-0.9801177978515625,0.0209808349609375,0.002838134765625
1690841645845369000,0.494369140625,-0.9779815673828125,0.0213775634765625,0.0027618408203125
1690841645855409200,0.5044091796875,-0.979278564453125,0.020050048828125,0.0044708251953125
1690841645865480200,0.514480224609375,-0.980072021484375,0.016845703125,0.0057373046875
1690841645875520300,0.524520263671875,-0.9821319580078125,0.0138092041015625,0.006378173828125
1690841645885561300,0.534561279296875,-0.98077392578125,0.0113983154296875,0.0062255859375
1690841645895601200,0.54460107421875,-0.9830474853515625,0.008575439453125,0.006256103515625
1690841645905641000,0.554640869140625,-0.982147216796875,0.0063323974609375,0.0040130615234375
1690841645915682000,0.56468212890625,-0.9842071533203125,0.0060882568359375,0.0036468505859375
1690841645925722000,0.57472216796875,-0.9817047119140625,0.0066680908203125,0.003387451171875
1690841645935762200,0.58476220703125,-0.9834442138671875,0.0084075927734375,0.00384521484375
1690841645945802200,0.59480224609375,-0.9813690185546875,0.01055908203125,0.0051422119140625
1690841645955843300,0.60484326171875,-0.9807281494140625,0.01336669921875,0.0062713623046875
1690841645965883100,0.614883056640625,-0.9805450439453125,0.01507568359375,0.0059356689453125
1690841645975923200,0.624923095703125,-0.980499267578125,0.0165557861328125,0.00628662109375
1690841645985964300,0.63496435546875,-0.9803466796875,0.017333984375,0.00567626953125
1690841645996034000,0.645033935546875,-0.97967529296875,0.017486572265625,0.0052642822265625
1690841646006075100,0.6550751953125,-0.9799346923828125,0.01690673828125,0.004608154296875
1690841646016115200,0.665115234375,-0.9813690185546875,0.0154876708984375,0.003662109375
1690841646026155300,0.6751552734375,-0.981231689453125,0.0132904052734375,0.0030670166015625
1690841646036196400,0.6851962890625,-0.9814453125,0.012237548828125,0.00390625
1690841646046236200,0.695236083984375,-0.981536865234375,0.0104522705078125,0.005950927734375
1690841646056276000,0.70527587890625,-0.9826202392578125,0.008880615234375,0.005950927734375
1690841646066316000,0.71531591796875,-0.9825286865234375,0.0080718994140625,0.0056304931640625
1690841646076357000,0.725357177734375,-0.982177734375,0.008819580078125,0.005462646484375
1690841646086397200,0.735397216796875,-0.982086181640625,0.0089874267578125,0.0050811767578125
1690841646096437200,0.745437255859375,-0.981292724609375,0.010467529296875,0.0047760009765625
1690841646106478300,0.755478271484375,-0.9817047119140625,0.01226806640625,0.00457763671875
1690841646116518100,0.76551806640625,-0.9803924560546875,0.0139617919921875,0.00518798828125
1690841646126558200,0.77555810546875,-0.9799346923828125,0.0156402587890625,0.0048828125
1690841646136629000,0.78562890625,-0.9810943603515625,0.0158843994140625,0.005859375
1690841646146669000,0.7956689453125,-0.981536865234375,0.014923095703125,0.0054931640625
1690841646156709000,0.805709228515625,-0.9806365966796875,0.01483154296875,0.0048675537109375
1690841646166750200,0.815750244140625,-0.9806976318359375,0.0147552490234375,0.0042572021484375
1690841646176790300,0.825790283203125,-0.9808502197265625,0.01336669921875,0.0044403076171875
1690841646186830300,0.835830322265625,-0.98101806640625,0.012451171875,0.0047454833984375
1690841646196871200,0.84587109375,-0.98150634765625,0.0111541748046875,0.0046539306640625
1690841646206911000,0.855910888671875,-0.982330322265625,0.011016845703125,0.005645751953125
1690841646216951000,0.865950927734375,-0.9816436767578125,0.0102081298828125,0.0045318603515625
1690841646226991000,0.8759912109375,-0.982635498046875,0.0102386474609375,0.0048370361328125
1690841646237032200,0.8860322265625,-0.9828338623046875,0.011077880859375,0.00537109375
1690841646247072300,0.896072265625,-0.9817962646484375,0.0113372802734375,0.004852294921875
1690841646257112300,0.9061123046875,-0.9813385009765625,0.0122833251953125,0.0048980712890625
1690841646267153200,0.916153076171875,-0.98028564453125,0.0133819580078125,0.0046234130859375
1690841646277223200,0.92622314453125,-0.98101806640625,0.01422119140625,0.0041961669921875
1690841646287264000,0.936263916015625,-0.980499267578125,0.0142974853515625,0.004364013671875
1690841646297304000,0.946303955078125,-0.9799957275390625,0.014556884765625,0.0041961669921875
1690841646307344100,0.95634423828125,-0.979949951171875,0.0141448974609375,0.0052032470703125
1690841646317385200,0.96638525390625,-0.981781005859375,0.0130767822265625,0.0053253173828125
1690841646327425300,0.97642529296875,-0.981842041015625,0.0127105712890625,0.005523681640625
1690841646337465300,0.98646533203125,-0.98138427734375,0.0127105712890625,0.0048675537109375
1690841646347505200,0.996505126953125,-0.981842041015625,0.0120697021484375,0.0051422119140625
1690841646357546000,1.0065458984375,-0.9812774658203125,0.0116424560546875,0.006378173828125
1690841646367586000,1.0165859375,-0.9818267822265625,0.0118408203125,0.005035400390625
1690841646377626000,1.026626220703125,-0.981903076171875,0.012115478515625,0.0057525634765625
1690841646387666200,1.036666259765625,-0.98187255859375,0.01190185546875,0.0048675537109375
1690841646397707300,1.046707275390625,-0.981292724609375,0.012298583984375,0.005035400390625
1690841646407778300,1.0567783203125,-0.981781005859375,0.0128173828125,0.004669189453125
1690841646417818400,1.066818359375,-0.9808197021484375,0.0135040283203125,0.005218505859375
1690841646427858200,1.076858154296875,-0.98046875,0.014404296875,0.004486083984375
1690841646437898200,1.086898193359375,-0.981658935546875,0.01373291015625,0.00518798828125
1690841646447939000,1.09693896484375,-0.9813079833984375,0.0135650634765625,0.0050506591796875
1690841646457979100,1.106979248046875,-0.9810028076171875,0.013458251953125,0.0044403076171875
1690841646468019200,1.117019287109375,-0.9806671142578125,0.0131683349609375,0.004791259765625
1690841646478060300,1.127060302734375,-0.980255126953125,0.012786865234375,0.004150390625
1690841646488100400,1.137100341796875,-0.9816741943359375,0.0126190185546875,0.0042266845703125
1690841646498140200,1.14714013671875,-0.9807586669921875,0.0124969482421875,0.0049285888671875
1690841646508180200,1.15718017578125,-0.9813995361328125,0.011566162109375,0.004791259765625
1690841646518221000,1.167220947265625,-0.981842041015625,0.01202392578125,0.004364013671875
1690841646528261000,1.17726123046875,-0.9812774658203125,0.0121917724609375,0.0048065185546875
1690841646538301200,1.18730126953125,-0.982208251953125,0.0121307373046875,0.005828857421875
1690841646548372200,1.197372314453125,-0.9822540283203125,0.0121612548828125,0.005096435546875
1690841646558412300,1.207412353515625,-0.980224609375,0.0125885009765625,0.0057525634765625
1690841646568453400,1.217453369140625,-0.981597900390625,0.012969970703125,0.0054168701171875
1690841646578493200,1.2274931640625,-0.981536865234375,0.0131378173828125,0.0043792724609375
1690841646588533200,1.237533203125,-0.98260498046875,0.01300048828125,0.0048370361328125
1690841646598573300,1.2475732421875,-0.9826507568359375,0.0122528076171875,0.0054931640625
1690841646608606700,1.257606689453125,-0.981536865234375,0.0129547119140625,0.004974365234375
1690841646618646500,1.267646484375,-0.9803924560546875,0.013519287109375,0.00433349609375
1690841646628686600,1.2776865234375,-0.9811859130859375,0.0121917724609375,0.0047454833984375
1690841646638727700,1.287727783203125,-0.98101806640625,0.01202392578125,0.005615234375
1690841646648767700,1.297767822265625,-0.9812469482421875,0.012054443359375,0.0044403076171875
1690841646658807800,1.307807861328125,-0.9816131591796875,0.012481689453125,0.0052032470703125
1690841646668847900,1.317847900390625,-0.9815216064453125,0.01177978515625,0.0052032470703125
1690841646678919000,1.3279189453125,-0.9814300537109375,0.01129150390625,0.005706787109375
1690841646688959700,1.337959716796875,-0.982666015625,0.012237548828125,0.0052490234375
1690841646698999600,1.34799951171875,-0.9811553955078125,0.0125732421875,0.0051116943359375
1690841646709039600,1.35803955078125,-0.98095703125,0.012786865234375,0.0056610107421875
1690841646719079700,1.36807958984375,-0.980621337890625,0.01336669921875,0.0054779052734375
1690841646729120800,1.378120849609375,-0.980743408203125,0.01324462890625,0.005340576171875
1690841646739160800,1.388160888671875,-0.9815826416015625,0.0126953125,0.0052337646484375
1690841646749201000,1.398200927734375,-0.981170654296875,0.0141754150390625,0.005126953125
1690841646759241700,1.40824169921875,-0.981048583984375,0.013397216796875,0.00531005859375
1690841646769281500,1.418281494140625,-0.982147216796875,0.012298583984375,0.004486083984375
1690841646779321600,1.428321533203125,-0.982086181640625,0.012359619140625,0.0047149658203125
1690841646789361700,1.438361572265625,-0.980682373046875,0.013092041015625,0.0046539306640625
1690841646799402800,1.44840283203125,-0.98004150390625,0.0125579833984375,0.004974365234375
1690841646809442800,1.45844287109375,-0.980804443359375,0.012054443359375,0.0050048828125
1690841646819513900,1.468513916015625,-0.9815826416015625,0.012969970703125,0.0052490234375
1690841646829554000,1.478553955078125,-0.98162841796875,0.012237548828125,0.005096435546875
1690841646839593700,1.48859375,-0.9818115234375,0.012451171875,0.004852294921875
1690841646849634600,1.498634521484375,-0.9820404052734375,0.01300048828125,0.0041961669921875
1690841646859674600,1.508674560546875,-0.9822998046875,0.01214599609375,0.0045928955078125
1690841646869714700,1.518714599609375,-0.9820404052734375,0.012298583984375,0.00408935546875
1690841646879754800,1.528754638671875,-0.9809722900390625,0.01275634765625,0.0045928955078125
1690841646889795800,1.5387958984375,-0.98040771484375,0.0130462646484375,0.005126953125
1690841646899836000,1.5488359375,-0.981170654296875,0.0126190185546875,0.005462646484375
1690841646909875700,1.558875732421875,-0.9818572998046875,0.012420654296875,0.0051116943359375
1690841646919916500,1.56891650390625,-0.9817352294921875,0.0128173828125,0.00494384765625
1690841646929956600,1.57895654296875,-0.9814605712890625,0.012298583984375,0.0050506591796875
1690841646939996700,1.58899658203125,-0.9819793701171875,0.01263427734375,0.0053253173828125
1690841646950036700,1.59903662109375,-0.9817047119140625,0.0130615234375,0.005157470703125
1690841646960107800,1.609107666015625,-0.982391357421875,0.0125579833984375,0.005584716796875
1690841646970148900,1.61914892578125,-0.981964111328125,0.0122222900390625,0.0042724609375
1690841646980189000,1.62918896484375,-0.98187255859375,0.0125579833984375,0.00384521484375
1690841646990228700,1.639228759765625,-0.980743408203125,0.0124664306640625,0.0041046142578125
1690841647000268800,1.649268798828125,-0.98260498046875,0.0128936767578125,0.0042572021484375
1690841647010309600,1.6593095703125,-0.9815216064453125,0.012542724609375,0.0052337646484375
1690841647020349700,1.669349609375,-0.979522705078125,0.012939453125,0.0046844482421875
1690841647030389800,1.6793896484375,-0.981719970703125,0.0129241943359375,0.0053863525390625
1690841647040429800,1.689429931640625,-0.981170654296875,0.012908935546875,0.005096435546875
1690841647050471000,1.699470947265625,-0.981353759765625,0.013092041015625,0.00518798828125
1690841647060510700,1.7095107421875,-0.981048583984375,0.0128631591796875,0.005035400390625
1690841647070550800,1.71955078125,-0.98138427734375,0.0135498046875,0.0045623779296875
1690841647080591600,1.729591552734375,-0.982940673828125,0.012481689453125,0.005645751953125
1690841647090662000,1.739661865234375,-0.9805450439453125,0.0133209228515625,0.0055389404296875
1690841647100702700,1.74970263671875,-0.981231689453125,0.0132904052734375,0.005126953125
1690841647110742800,1.75974267578125,-0.9821929931640625,0.01263427734375,0.005401611328125
1690841647120782800,1.769782958984375,-0.9824066162109375,0.0124969482421875,0.0046234130859375
1690841647130824000,1.779823974609375,-0.980987548828125,0.0131988525390625,0.0048675537109375
1690841647140863700,1.78986376953125,-0.98126220703125,0.01361083984375,0.0046539306640625
1690841647150903800,1.79990380859375,-0.9802703857421875,0.0128173828125,0.004791259765625
1690841647160943900,1.80994384765625,-0.9813232421875,0.0128631591796875,0.004974365234375
1690841647170984700,1.819984619140625,-0.98211669921875,0.0128631591796875,0.0050048828125
1690841647181024800,1.830024658203125,-0.9814910888671875,0.0127410888671875,0.0051422119140625
1690841647191064800,1.84006494140625,-0.98150634765625,0.0137176513671875,0.004547119140625
1690841647201106000,1.85010595703125,-0.9810791015625,0.013397216796875,0.0040130615234375
1690841647211145700,1.860145751953125,-0.981353759765625,0.012115478515625,0.00445556640625
1690841647221185800,1.870185791015625,-0.9804534912109375,0.0118865966796875,0.0053863525390625
1690841647231256800,1.8802568359375,-0.9808502197265625,0.012115478515625,0.004974365234375
1690841647241297000,1.890296875,-0.9829254150390625,0.01177978515625,0.0049896240234375
1690841647251336700,1.900336669921875,-0.981689453125,0.0128936767578125,0.0050811767578125
1690841647261377800,1.910377685546875,-0.9819183349609375,0.0119171142578125,0.0037841796875
1690841647271417900,1.92041796875,-0.98187255859375,0.013336181640625,0.0041961669921875
1690841647281457700,1.930457763671875,-0.981689453125,0.0123748779296875,0.00457763671875
1690841647291498800,1.940498779296875,-0.9814300537109375,0.012451171875,0.0049285888671875
1690841647301538800,1.950538818359375,-0.9815673828125,0.012786865234375,0.0053253173828125
1690841647311578600,1.96057861328125,-0.9814605712890625,0.012298583984375,0.0057373046875
1690841647321618700,1.97061865234375,-0.9821624755859375,0.0120391845703125,0.0048980712890625
1690841647331659800,1.98065966796875,-0.9804840087890625,0.0124359130859375,0.0047607421875
1690841647341699800,1.990699951171875,-0.98095703125,0.0127716064453125,0.0037689208984375
1690841647351739600,2.00073974609375,-0.9818572998046875,0.0121002197265625,0.00384521484375
1690841647361780700,2.01078076171875,-0.982208251953125,0.012664794921875,0.004638671875
1690841647371850800,2.020850830078125,-0.98236083984375,0.012725830078125,0.0045928955078125
1690841647381891800,2.030891845703125,-0.98126220703125,0.0130157470703125,0.0054473876953125
1690841647391931600,2.040931640625,-0.9814300537109375,0.012054443359375,0.006011962890625
1690841647401971700,2.0509716796875,-0.9818267822265625,0.0121612548828125,0.00579833984375
1690841647412012800,2.0610126953125,-0.9810943603515625,0.0131683349609375,0.0044097900390625
1690841647422052600,2.071052490234375,-0.98065185546875,0.013153076171875,0.0039825439453125
1690841647432092700,2.0810927734375,-0.9814910888671875,0.0126190185546875,0.0041961669921875
1690841647442132700,2.0911328125,-0.981842041015625,0.0120697021484375,0.0046844482421875
1690841647452173800,2.101173828125,-0.9816436767578125,0.012664794921875,0.005889892578125
1690841647462213600,2.111213623046875,-0.9830474853515625,0.0132904052734375,0.0058441162109375
1690841647472253700,2.121253662109375,-0.9825592041015625,0.0127105712890625,0.005279541015625
1690841647482293800,2.131293701171875,-0.981231689453125,0.0121917724609375,0.0041961669921875
1690841647492334800,2.1413349609375,-0.980438232421875,0.0121307373046875,0.0041351318359375
1690841647502405600,2.151405517578125,-0.981048583984375,0.0124664306640625,0.004180908203125
1690841647512445700,2.16144580078125,-0.98193359375,0.0127105712890625,0.005157470703125
1690841647522485800,2.17148583984375,-0.981414794921875,0.0129852294921875,0.00592041015625
1690841647532525800,2.18152587890625,-0.982147216796875,0.012542724609375,0.0062103271484375
1690841647542566700,2.191566650390625,-0.9827117919921875,0.0126495361328125,0.0059814453125
1690841647552606700,2.201606689453125,-0.983123779296875,0.0122222900390625,0.0059814453125
1690841647562646500,2.211646484375,-0.981903076171875,0.01275634765625,0.0054168701171875
1690841647572687600,2.2216875,-0.981475830078125,0.013153076171875,0.0049285888671875
1690841647582727700,2.231727783203125,-0.9810028076171875,0.0125274658203125,0.0044403076171875
1690841647592767700,2.241767822265625,-0.9817657470703125,0.012237548828125,0.004913330078125
1690841647602807800,2.251807861328125,-0.9821929931640625,0.0131378173828125,0.005218505859375
1690841647612855300,2.261855224609375,-0.9815673828125,0.0126190185546875,0.005615234375
1690841647622895000,2.27189501953125,-0.9825286865234375,0.0121612548828125,0.0058135986328125
1690841647632935200,2.28193505859375,-0.982391357421875,0.0132293701171875,0.0048065185546875
1690841647643006200,2.292006103515625,-0.9822998046875,0.012481689453125,0.00537109375
1690841647653046000,2.3020458984375,-0.981781005859375,0.012237548828125,0.004791259765625
1690841647663087000,2.312087158203125,-0.981689453125,0.012481689453125,0.005523681640625
1690841647673127200,2.322127197265625,-0.98138427734375,0.0132598876953125,0.0048370361328125
1690841647683167200,2.332167236328125,-0.9813385009765625,0.012664794921875,0.0045013427734375
1690841647693207000,2.34220703125,-0.9822540283203125,0.012481689453125,0.005401611328125
1690841647703248100,2.352248046875,-0.981109619140625,0.0128631591796875,0.004547119140625
1690841647713288200,2.3622880859375,-0.9803619384765625,0.01239013671875,0.0037384033203125
1690841647723328000,2.372327880859375,-0.9813232421875,0.0131988525390625,0.00341796875
1690841647733369000,2.382369140625,-0.9814910888671875,0.0137176513671875,0.0030517578125
1690841647743409200,2.3924091796875,-0.9811248779296875,0.0129547119140625,0.004791259765625
1690841647753449200,2.40244921875,-0.981353759765625,0.0122222900390625,0.0050201416015625
1690841647763489000,2.412489013671875,-0.980926513671875,0.012969970703125,0.0047760009765625
1690841647773530000,2.422530029296875,-0.981903076171875,0.012451171875,0.00592041015625
1690841647783601200,2.43260107421875,-0.98175048828125,0.0124359130859375,0.0059967041015625
1690841647793641200,2.44264111328125,-0.9813995361328125,0.012939453125,0.00494384765625
1690841647803681000,2.452680908203125,-0.9813995361328125,0.013275146484375,0.0050201416015625
1690841647813721000,2.46272119140625,-0.9814453125,0.0130615234375,0.0053863525390625
1690841647823762200,2.47276220703125,-0.98126220703125,0.01336669921875,0.006011962890625
1690841647833802200,2.48280224609375,-0.9815521240234375,0.0122833251953125,0.004791259765625
1690841647843842000,2.492842041015625,-0.9812774658203125,0.0123748779296875,0.00494384765625
1690841647853883100,2.502883056640625,-0.982269287109375,0.01287841796875,0.004638671875
1690841647863923200,2.512923095703125,-0.982025146484375,0.0124359130859375,0.0047454833984375
1690841647873963000,2.522962890625,-0.9824371337890625,0.0122833251953125,0.0054779052734375
1690841647884003000,2.533003173828125,-0.9825592041015625,0.0120849609375,0.0052947998046875
1690841647894044200,2.543044189453125,-0.9815521240234375,0.0126190185546875,0.0059814453125
1690841647904084200,2.553084228515625,-0.98187255859375,0.0135955810546875,0.0050506591796875
1690841647914155000,2.563155029296875,-0.9824676513671875,0.0134124755859375,0.005096435546875
1690841647924195000,2.573195068359375,-0.9822235107421875,0.013031005859375,0.005218505859375
1690841647934235100,2.583235107421875,-0.9825286865234375,0.0127410888671875,0.004638671875
1690841647944276000,2.59327587890625,-0.98223876953125,0.013031005859375,0.0045928955078125
1690841647954316000,2.60331591796875,-0.9819488525390625,0.012298583984375,0.00506591796875
1690841647964356000,2.613356201171875,-0.981781005859375,0.011962890625,0.0054473876953125
1690841647974396200,2.623396240234375,-0.98150634765625,0.012664794921875,0.0048980712890625
1690841647984437200,2.633437255859375,-0.981170654296875,0.0133514404296875,0.0052490234375
1690841647994477000,2.64347705078125,-0.981536865234375,0.013275146484375,0.0053253173828125
1690841648004517000,2.65351708984375,-0.981292724609375,0.0128326416015625,0.0055999755859375
1690841648014558000,2.663557861328125,-0.9814605712890625,0.013458251953125,0.0052642822265625
1690841648024598000,2.673597900390625,-0.9814453125,0.013397216796875,0.0049896240234375
1690841648034638000,2.68363818359375,-0.9815216064453125,0.01263427734375,0.005645751953125
1690841648044678100,2.69367822265625,-0.9818572998046875,0.0124664306640625,0.0042572021484375
1690841648054749000,2.7037490234375,-0.9823150634765625,0.0130767822265625,0.004638671875
1690841648064790000,2.7137900390625,-0.9815216064453125,0.0128936767578125,0.005218505859375
1690841648074830000,2.723830078125,-0.9806365966796875,0.01348876953125,0.00482177734375
1690841648084870100,2.7338701171875,-0.9807586669921875,0.012664794921875,0.0051727294921875
1690841648094910200,2.74391015625,-0.9819488525390625,0.0127105712890625,0.0052490234375
1690841648104951000,2.753950927734375,-0.9808197021484375,0.01300048828125,0.004913330078125
1690841648114991000,2.7639912109375,-0.9820556640625,0.012939453125,0.0054779052734375
1690841648125031000,2.774031005859375,-0.9821624755859375,0.0126953125,0.0048980712890625
1690841648135071000,2.784071044921875,-0.98162841796875,0.0124664306640625,0.003997802734375
1690841648145112000,2.794112060546875,-0.9818267822265625,0.0126953125,0.005828857421875
1690841648155152100,2.804152099609375,-0.982208251953125,0.0128631591796875,0.0055389404296875
1690841648165192200,2.814192138671875,-0.98150634765625,0.0128173828125,0.0045318603515625
1690841648175233000,2.82423291015625,-0.9821319580078125,0.0124053955078125,0.0047149658203125
1690841648185273000,2.834273193359375,-0.982391357421875,0.0122833251953125,0.0051422119140625
1690841648195344100,2.84434423828125,-0.9824981689453125,0.0125579833984375,0.004608154296875
1690841648205384000,2.854384033203125,-0.981903076171875,0.0125274658203125,0.0047760009765625
1690841648215424000,2.864424072265625,-0.98211669921875,0.0129547119140625,0.004638671875
1690841648225465000,2.874465087890625,-0.9813995361328125,0.012908935546875,0.0048675537109375
1690841648235505200,2.884505126953125,-0.98175048828125,0.011932373046875,0.0055084228515625
1690841648245545200,2.894545166015625,-0.9823760986328125,0.0127716064453125,0.004547119140625
1690841648255585300,2.904585205078125,-0.982025146484375,0.012908935546875,0.0047454833984375
1690841648265626000,2.914626220703125,-0.9814453125,0.01312255859375,0.0041961669921875
1690841648275666000,2.924666015625,-0.982391357421875,0.0128936767578125,0.004852294921875
1690841648285706000,2.9347060546875,-0.9807891845703125,0.0127105712890625,0.00457763671875
1690841648295747000,2.9447470703125,-0.9812774658203125,0.012786865234375,0.00555419921875
1690841648305787100,2.954787109375,-0.9815673828125,0.012725830078125,0.0057373046875
1690841648315827200,2.9648271484375,-0.9826507568359375,0.011993408203125,0.0045166015625
1690841648325898200,2.974898193359375,-0.98126220703125,0.0122528076171875,0.00506591796875
1690841648335938300,2.984938232421875,-0.9809722900390625,0.012451171875,0.00518798828125
1690841648345978000,2.99497802734375,-0.9818572998046875,0.01129150390625,0.0048980712890625
1690841648356019000,3.00501904296875,-0.9823150634765625,0.0120391845703125,0.0050201416015625
1690841648366059000,3.01505908203125,-0.9813232421875,0.0128021240234375,0.0048980712890625
1690841648376099000,3.02509912109375,-0.9820709228515625,0.012542724609375,0.00469970703125
1690841648386140200,3.03514013671875,-0.9825897216796875,0.012359619140625,0.0049591064453125
1690841648396180200,3.04518017578125,-0.9820709228515625,0.012176513671875,0.0046234130859375
1690841648406220300,3.05522021484375,-0.98175048828125,0.0123443603515625,0.0046844482421875
1690841648416260000,3.065260009765625,-0.98187255859375,0.0128021240234375,0.005126953125
1690841648426301000,3.075301025390625,-0.9824066162109375,0.0126800537109375,0.00567626953125
1690841648436341000,3.085341064453125,-0.98114013671875,0.0125579833984375,0.005126953125
1690841648446381000,3.095381103515625,-0.982391357421875,0.0125885009765625,0.0045623779296875
1690841648456422100,3.105422119140625,-0.982330322265625,0.012542724609375,0.0047607421875
1690841648466492200,3.1154921875,-0.98162841796875,0.0125885009765625,0.0053253173828125
1690841648476533200,3.125533203125,-0.9818267822265625,0.0125732421875,0.005126953125
1690841648486573300,3.1355732421875,-0.9816436767578125,0.0125885009765625,0.00421142578125
1690841648496613000,3.145613037109375,-0.98126220703125,0.0121917724609375,0.0048828125
1690841648506654000,3.155654052734375,-0.9825897216796875,0.0130462646484375,0.0050506591796875
1690841648516694000,3.165694091796875,-0.9816131591796875,0.0134124755859375,0.00537109375
1690841648526734000,3.175734130859375,-0.982452392578125,0.01300048828125,0.0047454833984375
1690841648536774100,3.185774169921875,-0.9816131591796875,0.0135040283203125,0.0052337646484375
1690841648546815200,3.195815185546875,-0.981536865234375,0.012908935546875,0.0054168701171875
1690841648556855300,3.205855224609375,-0.9815826416015625,0.011688232421875,0.005401611328125
1690841648566895000,3.21589501953125,-0.98101806640625,0.012359619140625,0.0050201416015625
1690841648576936000,3.22593603515625,-0.9816131591796875,0.0130615234375,0.005279541015625
1690841648586976000,3.23597607421875,-0.9816741943359375,0.012542724609375,0.0055084228515625
1690841648597016000,3.24601611328125,-0.9823150634765625,0.0121612548828125,0.0059967041015625
1690841648607070500,3.256070556640625,-0.9827880859375,0.0131988525390625,0.00531005859375
1690841648617110500,3.266110595703125,-0.982177734375,0.01275634765625,0.004791259765625
1690841648627150600,3.276150634765625,-0.9811859130859375,0.0122833251953125,0.005615234375
1690841648637191400,3.28619140625,-0.980865478515625,0.0125579833984375,0.0055694580078125
1690841648647231200,3.296231201171875,-0.9807586669921875,0.0123748779296875,0.0042572021484375
1690841648657271300,3.306271240234375,-0.9806976318359375,0.0123748779296875,0.0037841796875
1690841648667312400,3.3163125,-0.9823455810546875,0.0126800537109375,0.0046539306640625
1690841648677352400,3.3263525390625,-0.9817352294921875,0.0126800537109375,0.004638671875
1690841648687392500,3.336392578125,-0.982391357421875,0.01324462890625,0.005279541015625
1690841648697432600,3.3464326171875,-0.9822235107421875,0.013458251953125,0.0054168701171875
1690841648707473400,3.356473388671875,-0.9816436767578125,0.013458251953125,0.0046539306640625
1690841648717513500,3.366513427734375,-0.981109619140625,0.0128021240234375,0.0049896240234375
1690841648727553300,3.37655322265625,-0.9825439453125,0.0130462646484375,0.0048980712890625
1690841648737624300,3.386624267578125,-0.9826507568359375,0.012908935546875,0.004913330078125
1690841648747664400,3.396664306640625,-0.982177734375,0.0128631591796875,0.00518798828125
1690841648757705500,3.40670556640625,-0.9818878173828125,0.0126495361328125,0.005126953125
1690841648767745500,3.41674560546875,-0.981781005859375,0.012939453125,0.003997802734375
1690841648777785600,3.42678564453125,-0.9821929931640625,0.0126800537109375,0.004547119140625
1690841648787825400,3.436825439453125,-0.9819793701171875,0.01287841796875,0.0040740966796875
1690841648797866200,3.4468662109375,-0.9816131591796875,0.013092041015625,0.0045928955078125
1690841648807906300,3.45690625,-0.9824066162109375,0.012542724609375,0.004974365234375
1690841648817946400,3.4669462890625,-0.9817657470703125,0.011932373046875,0.0044097900390625
1690841648827987500,3.476987548828125,-0.9814453125,0.0126495361328125,0.004913330078125
1690841648838027500,3.487027587890625,-0.98236083984375,0.0128936767578125,0.0054168701171875
1690841648848067600,3.497067626953125,-0.98162841796875,0.0120849609375,0.005645751953125
1690841648858107400,3.507107421875,-0.9812469482421875,0.0127105712890625,0.006378173828125
1690841648868148200,3.517148193359375,-0.98175048828125,0.0120086669921875,0.0056610107421875
1690841648878219300,3.52721923828125,-0.9814910888671875,0.0120086669921875,0.0046539306640625
1690841648888259300,3.53725927734375,-0.98175048828125,0.011993408203125,0.0045318603515625
1690841648898299400,3.54729931640625,-0.9813995361328125,0.0121002197265625,0.0050506591796875
1690841648908339500,3.55733935546875,-0.982208251953125,0.0128631591796875,0.005218505859375
1690841648918380500,3.567380615234375,-0.98223876953125,0.012664794921875,0.0047149658203125
1690841648928420600,3.577420654296875,-0.98114013671875,0.0128631591796875,0.00506591796875
1690841648938460400,3.58746044921875,-0.9817047119140625,0.012664794921875,0.00445556640625
1690841648948501200,3.597501220703125,-0.9826812744140625,0.01318359375,0.005096435546875
1690841648958541300,3.607541259765625,-0.982421875,0.013397216796875,0.0048675537109375
1690841648968581400,3.617581298828125,-0.9820556640625,0.01251220703125,0.00482177734375
1690841648978621400,3.627621337890625,-0.9817657470703125,0.0128021240234375,0.004425048828125
1690841648988662500,3.63766259765625,-0.98162841796875,0.012115478515625,0.005645751953125
1690841648998702600,3.64770263671875,-0.98193359375,0.0127716064453125,0.004669189453125
1690841649008742400,3.657742431640625,-0.9810638427734375,0.0133819580078125,0.0050201416015625
1690841649018813400,3.6678134765625,-0.9813232421875,0.012359619140625,0.0046539306640625
1690841649028853500,3.677853515625,-0.9816131591796875,0.0122222900390625,0.0047149658203125
1690841649038894300,3.687894287109375,-0.9814453125,0.0134735107421875,0.0056304931640625
1690841649048934400,3.697934326171875,-0.98175048828125,0.01300048828125,0.004669189453125
1690841649058974500,3.707974365234375,-0.981536865234375,0.0122528076171875,0.00531005859375
1690841649069014500,3.7180146484375,-0.9821319580078125,0.01287841796875,0.004791259765625
1690841649079055600,3.7280556640625,-0.9815521240234375,0.013031005859375,0.004638671875
1690841649089095400,3.738095458984375,-0.9810638427734375,0.0124053955078125,0.00531005859375
1690841649099135500,3.748135498046875,-0.9809417724609375,0.0126495361328125,0.00469970703125
1690841649109176300,3.75817626953125,-0.9807586669921875,0.013275146484375,0.004791259765625
1690841649119216400,3.76821630859375,-0.9817352294921875,0.0129241943359375,0.0052642822265625
1690841649129256400,3.77825634765625,-0.981842041015625,0.0119171142578125,0.005035400390625
1690841649139296500,3.788296630859375,-0.9820709228515625,0.01251220703125,0.0053863525390625
1690841649149367300,3.7983671875,-0.981414794921875,0.0134429931640625,0.005035400390625
1690841649159408400,3.808408447265625,-0.9810943603515625,0.012420654296875,0.0049285888671875
1690841649169448400,3.818448486328125,-0.9807586669921875,0.01275634765625,0.004547119140625
1690841649179488500,3.828488525390625,-0.98223876953125,0.013397216796875,0.0050048828125
1690841649189528600,3.838528564453125,-0.981903076171875,0.0126190185546875,0.005828857421875
1690841649199569400,3.8485693359375,-0.9816131591796875,0.0121612548828125,0.004791259765625
1690841649209609500,3.858609375,-0.9812774658203125,0.0129241943359375,0.0047760009765625
1690841649219649500,3.8686494140625,-0.9818115234375,0.0125274658203125,0.0052337646484375
1690841649229690600,3.878690673828125,-0.981231689453125,0.0125579833984375,0.0055084228515625
1690841649239730400,3.88873046875,-0.981658935546875,0.012939453125,0.0052490234375
1690841649249770500,3.8987705078125,-0.98175048828125,0.0120391845703125,0.005340576171875
1690841649259810600,3.908810546875,-0.98223876953125,0.0126953125,0.004913330078125
1690841649269851400,3.918851318359375,-0.9821929931640625,0.01312255859375,0.00555419921875
1690841649279891500,3.928891357421875,-0.9820556640625,0.0124053955078125,0.004913330078125
1690841649289962500,3.93896240234375,-0.9802398681640625,0.012847900390625,0.0042877197265625
1690841649300002300,3.949002197265625,-0.9861602783203125,-0.004241943359375,-0.0297698974609375
1690841649310042400,3.95904248046875,-1.0251312255859375,-0.0125885009765625,0.094482421875
1690841649320083500,3.96908349609375,-0.970611572265625,0.009490966796875,0.0164642333984375
1690841649330123500,3.97912353515625,-0.967559814453125,0.035186767578125,-0.05810546875
1690841649340163600,3.98916357421875,-0.9789276123046875,0.0355224609375,-0.016571044921875
1690841649350203400,3.999203369140625,-0.960601806640625,0.0342864990234375,-0.0191802978515625
1690841649360244500,4.009244384765625,-1.00689697265625,-0.0092315673828125,0.0214385986328125
1690841649370284500,4.019284423828125,-0.9739837646484375,0.011444091796875,0.019073486328125
1690841649380324400,4.029324462890625,-0.991485595703125,0.011627197265625,0.026214599609375
1690841649390365400,4.039365478515625,-0.9835205078125,0.0146636962890625,0.0205535888671875
1690841649400405500,4.049405517578125,-0.9773712158203125,0.020416259765625,0.0084228515625
1690841649410445600,4.059445556640625,-0.9794158935546875,0.0218963623046875,-0.0026702880859375
1690841649420485400,4.0694853515625,-0.9790191650390625,0.0237274169921875,-0.0103607177734375
1690841649430556400,4.079556396484375,-0.976837158203125,0.0206298828125,-0.0105133056640625
1690841649440596200,4.08959619140625,-0.9771728515625,0.018035888671875,-0.0052490234375
1690841649450637300,4.09963720703125,-0.983978271484375,0.0167694091796875,0.00372314453125
1690841649460677400,4.109677490234375,-0.9826202392578125,0.0135650634765625,0.012664794921875
1690841649470717400,4.119717529296875,-0.9830169677734375,0.0111083984375,0.017333984375
1690841649480758500,4.129758544921875,-0.98773193359375,0.009429931640625,0.0169677734375
1690841649490798600,4.139798583984375,-0.9811553955078125,0.00823974609375,0.0099334716796875
1690841649500838400,4.14983837890625,-0.9858245849609375,0.008819580078125,0.00238037109375
1690841649510878500,4.15987841796875,-0.9801177978515625,0.0076904296875,-0.003387451171875
1690841649520919600,4.16991943359375,-0.9825439453125,0.00994873046875,-0.0049896240234375
1690841649530959400,4.17995947265625,-0.98138427734375,0.012237548828125,-0.0023193359375
1690841649540999400,4.18999951171875,-0.9790802001953125,0.014068603515625,0.003265380859375
1690841649551040500,4.20004052734375,-0.9841766357421875,0.01678466796875,0.00897216796875
1690841649561110500,4.210110595703125,-0.9812469482421875,0.018310546875,0.011749267578125
1690841649571151600,4.220151611328125,-0.9801177978515625,0.0186614990234375,0.0122222900390625
1690841649581191400,4.23019140625,-0.98297119140625,0.0194091796875,0.008819580078125
1690841649591231200,4.240231201171875,-0.97894287109375,0.019287109375,0.004241943359375
1690841649601272300,4.250272216796875,-0.980621337890625,0.0173187255859375,0.0003204345703125
1690841649611314400,4.260314453125,-0.981170654296875,0.0157318115234375,-0.0015106201171875
1690841649621354500,4.2703544921875,-0.980438232421875,0.0147857666015625,-0.000152587890625
1690841649631394300,4.280394287109375,-0.9821624755859375,0.013275146484375,0.003875732421875
1690841649641435400,4.290435302734375,-0.9827728271484375,0.011688232421875,0.0068817138671875
1690841649651475500,4.300475341796875,-0.9832000732421875,0.01104736328125,0.0095672607421875
1690841649661515500,4.310515625,-0.984649658203125,0.0106658935546875,0.0100250244140625
1690841649671556400,4.320556396484375,-0.98199462890625,0.01031494140625,0.00750732421875
1690841649681596400,4.330596435546875,-0.9832611083984375,0.0116424560546875,0.0045166015625
1690841649691636500,4.340636474609375,-0.9825592041015625,0.0131988525390625,0.0012054443359375
1690841649701707500,4.35070751953125,-0.980133056640625,0.0139007568359375,0.000335693359375
1690841649711747300,4.360747314453125,-0.982208251953125,0.01519775390625,0.0017852783203125
1690841649721787400,4.370787353515625,-0.9824066162109375,0.016998291015625,0.0044403076171875
1690841649731828500,4.380828369140625,-0.98077392578125,0.01715087890625,0.0062713623046875
1690841649741868500,4.39086865234375,-0.983306884765625,0.0167236328125,0.00799560546875
1690841649751908600,4.40090869140625,-0.980926513671875,0.016937255859375,0.00750732421875
1690841649761949400,4.410949462890625,-0.9813385009765625,0.0166778564453125,0.00592041015625
1690841649771989500,4.420989501953125,-0.9805145263671875,0.0161285400390625,0.0036163330078125
1690841649782029300,4.431029296875,-0.9796600341796875,0.0148773193359375,0.0027618408203125
1690841649792069400,4.4410693359375,-0.98272705078125,0.01446533203125,0.0024566650390625
1690841649802110500,4.4511103515625,-0.981353759765625,0.0135498046875,0.0036163330078125
1690841649812150500,4.461150634765625,-0.98138427734375,0.0127105712890625,0.0042724609375
1690841649822190600,4.471190673828125,-0.9827728271484375,0.01263427734375,0.005615234375
1690841649832261600,4.48126171875,-0.9812469482421875,0.012908935546875,0.00634765625
1690841649842301400,4.491301513671875,-0.982818603515625,0.01287841796875,0.006011962890625
1690841649852342500,4.501342529296875,-0.9820709228515625,0.0135040283203125,0.0048065185546875
1690841649862382300,4.51138232421875,-0.982391357421875,0.0141143798828125,0.004730224609375
1690841649872422400,4.52142236328125,-0.98236083984375,0.015045166015625,0.00408935546875
1690841649882463500,4.53146337890625,-0.980499267578125,0.015411376953125,0.0039215087890625
1690841649892503600,4.541503662109375,-0.9808197021484375,0.01605224609375,0.003265380859375
1690841649902543600,4.551543701171875,-0.9817657470703125,0.01593017578125,0.0048828125
1690841649912583700,4.561583740234375,-0.98089599609375,0.0156402587890625,0.0061798095703125
1690841649922624500,4.57162451171875,-0.9816436767578125,0.015716552734375,0.0050201416015625
1690841649932664300,4.581664306640625,-0.981414794921875,0.0146942138671875,0.0059051513671875
1690841649942704400,4.591704345703125,-0.98095703125,0.0146942138671875,0.0056610107421875
1690841649952744400,4.601744384765625,-0.9820098876953125,0.0144195556640625,0.00469970703125
1690841649962785500,4.61178564453125,-0.9814300537109375,0.0139923095703125,0.00445556640625
1690841649972856600,4.621856689453125,-0.9822235107421875,0.0141143798828125,0.00482177734375
1690841649982896600,4.631896728515625,-0.9825592041015625,0.0133056640625,0.0052490234375
1690841649992936400,4.6419365234375,-0.98193359375,0.013397216796875,0.0046844482421875
1690841650002976500,4.6519765625,-0.9826507568359375,0.0134429931640625,0.004974365234375
1690841650013017300,4.662017333984375,-0.9821929931640625,0.0142974853515625,0.00537109375
1690841650023057400,4.672057373046875,-0.982025146484375,0.0142669677734375,0.00537109375
1690841650033097500,4.682097412109375,-0.98101806640625,0.01483154296875,0.005218505859375
1690841650043138600,4.692138671875,-0.9806365966796875,0.0150604248046875,0.0050811767578125
1690841650053178600,4.7021787109375,-0.981781005859375,0.0158538818359375,0.0039215087890625
1690841650063218700,4.71221875,-0.9814453125,0.0151824951171875,0.0044403076171875
1690841650073258500,4.722258544921875,-0.9810028076171875,0.015380859375,0.0036163330078125
1690841650083299300,4.73229931640625,-0.9821014404296875,0.0155029296875,0.0048980712890625
1690841650093339400,4.74233935546875,-0.981231689453125,0.0149078369140625,0.0050201416015625
1690841650103379500,4.75237939453125,-0.9817657470703125,0.0150909423828125,0.0048370361328125
1690841650113450500,4.762450439453125,-0.9821929931640625,0.01470947265625,0.0059814453125
1690841650123490600,4.772490478515625,-0.982269287109375,0.0148773193359375,0.0055999755859375
1690841650133531600,4.78253173828125,-0.982147216796875,0.015106201171875,0.0049591064453125
1690841650143571500,4.792571533203125,-0.9818878173828125,0.0137939453125,0.004547119140625
1690841650153611500,4.802611572265625,-0.9812774658203125,0.0146636962890625,0.0048828125
1690841650163651600,4.812651611328125,-0.982330322265625,0.0146026611328125,0.0048065185546875
1690841650173692400,4.8226923828125,-0.9815521240234375,0.014556884765625,0.005401611328125
1690841650183732500,4.832732421875,-0.981536865234375,0.0147552490234375,0.005340576171875
1690841650193772500,4.8427724609375,-0.9815826416015625,0.0152130126953125,0.0050506591796875
1690841650203813600,4.852813720703125,-0.9813232421875,0.015472412109375,0.0052947998046875
1690841650213853700,4.862853759765625,-0.9812774658203125,0.0151214599609375,0.005279541015625
1690841650223893500,4.8728935546875,-0.9813079833984375,0.0157470703125,0.0047760009765625
1690841650233933600,4.88293359375,-0.98040771484375,0.0151214599609375,0.00360107421875
1690841650244004600,4.893004638671875,-0.981353759765625,0.0148468017578125,0.00457763671875
1690841650254045400,4.90304541015625,-0.9815521240234375,0.0149688720703125,0.0047454833984375
1690841650264085500,4.91308544921875,-0.981414794921875,0.0149993896484375,0.0055694580078125
1690841650274125600,4.92312548828125,-0.982666015625,0.0141143798828125,0.0054473876953125
1690841650284165400,4.933165283203125,-0.9819183349609375,0.014251708984375,0.0048675537109375
1690841650294206500,4.94320654296875,-0.98150634765625,0.0140838623046875,0.0050811767578125
1690841650304246500,4.95324658203125,-0.981964111328125,0.0139312744140625,0.004913330078125
1690841650314286600,4.96328662109375,-0.98211669921875,0.0139617919921875,0.00518798828125
1690841650324327400,4.973327392578125,-0.98248291015625,0.0142974853515625,0.0048675537109375
1690841650334367500,4.983367431640625,-0.9825439453125,0.0152435302734375,0.0047607421875
1690841650344407600,4.993407470703125,-0.981964111328125,0.01495361328125,0.0049591064453125
1690841650354447600,5.003447509765625,-0.9818878173828125,0.0147857666015625,0.0046844482421875
1690841650364488700,5.01348876953125,-0.9810028076171875,0.014923095703125,0.0052490234375
1690841650374528500,5.023528564453125,-0.9817962646484375,0.014801025390625,0.0047149658203125
1690841650384599600,5.033599609375,-0.98095703125,0.015380859375,0.0036773681640625
1690841650394639600,5.0436396484375,-0.9815216064453125,0.0155792236328125,0.0033111572265625
1690841650404679400,5.053679443359375,-0.983184814453125,0.015289306640625,0.003936767578125
1690841650414720500,5.063720458984375,-0.9827880859375,0.014617919921875,0.005340576171875
1690841650424760600,5.073760498046875,-0.98248291015625,0.01513671875,0.0048980712890625
1690841650434800400,5.08380029296875,-0.9823150634765625,0.0135650634765625,0.0051422119140625
1690841650444840400,5.09384033203125,-0.981842041015625,0.0145416259765625,0.00506591796875
1690841650454881500,5.103881591796875,-0.9817962646484375,0.0137786865234375,0.0053863525390625
1690841650464921600,5.113921630859375,-0.9820709228515625,0.0144195556640625,0.005340576171875
1690841650474961400,5.12396142578125,-0.982177734375,0.014068603515625,0.0047760009765625
1690841650485002500,5.13400244140625,-0.9821319580078125,0.01422119140625,0.0043487548828125
1690841650495042600,5.14404248046875,-0.9818572998046875,0.015106201171875,0.00421142578125
1690841650505082400,5.154082275390625,-0.981536865234375,0.015167236328125,0.0048370361328125
1690841650515122400,5.164122314453125,-0.9815673828125,0.0149688720703125,0.0053253173828125
1690841650525193500,5.174193359375,-0.9813995361328125,0.014312744140625,0.0050811767578125
1690841650535233500,5.184233642578125,-0.9818572998046875,0.014495849609375,0.0048065185546875
1690841650545274600,5.194274658203125,-0.98150634765625,0.015533447265625,0.0053863525390625
1690841650555314400,5.204314453125,-0.9813995361328125,0.0145416259765625,0.0047760009765625
1690841650565354500,5.2143544921875,-0.9816741943359375,0.0141448974609375,0.0049896240234375
1690841650575395600,5.2243955078125,-0.9814300537109375,0.014404296875,0.0052032470703125
1690841650585435400,5.234435302734375,-0.9810333251953125,0.0145721435546875,0.0051116943359375
1690841650595475500,5.244475341796875,-0.9822540283203125,0.014495849609375,0.004974365234375
1690841650605515500,5.254515625,-0.98223876953125,0.0139617919921875,0.0041351318359375
1690841650615525000,5.264525146484375,-0.982940673828125,0.0139007568359375,0.004852294921875
1690841650625565200,5.274565185546875,-0.981658935546875,0.0159149169921875,0.004791259765625
1690841650635605000,5.28460498046875,-0.981903076171875,0.0153045654296875,0.004730224609375
1690841650645646000,5.29464599609375,-0.9822845458984375,0.0152587890625,0.0045318603515625
1690841650655716000,5.304716064453125,-0.9814910888671875,0.0149993896484375,0.0050201416015625
1690841650665757200,5.314757080078125,-0.9813995361328125,0.015167236328125,0.005279541015625
1690841650675797200,5.32479736328125,-0.982208251953125,0.0140380859375,0.00518798828125
1690841650685837300,5.33483740234375,-0.9821929931640625,0.0145111083984375,0.004150390625
1690841650695878100,5.344878173828125,-0.983154296875,0.015472412109375,0.004730224609375
1690841650705918200,5.354918212890625,-0.9832000732421875,0.015106201171875,0.0047149658203125
1690841650715958000,5.3649580078125,-0.9827880859375,0.014984130859375,0.0048675537109375
1690841650725998000,5.374998046875,-0.9823760986328125,0.0145111083984375,0.0045318603515625
1690841650736039200,5.3850390625,-0.98223876953125,0.014404296875,0.004486083984375
1690841650746079200,5.395079345703125,-0.981475830078125,0.0152130126953125,0.0047760009765625
1690841650756119300,5.405119384765625,-0.9813690185546875,0.014190673828125,0.004180908203125
1690841650766160100,5.41516015625,-0.9824371337890625,0.0146026611328125,0.0047149658203125
1690841650776200200,5.4252001953125,-0.981903076171875,0.0148773193359375,0.0048065185546875
1690841650786240000,5.435239990234375,-0.9815673828125,0.0136260986328125,0.0050811767578125
1690841650796311000,5.44531103515625,-0.9819793701171875,0.0142822265625,0.0047760009765625
1690841650806351000,5.45535107421875,-0.98199462890625,0.014984130859375,0.004974365234375
1690841650816391200,5.46539111328125,-0.981719970703125,0.0151214599609375,0.0048065185546875
1690841650826432300,5.475432373046875,-0.9818267822265625,0.0153961181640625,0.005706787109375
1690841650836472300,5.485472412109375,-0.9822235107421875,0.014892578125,0.005340576171875
1690841650846512000,5.49551220703125,-0.981201171875,0.0146331787109375,0.0056304931640625
1690841650856553000,5.505552978515625,-0.9817657470703125,0.0148773193359375,0.0050811767578125
1690841650866593000,5.515593017578125,-0.9806060791015625,0.014434814453125,0.0053558349609375
1690841650876633000,5.525633056640625,-0.9824066162109375,0.01519775390625,0.0052490234375
1690841650886673200,5.535673095703125,-0.9820098876953125,0.014434814453125,0.00433349609375
1690841650896714200,5.54571435546875,-0.9813690185546875,0.0152130126953125,0.0049896240234375
1690841650906754300,5.55575439453125,-0.98187255859375,0.0154571533203125,0.005279541015625
1690841650916794400,5.56579443359375,-0.9819183349609375,0.0155792236328125,0.0053253173828125
1690841650926835200,5.575835205078125,-0.981475830078125,0.015411376953125,0.004364013671875
1690841650936905200,5.5859052734375,-0.981842041015625,0.0147247314453125,0.0044403076171875
1690841650946946000,5.595946044921875,-0.9824981689453125,0.014434814453125,0.00408935546875
1690841650956986000,5.605986083984375,-0.9815673828125,0.0148162841796875,0.00439453125
1690841650967026200,5.616026123046875,-0.9813232421875,0.015228271484375,0.004913330078125
1690841650977067300,5.6260673828125,-0.981414794921875,0.01580810546875,0.0042724609375
1690841650987107300,5.636107421875,-0.9821929931640625,0.0153350830078125,0.0040740966796875
1690841650997147100,5.646147216796875,-0.982940673828125,0.014495849609375,0.0051727294921875
1690841651007187200,5.656187255859375,-0.9811248779296875,0.0150299072265625,0.0057220458984375
1690841651017228000,5.66622802734375,-0.9815216064453125,0.015045166015625,0.00408935546875
1690841651027268000,5.67626806640625,-0.98138427734375,0.0152587890625,0.0047149658203125
1690841651037308200,5.68630810546875,-0.9816436767578125,0.0150146484375,0.004638671875
1690841651047348200,5.69634814453125,-0.9821929931640625,0.014739990234375,0.00482177734375
1690841651057389300,5.706389404296875,-0.9813385009765625,0.0150299072265625,0.0042266845703125
1690841651067460400,5.71646044921875,-0.9811248779296875,0.014434814453125,0.0040130615234375
1690841651077500200,5.726500244140625,-0.98248291015625,0.0144805908203125,0.0048370361328125
1690841651087540200,5.736540283203125,-0.98211669921875,0.0150146484375,0.0044403076171875
1690841651097580300,5.746580322265625,-0.9824676513671875,0.014862060546875,0.00396728515625
1690841651107621000,5.75662109375,-0.98223876953125,0.0147552490234375,0.0044708251953125
1690841651117661200,5.7666611328125,-0.981231689453125,0.014678955078125,0.0053863525390625
1690841651127701200,5.776701171875,-0.98101806640625,0.015472412109375,0.0048370361328125
1690841651137742300,5.786742431640625,-0.9813385009765625,0.0148162841796875,0.004791259765625
1690841651147782100,5.7967822265625,-0.9811248779296875,0.0144195556640625,0.0042572021484375
1690841651157822200,5.806822265625,-0.982025146484375,0.014007568359375,0.004364013671875
1690841651167862300,5.8168623046875,-0.981842041015625,0.01397705078125,0.0050201416015625
1690841651177903000,5.826903076171875,-0.98175048828125,0.0146331787109375,0.00469970703125
1690841651187943200,5.836943115234375,-0.9817047119140625,0.0146484375,0.0047607421875
1690841651197983200,5.846983154296875,-0.9814453125,0.0147552490234375,0.00531005859375
1690841651208054300,5.85705419921875,-0.981842041015625,0.014434814453125,0.00421142578125
1690841651218094000,5.867093994140625,-0.9805145263671875,0.01483154296875,0.0053558349609375
1690841651228135200,5.87713525390625,-0.982452392578125,0.0157012939453125,0.005584716796875
1690841651238175200,5.88717529296875,-0.98248291015625,0.015228271484375,0.0045928955078125
1690841651248215300,5.89721533203125,-0.9810943603515625,0.0149688720703125,0.004791259765625
1690841651258255400,5.90725537109375,-0.98193359375,0.015380859375,0.0047607421875
1690841651268296200,5.917296142578125,-0.981414794921875,0.0156707763671875,0.0046234130859375
1690841651278336300,5.927336181640625,-0.98175048828125,0.0150909423828125,0.0052337646484375
1690841651288376000,5.9373759765625,-0.98040771484375,0.0152130126953125,0.0043182373046875
1690841651298417200,5.947417236328125,-0.9812164306640625,0.0152740478515625,0.003662109375
1690841651308457200,5.957457275390625,-0.9816436767578125,0.015167236328125,0.003814697265625
1690841651318497300,5.967497314453125,-0.9818878173828125,0.0158233642578125,0.0041961669921875
1690841651328537300,5.977537353515625,-0.9819488525390625,0.0151214599609375,0.00518798828125
1690841651338578200,5.987578125,-0.9816741943359375,0.0152587890625,0.0048370361328125
1690841651348649200,5.997649169921875,-0.9819793701171875,0.01483154296875,0.004486083984375
1690841651358689300,6.007689208984375,-0.9813232421875,0.014739990234375,0.0042572021484375
1690841651368729000,6.01772900390625,-0.981781005859375,0.0152740478515625,0.0036773681640625
1690841651378769200,6.02776904296875,-0.981048583984375,0.015289306640625,0.004547119140625
1690841651388810200,6.037810302734375,-0.9816741943359375,0.0153656005859375,0.00604248046875
1690841651398850300,6.047850341796875,-0.982208251953125,0.0151214599609375,0.0050506591796875
1690841651408890400,6.057890380859375,-0.9817657470703125,0.014373779296875,0.0045166015625
1690841651418931200,6.06793115234375,-0.980865478515625,0.014862060546875,0.004608154296875
1690841651428971300,6.07797119140625,-0.98162841796875,0.01458740234375,0.0050506591796875
1690841651439011000,6.088010986328125,-0.9803619384765625,0.01531982421875,0.004547119140625
1690841651449051100,6.098051025390625,-0.9810943603515625,0.0149078369140625,0.005096435546875
1690841651459092200,6.10809228515625,-0.98260498046875,0.01507568359375,0.0042877197265625
1690841651469132300,6.11813232421875,-0.982421875,0.0149383544921875,0.0045166015625
1690841651479203300,6.128203369140625,-0.9822540283203125,0.0149078369140625,0.004608154296875
1690841651489243400,6.138243408203125,-0.9817352294921875,0.0150604248046875,0.0045623779296875
1690841651499283200,6.148283203125,-0.9819488525390625,0.0151214599609375,0.004730224609375
1690841651509324300,6.15832421875,-0.9817047119140625,0.01531982421875,0.0053253173828125
1690841651519364000,6.168364013671875,-0.9817657470703125,0.0153656005859375,0.0042266845703125
1690841651529404200,6.178404052734375,-0.9815216064453125,0.014495849609375,0.004669189453125
1690841651539444200,6.1884443359375,-0.9816741943359375,0.0149078369140625,0.0044708251953125
1690841651549485300,6.1984853515625,-0.98211669921875,0.01416015625,0.0044708251953125
1690841651559525400,6.208525390625,-0.980926513671875,0.0142059326171875,0.00469970703125
1690841651569565200,6.218565185546875,-0.982025146484375,0.013641357421875,0.004547119140625
1690841651579606300,6.228606201171875,-0.9818267822265625,0.014434814453125,0.0043182373046875
1690841651589646000,6.23864599609375,-0.98114013671875,0.0146636962890625,0.0047149658203125
1690841651599686100,6.24868603515625,-0.98236083984375,0.0142669677734375,0.0047149658203125
1690841651609747700,6.258747802734375,-0.982421875,0.0147705078125,0.00531005859375
1690841651619818800,6.26881884765625,-0.98211669921875,0.0144805908203125,0.005340576171875
1690841651629859600,6.278859619140625,-0.983123779296875,0.014556884765625,0.0042572021484375
1690841651639899600,6.288899658203125,-0.9825439453125,0.0142669677734375,0.004669189453125
1690841651649939700,6.298939697265625,-0.981719970703125,0.014739990234375,0.0042572021484375
1690841651659979500,6.3089794921875,-0.9814605712890625,0.014801025390625,0.0048828125
1690841651670020600,6.3190205078125,-0.9816741943359375,0.0146331787109375,0.005035400390625
1690841651680060700,6.329060791015625,-0.9818267822265625,0.0139312744140625,0.0052337646484375
1690841651690100700,6.339100830078125,-0.9825897216796875,0.0154266357421875,0.0048675537109375
1690841651700140800,6.349140869140625,-0.981964111328125,0.015228271484375,0.005401611328125
1690841651710181600,6.359181640625,-0.9822235107421875,0.0144195556640625,0.0051116943359375
1690841651720221700,6.3692216796875,-0.98187255859375,0.0151214599609375,0.0052032470703125
1690841651730261800,6.37926171875,-0.981842041015625,0.0150299072265625,0.0040435791015625
1690841651740302800,6.389302734375,-0.9819183349609375,0.01483154296875,0.0037689208984375
1690841651750342700,6.3993427734375,-0.9819793701171875,0.015533447265625,0.005126953125
1690841651760413700,6.40941357421875,-0.981781005859375,0.0142059326171875,0.0047149658203125
1690841651770453800,6.419453857421875,-0.981475830078125,0.014862060546875,0.00469970703125
1690841651780493800,6.429493896484375,-0.981903076171875,0.015167236328125,0.0046844482421875
1690841651790534700,6.43953466796875,-0.9816436767578125,0.01507568359375,0.00439453125
1690841651800574700,6.44957470703125,-0.9817352294921875,0.014984130859375,0.00543212890625
1690841651810614500,6.459614501953125,-0.98150634765625,0.0147247314453125,0.0046844482421875
1690841651820654600,6.469654541015625,-0.98199462890625,0.01483154296875,0.0045166015625
1690841651830695700,6.47969580078125,-0.98101806640625,0.0148162841796875,0.0050201416015625
1690841651840735700,6.48973583984375,-0.98114013671875,0.014312744140625,0.0041961669921875
1690841651850775800,6.49977587890625,-0.98095703125,0.01416015625,0.004608154296875
1690841651860816600,6.509816650390625,-0.9816741943359375,0.01507568359375,0.0056304931640625
1690841651870856700,6.519856689453125,-0.982086181640625,0.0148468017578125,0.0049591064453125
1690841651880896800,6.529896728515625,-0.9821929931640625,0.0147247314453125,0.0041656494140625
1690841651890967600,6.539967529296875,-0.9815826416015625,0.0145263671875,0.004974365234375
1690841651901007600,6.550007568359375,-0.9812774658203125,0.0151214599609375,0.00482177734375
1690841651911047700,6.560047607421875,-0.98150634765625,0.014739990234375,0.00372314453125
1690841651921088800,6.5700888671875,-0.982025146484375,0.014251708984375,0.00482177734375
1690841651931128800,6.58012890625,-0.982147216796875,0.0149078369140625,0.004638671875
1690841651941169000,6.5901689453125,-0.981231689453125,0.015167236328125,0.00408935546875
1690841651951209700,6.600209716796875,-0.9810791015625,0.0154266357421875,0.00457763671875
1690841651961249500,6.61024951171875,-0.9812774658203125,0.014495849609375,0.004058837890625
1690841651971289600,6.62028955078125,-0.9821929931640625,0.0142364501953125,0.0040435791015625
1690841651981329700,6.63032958984375,-0.98236083984375,0.0144805908203125,0.005096435546875
1690841651991370800,6.640370849609375,-0.9821929931640625,0.0147705078125,0.0052337646484375
1690841652001410800,6.650410888671875,-0.981048583984375,0.014801025390625,0.005126953125
1690841652011451000,6.660450927734375,-0.9811553955078125,0.0146484375,0.0042877197265625
1690841652021491700,6.67049169921875,-0.98223876953125,0.015472412109375,0.0047454833984375
1690841652031561700,6.680561767578125,-0.98248291015625,0.0153045654296875,0.0047760009765625
1690841652041602600,6.6906025390625,-0.98150634765625,0.0153656005859375,0.00494384765625
1690841652051642600,6.700642578125,-0.9813385009765625,0.0147705078125,0.0048675537109375
1690841652061682700,6.7106826171875,-0.9814300537109375,0.01519775390625,0.0048065185546875
1690841652071723800,6.720723876953125,-0.9812164306640625,0.014617919921875,0.005462646484375
1690841652081763800,6.730763916015625,-0.981475830078125,0.0143585205078125,0.0048065185546875
1690841652091804000,6.740803955078125,-0.9811248779296875,0.0151519775390625,0.0042572021484375
1690841652101843700,6.75084375,-0.9819488525390625,0.0152130126953125,0.005279541015625
1690841652111884500,6.760884521484375,-0.9816741943359375,0.015472412109375,0.0054168701171875
1690841652121924600,6.770924560546875,-0.981475830078125,0.015167236328125,0.0047607421875
1690841652131964700,6.780964599609375,-0.9807891845703125,0.01507568359375,0.004638671875
1690841652142005800,6.791005859375,-0.9818115234375,0.01361083984375,0.0046234130859375
1690841652152045800,6.8010458984375,-0.98236083984375,0.015167236328125,0.0052032470703125
1690841652162086000,6.8110859375,-0.9815216064453125,0.01483154296875,0.0043182373046875
1690841652172157000,6.821156982421875,-0.982879638671875,0.0145263671875,0.004425048828125
1690841652182196700,6.83119677734375,-0.9824981689453125,0.0143585205078125,0.004058837890625
1690841652192236500,6.841236572265625,-0.9816131591796875,0.01409912109375,0.0049896240234375
1690841652202277600,6.851277587890625,-0.980499267578125,0.01544189453125,0.0045623779296875
1690841652212317700,6.861317626953125,-0.9824066162109375,0.0150299072265625,0.0046539306640625
1690841652222357800,6.871357666015625,-0.982208251953125,0.015167236328125,0.0042877197265625
1690841652232398800,6.88139892578125,-0.981170654296875,0.01446533203125,0.0048065185546875
1690841652242439000,6.89143896484375,-0.98162841796875,0.0147247314453125,0.0045013427734375
1690841652252478700,6.901478759765625,-0.9817047119140625,0.0157470703125,0.004119873046875
1690841652262518500,6.9115185546875,-0.981689453125,0.0151214599609375,0.0048065185546875
1690841652272559600,6.9215595703125,-0.9818878173828125,0.0147705078125,0.0047607421875
1690841652282599700,6.931599609375,-0.9817657470703125,0.0156707763671875,0.0045623779296875
1690841652292639700,6.9416396484375,-0.9818878173828125,0.01629638671875,0.0046234130859375
1690841652302710800,6.951710693359375,-0.9814300537109375,0.015350341796875,0.00506591796875
1690841652312750600,6.96175048828125,-0.9810028076171875,0.014556884765625,0.00433349609375
1690841652322791700,6.971791748046875,-0.9813232421875,0.01507568359375,0.0042266845703125
1690841652332831700,6.981831787109375,-0.9814605712890625,0.0154876708984375,0.004730224609375
1690841652342871600,6.99187158203125,-0.981597900390625,0.0148468017578125,0.00445556640625
1690841652352911600,7.00191162109375,-0.981903076171875,0.015289306640625,0.00518798828125
1690841652362952700,7.01195263671875,-0.9824066162109375,0.0151824951171875,0.00439453125
1690841652372992800,7.02199267578125,-0.9812774658203125,0.0145721435546875,0.004486083984375
1690841652383032800,7.03203271484375,-0.981109619140625,0.0150299072265625,0.0048675537109375
1690841652393074000,7.042073974609375,-0.9822845458984375,0.0146636962890625,0.0048065185546875
1690841652403113700,7.05211376953125,-0.98272705078125,0.015411376953125,0.0050506591796875
1690841652413153500,7.062153564453125,-0.9819488525390625,0.015380859375,0.0042877197265625
1690841652423193600,7.072193603515625,-0.9816131591796875,0.0147247314453125,0.004364013671875
1690841652433234700,7.082234619140625,-0.98114013671875,0.0155181884765625,0.004608154296875
1690841652443305700,7.0923056640625,-0.9816131591796875,0.015655517578125,0.00494384765625
1690841652453345800,7.102345703125,-0.9821624755859375,0.015167236328125,0.004150390625
1690841652463385600,7.112385498046875,-0.981658935546875,0.0148773193359375,0.004730224609375
1690841652473425700,7.12242578125,-0.981964111328125,0.0150299072265625,0.0048675537109375
1690841652483466800,7.132466796875,-0.9822235107421875,0.014617919921875,0.0044097900390625
1690841652493506600,7.142506591796875,-0.981414794921875,0.014495849609375,0.0047760009765625
1690841652503546600,7.152546630859375,-0.981903076171875,0.01483154296875,0.0039215087890625
1690841652513587700,7.162587646484375,-0.981781005859375,0.014312744140625,0.004486083984375
1690841652523627800,7.172627685546875,-0.9809112548828125,0.0151214599609375,0.0050506591796875
1690841652533667800,7.182667724609375,-0.9820098876953125,0.0141448974609375,0.0047607421875
1690841652543707600,7.192707763671875,-0.9818115234375,0.0149078369140625,0.0053253173828125
1690841652553748500,7.20274853515625,-0.981201171875,0.0157470703125,0.0042572021484375
1690841652563788500,7.21278857421875,-0.98175048828125,0.015625,0.0042266845703125
1690841652573828600,7.22282861328125,-0.98138427734375,0.015045166015625,0.00506591796875
1690841652583899600,7.232899658203125,-0.9825439453125,0.01434326171875,0.0050048828125
1690841652593939700,7.242939697265625,-0.981689453125,0.0145111083984375,0.0041351318359375
1690841652603980800,7.252980712890625,-0.9818572998046875,0.0148468017578125,0.004669189453125
1690841652613996000,7.26299609375,-0.9825439453125,0.01519775390625,0.0044708251953125
1690841652624035800,7.273035888671875,-0.9818572998046875,0.0149078369140625,0.004547119140625
1690841652634076000,7.283075927734375,-0.981231689453125,0.0153656005859375,0.0047607421875
1690841652644117000,7.293116943359375,-0.98193359375,0.0160675048828125,0.004730224609375
1690841652654156800,7.30315673828125,-0.982208251953125,0.0150299072265625,0.0041046142578125
1690841652664196900,7.31319677734375,-0.98211669921875,0.015960693359375,0.004364013671875
1690841652674238000,7.323238037109375,-0.9820709228515625,0.015350341796875,0.004364013671875
1690841652684278000,7.333278076171875,-0.98175048828125,0.01434326171875,0.00482177734375
1690841652694318000,7.343318115234375,-0.98199462890625,0.01519775390625,0.0046539306640625
1690841652704358000,7.35335791015625,-0.9815673828125,0.0150146484375,0.005126953125
1690841652714429000,7.363428955078125,-0.981475830078125,0.01470947265625,0.0053253173828125
1690841652724470000,7.373469970703125,-0.982452392578125,0.0143585205078125,0.0048675537109375
1690841652734509800,7.383509765625,-0.981903076171875,0.0147857666015625,0.00390625
1690841652744550000,7.3935498046875,-0.9813079833984375,0.0150146484375,0.0045166015625
1690841652754590000,7.40358984375,-0.9813079833984375,0.0145416259765625,0.0048370361328125
1690841652764631000,7.413631103515625,-0.9818115234375,0.014556884765625,0.005157470703125
1690841652774670800,7.4236708984375,-0.9815216064453125,0.0147705078125,0.004608154296875
1690841652784711000,7.4337109375,-0.98126220703125,0.014739990234375,0.0047454833984375
1690841652794751000,7.4437509765625,-0.981597900390625,0.0140838623046875,0.0047454833984375
1690841652804791800,7.453791748046875,-0.9816131591796875,0.0148773193359375,0.004638671875
1690841652814831900,7.463831787109375,-0.981536865234375,0.0149993896484375,0.0039520263671875
1690841652824872000,7.473871826171875,-0.9807586669921875,0.014801025390625,0.0050201416015625
1690841652834913000,7.4839130859375,-0.98114013671875,0.0147857666015625,0.00469970703125
1690841652844953000,7.493953125,-0.9820404052734375,0.014892578125,0.0044708251953125
1690841652855023900,7.50402392578125,-0.9807586669921875,0.0153656005859375,0.00555419921875
1690841652865064000,7.51406396484375,-0.980712890625,0.0147552490234375,0.0044708251953125
1690841652875104000,7.52410400390625,-0.9813079833984375,0.015350341796875,0.004730224609375
1690841652885144800,7.534144775390625,-0.98126220703125,0.0150299072265625,0.00469970703125
1690841652895185000,7.544184814453125,-0.981536865234375,0.0150146484375,0.005157470703125
1690841652905225000,7.554224853515625,-0.9813690185546875,0.0154266357421875,0.00408935546875
1690841652915264800,7.5642646484375,-0.981903076171875,0.0142974853515625,0.00384521484375
1690841652925305900,7.574305908203125,-0.982025146484375,0.01470947265625,0.004058837890625
1690841652935346000,7.584345947265625,-0.982208251953125,0.0147247314453125,0.0049896240234375
1690841652945386000,7.594385986328125,-0.9823150634765625,0.01409912109375,0.00469970703125
1690841652955426800,7.6044267578125,-0.981689453125,0.015411376953125,0.0045318603515625
1690841652965467000,7.614466796875,-0.981597900390625,0.014923095703125,0.0039215087890625
1690841652975507000,7.6245068359375,-0.9819488525390625,0.014373779296875,0.004425048828125
1690841652985546800,7.634546630859375,-0.9816436767578125,0.01416015625,0.0049896240234375
1690841652995617800,7.64461767578125,-0.9806365966796875,0.0151214599609375,0.004608154296875
1690841653005657900,7.654657958984375,-0.9815673828125,0.01519775390625,0.0038909912109375
1690841653015699000,7.664698974609375,-0.9816131591796875,0.0149078369140625,0.005340576171875
1690841653025739000,7.674739013671875,-0.9813690185546875,0.01513671875,0.0051727294921875
1690841653035779000,7.684779052734375,-0.975860595703125,0.0135040283203125,0.005523681640625
1690841653045820000,7.69481982421875,-1.015869140625,-0.047576904296875,-0.028656005859375
1690841653055860000,7.70485986328125,-1.0144500732421875,0.0081939697265625,0.039276123046875
1690841653065899800,7.714899658203125,-0.9389801025390625,0.037628173828125,0.0086517333984375
1690841653075939800,7.72493994140625,-1.006561279296875,0.0161590576171875,0.019378662109375
1690841653085981000,7.73498095703125,-0.9503936767578125,0.038970947265625,0.0147857666015625
1690841653096021000,7.74502099609375,-1.0025482177734375,0.0387725830078125,0.003265380859375
1690841653106061000,7.75506103515625,-0.957427978515625,0.0207672119140625,-0.023956298828125
1690841653116102000,7.765101806640625,-0.9840087890625,0.03564453125,-0.007293701171875
1690841653126172000,7.775171875,-0.9684600830078125,0.03009033203125,-0.0144500732421875
1690841653136213000,7.785212890625,-0.9831390380859375,0.0317230224609375,-0.01019287109375
1690841653146252800,7.795252685546875,-0.9689178466796875,0.028778076171875,0.000030517578125
1690841653156292900,7.80529296875,-0.987884521484375,0.02484130859375,0.0117950439453125
1690841653166334000,7.815333984375,-0.9776763916015625,0.0217742919921875,0.019561767578125
1690841653176374000,7.8253740234375,-0.9844970703125,0.0170745849609375,0.0230865478515625
1690841653186414000,7.8354140625,-0.9817962646484375,0.0123443603515625,0.020538330078125
1690841653196454100,7.8454541015625,-0.9933319091796875,0.007415771484375,0.01153564453125
1690841653206495000,7.855494873046875,-0.9759521484375,0.0032958984375,-0.0001068115234375
1690841653216534800,7.86553466796875,-0.991485595703125,0.001190185546875,-0.0064697265625
1690841653226574800,7.875574951171875,-0.979827880859375,0.0010528564453125,-0.010406494140625
1690841653236616000,7.885615966796875,-0.9874420166015625,0.0023651123046875,-0.0080108642578125
1690841653246656000,7.895656005859375,-0.9822540283203125,0.006439208984375,-0.0018310546875
1690841653256696000,7.905696044921875,-0.984405517578125,0.01025390625,0.0057525634765625
1690841653266767000,7.91576708984375,-0.9842987060546875,0.0156097412109375,0.0118255615234375
1690841653276807000,7.925806884765625,-0.9812469482421875,0.018280029296875,0.01385498046875
1690841653286847000,7.935846923828125,-0.979248046875,0.0215606689453125,0.012786865234375
1690841653296887800,7.9458876953125,-0.9849395751953125,0.02386474609375,0.00927734375
1690841653306927900,7.955927978515625,-0.974822998046875,0.0251617431640625,0.0034637451171875
1690841653316968000,7.965968017578125,-0.9816131591796875,0.0264129638671875,0.0009307861328125
1690841653327009000,7.976009033203125,-0.97918701171875,0.027984619140625,-0.0016021728515625
1690841653337049000,7.986049072265625,-0.97613525390625,0.0263824462890625,-0.0021820068359375
1690841653347089200,7.996089111328125,-0.9777679443359375,0.0252685546875,-0.0006256103515625
1690841653357129000,8.00612890625,-0.9813690185546875,0.02276611328125,0.0025634765625
1690841653367169800,8.016169677734375,-0.9798583984375,0.020355224609375,0.005218505859375
1690841653377209900,8.0262099609375,-0.98260498046875,0.0182342529296875,0.0077667236328125
1690841653387250000,8.03625,-0.9811248779296875,0.0150604248046875,0.0085296630859375
1690841653397291000,8.046291015625,-0.9850616455078125,0.0119171142578125,0.0076751708984375
1690841653407361000,8.056361083984376,-0.982818603515625,0.0098114013671875,0.0055084228515625
1690841653417402000,8.066402099609375,-0.9832916259765625,0.0091705322265625,0.00341796875
1690841653427442000,8.07644189453125,-0.9853515625,0.008453369140625,0.0019683837890625
1690841653437482000,8.08648193359375,-0.982818603515625,0.009246826171875,0.0011444091796875
1690841653447522000,8.09652197265625,-0.9828033447265625,0.0105133056640625,0.0016021728515625
1690841653457563000,8.10656298828125,-0.98583984375,0.01177978515625,0.003173828125
1690841653467603000,8.11660302734375,-0.98077392578125,0.01373291015625,0.00543212890625
1690841653477643000,8.12664306640625,-0.981781005859375,0.0161895751953125,0.0058441162109375
1690841653487684000,8.13668408203125,-0.98095703125,0.0194091796875,0.0055694580078125
1690841653497724200,8.14672412109375,-0.9797210693359375,0.0205841064453125,0.0050506591796875
1690841653507764000,8.156763916015626,-0.9807586669921875,0.0215911865234375,0.0044097900390625
1690841653517804000,8.166803955078125,-0.9789886474609375,0.0218353271484375,0.0042877197265625
1690841653527844900,8.176844970703126,-0.9813232421875,0.0218048095703125,0.0030517578125
1690841653537916000,8.186916015625,-0.98052978515625,0.0222930908203125,0.0024871826171875
1690841653547956000,8.1969560546875,-0.97882080078125,0.02130126953125,0.003265380859375
1690841653557996000,8.20699609375,-0.9825286865234375,0.0208740234375,0.0049896240234375
1690841653568035800,8.217035888671875,-0.98175048828125,0.0185394287109375,0.0045318603515625
1690841653578077000,8.227076904296876,-0.98052978515625,0.017181396484375,0.00518798828125
1690841653588117000,8.237116943359375,-0.9837646484375,0.0161895751953125,0.0049285888671875
1690841653598157000,8.247156982421876,-0.98236083984375,0.014404296875,0.004180908203125
1690841653608206600,8.25720654296875,-0.9821929931640625,0.013214111328125,0.00323486328125
1690841653618246700,8.26724658203125,-0.982696533203125,0.012359619140625,0.0035400390625
1690841653628286700,8.27728662109375,-0.98162841796875,0.0125274658203125,0.00311279296875
1690841653638326500,8.287326416015626,-0.9830169677734375,0.0132904052734375,0.0031280517578125
1690841653648367600,8.29736767578125,-0.9817657470703125,0.01397705078125,0.0037078857421875
1690841653658407700,8.30740771484375,-0.981689453125,0.0147705078125,0.004241943359375
1690841653668447500,8.317447509765625,-0.9830474853515625,0.0164794921875,0.005584716796875
1690841653678518500,8.3275185546875,-0.981536865234375,0.0177001953125,0.0055084228515625
1690841653688558600,8.33755859375,-0.9818267822265625,0.0184478759765625,0.0056304931640625
1690841653698599700,8.347599609375,-0.9828033447265625,0.019561767578125,0.00494384765625
1690841653708639700,8.3576396484375,-0.9803314208984375,0.0201568603515625,0.004180908203125
1690841653718679600,8.367679443359375,-0.9804840087890625,0.0202178955078125,0.004058837890625
1690841653728719400,8.37771923828125,-0.979248046875,0.0199432373046875,0.0035552978515625
1690841653738760400,8.387760498046875,-0.9795989990234375,0.0192108154296875,0.0040435791015625
1690841653748800500,8.397800537109376,-0.9813995361328125,0.01904296875,0.00390625
1690841653758840600,8.407840576171875,-0.981048583984375,0.0178375244140625,0.0048065185546875
1690841653768881700,8.417881591796874,-0.9823150634765625,0.01727294921875,0.0049896240234375
1690841653778921700,8.427921630859375,-0.9821014404296875,0.016815185546875,0.0050811767578125
1690841653788961500,8.43796142578125,-0.9818115234375,0.01593017578125,0.005462646484375
1690841653799001300,8.44800146484375,-0.982635498046875,0.015167236328125,0.0050201416015625
1690841653809042400,8.45804248046875,-0.9812774658203125,0.015167236328125,0.00372314453125
1690841653819113500,8.468113525390624,-0.982391357421875,0.0141143798828125,0.0040283203125
1690841653829153500,8.478153564453125,-0.983245849609375,0.0147552490234375,0.0041961669921875
1690841653839193600,8.488193603515626,-0.9817657470703125,0.0156402587890625,0.0027923583984375
1690841653849233700,8.498233642578125,-0.9815673828125,0.0149078369140625,0.0045623779296875
1690841653859274800,8.508274658203124,-0.982025146484375,0.01629638671875,0.0049591064453125
1690841653869314600,8.518314453125,-0.9814605712890625,0.017120361328125,0.0040435791015625
1690841653879354400,8.528354248046876,-0.9824981689453125,0.0182647705078125,0.00494384765625
1690841653889395500,8.5383955078125,-0.9806671142578125,0.019622802734375,0.00433349609375
1690841653899435500,8.548435546875,-0.9807281494140625,0.0188751220703125,0.004241943359375
1690841653909475600,8.5584755859375,-0.9813232421875,0.0191497802734375,0.004547119140625
1690841653919515600,8.568515625,-0.980194091796875,0.018585205078125,0.0039825439453125
1690841653929556700,8.578556640625,-0.9812774658203125,0.0186614990234375,0.00335693359375
1690841653939596500,8.588596435546876,-0.9818572998046875,0.018157958984375,0.00390625
1690841653949667300,8.598667236328126,-0.981536865234375,0.0175628662109375,0.003814697265625
1690841653959707400,8.608707275390625,-0.9825897216796875,0.01708984375,0.0036773681640625
1690841653969747500,8.61874755859375,-0.981109619140625,0.01641845703125,0.004669189453125
1690841653979788500,8.62878857421875,-0.982177734375,0.0160980224609375,0.004241943359375
1690841653989828600,8.63882861328125,-0.9820709228515625,0.0159912109375,0.0039215087890625
1690841653999868700,8.64886865234375,-0.9820404052734375,0.0157623291015625,0.0037994384765625
1690841654009908700,8.65890869140625,-0.98162841796875,0.0154571533203125,0.0044097900390625
1690841654019949600,8.668949462890625,-0.9815216064453125,0.0153045654296875,0.0042266845703125
1690841654029989400,8.6789892578125,-0.982208251953125,0.015594482421875,0.0039215087890625
1690841654040029400,8.689029541015625,-0.981536865234375,0.0160369873046875,0.0042877197265625
1690841654050070500,8.699070556640624,-0.981689453125,0.0166015625,0.00421142578125
1690841654060110600,8.709110595703125,-0.981353759765625,0.0168914794921875,0.0045318603515625
1690841654070150700,8.719150634765626,-0.9818572998046875,0.01824951171875,0.0045318603515625
1690841654080190700,8.729190673828125,-0.9832000732421875,0.0185089111328125,0.0046844482421875
1690841654090261500,8.739261474609375,-0.9806976318359375,0.0190582275390625,0.00482177734375
1690841654100301600,8.749301513671876,-0.9814910888671875,0.018585205078125,0.00457763671875
1690841654110342400,8.75934228515625,-0.9811553955078125,0.017974853515625,0.0041351318359375
1690841654120382500,8.769382568359376,-0.9810638427734375,0.0181884765625,0.0037689208984375
1690841654130422500,8.779422607421875,-0.981414794921875,0.0174407958984375,0.0037689208984375
1690841654140463600,8.789463623046874,-0.9820404052734375,0.017333984375,0.003387451171875
1690841654150503700,8.799503662109375,-0.981964111328125,0.0175933837890625,0.0034637451171875
1690841654160543700,8.809543701171876,-0.9824981689453125,0.0166473388671875,0.004425048828125
1690841654170583600,8.81958349609375,-0.981781005859375,0.0158233642578125,0.0042724609375
1690841654180624400,8.829624267578126,-0.9838714599609375,0.0160369873046875,0.0045928955078125
1690841654190664400,8.83966455078125,-0.9817352294921875,0.015960693359375,0.005096435546875
1690841654200704500,8.84970458984375,-0.9814910888671875,0.0162811279296875,0.005126953125
1690841654210745600,8.85974560546875,-0.981109619140625,0.016326904296875,0.0050811767578125
1690841654220785700,8.86978564453125,-0.9819183349609375,0.0164947509765625,0.0051727294921875
1690841654230856700,8.879856689453124,-0.981170654296875,0.0165863037109375,0.004241943359375
1690841654240896500,8.889896484375,-0.981353759765625,0.017181396484375,0.00299072265625
1690841654250936600,8.8999365234375,-0.98175048828125,0.0171966552734375,0.0030670166015625
1690841654260977400,8.909977294921875,-0.9824981689453125,0.0176239013671875,0.003326416015625
1690841654271017500,8.920017578125,-0.9813385009765625,0.01776123046875,0.003265380859375
1690841654281057500,8.9300576171875,-0.982391357421875,0.0176544189453125,0.0040130615234375
1690841654291097600,8.94009765625,-0.9829254150390625,0.017669677734375,0.004364013671875
1690841654301138700,8.950138671875,-0.9812164306640625,0.0174713134765625,0.0048828125
1690841654311178800,8.9601787109375,-0.98040771484375,0.017303466796875,0.005096435546875
1690841654321218600,8.970218505859375,-0.9811248779296875,0.0174407958984375,0.0049285888671875
1690841654331259400,8.98025927734375,-0.9813079833984375,0.0166778564453125,0.00421142578125
1690841654341299500,8.990299560546875,-0.9823150634765625,0.0167999267578125,0.0040283203125
1690841654351339500,9.000339599609376,-0.98199462890625,0.01690673828125,0.0040435791015625
1690841654361410600,9.01041064453125,-0.9816436767578125,0.0170135498046875,0.003662109375
1690841654371450600,9.02045068359375,-0.9813385009765625,0.0160675048828125,0.0031280517578125
1690841654381490400,9.030490478515626,-0.9822998046875,0.01580810546875,0.0032196044921875
1690841654391531500,9.040531494140625,-0.9818572998046875,0.0171966552734375,0.00360107421875
1690841654401571600,9.050571533203126,-0.9817352294921875,0.01739501953125,0.004669189453125
1690841654411611600,9.060611572265625,-0.98126220703125,0.01702880859375,0.005584716796875
1690841654421652500,9.070652587890624,-0.9812469482421875,0.017120361328125,0.004852294921875
1690841654431692500,9.080692626953125,-0.981842041015625,0.01751708984375,0.0052947998046875
1690841654441732600,9.090732666015626,-0.981170654296875,0.0182647705078125,0.00482177734375
1690841654451772400,9.1007724609375,-0.98193359375,0.0175323486328125,0.00494384765625
1690841654461813800,9.110813720703124,-0.981109619140625,0.0177154541015625,0.003631591796875
1690841654471853600,9.120853515625,-0.980926513671875,0.0178985595703125,0.00372314453125
1690841654481893600,9.1308935546875,-0.981292724609375,0.017669677734375,0.003509521484375
1690841654491934500,9.1409345703125,-0.981719970703125,0.0171051025390625,0.003448486328125
1690841654502004700,9.151004638671875,-0.9815216064453125,0.0169525146484375,0.004058837890625
1690841654512045600,9.161045654296874,-0.981719970703125,0.016448974609375,0.0040740966796875
1690841654522085600,9.171085693359375,-0.9818267822265625,0.0170135498046875,0.00421142578125
1690841654532125400,9.18112548828125,-0.9818267822265625,0.016998291015625,0.0043487548828125
1690841654542166500,9.19116650390625,-0.9817657470703125,0.0169830322265625,0.0046539306640625
1690841654552206600,9.20120654296875,-0.9815826416015625,0.01605224609375,0.00518798828125
1690841654562246700,9.21124658203125,-0.9811553955078125,0.0167694091796875,0.0047149658203125
1690841654572286700,9.22128662109375,-0.982757568359375,0.01776123046875,0.0041961669921875
1690841654582327600,9.23132763671875,-0.981903076171875,0.017242431640625,0.003997802734375
1690841654592367600,9.24136767578125,-0.9813385009765625,0.0170745849609375,0.0035858154296875
1690841654602407400,9.251407470703125,-0.9815521240234375,0.01666259765625,0.003692626953125
1690841654612412700,9.26141259765625,-0.981231689453125,0.01629638671875,0.0030364990234375
1690841654622453800,9.271453857421875,-0.9817657470703125,0.0169219970703125,0.003936767578125
1690841654632493800,9.281493896484376,-0.9818878173828125,0.017333984375,0.0040740966796875
1690841654642564900,9.29156494140625,-0.981475830078125,0.01702880859375,0.00439453125
1690841654652605000,9.30160498046875,-0.981842041015625,0.016265869140625,0.0050811767578125
1690841654662644700,9.311644775390626,-0.98150634765625,0.0174102783203125,0.0045318603515625
1690841654672685600,9.321685546875,-0.9818878173828125,0.0176849365234375,0.0049285888671875
1690841654682725600,9.3317255859375,-0.98211669921875,0.017578125,0.00518798828125
1690841654692765700,9.341765625,-0.980804443359375,0.016998291015625,0.0044708251953125
1690841654702806800,9.351806884765624,-0.9815521240234375,0.0166168212890625,0.003570556640625
1690841654712846800,9.361846923828125,-0.981842041015625,0.01678466796875,0.0037689208984375
1690841654722887000,9.371886962890626,-0.9818267822265625,0.01641845703125,0.0047149658203125
1690841654732926700,9.3819267578125,-0.981231689453125,0.01715087890625,0.0028228759765625
1690841654742967800,9.3919677734375,-0.9813385009765625,0.0166778564453125,0.0031890869140625
1690841654753007600,9.402007568359375,-0.9818267822265625,0.017120361328125,0.0037078857421875
1690841654763047700,9.412047607421876,-0.9818572998046875,0.0172119140625,0.00396728515625
1690841654773118700,9.42211865234375,-0.981842041015625,0.0173492431640625,0.0039825439453125
1690841654783158800,9.43215869140625,-0.98193359375,0.0183258056640625,0.0047454833984375
1690841654793199900,9.442199951171874,-0.9817962646484375,0.0178070068359375,0.0045928955078125
1690841654803240000,9.452239990234375,-0.9813385009765625,0.017822265625,0.0037384033203125
1690841654813279700,9.46227978515625,-0.980987548828125,0.0177459716796875,0.0043487548828125
1690841654823319600,9.472319580078125,-0.981048583984375,0.0170440673828125,0.00445556640625
1690841654833360600,9.482360595703126,-0.981353759765625,0.0168609619140625,0.0043792724609375
1690841654843400700,9.492400634765625,-0.980987548828125,0.01580810546875,0.0036163330078125
1690841654853440800,9.502440673828126,-0.981536865234375,0.0164794921875,0.0036468505859375
1690841654863481900,9.51248193359375,-0.982086181640625,0.01702880859375,0.00372314453125
1690841654873522000,9.52252197265625,-0.9810791015625,0.016876220703125,0.004058837890625
1690841654883561700,9.532561767578125,-0.9810333251953125,0.017303466796875,0.00494384765625
1690841654893601500,9.5426015625,-0.981414794921875,0.016632080078125,0.005035400390625
1690841654903642600,9.552642578125,-0.9813385009765625,0.01641845703125,0.0044403076171875
1690841654913713700,9.562713623046875,-0.9818267822265625,0.01690673828125,0.004364013671875
1690841654923753700,9.572753662109376,-0.98175048828125,0.01690673828125,0.003997802734375
1690841654933793800,9.582793701171875,-0.98199462890625,0.016326904296875,0.0037689208984375
1690841654943833900,9.592833740234376,-0.98193359375,0.0166778564453125,0.004241943359375
1690841654953875000,9.602875,-0.9813690185546875,0.016998291015625,0.0039520263671875
1690841654963914800,9.612914794921876,-0.9823150634765625,0.0172576904296875,0.0034942626953125
1690841654973954600,9.62295458984375,-0.9816131591796875,0.017303466796875,0.0051116943359375
1690841654983995600,9.63299560546875,-0.98199462890625,0.0168304443359375,0.00482177734375
1690841654994035700,9.64303564453125,-0.9817047119140625,0.0165863037109375,0.0054473876953125
1690841655004075800,9.65307568359375,-0.980560302734375,0.01763916015625,0.0054473876953125
1690841655014115800,9.66311572265625,-0.9818115234375,0.0175628662109375,0.0046539306640625
1690841655024157000,9.673156982421874,-0.98126220703125,0.016845703125,0.004852294921875
1690841655034196700,9.68319677734375,-0.981475830078125,0.0169219970703125,0.003631591796875
1690841655044236500,9.693236572265626,-0.982025146484375,0.0171661376953125,0.003692626953125
1690841655054307600,9.7033076171875,-0.981781005859375,0.0166168212890625,0.003662109375
1690841655064347600,9.71334765625,-0.981719970703125,0.016937255859375,0.0047607421875
1690841655074388700,9.723388671875,-0.981201171875,0.0169830322265625,0.00408935546875
1690841655084428800,9.7334287109375,-0.9823455810546875,0.0173492431640625,0.004547119140625
1690841655094468900,9.74346875,-0.9820556640625,0.017303466796875,0.004730224609375
1690841655104508700,9.7535087890625,-0.9814605712890625,0.0166778564453125,0.0040130615234375
1690841655114549800,9.7635498046875,-0.9819183349609375,0.017333984375,0.0043182373046875
1690841655124589600,9.773589599609375,-0.9814910888671875,0.016937255859375,0.00384521484375
1690841655134629600,9.783629638671876,-0.98162841796875,0.016448974609375,0.00445556640625
1690841655144670700,9.793670654296875,-0.9816436767578125,0.0169677734375,0.004302978515625
1690841655154710800,9.803710693359376,-0.9808502197265625,0.0159759521484375,0.00396728515625
1690841655164750800,9.813750732421875,-0.9808807373046875,0.0168304443359375,0.0044403076171875
1690841655174790700,9.823790771484376,-0.982208251953125,0.0181121826171875,0.0039215087890625
1690841655184861700,9.83386181640625,-0.98248291015625,0.01727294921875,0.0044403076171875
1690841655194902800,9.84390283203125,-0.98211669921875,0.0172882080078125,0.0043182373046875
1690841655204942600,9.853942626953126,-0.981658935546875,0.017242431640625,0.00390625
1690841655214982700,9.863982666015625,-0.9823455810546875,0.0161895751953125,0.0044708251953125
1690841655225022700,9.874022705078126,-0.981964111328125,0.016693115234375,0.003570556640625
1690841655235063800,9.884063720703125,-0.981292724609375,0.0168609619140625,0.0037384033203125
1690841655245103900,9.894103759765626,-0.981658935546875,0.0167694091796875,0.003814697265625
1690841655255143700,9.904143798828125,-0.9815521240234375,0.016845703125,0.004547119140625
1690841655265183700,9.914183837890626,-0.98101806640625,0.016998291015625,0.0048980712890625
1690841655275224600,9.924224609375,-0.9814910888671875,0.01666259765625,0.004608154296875
1690841655285264600,9.9342646484375,-0.9813232421875,0.0168304443359375,0.0038604736328125
1690841655295304700,9.9443046875,-0.9810791015625,0.01739501953125,0.00433349609375
1690841655305345800,9.954345703125,-0.981719970703125,0.0168914794921875,0.0034942626953125
1690841655315385900,9.9643857421875,-0.9817657470703125,0.01702880859375,0.00341796875
1690841655325456600,9.97445654296875,-0.9808197021484375,0.0172119140625,0.0038604736328125
1690841655335496700,9.98449658203125,-0.9817047119140625,0.016143798828125,0.0034027099609375
1690841655345536800,9.994536865234375,-0.9814910888671875,0.016387939453125,0.00335693359375
1690841655355577600,10.00457763671875,-0.9817352294921875,0.0168304443359375,0.004058837890625
1690841655365617700,10.01461767578125,-0.981842041015625,0.0165863037109375,0.00439453125
1690841655375657700,10.02465771484375,-0.98162841796875,0.0173797607421875,0.0044403076171875
1690841655385697800,10.03469775390625,-0.9818115234375,0.01727294921875,0.0044097900390625
1690841655395739000,10.04473876953125,-0.981903076171875,0.016693115234375,0.0048065185546875
1690841655405778700,10.05477880859375,-0.98187255859375,0.0167694091796875,0.00396728515625
1690841655415818800,10.06481884765625,-0.982025146484375,0.0167083740234375,0.0040130615234375
1690841655425859600,10.074859619140625,-0.980987548828125,0.0167694091796875,0.00408935546875
1690841655435899600,10.084899658203126,-0.9820098876953125,0.0167236328125,0.00421142578125
1690841655445939700,10.094939697265625,-0.9813690185546875,0.016021728515625,0.003692626953125
1690841655455979800,10.104979736328126,-0.981781005859375,0.0164642333984375,0.0031280517578125
1690841655466050600,10.115050537109376,-0.9821014404296875,0.0167083740234375,0.0038909912109375
1690841655476090600,10.125090576171875,-0.9813079833984375,0.0174102783203125,0.00396728515625
1690841655486131700,10.135131591796876,-0.982269287109375,0.017303466796875,0.003753662109375
1690841655496171800,10.145171875,-0.98187255859375,0.0164337158203125,0.0038299560546875
1690841655506211800,10.1552119140625,-0.9821319580078125,0.016754150390625,0.00360107421875
1690841655516252700,10.165252685546875,-0.981781005859375,0.0170135498046875,0.0034942626953125
1690841655526292700,10.175292724609376,-0.98114013671875,0.0166473388671875,0.0043792724609375
1690841655536332800,10.185332763671875,-0.981109619140625,0.016571044921875,0.0040130615234375
1690841655546372600,10.19537255859375,-0.98065185546875,0.0169219970703125,0.003570556640625
1690841655556413700,10.20541357421875,-0.9813690185546875,0.01629638671875,0.00396728515625
1690841655566453800,10.215453857421876,-0.9815216064453125,0.0169677734375,0.0042724609375
1690841655576493800,10.225493896484375,-0.9814300537109375,0.0166778564453125,0.0046234130859375
1690841655586534700,10.23553466796875,-0.982391357421875,0.0169677734375,0.0047607421875
1690841655596605000,10.24560498046875,-0.9823455810546875,0.0166168212890625,0.00384521484375
1690841655606645800,10.255645751953125,-0.9821319580078125,0.0162200927734375,0.004608154296875
1690841655616684500,10.2656845703125,-0.9814605712890625,0.0170440673828125,0.0042572021484375
1690841655626724400,10.275724365234375,-0.98138427734375,0.0169677734375,0.0042572021484375
1690841655636765400,10.285765380859376,-0.9817352294921875,0.017120361328125,0.0043487548828125
1690841655646805200,10.29580517578125,-0.9820404052734375,0.0176239013671875,0.0038604736328125
1690841655656845300,10.30584521484375,-0.98114013671875,0.0167694091796875,0.0041656494140625
1690841655666885400,10.315885498046875,-0.981658935546875,0.0167694091796875,0.0039215087890625
1690841655676926500,10.325926513671876,-0.98211669921875,0.0170135498046875,0.003814697265625
1690841655686966500,10.335966552734375,-0.9813079833984375,0.0172576904296875,0.004180908203125
1690841655697006600,10.346006591796876,-0.9819183349609375,0.016845703125,0.00408935546875
1690841655707046100,10.356046142578125,-0.9811553955078125,0.017425537109375,0.003875732421875
1690841655717087200,10.366087158203126,-0.981109619140625,0.017120361328125,0.0042572021484375
1690841655727127300,10.376127197265625,-0.98223876953125,0.0178985595703125,0.0043487548828125
1690841655737198300,10.3861982421875,-0.981414794921875,0.0174713134765625,0.0040435791015625
1690841655747238400,10.39623828125,-0.9813079833984375,0.0172119140625,0.004547119140625
1690841655757278500,10.406278564453125,-0.98175048828125,0.0169830322265625,0.0038909912109375
1690841655767319600,10.416319580078126,-0.98211669921875,0.0174407958984375,0.0041046142578125
1690841655777359400,10.426359375,-0.9811553955078125,0.017425537109375,0.0040435791015625
1690841655787399200,10.436399169921875,-0.9818267822265625,0.01702880859375,0.0043487548828125
1690841655797440300,10.446440185546875,-0.981353759765625,0.017547607421875,0.0044097900390625
1690841655807480300,10.456480224609376,-0.9820098876953125,0.0168304443359375,0.0041046142578125
1690841655817520400,10.466520263671875,-0.9806671142578125,0.0168914794921875,0.004547119140625
1690841655827560400,10.476560546875,-0.9819488525390625,0.016937255859375,0.004608154296875
1690841655837601500,10.4866015625,-0.982421875,0.0171051025390625,0.0048065185546875
1690841655847641300,10.496641357421876,-0.9822845458984375,0.0168304443359375,0.00433349609375
1690841655857681200,10.50668115234375,-0.9816131591796875,0.016510009765625,0.0040435791015625
1690841655867722200,10.51672216796875,-0.9816741943359375,0.01751708984375,0.004302978515625
1690841655877792300,10.526792236328125,-0.9816741943359375,0.016082763671875,0.0038909912109375
1690841655887833300,10.536833251953125,-0.9822845458984375,0.0170745849609375,0.0039215087890625
1690841655897873400,10.546873291015626,-0.9811859130859375,0.0176544189453125,0.003997802734375
1690841655907913500,10.55691357421875,-0.9818115234375,0.0169525146484375,0.00445556640625
1690841655917953300,10.566953369140625,-0.981201171875,0.01702880859375,0.0041351318359375
1690841655927994400,10.576994384765625,-0.98138427734375,0.0171051025390625,0.0038299560546875
1690841655938034200,10.5870341796875,-0.981597900390625,0.0172882080078125,0.0045013427734375
1690841655948074200,10.59707421875,-0.9815216064453125,0.0170745849609375,0.0041656494140625
1690841655958115300,10.607115234375,-0.9831390380859375,0.0171661376953125,0.0041656494140625
1690841655968155400,10.6171552734375,-0.9811553955078125,0.01654052734375,0.005340576171875
1690841655978195500,10.627195556640626,-0.9817352294921875,0.0167236328125,0.005126953125
1690841655988235500,10.637235595703125,-0.980560302734375,0.01763916015625,0.0042877197265625
1690841655998276400,10.6472763671875,-0.981170654296875,0.0175933837890625,0.0041046142578125
1690841656008316200,10.657316162109375,-0.9823150634765625,0.0166168212890625,0.0040130615234375
1690841656018387200,10.66738720703125,-0.9823760986328125,0.016937255859375,0.0033416748046875
1690841656028427300,10.67742724609375,-0.98150634765625,0.01751708984375,0.003875732421875
1690841656038467300,10.68746728515625,-0.9814910888671875,0.0177459716796875,0.0037384033203125
1690841656048508400,10.69750830078125,-0.982940673828125,0.01776123046875,0.0038604736328125
1690841656058548500,10.707548583984375,-0.98193359375,0.0175018310546875,0.004119873046875
1690841656068588300,10.71758837890625,-0.981964111328125,0.0171051025390625,0.00457763671875
1690841656078629400,10.72762939453125,-0.9815216064453125,0.01678466796875,0.0043182373046875
1690841656088669200,10.737669189453126,-0.9811553955078125,0.0169830322265625,0.004730224609375
1690841656098709200,10.747709228515625,-0.9814453125,0.017181396484375,0.003021240234375
1690841656108749300,10.757749267578125,-0.9816131591796875,0.017059326171875,0.0035400390625
1690841656118790400,10.767790283203125,-0.9814300537109375,0.0174713134765625,0.0041656494140625
1690841656128830500,10.77783056640625,-0.9821014404296875,0.017242431640625,0.00372314453125
1690841656138870500,10.78787060546875,-0.9817352294921875,0.0169525146484375,0.0038909912109375
1690841656148941300,10.79794140625,-0.9816131591796875,0.0175018310546875,0.0039825439453125
1690841656158981400,10.8079814453125,-0.9815521240234375,0.0173797607421875,0.0038299560546875
1690841656169022200,10.818022216796875,-0.9808807373046875,0.016815185546875,0.0040130615234375
1690841656179062300,10.828062255859376,-0.98065185546875,0.017303466796875,0.0035858154296875
1690841656189102300,10.838102294921875,-0.9822540283203125,0.0175628662109375,0.0030059814453125
1690841656199142400,10.848142333984375,-0.982269287109375,0.0176544189453125,0.0046844482421875
1690841656209183500,10.85818359375,-0.9817047119140625,0.0174560546875,0.0042877197265625
1690841656219223300,10.868223388671876,-0.98138427734375,0.01690673828125,0.0047607421875
1690841656229263400,10.878263427734375,-0.9813385009765625,0.0161895751953125,0.0048980712890625
1690841656239304200,10.88830419921875,-0.981842041015625,0.0172271728515625,0.00439453125
1690841656249344300,10.89834423828125,-0.9813995361328125,0.01702880859375,0.0044403076171875
1690841656259384300,10.90838427734375,-0.9809722900390625,0.016876220703125,0.004119873046875
1690841656269424400,10.91842431640625,-0.9818115234375,0.016845703125,0.0033111572265625
1690841656279465500,10.928465576171876,-0.9818878173828125,0.017181396484375,0.003936767578125
1690841656289536500,10.93853662109375,-0.9815826416015625,0.016998291015625,0.0039215087890625
1690841656299576300,10.948576416015625,-0.981048583984375,0.0174102783203125,0.0041046142578125
1690841656309616400,10.958616455078126,-0.981597900390625,0.0171661376953125,0.0035858154296875
1690841656319656400,10.968656494140625,-0.982147216796875,0.0169677734375,0.004119873046875
1690841656329697300,10.978697265625,-0.98211669921875,0.0174560546875,0.0046234130859375
1690841656339737300,10.9887373046875,-0.9817352294921875,0.0170135498046875,0.00482177734375
1690841656349777400,10.99877734375,-0.9810638427734375,0.017425537109375,0.00433349609375
1690841656359817200,11.008817138671875,-0.9803924560546875,0.01788330078125,0.00396728515625
1690841656369858300,11.0188583984375,-0.98150634765625,0.017120361328125,0.0044097900390625
1690841656379898400,11.0288984375,-0.9814605712890625,0.01678466796875,0.0038604736328125
1690841656389938400,11.0389384765625,-0.981353759765625,0.016998291015625,0.003631591796875
1690841656399979300,11.048979248046875,-0.9804229736328125,0.016845703125,0.004150390625
1690841656410019300,11.059019287109376,-0.980926513671875,0.0164031982421875,0.0038299560546875
1690841656420059400,11.069059326171875,-0.9810333251953125,0.0169830322265625,0.0037994384765625
1690841656430130200,11.079130126953125,-0.982391357421875,0.016387939453125,0.0039520263671875
1690841656440170200,11.089170166015625,-0.9824981689453125,0.0172576904296875,0.00408935546875
1690841656450211300,11.09921142578125,-0.98284912109375,0.0173187255859375,0.0045318603515625
1690841656460251400,11.10925146484375,-0.98126220703125,0.0168609619140625,0.0041961669921875
1690841656470291500,11.11929150390625,-0.9809112548828125,0.0171356201171875,0.0048065185546875
1690841656480331500,11.12933154296875,-0.981658935546875,0.017303466796875,0.0040130615234375
1690841656490372400,11.139372314453125,-0.981842041015625,0.016998291015625,0.004425048828125
1690841656500412400,11.149412353515626,-0.9821929931640625,0.0170745849609375,0.0048828125
1690841656510452200,11.1594521484375,-0.9817962646484375,0.0172576904296875,0.0044708251953125
1690841656520493300,11.169493408203126,-0.9816741943359375,0.0169525146484375,0.00396728515625
1690841656530533400,11.179533447265625,-0.9820404052734375,0.0168914794921875,0.0046844482421875
1690841656540573400,11.189573486328126,-0.9817962646484375,0.0177764892578125,0.0040283203125
1690841656550613500,11.199613525390625,-0.982025146484375,0.0178375244140625,0.0045318603515625
1690841656560684500,11.2096845703125,-0.9823150634765625,0.01788330078125,0.004058837890625
1690841656570724400,11.219724365234375,-0.982391357421875,0.0163421630859375,0.0036468505859375
1690841656580765200,11.22976513671875,-0.9822998046875,0.0164947509765625,0.0036468505859375
1690841656590805200,11.23980517578125,-0.981475830078125,0.017303466796875,0.003997802734375
1690841656600845300,11.24984521484375,-0.982452392578125,0.0169219970703125,0.004608154296875
1690841656610886400,11.259886474609376,-0.9821319580078125,0.01763916015625,0.0037841796875
1690841656620932400,11.269932373046874,-0.981170654296875,0.017303466796875,0.0047607421875
1690841656630972400,11.279972412109375,-0.98193359375,0.01666259765625,0.0042724609375
1690841656641012500,11.290012451171876,-0.9814910888671875,0.0172271728515625,0.00372314453125
1690841656651053300,11.30005322265625,-0.9817657470703125,0.0181732177734375,0.0038299560546875
1690841656661093000,11.310093017578126,-0.9811553955078125,0.0180816650390625,0.0039215087890625
1690841656671133200,11.32013330078125,-0.981414794921875,0.01727294921875,0.00445556640625
1690841656681174300,11.33017431640625,-0.9818878173828125,0.0173187255859375,0.0037841796875
1690841656691214300,11.34021435546875,-0.9815673828125,0.01751708984375,0.004119873046875
1690841656701285400,11.350285400390625,-0.9817352294921875,0.0172119140625,0.0043792724609375
1690841656711325400,11.360325439453124,-0.981781005859375,0.0172271728515625,0.00360107421875
1690841656721365200,11.370365234375,-0.9807281494140625,0.01788330078125,0.00396728515625
1690841656731406300,11.38040625,-0.981201171875,0.01666259765625,0.00341796875
1690841656741446100,11.390446044921875,-0.981689453125,0.01708984375,0.0048828125
1690841656751486200,11.400486328125,-0.9805450439453125,0.017669677734375,0.0042266845703125
1690841656761526300,11.4105263671875,-0.981201171875,0.0172882080078125,0.0048370361328125
1690841656771567400,11.4205673828125,-0.981689453125,0.01678466796875,0.005645751953125
1690841656781607400,11.430607421875,-0.9818572998046875,0.017364501953125,0.0049591064453125
1690841656791647500,11.4406474609375,-0.981536865234375,0.0177764892578125,0.0042724609375
1690841656801688300,11.450688232421875,-0.981689453125,0.0165252685546875,0.0041351318359375
1690841656811728100,11.46072802734375,-0.981414794921875,0.016876220703125,0.0054779052734375
1690841656821768200,11.470768310546875,-0.982635498046875,0.016571044921875,0.0050048828125
1690841656831808300,11.480808349609376,-0.9824981689453125,0.017242431640625,0.0033111572265625
1690841656841879300,11.49087939453125,-0.982452392578125,0.0169525146484375,0.0037994384765625
1690841656851919400,11.50091943359375,-0.9808197021484375,0.0171356201171875,0.003875732421875
1690841656861960400,11.51096044921875,-0.9811553955078125,0.017547607421875,0.0033721923828125
1690841656872000300,11.521000244140625,-0.9809722900390625,0.016632080078125,0.0036468505859375
1690841656882040300,11.531040283203126,-0.9807891845703125,0.017242431640625,0.0040283203125
1690841656892081200,11.5410810546875,-0.98162841796875,0.0175628662109375,0.0045166015625
1690841656902121200,11.551121337890624,-0.9822235107421875,0.0171356201171875,0.0043487548828125
1690841656912161300,11.561161376953125,-0.981719970703125,0.0173797607421875,0.0035858154296875
1690841656922201300,11.571201416015626,-0.9805450439453125,0.0172576904296875,0.004180908203125
1690841656932242400,11.581242431640625,-0.9814910888671875,0.017181396484375,0.0038909912109375
1690841656942282500,11.591282470703124,-0.982757568359375,0.017425537109375,0.004241943359375
1690841656952322300,11.601322265625,-0.9813385009765625,0.01751708984375,0.0042572021484375
1690841656962363100,11.611363037109374,-0.981475830078125,0.017181396484375,0.0037689208984375
1690841656972433400,11.621433349609376,-0.9813232421875,0.0167236328125,0.003143310546875
1690841656982474200,11.63147412109375,-0.9807281494140625,0.0174560546875,0.003814697265625
1690841656992514300,11.641514404296874,-0.98126220703125,0.017425537109375,0.0050201416015625
1690841657002554400,11.651554443359375,-0.981658935546875,0.0171966552734375,0.0042572021484375
1690841657012594200,11.66159423828125,-0.9810791015625,0.0173797607421875,0.0042572021484375
1690841657022635300,11.67163525390625,-0.9816436767578125,0.01678466796875,0.00421142578125
1690841657032675300,11.68167529296875,-0.9818878173828125,0.0172576904296875,0.0041046142578125
1690841657042715400,11.69171533203125,-0.980682373046875,0.0168609619140625,0.00372314453125
1690841657052756200,11.701756103515624,-0.9815216064453125,0.0176849365234375,0.004119873046875
1690841657062796300,11.71179638671875,-0.98175048828125,0.016998291015625,0.003692626953125
1690841657072836400,11.72183642578125,-0.981781005859375,0.0174407958984375,0.0044403076171875
1690841657082876200,11.731876220703125,-0.9816436767578125,0.01708984375,0.0043792724609375
1690841657092917200,11.741917236328124,-0.981689453125,0.0175018310546875,0.0041351318359375
1690841657102957300,11.751957275390625,-0.9827728271484375,0.0171051025390625,0.0035858154296875
1690841657113028400,11.7620283203125,-0.982147216796875,0.0173492431640625,0.00323486328125
1690841657123068400,11.772068359375,-0.981903076171875,0.0168304443359375,0.0046234130859375
1690841657133108500,11.7821083984375,-0.98138427734375,0.016815185546875,0.0045318603515625
1690841657143149300,11.7921494140625,-0.9810791015625,0.0171661376953125,0.0040740966796875
1690841657153189400,11.802189453125,-0.9822998046875,0.017120361328125,0.00347900390625
1690841657163229200,11.812229248046876,-0.9818115234375,0.0171661376953125,0.0037994384765625
1690841657173270300,11.822270263671875,-0.9820098876953125,0.01702880859375,0.0045318603515625
1690841657183310300,11.832310302734374,-0.9813079833984375,0.016815185546875,0.004180908203125
1690841657193350400,11.842350341796875,-0.9816131591796875,0.0165252685546875,0.0042724609375
1690841657203390500,11.852390380859376,-0.9809112548828125,0.016815185546875,0.003936767578125
1690841657213431300,11.862431396484375,-0.981201171875,0.0166473388671875,0.0044403076171875
1690841657223471400,11.872471435546874,-0.9804534912109375,0.0169830322265625,0.0039825439453125
1690841657233511200,11.88251123046875,-0.980804443359375,0.0175628662109375,0.0035247802734375
1690841657243552300,11.89255224609375,-0.9810028076171875,0.0173492431640625,0.00457763671875
1690841657253622300,11.902622314453126,-0.9819793701171875,0.017059326171875,0.0043182373046875
1690841657263663400,11.912663330078125,-0.9812774658203125,0.0174713134765625,0.00408935546875
1690841657273703400,11.922703369140624,-0.9823760986328125,0.0180206298828125,0.0049591064453125
1690841657283743500,11.932743408203125,-0.9821929931640625,0.01727294921875,0.00390625
1690841657293783600,11.942783447265626,-0.9814453125,0.0165557861328125,0.004150390625
1690841657303824400,11.952824462890625,-0.9824981689453125,0.017059326171875,0.0030517578125
1690841657313864200,11.9628642578125,-0.9817657470703125,0.0170135498046875,0.003692626953125
1690841657323904300,11.972904296875,-0.9814910888671875,0.0165557861328125,0.0040740966796875
1690841657333945300,11.9829453125,-0.9819183349609375,0.016448974609375,0.004180908203125
1690841657343985400,11.9929853515625,-0.9821624755859375,0.0174560546875,0.0030364990234375
1690841657354025500,12.003025390625,-0.9813690185546875,0.017608642578125,0.0035552978515625
1690841657364065500,12.0130654296875,-0.9805145263671875,0.0171966552734375,0.0052642822265625
1690841657374106400,12.0231064453125,-0.99505615234375,-0.001739501953125,-0.001190185546875
1690841657384177200,12.03317724609375,-0.97967529296875,-0.023834228515625,-0.021240234375
1690841657394217200,12.04321728515625,-0.998291015625,0.083892822265625,0.055755615234375
1690841657404257300,12.05325732421875,-0.944915771484375,-0.0190277099609375,-0.035430908203125
1690841657414297300,12.06329736328125,-1.0115814208984375,0.0300750732421875,0.0234527587890625
1690841657424338400,12.07333837890625,-0.96002197265625,0.047454833984375,0.031005859375
1690841657434378500,12.08337841796875,-0.9866485595703125,0.0207977294921875,-0.0067291259765625
1690841657444418300,12.093418212890626,-0.976531982421875,0.016021728515625,-0.00518798828125
1690841657454459400,12.10345947265625,-0.981048583984375,0.0195465087890625,-0.017974853515625
1690841657464499200,12.113499267578124,-0.9800872802734375,0.0106048583984375,-0.0101776123046875
1690841657474539300,12.123539306640625,-0.98291015625,0.017120361328125,-0.003631591796875
1690841657484579300,12.133579345703126,-0.97772216796875,0.0125732421875,0.004302978515625
1690841657494620400,12.143620361328125,-0.9891815185546875,0.0108489990234375,0.011962890625
1690841657504660500,12.153660400390624,-0.9814605712890625,0.0146484375,0.014007568359375
1690841657514700300,12.1637001953125,-0.9853363037109375,0.0093231201171875,0.017974853515625
1690841657524771300,12.173771240234375,-0.9828948974609375,0.0121612548828125,0.01165771484375
1690841657534811100,12.18381103515625,-0.9877471923828125,0.01324462890625,0.0096893310546875
1690841657544852200,12.193852294921875,-0.97760009765625,0.0134429931640625,0.00140380859375
1690841657554892300,12.203892333984374,-0.9871826171875,0.017547607421875,0.0007476806640625
1690841657564932400,12.213932373046875,-0.9791107177734375,0.0176849365234375,-0.004302978515625
1690841657574972400,12.223972412109376,-0.9810333251953125,0.019134521484375,-0.0032501220703125
1690841657585013500,12.234013427734375,-0.980194091796875,0.0226593017578125,-0.0036468505859375
1690841657595053300,12.24405322265625,-0.9794769287109375,0.019134521484375,0.0012054443359375
1690841657605093000,12.254093017578125,-0.9799652099609375,0.02227783203125,0.0023193359375
1690841657615132700,12.264132568359376,-0.978851318359375,0.02178955078125,0.0074005126953125
1690841657625172700,12.2741728515625,-0.9807891845703125,0.0208587646484375,0.00860595703125
1690841657635212500,12.284212646484375,-0.9843292236328125,0.022308349609375,0.0109710693359375
1690841657645252400,12.29425244140625,-0.977142333984375,0.0207061767578125,0.009246826171875
1690841657655293400,12.30429345703125,-0.983001708984375,0.0203704833984375,0.0074310302734375
1690841657665363500,12.314363525390625,-0.982177734375,0.0195159912109375,0.00372314453125
1690841657675404500,12.324404541015625,-0.9794769287109375,0.01611328125,0.0017242431640625
1690841657685444600,12.334444580078125,-0.981536865234375,0.0164337158203125,-0.001678466796875
1690841657695484700,12.344484619140625,-0.982208251953125,0.0142669677734375,-0.0014801025390625
1690841657705525800,12.35452587890625,-0.980438232421875,0.0141143798828125,-0.00042724609375
1690841657715565600,12.364565673828125,-0.982879638671875,0.01422119140625,0.002227783203125
1690841657725605400,12.37460546875,-0.9818878173828125,0.0145416259765625,0.0043487548828125
1690841657735645400,12.3846455078125,-0.983123779296875,0.01568603515625,0.00714111328125
1690841657745686500,12.3946865234375,-0.9827423095703125,0.015106201171875,0.0076904296875
1690841657755726600,12.4047265625,-0.982330322265625,0.0156707763671875,0.0080108642578125
1690841657765766700,12.4147666015625,-0.9838104248046875,0.016204833984375,0.0070037841796875
1690841657775807700,12.424807861328125,-0.9798126220703125,0.017242431640625,0.0048980712890625
1690841657785847600,12.43484765625,-0.9815521240234375,0.0178985595703125,0.0029754638671875
1690841657795918600,12.444918701171876,-0.9832000732421875,0.01904296875,0.0023651123046875
1690841657805958400,12.45495849609375,-0.978485107421875,0.0191802978515625,0.0009613037109375
1690841657815998500,12.46499853515625,-0.980712890625,0.0197906494140625,0.002105712890625
1690841657826039600,12.47503955078125,-0.98175048828125,0.01959228515625,0.00201416015625
1690841657836079600,12.48507958984375,-0.9809722900390625,0.01898193359375,0.00299072265625
1690841657846119700,12.49511962890625,-0.9821319580078125,0.0194549560546875,0.0040130615234375
1690841657856159700,12.50515966796875,-0.9807586669921875,0.019744873046875,0.005126953125
1690841657866200600,12.51520068359375,-0.9808197021484375,0.01806640625,0.006072998046875
1690841657876240400,12.525240478515625,-0.98175048828125,0.01837158203125,0.006103515625
1690841657886280400,12.535280517578125,-0.9798583984375,0.016845703125,0.0054473876953125
1690841657896321500,12.545321533203126,-0.98297119140625,0.016876220703125,0.0040130615234375
1690841657906361600,12.555361572265625,-0.9817962646484375,0.016754150390625,0.00311279296875
1690841657916401700,12.565401611328125,-0.981414794921875,0.015777587890625,0.0025177001953125
1690841657926441700,12.575441650390625,-0.9824981689453125,0.015899658203125,0.002288818359375
1690841657936512500,12.585512451171875,-0.982177734375,0.014923095703125,0.0034332275390625
1690841657946552600,12.595552490234375,-0.98211669921875,0.0154876708984375,0.0030517578125
1690841657956593400,12.605593505859375,-0.9827728271484375,0.0169525146484375,0.003814697265625
1690841657966633500,12.615633544921875,-0.98150634765625,0.016571044921875,0.0042266845703125
1690841657976673500,12.625673583984375,-0.9825592041015625,0.0172576904296875,0.0053863525390625
1690841657986714600,12.635714599609376,-0.9823150634765625,0.0175323486328125,0.004364013671875
1690841657996754700,12.645754638671875,-0.981231689453125,0.017578125,0.003265380859375
1690841658006794500,12.65579443359375,-0.9814453125,0.018585205078125,0.0033111572265625
1690841658016834600,12.66583447265625,-0.980224609375,0.0185089111328125,0.0030670166015625
1690841658026875400,12.67587548828125,-0.98138427734375,0.018157958984375,0.00372314453125
1690841658036915500,12.68591552734375,-0.98193359375,0.0193634033203125,0.0038604736328125
1690841658046955500,12.69595556640625,-0.9805145263671875,0.0187530517578125,0.0037384033203125
1690841658056996600,12.70599658203125,-0.981903076171875,0.018585205078125,0.003936767578125
1690841658067036700,12.71603662109375,-0.9811859130859375,0.018035888671875,0.003814697265625
1690841658077107700,12.726107666015626,-0.9805755615234375,0.0170440673828125,0.0037689208984375
1690841658087147500,12.7361474609375,-0.982330322265625,0.0173797607421875,0.003692626953125
1690841658097187600,12.7461875,-0.9809112548828125,0.0173492431640625,0.003662109375
1690841658107227600,12.7562275390625,-0.9818267822265625,0.0171051025390625,0.00469970703125
1690841658117268500,12.7662685546875,-0.98114013671875,0.0158233642578125,0.004241943359375
1690841658127308500,12.77630859375,-0.980560302734375,0.0164947509765625,0.0044403076171875
1690841658137348600,12.7863486328125,-0.9826812744140625,0.0172882080078125,0.0049896240234375
1690841658147389700,12.7963896484375,-0.9812774658203125,0.0164947509765625,0.0041351318359375
1690841658157429500,12.806429443359375,-0.982208251953125,0.0164031982421875,0.003692626953125
1690841658167469600,12.816469482421875,-0.9825897216796875,0.016387939453125,0.004150390625
1690841658177509600,12.826509521484375,-0.981689453125,0.0169219970703125,0.003875732421875
1690841658187550500,12.836550537109375,-0.981781005859375,0.0175933837890625,0.003692626953125
1690841658197590500,12.846590576171875,-0.9818572998046875,0.0175323486328125,0.0040740966796875
1690841658207630600,12.856630615234375,-0.981842041015625,0.017120361328125,0.0037994384765625
1690841658217701600,12.86670166015625,-0.9818115234375,0.0179901123046875,0.003936767578125
1690841658227741400,12.876741455078125,-0.9810028076171875,0.01788330078125,0.004364013671875
1690841658237782500,12.886782470703125,-0.9818572998046875,0.018463134765625,0.0045623779296875
1690841658247822600,12.896822509765625,-0.9819183349609375,0.018707275390625,0.004058837890625
1690841658257862700,12.906862548828125,-0.98175048828125,0.0182952880859375,0.003662109375
1690841658267903500,12.916903564453126,-0.9821929931640625,0.017608642578125,0.003082275390625
1690841658277943600,12.926943603515625,-0.9820098876953125,0.017669677734375,0.00335693359375
1690841658287983600,12.936983642578125,-0.9814605712890625,0.0172882080078125,0.00445556640625
1690841658298023400,12.9470234375,-0.981170654296875,0.0179901123046875,0.00311279296875
1690841658308064500,12.957064453125,-0.9812164306640625,0.0168914794921875,0.0034332275390625
1690841658318104600,12.9671044921875,-0.9812164306640625,0.0170440673828125,0.0038604736328125
1690841658328144600,12.97714453125,-0.98162841796875,0.01654052734375,0.004119873046875
1690841658338185500,12.987185546875,-0.9806365966796875,0.015380859375,0.0045318603515625
1690841658348255700,12.997255859375,-0.9817047119140625,0.016326904296875,0.003570556640625
1690841658358296600,13.007296630859376,-0.981781005859375,0.0170135498046875,0.0046234130859375
1690841658368336600,13.017336669921875,-0.98126220703125,0.0172119140625,0.004180908203125
1690841658378376400,13.02737646484375,-0.981658935546875,0.0179290771484375,0.0043487548828125
1690841658388416500,13.03741650390625,-0.98065185546875,0.0174713134765625,0.004638671875
1690841658398457600,13.04745751953125,-0.9812469482421875,0.017913818359375,0.003692626953125
1690841658408497700,13.05749755859375,-0.9823150634765625,0.018341064453125,0.0043487548828125
