time,seconds_elapsed,z,y,x
1690841645393469400,0.042469482421875,0.11439502546489239,-0.16687224994348362,-0.20901110882442445
1690841645403509500,0.052509521484375,0.0936982743948698,-0.23251022223038598,-0.1379326716498006
1690841645413549300,0.06254931640625,0.06762801359295845,-0.26367955973697826,-0.05399553835336118
1690841645423590400,0.07259033203125,0.06850888808071613,-0.2476013718456961,0.009109216528339311
1690841645433630500,0.08263037109375,0.08495616501271724,-0.19104343565842136,0.03606835246137343
1690841645443670500,0.09267041015625,0.1081155068039894,-0.10148299172064289,0.01588535959976725
1690841645453741600,0.102741455078125,0.15907880132198332,-0.01059171017105691,-0.05112247626823373
1690841645463781400,0.112781494140625,0.19984920312762258,0.09235383751597255,-0.11662784428456797
1690841645473822500,0.122822509765625,0.22640110996663568,0.1731558237249963,-0.16069162507979198
1690841645483862500,0.132862548828125,0.257605811047554,0.23828926228955385,-0.16856142687313258
1690841645493902300,0.14290234375,0.2646031225889921,0.27448125026375053,-0.14166274328990838
1690841645503942400,0.1529423828125,0.25593057131171226,0.28760307256747036,-0.0988329704022035
1690841645513983500,0.1629833984375,0.2377291441887617,0.28289272118574005,-0.04094823345742188
1690841645524023600,0.1730234375,0.22136077771186827,0.2606831909325905,0.0009843987943138927
1690841645534063400,0.1830634765625,0.20680150648355483,0.2149871327604167,0.0012338252444285898
1690841645544104400,0.1931044921875,0.19238252050876617,0.14928531972337514,-0.027378786117210983
1690841645554144300,0.203144287109375,0.17015666017532347,0.06927374867310282,-0.07628272781944834
1690841645564184300,0.213184326171875,0.1591144571572542,-0.001330006494745612,-0.12858244030666538
1690841645574224400,0.223224365234375,0.1416033503860235,-0.06337160739065148,-0.14991844826145095
1690841645584265500,0.233265380859375,0.142175012794137,-0.10640049218018538,-0.14404447819413616
1690841645594336500,0.24333642578125,0.12582885814905165,-0.12780323609509506,-0.10582713100533
1690841645604372200,0.253372314453125,0.12040858666598796,-0.12189096157769672,-0.046534107298357406
1690841645614412300,0.263412353515625,0.12471768203675747,-0.08334176121917553,-0.018347393198590724
1690841645624452000,0.2734521484375,0.13890344377756117,-0.01985147305203136,-0.0065551298650447275
1690841645634493200,0.2834931640625,0.1596732600837946,0.03193480545375496,-0.04053704057433642
1690841645644533200,0.293533203125,0.1918143652319908,0.10107128738090396,-0.07643769918545149
1690841645654573300,0.3035732421875,0.21363281380832194,0.147193717738986,-0.10878186175823211
1690841645664614100,0.3136142578125,0.22917466633319852,0.18469021244049072,-0.13294781417562626
1690841645674654200,0.323654296875,0.23754794240295884,0.20501615743674337,-0.12760791445239447
1690841645684694300,0.3336943359375,0.22588848426938055,0.2093923632269725,-0.09614290020116605
1690841645694734000,0.343734130859375,0.21768881120085715,0.1913873537252657,-0.06743500263835303
1690841645704775200,0.353775146484375,0.19453882175981999,0.160616422685422,-0.04146710623237304
1690841645714815200,0.363815185546875,0.18545944324731825,0.11814629515665583,-0.03317438458553515
1690841645724886300,0.37388623046875,0.16470131737887858,0.0682677499683341,-0.035813921042578294
1690841645734926300,0.38392626953125,0.15215864666998385,0.021457533708913252,-0.06880375197459943
1690841645744966100,0.393966064453125,0.15590893911421297,-0.020413079857011324,-0.09729549516923724
1690841645755007200,0.40400732421875,0.1451250947713852,-0.03580908503725659,-0.11606515063419938
1690841645765047300,0.41404736328125,0.15168576846122742,-0.045826255856524216,-0.12242804586277342
1690841645775087000,0.424087158203125,0.16063304502665995,-0.03693118440236431,-0.09804211228545755
1690841645785127200,0.434127197265625,0.16628770978748797,-0.00735916255719494,-0.07688911448107101
1690841645795168300,0.444168212890625,0.17494272540807723,0.025578636793489568,-0.05666662072613835
1690841645805208300,0.454208251953125,0.16175766514241693,0.06032751785386353,-0.0486023375403136
1690841645815248100,0.464248046875,0.21038053401410578,0.09726907295319251,-0.05624821265097707
1690841645825289200,0.474289306640625,0.1982540428906679,0.12861909165577962,-0.07436086551193148
1690841645835329300,0.484329345703125,0.21306991922855376,0.13623166728504002,-0.0913678952185437
1690841645845369000,0.494369140625,0.1943716484993696,0.1422861267521046,-0.10255513273049145
1690841645855409200,0.5044091796875,0.21712767018675802,0.14286715977676212,-0.09764691155594774
1690841645865480200,0.514480224609375,0.19619418775141237,0.12772643539868295,-0.07942926395055837
1690841645875520300,0.524520263671875,0.1863373951256275,0.0997944632449653,-0.07169259615074842
1690841645885561300,0.534561279296875,0.17932488601505756,0.0753619414464105,-0.06735317870695144
1690841645895601200,0.54460107421875,0.17919044598042963,0.05536607778789475,-0.06511978449854068
1690841645905641000,0.554640869140625,0.17216799999773502,0.024315873148944227,-0.07473124232743866
1690841645915682000,0.56468212890625,0.16378829418718813,0.00914745704634115,-0.09136652524536475
1690841645925722000,0.57472216796875,0.16333119806945323,0.007407344513898715,-0.09424345978801138
1690841645935762200,0.58476220703125,0.17334171995222566,0.015732100700237787,-0.09431981295985169
1690841645945802200,0.59480224609375,0.16434417450428007,0.029541777403955347,-0.08754535952201113
1690841645955843300,0.60484326171875,0.1872182696133852,0.053738636416266666,-0.07410182185010053
1690841645965883100,0.614883056640625,0.18780279150307178,0.0724630005679326,-0.06722831021826714
1690841645975923200,0.624923095703125,0.18989245725870132,0.09060024444744921,-0.06830007676878012
1690841645985964300,0.63496435546875,0.1906429833650589,0.10110758253699167,-0.06621934323827736
1690841645996034000,0.645033935546875,0.1925952864766121,0.10996442260630428,-0.07450877694948575
1690841646006075100,0.6550751953125,0.2011345667630434,0.10855332283251919,-0.07623402070635929
1690841646016115200,0.665115234375,0.18992226787507532,0.10283115492658688,-0.0865119430873543
1690841646026155300,0.6751552734375,0.18230068695545196,0.088510688289674,-0.09160663587786257
1690841646036196400,0.6851962890625,0.18350363300442696,0.06748322569425218,-0.0973085464470554
1690841646046236200,0.695236083984375,0.18036475045681,0.0626827026778832,-0.0842379520070739
1690841646056276000,0.70527587890625,0.17707564578354357,0.040856837980076666,-0.06901729426058009
1690841646066316000,0.71531591796875,0.1689957997024059,0.0289329567566514,-0.06923231611759402
1690841646076357000,0.725357177734375,0.1710878035455942,0.02702045136594679,-0.07559251706558279
1690841646086397200,0.735397216796875,0.17332593786120415,0.02925526121330913,-0.07346312208776362
1690841646096437200,0.745437255859375,0.17795535122752187,0.03620824042267631,-0.08085409085559658
1690841646106478300,0.755478271484375,0.18198796774446963,0.048409294619667344,-0.08148346566716208
1690841646116518100,0.76551806640625,0.1824298662930727,0.066157703578379,-0.08194804183845408
1690841646126558200,0.77555810546875,0.1930482909411192,0.0795545251648873,-0.07757186344768852
1690841646136629000,0.78562890625,0.19723639028072357,0.09599803923722355,-0.07861989292958751
1690841646146669000,0.7956689453125,0.17913257831335067,0.09402920511597766,-0.0695300843546167
1690841646156709000,0.805709228515625,0.18527239624261854,0.08496305141123012,-0.07701462229057214
1690841646166750200,0.815750244140625,0.189618901014328,0.08502764108004048,-0.08224553608084097
1690841646176790300,0.825790283203125,0.18753040430247783,0.08197956035472452,-0.08672631649039685
1690841646186830300,0.835830322265625,0.18424422223865985,0.06982540490622632,-0.08282275144690647
1690841646196871200,0.84587109375,0.18843641323149204,0.0625498609452974,-0.08333857374824583
1690841646206911000,0.855910888671875,0.17482056033313273,0.05025521931387484,-0.0791531960886903
1690841646216951000,0.865950927734375,0.17526888862252235,0.05109766148738563,-0.0756244739732705
1690841646226991000,0.8759912109375,0.17736323055326939,0.04199434497687034,-0.0852318127494771
1690841646237032200,0.8860322265625,0.1644914740204811,0.044444400443532504,-0.07698703103074804
1690841646247072300,0.896072265625,0.1715197652220726,0.049167597607104103,-0.07902440034355968
1690841646257112300,0.9061123046875,0.17854864094555378,0.054559268616768526,-0.07952087862361222
1690841646267153200,0.916153076171875,0.18348083665072917,0.06390040333799551,-0.08033741917088627
1690841646277223200,0.92622314453125,0.19245383217930792,0.07162111095027067,-0.08751079053212887
1690841646287264000,0.936263916015625,0.18362404451370237,0.08022276154896243,-0.08489378556730225
1690841646297304000,0.946303955078125,0.1926034697830677,0.08072490238482131,-0.08645093361511826
1690841646307344100,0.95634423828125,0.1944020436376333,0.08280110587067901,-0.0868076380982995
1690841646317385200,0.96638525390625,0.1929085902094841,0.07662532157888635,-0.07685365044204517
1690841646327425300,0.97642529296875,0.17286124295890332,0.06806818597535602,-0.07809570465870201
1690841646337465300,0.98646533203125,0.18154197754263876,0.066818615172524,-0.07384742696392349
1690841646347505200,0.996505126953125,0.17959961130321025,0.06581053410852328,-0.0817325541905593
1690841646357546000,1.0065458984375,0.17870529281198977,0.060000541788665575,-0.07253874638499691
1690841646367586000,1.0165859375,0.1830477059304714,0.05668527519425843,-0.06972033709655516
1690841646377626000,1.026626220703125,0.17481588415801524,0.059766751299099995,-0.0770033793773502
1690841646387666200,1.036666259765625,0.17720716320872307,0.05989444193253293,-0.07296217769514769
1690841646397707300,1.046707275390625,0.17870178568065165,0.0594949897195911,-0.08131489503406919
1690841646407778300,1.0567783203125,0.18004443246126173,0.060883494069078004,-0.07935453648022375
1690841646417818400,1.066818359375,0.17884382449984548,0.06610063506232108,-0.08128095623184926
1690841646427858200,1.076858154296875,0.19171148937940596,0.07627527059877756,-0.07965607671006582
1690841646437898200,1.086898193359375,0.18557634762525557,0.08143264879537745,-0.08168885204615071
1690841646447939000,1.09693896484375,0.17824468956291675,0.075032787123858,-0.07629199797129257
1690841646457979100,1.106979248046875,0.18393208754956722,0.07425335458342451,-0.0826860372568015
1690841646468019200,1.117019287109375,0.18692834675610065,0.07151312053115107,-0.08485760914222337
1690841646478060300,1.127060302734375,0.19037059616446494,0.07129838180192746,-0.08003666439233348
1690841646488100400,1.137100341796875,0.18872458252310753,0.06554569546014535,-0.08890000726766883
1690841646498140200,1.14714013671875,0.17974457273185251,0.06577315667362417,-0.08433392319483682
1690841646508180200,1.15718017578125,0.19051789568066596,0.0608457695743069,-0.08055546410204842
1690841646518221000,1.167220947265625,0.17734803298413754,0.055113116806978356,-0.08202213912112638
1690841646528261000,1.17726123046875,0.18004034080803394,0.06170504871818702,-0.08713982006157747
1690841646538301200,1.18730126953125,0.18138474115431308,0.060570633294200524,-0.07476802154071628
1690841646548372200,1.197372314453125,0.17165712786614895,0.06235461236783303,-0.07487663301434368
1690841646558412300,1.207412353515625,0.17749182536900043,0.06090631782223936,-0.0785944205616135
1690841646568453400,1.217453369140625,0.19275310738682747,0.06524437899258918,-0.07096182505763135
1690841646578493200,1.2274931640625,0.17584347364008426,0.06731764616926667,-0.08111134441914036
1690841646588533200,1.237533203125,0.18033084818720815,0.0691939477354288,-0.08462863182509317
1690841646598573300,1.2475732421875,0.1658171696662903,0.06429061736513395,-0.07995182651993818
1690841646608606700,1.257606689453125,0.17345161006748674,0.061855827966262586,-0.07668297918341122
1690841646618646500,1.267646484375,0.18317980787754057,0.07008716111495158,-0.0804135348807089
1690841646628686600,1.2776865234375,0.19126082300245761,0.0721602501951158,-0.08694024236886762
1690841646638727700,1.287727783203125,0.18332886095941064,0.06006477069787215,-0.07779333331179805
1690841646648767700,1.297767822265625,0.18572189357578753,0.0570743430105038,-0.07622223893702029
1690841646658807800,1.307807861328125,0.180482239356637,0.06208054466680623,-0.0856164738186635
1690841646668847900,1.317847900390625,0.1795838292121887,0.06164307113157119,-0.0765054945915006
1690841646678919000,1.3279189453125,0.1806307079166174,0.0551059061814798,-0.07784605901287868
1690841646688959700,1.337959716796875,0.17569208247065543,0.05284776569087989,-0.07406157203810289
1690841646698999600,1.34799951171875,0.16985621592402458,0.06347676196529065,-0.07921500927852466
1690841646709039600,1.35803955078125,0.18631693685948847,0.06750031382637098,-0.07662345841536299
1690841646719079700,1.36807958984375,0.1851215895950794,0.06650094579178839,-0.07157964642872103
1690841646729120800,1.378120849609375,0.19065876545608043,0.07544535454669966,-0.07786874576872214
1690841646739160800,1.388160888671875,0.18676818775832651,0.06658234959808178,-0.07567362861093133
1690841646749201000,1.398200927734375,0.17943711421787736,0.06687818160634487,-0.0785046873183921
1690841646759241700,1.40824169921875,0.18377718924880027,0.07978639769200235,-0.07737529056281782
1690841646769281500,1.418281494140625,0.18302958575189113,0.06848486788431182,-0.07996238444657064
1690841646779321600,1.428321533203125,0.1707610558092594,0.05903690722116735,-0.08486341782850212
1690841646789361700,1.438361572265625,0.17674655995965002,0.06423146648984401,-0.08353241581991315
1690841646799402800,1.44840283203125,0.19260639239251612,0.0715292999143945,-0.08081406023930758
1690841646809442800,1.45844287109375,0.19275369190871713,0.06170490715429187,-0.0802511656595394
1690841646819513900,1.468513916015625,0.18661971919834613,0.0607377426225692,-0.07925384345157072
1690841646829554000,1.478553955078125,0.17704291255772112,0.06675449129459447,-0.07664170645810663
1690841646839593700,1.48859375,0.17898937045037747,0.05848381251620594,-0.07939512421893886
1690841646849634600,1.498634521484375,0.17494973967075347,0.0663582311191596,-0.08110368170249276
1690841646859674600,1.508674560546875,0.17674480639398096,0.06774826983860693,-0.08741560479565523
1690841646869714700,1.518714599609375,0.17240297779738903,0.05654536896664649,-0.08452055007442831
1690841646879754800,1.528754638671875,0.1756944205582142,0.06343758529894986,-0.08816672455705701
1690841646889795800,1.5387958984375,0.18856208543777464,0.06470332635187077,-0.08066100683575496
1690841646899836000,1.5488359375,0.19170447511672972,0.0699569223314058,-0.0766013196487911
1690841646909875700,1.558875732421875,0.17853811955153942,0.06202485982365906,-0.07431541893500834
1690841646919916500,1.56891650390625,0.17659458426833152,0.0647505356276175,-0.08011803166600875
1690841646929956600,1.57895654296875,0.17958733634352683,0.06456947540570981,-0.07782283340091817
1690841646939996700,1.58899658203125,0.18018764032423495,0.06046296253548935,-0.08030073128915391
1690841646950036700,1.59903662109375,0.17749474797844886,0.06886960201873443,-0.07696245371191762
1690841646960107800,1.609107666015625,0.17659750687777995,0.0651806843729224,-0.0783633243526332
1690841646970148900,1.61914892578125,0.1712099686205387,0.06348822864079848,-0.07579265188071876
1690841646980189000,1.62918896484375,0.17704583516716957,0.06158916268697939,-0.08988480792078189
1690841646990228700,1.639228759765625,0.17944062134921548,0.0649998113806825,-0.09006732488083653
1690841647000268800,1.649268798828125,0.1881196023672819,0.06226297942847013,-0.0888106850164011
1690841647010309600,1.6593095703125,0.15998773286044596,0.06712032893230206,-0.08122859585694968
1690841647020349700,1.669349609375,0.19679975242912767,0.06319457032331265,-0.0787834037950728
1690841647030389800,1.6793896484375,0.1884200466185808,0.06989098095572553,-0.07982431854959576
1690841647040429800,1.689429931640625,0.18303367740511894,0.06307664303206838,-0.07778680310631171
1690841647050471000,1.699470947265625,0.17899346210360526,0.06907723058715928,-0.07638833448523655
1690841647060510700,1.7095107421875,0.18512801933586595,0.07045143698323518,-0.07876490915715693
1690841647070550800,1.71955078125,0.18168752349317072,0.06840087482871021,-0.08201203785222023
1690841647080591600,1.729591552734375,0.17809563648104668,0.07136865229285322,-0.07976877070376649
1690841647090662000,1.739661865234375,0.1692670178592205,0.06240416429771576,-0.07068976665060035
1690841647100702700,1.74970263671875,0.1935088941901922,0.07143960320379118,-0.07634165493245236
1690841647110742800,1.75974267578125,0.1794447130024433,0.06996489100873005,-0.07653399003362282
1690841647120782800,1.769782958984375,0.172412330147624,0.06262821884455624,-0.07782879735082388
1690841647130824000,1.779823974609375,0.17525602914094923,0.06460345530712511,-0.08182988621834665
1690841647140863700,1.78986376953125,0.18662673346102238,0.07155024223772342,-0.08130345119144768
1690841647150903800,1.79990380859375,0.1834831747382879,0.07234467598446645,-0.08225191102270037
1690841647160943900,1.80994384765625,0.19335925658643244,0.0627758243214339,-0.07798365911897272
1690841647170984700,1.819984619140625,0.17240999206006527,0.0686625305727357,-0.08051189895495772
1690841647181024800,1.830024658203125,0.1792915682673454,0.06557714547775685,-0.08012543865432963
1690841647191064800,1.84006494140625,0.17929332183301447,0.06743534969822504,-0.07860731657580472
1690841647201106000,1.85010595703125,0.1854278790652752,0.0743172957982635,-0.08687146971528417
1690841647211145700,1.860145751953125,0.18109014212191105,0.06918127548352349,-0.08875258902045897
1690841647221185800,1.870185791015625,0.18019231649935244,0.056229544483125206,-0.07925490289749577
1690841647231256800,1.8802568359375,0.19380933844149112,0.05990088993962854,-0.07541218292945996
1690841647241297000,1.890296875,0.17899813827872274,0.05832680445674341,-0.0816853449148126
1690841647251336700,1.900336669921875,0.16777824060618876,0.056890364745724946,-0.07503937669484875
1690841647261377800,1.910377685546875,0.1793015051394701,0.06551336865969933,-0.08203970217728056
1690841647271417900,1.92041796875,0.1757102026492357,0.05801723161749541,-0.09153853907771407
1690841647281457700,1.930457763671875,0.17615736189484596,0.06818610870002303,-0.08577393853585236
1690841647291498800,1.940498779296875,0.18333704426586628,0.0592169171303045,-0.07978592276796698
1690841647301538800,1.950538818359375,0.1780979745686054,0.06356922145513817,-0.07888901959401555
1690841647311578600,1.96057861328125,0.1806429828763008,0.06441511596105992,-0.07536827985565178
1690841647321618700,1.97061865234375,0.177654906976223,0.060037731993896885,-0.07268997315764426
1690841647331659800,1.98065966796875,0.17556465669870375,0.05774482158401515,-0.08148382186018861
1690841647341699800,1.990699951171875,0.19352175367176533,0.0651493713526288,-0.08253156821429729
1690841647351739600,2.00073974609375,0.1809516104340553,0.06156131113225128,-0.09202943700035102
1690841647361780700,2.01078076171875,0.17541151196360588,0.061500379291828715,-0.0870154082306195
1690841647371850800,2.020850830078125,0.1728647500902414,0.06303973138805012,-0.08361186513113789
1690841647381891800,2.030891845703125,0.1761550238072872,0.06652661452258471,-0.07722979941121302
1690841647391931600,2.040931640625,0.18244097220897673,0.0664192223250866,-0.07418097890038043
1690841647401971700,2.0509716796875,0.1800496931582689,0.05677587152058258,-0.06585137757556513
1690841647412012800,2.0610126953125,0.17840718664824962,0.06243291090158745,-0.07408464238643646
1690841647422052600,2.071052490234375,0.18768705616891382,0.06818356054991018,-0.0839624960665591
1690841647432092700,2.0810927734375,0.18798633137643336,0.06633196873331908,-0.08853478155131451
1690841647442132700,2.0911328125,0.1800549538552761,0.062348493154300376,-0.08446660966379567
1690841647452173800,2.101173828125,0.17765958315134048,0.05829569236584939,-0.07659939255318604
1690841647462213600,2.111213623046875,0.17511632840931415,0.06544192455841694,-0.06773953854287974
1690841647472253700,2.121253662109375,0.16464111162424086,0.06980074538900516,-0.07039784363247453
1690841647482293800,2.131293701171875,0.17137597283720968,0.061912490056944075,-0.07812621852797455
1690841647492334800,2.1413349609375,0.18544249211251734,0.05830638728979975,-0.08517136039966716
1690841647502405600,2.151405517578125,0.18708850575387476,0.059236850240058266,-0.08619454770125448
1690841647512445700,2.16144580078125,0.18259587050974369,0.06162293709241785,-0.08088717114129103
1690841647522485800,2.17148583984375,0.17376491380035877,0.06502908314093947,-0.07513755810600704
1690841647532525800,2.18152587890625,0.18124679398834703,0.06475038036399054,-0.06798655384019948
1690841647542566700,2.191566650390625,0.16987608966827392,0.06228331896360032,-0.06487120743179693
1690841647552606700,2.201606689453125,0.16658640047311782,0.06158421251722611,-0.0675877637809608
1690841647562646500,2.211646484375,0.16748656418323515,0.058668210906093005,-0.07126321002384647
1690841647572687600,2.2216875,0.17661504253447055,0.0664988999651745,-0.07279249281720258
1690841647582727700,2.231727783203125,0.18185060510039328,0.06581897314330562,-0.08121544411443174
1690841647592767700,2.241767822265625,0.18454115935862064,0.05707433387734927,-0.08150247176173142
1690841647602807800,2.251807861328125,0.17600889333486555,0.06177240573281888,-0.07687830995926632
1690841647612855300,2.261855224609375,0.1763075840204954,0.06701354865615722,-0.07529080330580472
1690841647622895000,2.27189501953125,0.17810440430939198,0.06095551355909556,-0.069966000687005
1690841647632935200,2.28193505859375,0.16837912910878658,0.06282228467850945,-0.07171260689231566
1690841647643006200,2.292006103515625,0.17212299181222915,0.06677516875644214,-0.07886351069342344
1690841647653046000,2.3020458984375,0.17437047847807408,0.0610806240763748,-0.07475498852920719
1690841647663087000,2.312087158203125,0.17766075219511984,0.06060029321352485,-0.0787629181294702
1690841647673127200,2.322127197265625,0.1772100858181715,0.061770140710496343,-0.0720025571490638
1690841647683167200,2.332167236328125,0.18259587050974369,0.07075551166345831,-0.08384486103625968
1690841647693207000,2.34220703125,0.1785568242520094,0.057656047322019,-0.07638462642449885
1690841647703248100,2.352248046875,0.1728735179185867,0.06395997433839365,-0.0755600121686235
1690841647713288200,2.3622880859375,0.1894832919359207,0.06160903643122874,-0.08359351662369445
1690841647723328000,2.372327880859375,0.19053075516223905,0.06136183390424121,-0.09220317699890583
1690841647733369000,2.382369140625,0.1806558423578739,0.06916526506363879,-0.09365617968565784
1690841647743409200,2.3924091796875,0.18215221839547155,0.07319178063336294,-0.09369772640559822
1690841647753449200,2.40244921875,0.1836491789549589,0.060869721272052264,-0.07680658729677088
1690841647763489000,2.412489013671875,0.18424772936999798,0.06102141840215772,-0.07708998908172361
1690841647773530000,2.422530029296875,0.18245324716866015,0.06617543103131465,-0.07724175471048801
1690841647783601200,2.43260107421875,0.17497195150256156,0.059638658806867896,-0.0672820131668821
1690841647793641200,2.44264111328125,0.1808078180491924,0.061118910260149276,-0.07066453174464404
1690841647803681000,2.452680908203125,0.18065876496732233,0.0675890926549444,-0.07835107679241336
1690841647813721000,2.46272119140625,0.18200608792304993,0.06750367026065941,-0.07661322014913893
1690841647823762200,2.47276220703125,0.18095920921862124,0.06626304538268596,-0.07009190122215077
1690841647833802200,2.48280224609375,0.18439970506131648,0.06756342849072534,-0.06912775976457633
1690841647843842000,2.492842041015625,0.17811434118151664,0.05749783368615899,-0.07903940611644647
1690841647853883100,2.502883056640625,0.18140870655179023,0.061996492245700204,-0.07779343377649783
1690841647863923200,2.512923095703125,0.17243220389187336,0.061695737467147405,-0.0806324657278601
1690841647873963000,2.522962890625,0.17587620686590671,0.05701705986531451,-0.07549702993500977
1690841647884003000,2.533003173828125,0.1685433797597885,0.059828436624770984,-0.07456535684177651
1690841647894044200,2.543044189453125,0.17452713034451006,0.05652667339933105,-0.07117102909521199
1690841647904084200,2.553084228515625,0.17841653899848461,0.06740654372884891,-0.0690793357792776
1690841647914155000,2.563155029296875,0.1772188536465168,0.06882015968670603,-0.07655964506468735
1690841647924195000,2.573195068359375,0.17302900074124336,0.0688001215456752,-0.07326496916715987
1690841647934235100,2.583235107421875,0.1704863305211067,0.0633294030835852,-0.07552702321447431
1690841647944276000,2.59327587890625,0.1727303100556135,0.060208193189976736,-0.07930982968881725
1690841647954316000,2.60331591796875,0.17303192335069179,0.06457082711257972,-0.07958880189382471
1690841647964356000,2.613356201171875,0.1749783812433481,0.05545182897574268,-0.07380689402413554
1690841647974396200,2.623396240234375,0.1785690992116928,0.053997748576756564,-0.07326964534227735
1690841647984437200,2.633437255859375,0.18290917424261569,0.06492852254302706,-0.07594163189735263
1690841647994477000,2.64347705078125,0.1827595366388559,0.06746391820558346,-0.07224916145442985
1690841648004517000,2.65351708984375,0.1827601211607456,0.06298415157618001,-0.06988991237664595
1690841648014558000,2.663557861328125,0.18231237739324568,0.06442229005394037,-0.06846141394348815
1690841648024598000,2.673597900390625,0.17902093463242053,0.06969091463924851,-0.07568213157779537
1690841648034638000,2.68363818359375,0.18291151233017444,0.0668290817676112,-0.07371289559775032
1690841648044678100,2.69367822265625,0.1791705722361803,0.05905767144798301,-0.07312009907006285
1690841648054749000,2.7037490234375,0.17767361167669296,0.0625178538052598,-0.08635025885277427
1690841648064790000,2.7137900390625,0.17048925313055513,0.06459121231348254,-0.07690269548185169
1690841648074830000,2.723830078125,0.18500468521714208,0.0663440701630665,-0.0758662742393557
1690841648084870100,2.7338701171875,0.19039222347438334,0.06820947587587871,-0.07726117179701104
1690841648094910200,2.74391015625,0.1832096184939146,0.05656254843031056,-0.07361247656373307
1690841648104951000,2.753950927734375,0.1794675093561411,0.06376131909429095,-0.07408799425414762
1690841648114991000,2.7639912109375,0.1862017860472202,0.06263621492134407,-0.07638736637085676
1690841648125031000,2.774031005859375,0.17153730087876318,0.06280031030871905,-0.07062187991300597
1690841648135071000,2.784071044921875,0.1770744767397642,0.05887792640032712,-0.07821177791957742
1690841648145112000,2.794112060546875,0.1790185965448618,0.05787047095741145,-0.08039722306672484
1690841648155152100,2.804152099609375,0.17662497940659522,0.06114972552352119,-0.06433654343266972
1690841648165192200,2.814192138671875,0.17333412116765975,0.0628060824623797,-0.07351516280225477
1690841648175233000,2.82423291015625,0.1821639088332653,0.06263697297316975,-0.08105844518812373
1690841648185273000,2.834273193359375,0.17049217574000358,0.05732108887976501,-0.07460084828026592
1690841648195344100,2.84434423828125,0.17258534862697122,0.056669652933441096,-0.07677774479477666
1690841648205384000,2.854384033203125,0.1727344017088413,0.0589088695278624,-0.07878196988981216
1690841648215424000,2.864424072265625,0.1743815843939781,0.059012151805823664,-0.07538464646856301
1690841648225465000,2.874465087890625,0.17722411434352398,0.06366712887166068,-0.07922661751792766
1690841648235505200,2.884505126953125,0.18231237739324568,0.058285276003112084,-0.07315853138430975
1690841648245545200,2.894545166015625,0.17677520153224469,0.053658369687711815,-0.07391890303124674
1690841648255585300,2.904585205078125,0.17109014163315295,0.06164329489385709,-0.07845792556721716
1690841648265626000,2.914626220703125,0.17962065409123895,0.06279932849460747,-0.07594984260327182
1690841648275666000,2.924666015625,0.17932137888371943,0.06579923182979691,-0.08252896526525728
1690841648285706000,2.9347060546875,0.17393500967025755,0.06204618117290083,-0.07424260029396973
1690841648295747000,2.9447470703125,0.18889818552434443,0.05955145088087301,-0.07787607055865228
1690841648305787100,2.954787109375,0.18246376856267452,0.06266490215971134,-0.0665837469707243
1690841648315827200,2.9648271484375,0.1742342848777771,0.05673187254865188,-0.0712990211227443
1690841648325898200,2.974898193359375,0.17169278370141983,0.05281983193776104,-0.077651394957304
1690841648335938300,2.984938232421875,0.18575988749861716,0.058890242459205905,-0.0731840585512109
1690841648345978000,2.99497802734375,0.18426292693912982,0.05494673356439452,-0.07306462428946979
1690841648356019000,3.00501904296875,0.17333938186466694,0.04727119853440672,-0.0753520685063675
1690841648366059000,3.01505908203125,0.17259236288964747,0.056221740202582436,-0.07547675433196127
1690841648376099000,3.02509912109375,0.18082360014021395,0.061048566703987305,-0.07765955086429603
1690841648386140200,3.03514013671875,0.17079729616641998,0.0577138738899026,-0.0750013371062465
1690841648396180200,3.04518017578125,0.17259294741153716,0.05713339798767119,-0.07560121182869188
1690841648406220300,3.05522021484375,0.17528583975732326,0.05320927421334199,-0.07651006116876378
1690841648416260000,3.065260009765625,0.17842822943627834,0.06055573255259078,-0.07699191726841964
1690841648426301000,3.075301025390625,0.17378887919783592,0.05875220396169461,-0.07148840621500276
1690841648436341000,3.085341064453125,0.17588263660669326,0.06082235216610133,-0.06826035667974502
1690841648446381000,3.095381103515625,0.18291677302718162,0.05880649143219925,-0.07530733431549742
1690841648456422100,3.105422119140625,0.16735563127994538,0.058538437913428054,-0.07661040713754481
1690841648466492200,3.1154921875,0.17843115204572677,0.05708524799700826,-0.07716272552437149
1690841648476533200,3.125533203125,0.1772358047813177,0.05676883899159729,-0.06866781410262919
1690841648486573300,3.1355732421875,0.17663725436627864,0.05968373092445545,-0.07565922562624328
1690841648496613000,3.145613037109375,0.18112579795718192,0.057685510878521015,-0.07986676945183425
1690841648506654000,3.155654052734375,0.17977964404523372,0.05574223132363986,-0.07114822360835969
1690841648516694000,3.165694091796875,0.17214812625348566,0.06557278896304779,-0.07461243825335986
1690841648526734000,3.175734130859375,0.17738719595074653,0.06332961771271657,-0.07164939632983877
1690841648536774100,3.185774169921875,0.1718506046116352,0.06374103435808792,-0.07703389324662276
1690841648546815200,3.195815185546875,0.18441957880556584,0.06775299167949705,-0.07224971857685596
1690841648556855300,3.205855224609375,0.17678981457948684,0.05858119020976592,-0.06807113598426803
1690841648566895000,3.21589501953125,0.18202713071107862,0.049987170361680905,-0.07160824233554303
1690841648576936000,3.22593603515625,0.1851695203900337,0.06012694921388756,-0.07459260104172863
1690841648586976000,3.23597607421875,0.17918518528342245,0.06381884426807519,-0.07133522494728677
1690841648597016000,3.24601611328125,0.17813889110088346,0.0564726599234622,-0.06794467832669615
1690841648607070500,3.256070556640625,0.1693102724790573,0.05717323680771515,-0.06384346268610097
1690841648617110500,3.266110595703125,0.17020926714539528,0.06589280556449666,-0.07268308675913139
1690841648627150600,3.276150634765625,0.1764952155470848,0.05706357045473996,-0.07354127449104562
1690841648637191400,3.28619140625,0.18397709573507307,0.05445111836744472,-0.06350583736272529
1690841648647231200,3.296231201171875,0.18697043233215807,0.05778590707965195,-0.07163472848366946
1690841648657271300,3.306271240234375,0.18652093499898909,0.05398226331325713,-0.08269965479020029
1690841648667312400,3.3163125,0.18517361204326152,0.056990587416919876,-0.08146925447871908
1690841648677352400,3.3263525390625,0.1714057834535837,0.05682932787402532,-0.07490733867986127
1690841648687392500,3.336392578125,0.17858780391216278,0.0635605495249154,-0.07512443376295268
1690841648697432600,3.3464326171875,0.1676636743158102,0.06416302262982353,-0.07020268638655543
1690841648707473400,3.356473388671875,0.175894327044487,0.06760229006323497,-0.0713584596924018
1690841648717513500,3.366513427734375,0.18308043915629385,0.06389775472318288,-0.07676292168498039
1690841648727553300,3.37655322265625,0.18263152634501456,0.06067121215842198,-0.07148480775211938
1690841648737624300,3.386624267578125,0.1667693558245897,0.06040163796942215,-0.07321714797005988
1690841648747664400,3.396664306640625,0.17051088044047355,0.06284735975426156,-0.07342425138209946
1690841648757705500,3.40670556640625,0.17470073334574698,0.06015041685444303,-0.06817311678770929
1690841648767745500,3.41674560546875,0.17694295931458473,0.0584182273335522,-0.07728515546079724
1690841648777785600,3.42678564453125,0.17828852870464323,0.06156885055131279,-0.08051522342320531
1690841648787825400,3.436825439453125,0.17080664851665495,0.05711113135693594,-0.07786172237289138
1690841648797866200,3.4468662109375,0.17993512686789034,0.06447117526354268,-0.08023718279995955
1690841648807906300,3.45690625,0.1782902822703123,0.0603822985147126,-0.07341772117661312
1690841648817946400,3.4669462890625,0.16976035433411596,0.05532475483024027,-0.0744691390588414
1690841648827987500,3.476987548828125,0.1809837591379881,0.050649419962964015,-0.07692246876140124
1690841648838027500,3.487027587890625,0.1770961040496826,0.058810510020190845,-0.07247605641232803
1690841648848067600,3.497067626953125,0.17245850737690924,0.055666357642412186,-0.06921378494706004
1690841648858107400,3.507107421875,0.18173720785379407,0.05353229562263004,-0.06439073043847456
1690841648868148200,3.517148193359375,0.18144027073383331,0.058237103179562835,-0.057662682558782395
1690841648878219300,3.52721923828125,0.1769523116648197,0.04895229262229986,-0.06952733527510427
1690841648888259300,3.53725927734375,0.17979601065814493,0.05445966243350412,-0.07757637522602454
1690841648898299400,3.54729931640625,0.17934768236875534,0.04673950281050056,-0.0734048251624219
1690841648908339500,3.55733935546875,0.17815175058245658,0.056408554311841726,-0.07106118464572354
1690841648918380500,3.567380615234375,0.17366086890399454,0.05865281240756157,-0.07036847140751779
1690841648928420600,3.577420654296875,0.17710194926857947,0.060063423557579515,-0.07201633907924405
1690841648938460400,3.58746044921875,0.18278993177711964,0.058439009826676915,-0.0732348297572229
1690841648948501200,3.597501220703125,0.17381167555153368,0.059133394432161,-0.07619802694437093
1690841648958541300,3.607541259765625,0.1699199288100004,0.06443330920487642,-0.07055810309494845
1690841648968581400,3.617581298828125,0.17351240034401416,0.06080009010194335,-0.07344508410757407
1690841648978621400,3.627621337890625,0.1751578294634819,0.055524583684699605,-0.07374888935973867
1690841648988662500,3.63766259765625,0.17919746024310587,0.057643676464213055,-0.07455402259700931
1690841648998702600,3.64770263671875,0.17710311831235884,0.052010894741630176,-0.06690795569010079
1690841649008742400,3.657742431640625,0.17875088551938534,0.05994825904557947,-0.07667119741407223
1690841649018813400,3.6678134765625,0.1865332099586725,0.06322472343298141,-0.06889540318027139
1690841649028853500,3.677853515625,0.1803986527264118,0.051435697802715,-0.07502547603365965
1690841649038894300,3.687894287109375,0.17965104922950267,0.05623088249026332,-0.0702711941786576
1690841649048934400,3.697934326171875,0.18054829033017158,0.06467241519037634,-0.06546495380755514
1690841649058974500,3.707974365234375,0.18009937751889227,0.054912105209007855,-0.07275679131615906
1690841649069014500,3.7180146484375,0.17815701127946376,0.05536996394514571,-0.06717521005785092
1690841649079055600,3.7280556640625,0.17516484372615812,0.060881585239781995,-0.07441048594047316
1690841649089095400,3.738095458984375,0.18264789295792577,0.0573737460821867,-0.07206711941841058
1690841649099135500,3.748135498046875,0.18324527432918547,0.0527757507674396,-0.06775406025857664
1690841649109176300,3.75817626953125,0.18683657681941984,0.061688444643258115,-0.0753596216251608
1690841649119216400,3.76821630859375,0.18518997865617273,0.06309452118205372,-0.0684592128532473
1690841649129256400,3.77825634765625,0.17755729182064534,0.054781323002767744,-0.07030924290041439
1690841649139296500,3.788296630859375,0.17681027284562587,0.05066023818450048,-0.06814399115792476
1690841649149367300,3.7983671875,0.17456687783300875,0.05893644708795473,-0.06610811968245543
1690841649159408400,3.808408447265625,0.1812999854803085,0.06236755404779687,-0.07140205223895608
1690841649169448400,3.818448486328125,0.1877355714857578,0.053795997193269426,-0.07166699591861106
1690841649179488500,3.828488525390625,0.18190028946101663,0.0617080900586443,-0.07566578323119319
1690841649189528600,3.838528564453125,0.17307283988296984,0.06147835925626568,-0.06774007739899679
1690841649199569400,3.8485693359375,0.17756138347387312,0.05294873271416872,-0.06180641303369775
1690841649209609500,3.858609375,0.182947752687335,0.05435438912785612,-0.07404869429022073
1690841649219649500,3.8686494140625,0.17800971176326275,0.058965394621226,-0.07179038483626209
1690841649229690600,3.878690673828125,0.17950433423519133,0.05285152855054475,-0.06589876951440236
1690841649239730400,3.88873046875,0.18040215985774993,0.05666793590039015,-0.06600076858415269
1690841649249770500,3.8987705078125,0.17890636834204196,0.0579237903135363,-0.06542979116262868
1690841649259810600,3.908810546875,0.1748655685186386,0.04904403515951708,-0.0678712934300769
1690841649269851400,3.918851318359375,0.1726221735060215,0.06112666430834215,-0.07015359568097629
1690841649279891500,3.928891357421875,0.17292086419165134,0.05643819139827974,-0.06504669186286628
1690841649289962500,3.93896240234375,0.17645663710236548,0.05629881032705307,-0.08860064072860405
1690841649300002300,3.949002197265625,0.3127408382922411,0.03706777986146044,-0.13800454044276847
1690841649310042400,3.95904248046875,0.01485270121693611,-0.07051177060203627,-0.51320773492679
1690841649320083500,3.96908349609375,-0.16212065323591232,-0.36777909063156694,1.1395448592968285
1690841649330123500,3.97912353515625,0.39450142213404177,0.22126447773054242,-0.577563594981283
1690841649340163600,3.98916357421875,0.25241058049201964,0.20317814662093295,-0.525243479026854
1690841649350203400,3.999203369140625,0.27083120332360267,0.2736618053733371,-0.34468379051983355
1690841649360244500,4.009244384765625,0.21795535318255424,0.10886675442955455,-0.33251674819029864
1690841649370284500,4.019284423828125,0.046698622810840605,-0.1383062816020101,0.08634407570715993
1690841649380324400,4.029324462890625,0.2168202116727829,0.05508647539522499,0.004241674424055964
1690841649390365400,4.039365478515625,0.0844657511472702,0.006417210098542273,0.08309241696745157
1690841649400405500,4.049405517578125,0.1880973905354738,0.07422613321635872,-0.013167122750170528
1690841649410445600,4.059445556640625,0.21838789938092232,0.10560330478735268,-0.12171966926455496
1690841649420485400,4.0694853515625,0.20120237130224702,0.12616699492908082,-0.229879745862633
1690841649430556400,4.079556396484375,0.20372399873435496,0.13147557706544175,-0.28597137971241027
1690841649440596200,4.08959619140625,0.24003800565302372,0.10198094043857417,-0.27155411077067254
1690841649450637300,4.09963720703125,0.19600246457159518,0.0850981398998294,-0.21075029890825972
1690841649460677400,4.109677490234375,0.1478086347669363,0.07098430175092071,-0.12003171617761253
1690841649470717400,4.119717529296875,0.1865951692789793,0.04363580117411911,-0.04118672752156854
1690841649480758500,4.129758544921875,0.1318874275356531,0.02430679479334503,-0.007452800223976373
1690841649490798600,4.139798583984375,0.14497019647061823,0.00755300006228499,-0.027512806026730684
1690841649500838400,4.14983837890625,0.16970424023270606,0.0039712051859125495,-0.10408225096622481
1690841649510878500,4.15987841796875,0.14501871178746223,-0.0005679908799938857,-0.1702339814615436
1690841649520919600,4.16991943359375,0.1973532946586609,-0.006479918337520212,-0.2189110099395737
1690841649530959400,4.17995947265625,0.1558423036187887,0.019502107058512047,-0.22562612527245654
1690841649540999400,4.18999951171875,0.19617957470417022,0.03250683318804949,-0.18912048650551586
1690841649551040500,4.20004052734375,0.1890998455762863,0.05467115432629362,-0.130137551661022
1690841649561110500,4.210110595703125,0.14883447068333625,0.07664422720875591,-0.08181792178591712
1690841649571151600,4.220151611328125,0.1982324155807495,0.08689367241393774,-0.06301040026228874
1690841649581191400,4.23019140625,0.17821780155599115,0.08928634883728809,-0.06513888192465528
1690841649591231200,4.240231201171875,0.1730178948253393,0.09972490514009259,-0.10436112270653247
1690841649601272300,4.250272216796875,0.2073117940932512,0.09073237379398197,-0.1487825030340813
1690841649611314400,4.260314453125,0.17888941720724105,0.07287823487189599,-0.18293513066777958
1690841649621354500,4.2703544921875,0.18741700705587863,0.06298363098637201,-0.19508430854706094
1690841649631394300,4.280394287109375,0.18935177451074123,0.054901437684521076,-0.1715467628268525
1690841649641435400,4.290435302734375,0.16629881570339203,0.037738797291088845,-0.13035075602028517
1690841649651475500,4.300475341796875,0.17199088986515998,0.02723099341066554,-0.10612539243269711
1690841649661515500,4.310515625,0.1516559578448534,0.022156557956896722,-0.07940790150212124
1690841649671556400,4.320556396484375,0.15511398934423923,0.016306936879549174,-0.08641964342771097
1690841649681596400,4.330596435546875,0.17802081767916678,0.016424398379912598,-0.11365403437186032
1690841649691636500,4.340636474609375,0.15452479127943514,0.028621013863803817,-0.1434880316214636
1690841649701707500,4.35070751953125,0.18159341546893118,0.039800323797622696,-0.16979489592453464
1690841649711747300,4.360747314453125,0.18830255771875382,0.047249096300452945,-0.17193083024099468
1690841649721787400,4.370787353515625,0.165681560587883,0.0627164588170126,-0.15351649101972578
1690841649731828500,4.380828369140625,0.1797328822940588,0.07666738888863474,-0.12830377862891182
1690841649741868500,4.39086865234375,0.17689093686640261,0.0731469414112158,-0.1130673205250874
1690841649751908600,4.40090869140625,0.1661304733991623,0.07406210176106542,-0.09888641762249172
1690841649761949400,4.410949462890625,0.18844927271306514,0.07379493872486055,-0.1070008966255933
1690841649771989500,4.420989501953125,0.17694705096781252,0.07228543834420852,-0.1266568699384108
1690841649782029300,4.431029296875,0.19701427196264265,0.06323403468402103,-0.14558359739491716
1690841649792069400,4.4410693359375,0.18744623315036296,0.05709651830969378,-0.15019629708845167
1690841649802110500,4.4511103515625,0.1669447123914957,0.05120353301465511,-0.1486365917573683
1690841649812150500,4.461150634765625,0.18609072688817976,0.04371317725926637,-0.13948688795501366
1690841649822190600,4.471190673828125,0.17321546322405337,0.03434499013433233,-0.1329253374823369
1690841649832261600,4.48126171875,0.1711181986838579,0.03642175074261613,-0.11928595757791771
1690841649842301400,4.491301513671875,0.18024492346942425,0.03640902825836092,-0.11379050196679308
1690841649852342500,4.501342529296875,0.1651326945334673,0.03598309446386993,-0.12414357194323092
1690841649862382300,4.51138232421875,0.17680501214861868,0.044673519324557855,-0.1317991829966195
1690841649872422400,4.52142236328125,0.16647943296730516,0.049802169183595105,-0.13318216178761794
1690841649882463500,4.53146337890625,0.17605331699848173,0.05722102147219702,-0.13563419458223505
1690841649892503600,4.541503662109375,0.18951310255229473,0.060245849186088885,-0.14092771614678204
1690841649902543600,4.551543701171875,0.1827747342079878,0.06575898658437654,-0.14184585390500723
1690841649912583700,4.561583740234375,0.17798749993145466,0.06142930508330464,-0.12107369951121508
1690841649922624500,4.57162451171875,0.18547405629456043,0.06224980941964313,-0.12218443723209202
1690841649932664300,4.581664306640625,0.17516016755104064,0.06074391663502902,-0.12374153048098087
1690841649942704400,4.591704345703125,0.1857978814214468,0.05397164602112025,-0.11686168957306071
1690841649952744400,4.601744384765625,0.17862345974743365,0.052767056004330515,-0.12322008215645328
1690841649962785500,4.61178564453125,0.1778799479037523,0.05094309198018163,-0.1293038042506203
1690841649972856600,4.621856689453125,0.1789303337395191,0.05040894857086241,-0.13163728869948535
1690841649982896600,4.631896728515625,0.16965104874074458,0.04556908905794844,-0.12500090115861967
1690841649992936400,4.6419365234375,0.16949673496186732,0.03983921276959591,-0.12649736852776258
1690841650002976500,4.6519765625,0.17517653416395187,0.04181781023303047,-0.12739568734066561
1690841650013017300,4.662017333984375,0.16604396415948866,0.04306337158102542,-0.12557723974185064
1690841650023057400,4.672057373046875,0.17532149559259413,0.04769362519755959,-0.12367442006152123
1690841650033097500,4.682097412109375,0.17756547512710094,0.05102288835127838,-0.12476243449393659
1690841650043138600,4.692138671875,0.18489888675510882,0.05551427235323935,-0.12393986606467515
1690841650053178600,4.7021787109375,0.1853483840882778,0.05516635396471247,-0.12973777522109448
1690841650063218700,4.71221875,0.17532441820204256,0.06277049055919051,-0.1347111431868747
1690841650073258500,4.722258544921875,0.18101064714491366,0.05568234979598782,-0.13296861036848276
1690841650083299300,4.73229931640625,0.17996201487481592,0.06166727855764329,-0.13714454434625803
1690841650093339400,4.74233935546875,0.17607377526462076,0.056734973254613574,-0.12429319128068163
1690841650103379500,4.75237939453125,0.1822106705844402,0.05382496755942702,-0.1308511067578569
1690841650113450500,4.762450439453125,0.17548223911225794,0.05764198683062568,-0.12332120444336905
1690841650123490600,4.772490478515625,0.1730915445834398,0.05266827180497348,-0.11767147158598526
1690841650133531600,4.78253173828125,0.1738420706897974,0.056156917638331645,-0.12084759913776069
1690841650143571500,4.792571533203125,0.1718985354065895,0.05341824992205947,-0.12871829598024487
1690841650153611500,4.802611572265625,0.1793792465507984,0.04547176616331562,-0.12960260453410447
1690841650163651600,4.812651611328125,0.1805734247714281,0.053521244505653154,-0.12493943502865731
1690841650173692400,4.8226923828125,0.17024843011200427,0.049557227112352845,-0.12754108716072515
1690841650183732500,4.832732421875,0.183113756904006,0.05233072867998853,-0.11891809237990528
1690841650193772500,4.8427724609375,0.17892448852062223,0.05271757257310673,-0.1243331031659618
1690841650203813600,4.852813720703125,0.17817630050182343,0.0574416419529356,-0.12307464580377563
1690841650213853700,4.862853759765625,0.1822206074565649,0.056146414510626345,-0.12234934547021985
1690841650223893500,4.8728935546875,0.17848375901579855,0.059083828802546486,-0.12420206066481769
1690841650233933600,4.88293359375,0.18836100990772245,0.06124108903482556,-0.12746051447149365
1690841650244004600,4.893004638671875,0.18881050724089143,0.05414901188202202,-0.13749631692599504
1690841650254045400,4.90304541015625,0.17833762854337692,0.05291109498436562,-0.1289100374263711
1690841650264085500,4.91308544921875,0.18043664664924144,0.05603653352851979,-0.12351743940152227
1690841650274125600,4.92312548828125,0.1771481264978647,0.05242587788384408,-0.1177152193961665
1690841650284165400,4.933165283203125,0.1693663865804672,0.04737381865866482,-0.1232867359181866
1690841650294206500,4.94320654296875,0.1777507685661316,0.04622361657707952,-0.12560067541636527
1690841650304246500,4.95324658203125,0.18029636139571667,0.04482791530182585,-0.12037680328823626
1690841650314286600,4.96328662109375,0.17475918553471564,0.04569358308729715,-0.1272029595138505
1690841650324327400,4.973327392578125,0.17460720984339714,0.043429574544914064,-0.12022175885699689
1690841650334367500,4.983367431640625,0.16398060188889502,0.051341955104656514,-0.1272123483967036
1690841650344407600,4.993407470703125,0.1758019725859165,0.05491458942703902,-0.12443882856275885
1690841650354447600,5.003447509765625,0.1731055731087923,0.05208300099661573,-0.1252547480555251
1690841650364488700,5.01348876953125,0.1804378156930208,0.05221768762641586,-0.1281153799173422
1690841650374528500,5.023528564453125,0.1799894874036312,0.05478473423598334,-0.12014420010875909
1690841650384599600,5.033599609375,0.1789431932210922,0.051659460088610644,-0.13355362544851376
1690841650394639600,5.0436396484375,0.18627543580532072,0.060501760175917296,-0.13822419280912726
1690841650404679400,5.053679443359375,0.1752045912146568,0.0584613586558029,-0.13975547576332464
1690841650414720500,5.063720458984375,0.16203706660568712,0.05439248351538554,-0.13004545293077827
1690841650424760600,5.073760498046875,0.16907120302617548,0.05421199411563575,-0.12137673757839947
1690841650434800400,5.08380029296875,0.1710188299626112,0.05164188789930194,-0.1265507426828146
1690841650444840400,5.09384033203125,0.17221593079268932,0.04182333579151891,-0.11969587181936948
1690841650454881500,5.103881591796875,0.1780512128174305,0.05041009934833273,-0.12267017492242156
1690841650464921600,5.113921630859375,0.1734136161446571,0.04201569829215295,-0.11886588726863265
1690841650474961400,5.12396142578125,0.1737117223083973,0.05013115454278886,-0.12199278711751102
1690841650485002500,5.13400244140625,0.172813312163949,0.04331374787921086,-0.12633457918148486
1690841650495042600,5.14404248046875,0.1726642590820789,0.05084380545732565,-0.13283605176368726
1690841650505082400,5.154082275390625,0.17700316506922245,0.05360288577396422,-0.1296663174200803
1690841650515122400,5.164122314453125,0.18209259716272352,0.0543357026936952,-0.12313655032515525
1690841650525193500,5.174193359375,0.1761065084904432,0.050946462114201854,-0.12021540218144655
1690841650535233500,5.184233642578125,0.1795499269425869,0.046508251337893304,-0.12447718781176954
1690841650545274600,5.194274658203125,0.17401333560347557,0.05107683789506554,-0.12373721963204443
1690841650555314400,5.204314453125,0.18149580031335352,0.05641934056733735,-0.11996506241587922
1690841650565354500,5.2143544921875,0.1822422347664833,0.047244164397008716,-0.12781151986625044
1690841650575395600,5.2243955078125,0.17700550315678118,0.04386752757076174,-0.12046440850645303
1690841650585435400,5.234435302734375,0.18538520896732807,0.050017538100481033,-0.12407898227442055
1690841650595475500,5.244475341796875,0.1795487578988075,0.050466012520343065,-0.12097484224662183
1690841650605515500,5.254515625,0.1731149254590273,0.04957152963234111,-0.1266089026108384
1690841650615525000,5.264525146484375,0.16907821728885172,0.041627466159546746,-0.12939347356176004
1690841650625565200,5.274565185546875,0.16803192310631274,0.04963111433247104,-0.12347630367353558
1690841650635605000,5.28460498046875,0.1791045212626457,0.06449067454845644,-0.12507190230190754
1690841650645646000,5.29464599609375,0.17147300347089767,0.05556613953779451,-0.12681688280571252
1690841650655716000,5.304716064453125,0.1723725826591253,0.05690905117988586,-0.12680486357435583
1690841650665757200,5.314757080078125,0.18180033621788025,0.05267851920435205,-0.12135090901739895
1690841650675797200,5.32479736328125,0.17925532791018484,0.052610184942185875,-0.11987385873477906
1690841650685837300,5.33483740234375,0.17057693141400812,0.0419257458532229,-0.12264905906915664
1690841650695878100,5.344878173828125,0.17192600793540477,0.05236921579316258,-0.1301515801863745
1690841650705918200,5.354918212890625,0.15935703374147414,0.05847732340991497,-0.12636420713476837
1690841650715958000,5.3649580078125,0.1647445719987154,0.05291554283061996,-0.12316069838572292
1690841650725998000,5.374998046875,0.1681868214070797,0.05272391098234802,-0.12414408339988439
1690841650736039200,5.3850390625,0.1714800177335739,0.04654312172187492,-0.1290115067731589
1690841650746079200,5.395079345703125,0.17507248926758764,0.05022132617742754,-0.12620430386532097
1690841650756119300,5.405119384765625,0.1809089403361082,0.05199126759255305,-0.1243627676518634
1690841650766160100,5.41516015625,0.17582243085205554,0.04510589199298992,-0.12983455012645573
1690841650776200200,5.4252001953125,0.1720809062361717,0.04926333133284934,-0.12340568612273782
1690841650786240000,5.435239990234375,0.17746902901530265,0.049555975870182734,-0.12492102258913218
1690841650796311000,5.44531103515625,0.17836568559408186,0.03817086856542155,-0.12008689869726076
1690841650806351000,5.45535107421875,0.17327859158813952,0.04807115327306091,-0.1255304779906757
1690841650816391200,5.46539111328125,0.17582593798339366,0.05350285946559161,-0.12310882206801324
1690841650826432300,5.475432373046875,0.1780722556054592,0.05469587777559645,-0.1198532543381676
1690841650836472300,5.485472412109375,0.1753799477815628,0.05700794497709721,-0.11659485533041879
1690841650846512000,5.49551220703125,0.17433131551146505,0.04851981035601347,-0.11720200917702167
1690841650856553000,5.505552978515625,0.18061843295693397,0.050592113984888415,-0.11701138197574763
1690841650866593000,5.515593017578125,0.18077099317014217,0.05093373962994665,-0.12074625765513627
1690841650876633000,5.525633056640625,0.18585750265419482,0.04696507346099242,-0.11793423244170843
1690841650886673200,5.535673095703125,0.16565642614662646,0.054210569343529635,-0.12081077425871044
1690841650896714200,5.54571435546875,0.18092355338335037,0.04575794442724436,-0.12660258246790618
1690841650906754300,5.55575439453125,0.17912907118201254,0.057426718378439545,-0.11935929680876434
1690841650916794400,5.56579443359375,0.1740413926541805,0.05443769263029098,-0.11622077958732843
1690841650926835200,5.575835205078125,0.17583938198685645,0.060337911383714526,-0.12275540552046149
1690841650936905200,5.5859052734375,0.17943068447709082,0.053067810782883314,-0.12584991920338942
1690841650946946000,5.595946044921875,0.1729962675154209,0.045836261227307835,-0.12799330617394297
1690841650956986000,5.605986083984375,0.17075404154658316,0.04764744796827435,-0.12952247023629024
1690841650967026200,5.616026123046875,0.18137772689163684,0.05094549399982206,-0.12121681604264303
1690841650977067300,5.6260673828125,0.18047990126907826,0.05517146853124723,-0.12385916551128029
1690841650987107300,5.636107421875,0.17898410975337029,0.06023967517362907,-0.12741581681324168
1690841650997147100,5.646147216796875,0.17045768894851207,0.05150779492454603,-0.12674297731928527
1690841651007187200,5.656187255859375,0.16866262222528455,0.04709379614088684,-0.11409783261660486
1690841651017228000,5.66622802734375,0.18632102851271629,0.05191065837070345,-0.1189154985640198
1690841651027268000,5.67626806640625,0.17509879275262355,0.05393640117780305,-0.12887301161792128
1690841651037308200,5.68630810546875,0.1809346592992544,0.05529803578667342,-0.12198652177350595
1690841651047348200,5.69634814453125,0.1758493188589811,0.04894806397175416,-0.12287557956771925
1690841651057389300,5.706389404296875,0.173605923846364,0.04858087462717667,-0.12262228066008538
1690841651067460400,5.71646044921875,0.18318448405265808,0.05035932814232073,-0.12938103420529515
1690841651077500200,5.726500244140625,0.1776496462792158,0.04458572231009602,-0.1269924585683271
1690841651087540200,5.736540283203125,0.17016718156933783,0.04930471365600824,-0.12128989954516291
1690841651097580300,5.746580322265625,0.17151567356884478,0.0498046990673989,-0.126625397087913
1690841651107621000,5.75662109375,0.17017127322256564,0.05061303804190829,-0.12800543500315398
1690841651117661200,5.7666611328125,0.17436229517161844,0.04907169035142287,-0.12190994940595701
1690841651127701200,5.776701171875,0.18319383640289305,0.05083630713745951,-0.11844064759388566
1690841651137742300,5.786742431640625,0.1824468174278736,0.05492775943586602,-0.12041371949883177
1690841651147782100,5.7967822265625,0.18140227681100368,0.04839090501302853,-0.12361940193865448
1690841651157822200,5.806822265625,0.17960837913155556,0.04400183060807176,-0.12753051096778362
1690841651167862300,5.8168623046875,0.17631752089262007,0.03905094846873544,-0.1217692074947059
1690841651177903000,5.826903076171875,0.17422200991809367,0.04172039600685239,-0.11690956556908785
1690841651187943200,5.836943115234375,0.1782639787852764,0.04636840447578579,-0.12384588590459897
1690841651197983200,5.846983154296875,0.17796704166531563,0.04739919056193903,-0.11427295172149315
1690841651208054300,5.85705419921875,0.17916472701728342,0.04842199427103624,-0.11992851153146475
1690841651218094000,5.867093994140625,0.17976444647610187,0.04471434452529065,-0.12345997359324246
1690841651228135200,5.87713525390625,0.18934125311672687,0.05192172775398939,-0.11008501677867025
1690841651238175200,5.88717529296875,0.16689444350898264,0.056892693700129164,-0.11472411128878593
1690841651248215300,5.89721533203125,0.17542378692328928,0.05118468218371272,-0.12278713409928604
1690841651258255400,5.90725537109375,0.18215806361436843,0.05254125702497549,-0.11707277504047378
1690841651268296200,5.917296142578125,0.17512860336899758,0.05424251711806282,-0.12347540862439199
1690841651278336300,5.927336181640625,0.18036942663192748,0.057479033087566495,-0.11995203853752463
1690841651288376000,5.9373759765625,0.18201485575139523,0.04888877153256908,-0.11559256468638777
1690841651298417200,5.947417236328125,0.1914431938320398,0.05432738238992169,-0.12737701917281374
1690841651308457200,5.957457275390625,0.17932430149316786,0.05099016425861046,-0.13077663501584902
1690841651318497300,5.967497314453125,0.1776794568955898,0.056319679585145783,-0.12932667366955428
1690841651328537300,5.977537353515625,0.17528642427921295,0.05737510692221112,-0.12180513732461258
1690841651338578200,5.987578125,0.17558628400862217,0.05032380930436775,-0.11516451200004667
1690841651348649200,5.997649169921875,0.1772358047813177,0.05319958393638953,-0.12086338122878224
1690841651358689300,6.007689208984375,0.1766390079319477,0.047582264644419774,-0.12010960371941327
1690841651368729000,6.01772900390625,0.17888123390078545,0.05019193568616174,-0.126367896929197
1690841651378769200,6.02776904296875,0.17918284719586372,0.05467553824046626,-0.1288875333336182
1690841651388810200,6.037810302734375,0.18532149608135223,0.05248717048387043,-0.11345763501692563
1690841651398850300,6.047850341796875,0.17574761205017567,0.053216242810245604,-0.10963142779227346
1690841651408890400,6.057890380859375,0.17410101388692856,0.048620549050439145,-0.11886044390853494
1690841651418931200,6.06793115234375,0.1815799714654684,0.04568646835992112,-0.12287789938896894
1690841651428971300,6.07797119140625,0.18412556429505347,0.04636052256342955,-0.11871665152367204
1690841651439011000,6.088010986328125,0.18128478791117666,0.04830214901734143,-0.11573063971651718
1690841651449051100,6.098051025390625,0.1922106710731983,0.05346917639169842,-0.12039998323442413
1690841651459092200,6.10809228515625,0.17785072180926798,0.049850739299366245,-0.11433602528665214
1690841651469132300,6.11813232421875,0.16587912898659704,0.0526458225111477,-0.12646741178091614
1690841651479203300,6.128203369140625,0.17440847240090368,0.04938229067055508,-0.11916163707850501
1690841651489243400,6.138243408203125,0.17261457472145555,0.05200191685073077,-0.12194496592041104
1690841651499283200,6.148283203125,0.178751470041275,0.05273580234954133,-0.11806732076946645
1690841651509324300,6.15832421875,0.1760591622173786,0.053020227047801016,-0.11663874927107244
1690841651519364000,6.168364013671875,0.1766606352418661,0.05308783979075961,-0.11486593091227114
1690841651529404200,6.178404052734375,0.1790577595114708,0.050384152056323364,-0.12488311999784782
1690841651539444200,6.1884443359375,0.17861060026586054,0.04780188961131498,-0.11680068010082467
1690841651549485300,6.1984853515625,0.17561843271255492,0.04924223374589346,-0.12287042846856638
1690841651559525400,6.208525390625,0.17756547512710094,0.04075754232406616,-0.1175579830078408
1690841651569565200,6.218565185546875,0.18190555015802382,0.042081721866223956,-0.11825847769370301
1690841651579606300,6.228606201171875,0.17143325598239897,0.03905438253483735,-0.12096128864530473
1690841651589646000,6.23864599609375,0.1799631839185953,0.04814955227151513,-0.12149320356491952
1690841651599686100,6.24868603515625,0.17981237727105617,0.045010322664026166,-0.1168214488942176
1690841651609747700,6.258747802734375,0.1696376047372818,0.04331856105164625,-0.1185516336876899
1690841651619818800,6.26881884765625,0.1715840626299381,0.04580350060202181,-0.1103959093587473
1690841651629859600,6.278859619140625,0.17218027495741844,0.04507759748026728,-0.1156973767677322
1690841651639899600,6.288899658203125,0.1635024629831314,0.04427938717412762,-0.12336323522049933
1690841651649939700,6.298939697265625,0.17308219223320484,0.042869712172448636,-0.11598518073316663
1690841651659979500,6.3089794921875,0.17577800718843936,0.046649778700433665,-0.1224381562648341
1690841651670020600,6.3190205078125,0.18236264627575874,0.04903521253224462,-0.11132575582107529
1690841651680060700,6.329060791015625,0.17622633547782898,0.04241436962038278,-0.11510174896214156
1690841651690100700,6.339100830078125,0.17518062581717966,0.04236979982629418,-0.1128964209375903
1690841651700140800,6.349140869140625,0.1694932278305292,0.055875433815829455,-0.11557101044170558
1690841651710181600,6.359181640625,0.17787351816296576,0.047638314813748,-0.10760412321574986
1690841651720221700,6.3692216796875,0.1702437539368868,0.0441982482293155,-0.11320355065800249
1690841651730261800,6.37926171875,0.17892448852062223,0.05326631989651359,-0.11319562307987362
1690841651740302800,6.389302734375,0.17338965074717996,0.0464049370938912,-0.12537925121802837
1690841651750342700,6.3993427734375,0.17682956206798553,0.052913149944134055,-0.12169093636041506
1690841651760413700,6.40941357421875,0.17353811930716037,0.05039488351289183,-0.11134232336338609
1690841651770453800,6.419453857421875,0.17937749298512934,0.042394075751025224,-0.11753737861122936
1690841651780493800,6.429493896484375,0.1807259849846363,0.05012249631229788,-0.11559634581236168
1690841651790534700,6.43953466796875,0.1769873829782009,0.05185801486801356,-0.11722515259059145
1690841651800574700,6.44957470703125,0.17683832989633083,0.050152827518479895,-0.1156491719781421
1690841651810614500,6.459614501953125,0.17758651791512964,0.048896543847071004,-0.11098105230294167
1690841651820654600,6.469654541015625,0.17623977948129177,0.04591675171814859,-0.11717271001730113
1690841651830695700,6.47969580078125,0.1768400834619999,0.048610301651060575,-0.11593947842791676
1690841651840735700,6.48973583984375,0.18432196364998815,0.045519395564170555,-0.11424926031865179
1690841651850775800,6.49977587890625,0.1813268734872341,0.040577920573996375,-0.12040164546854794
1690841651860816600,6.509816650390625,0.18357202206552029,0.04308039578106254,-0.113042569676321
1690841651870856700,6.519856689453125,0.1760895573556423,0.05352086091316305,-0.10602043422088027
1690841651880896800,6.529896728515625,0.17025369080901145,0.0447954926032573,-0.11660676496392115
1690841651890967600,6.539967529296875,0.17848258997201918,0.04679679508884437,-0.12096019266676157
1690841651901007600,6.550007568359375,0.17713760510385035,0.04814764344221912,-0.1093424730493687
1690841651911047700,6.560047607421875,0.1822246991097927,0.04894401798429899,-0.1197877513539046
1690841651921088800,6.5700888671875,0.17788345503509043,0.04418702358240261,-0.1212941921277903
1690841651931128800,6.58012890625,0.17100304787158965,0.042588611942436544,-0.1126344455331564
1690841651941169000,6.5901689453125,0.1751969924300909,0.047688309701625256,-0.1185320522043854
1690841651951209700,6.600209716796875,0.18237959741055965,0.052723180329985915,-0.11893780172737314
1690841651961249500,6.61024951171875,0.18402736461758612,0.04941316073285416,-0.1140390699003823
1690841651971289600,6.62028955078125,0.18148294083178043,0.040924523788271466,-0.12254998260885476
1690841651981329700,6.63032958984375,0.17145605233609676,0.04386683345101774,-0.11752974329404532
1690841651991370800,6.640370849609375,0.17190496514737605,0.04323383277710527,-0.10979202518146484
1690841652001410800,6.650410888671875,0.17789222286343573,0.045951886963611466,-0.10911379712633788
1690841652011451000,6.660450927734375,0.18462708407640457,0.04520840251939371,-0.1124981788676232
1690841652021491700,6.67049169921875,0.18372925845384597,0.048581934073101726,-0.11874118317672983
1690841652031561700,6.680561767578125,0.16622282785773276,0.0506934463343583,-0.11283586812308058
1690841652041602600,6.6906025390625,0.1763993539571762,0.05259363566618412,-0.11432996087204664
1690841652051642600,6.700642578125,0.17954525076746938,0.047524004251696166,-0.11203487220481037
1690841652061682700,6.7106826171875,0.17969839550256728,0.04655434636878781,-0.11396507308240979
1690841652071723800,6.720723876953125,0.18448679882287977,0.04766952280276455,-0.11255049357675015
1690841652081763800,6.730763916015625,0.17969605741500855,0.04312555923019536,-0.10777140607405453
1690841652091804000,6.740803955078125,0.18163959269821642,0.04390264454991556,-0.11722889718394726
1690841652101843700,6.75084375,0.1837356881946325,0.050620116236666214,-0.11753363401787355
1690841652111884500,6.760884521484375,0.17266367456018925,0.05015868187053129,-0.10862407738063484
1690841652121924600,6.770924560546875,0.17760405357182024,0.051180681862030175,-0.10874048856822773
1690841652131964700,6.780964599609375,0.18209142811894416,0.05217744694757275,-0.11554602213092148
1690841652142005800,6.791005859375,0.18403788601160048,0.043750066070398316,-0.11614614344853907
1690841652152045800,6.8010458984375,0.17520809834599493,0.035904174875607715,-0.1125761577409692
1690841652162086000,6.8110859375,0.1707213083207607,0.050916733696218575,-0.1111399326590821
1690841652172157000,6.821156982421875,0.18089724989831446,0.04060435192319564,-0.11738339362591504
1690841652182196700,6.83119677734375,0.16488661081790923,0.04591531781288795,-0.11924661194821819
1690841652192236500,6.841236572265625,0.17117255921959876,0.035504060508962716,-0.11836482414500787
1690841652202277600,6.851277587890625,0.18539046966433523,0.042937790706288066,-0.11193332979278638
1690841652212317700,6.861317626953125,0.18554186083376406,0.0497209663067013,-0.11273531209174543
1690841652222357800,6.871357666015625,0.1668394984513521,0.04945648841792717,-0.11530370127502829
1690841652232398800,6.88139892578125,0.1765688653051853,0.047361589364754035,-0.11589078044798225
1690841652242439000,6.89143896484375,0.18420096761882304,0.04207197679034434,-0.11178615814074873
1690841652252478700,6.901478759765625,0.17582301537394524,0.04931747267288156,-0.11622793998047709
1690841652262518500,6.9115185546875,0.1801642594486475,0.054739917846722524,-0.11739733081972226
1690841652272559600,6.9215595703125,0.17822130868732927,0.047244292261172084,-0.11113012365112081
1690841652282599700,6.931599609375,0.176129304844141,0.04842902680002153,-0.11223636785997076
1690841652292639700,6.9416396484375,0.17867723576128483,0.05607980641466565,-0.11144012118205428
1690841652302710800,6.951710693359375,0.17778233274817465,0.05906126991086639,-0.11162004432622342
1690841652312750600,6.96175048828125,0.18002806584835052,0.047334564360510555,-0.10837488839253782
1690841652322791700,6.971791748046875,0.1857107876598835,0.041657194577530025,-0.11849891711976379
1690841652332831700,6.981831787109375,0.18047464057207108,0.05081835135566071,-0.11292455105353146
1690841652342871600,6.99187158203125,0.1776321106225252,0.04748746250043623,-0.11392033889153971
1690841652352911600,7.00191162109375,0.1806254472196102,0.047937407358177,-0.11028366288961843
1690841652362952700,7.01195263671875,0.17179682859778403,0.051643139141472054,-0.10651841033827512
1690841652372992800,7.02199267578125,0.17389058600664137,0.04560015091649256,-0.11642154459012671
1690841652383032800,7.03203271484375,0.18631342972815035,0.04443901644893922,-0.1137363058278337
1690841652393074000,7.042073974609375,0.17958149112462996,0.04876516341920942,-0.10925844802772626
1690841652403113700,7.05211376953125,0.16940847215652466,0.0422409858148545,-0.11041309795556589
1690841652413153500,7.062153564453125,0.16836393153965473,0.05424211525926366,-0.10889849214153363
1690841652423193600,7.072193603515625,0.1770434970796108,0.04775647956700995,-0.115560415982455
1690841652433234700,7.082234619140625,0.1803378624498844,0.04823618937535211,-0.11468988022562115
1690841652443305700,7.0923056640625,0.18183540753126143,0.05365236007203348,-0.10959821964241563
1690841652453345800,7.102345703125,0.17779636127352713,0.050844965367950495,-0.10975154704060405
1690841652463385600,7.112385498046875,0.176002463594079,0.045374972991645335,-0.1163390539384447
1690841652473425700,7.12242578125,0.17644903831779957,0.04734079317189753,-0.1072550723160617
1690841652483466800,7.132466796875,0.17420505878329276,0.04495738690039143,-0.11043246024316176
1690841652493506600,7.142506591796875,0.1767512361347675,0.04145202739425003,-0.11145024071726947
1690841652503546600,7.152546630859375,0.17869944759309292,0.04075641894605942,-0.11084553455607965
1690841652513587700,7.162587646484375,0.17391045975089073,0.04144241931568831,-0.11863761320440099
1690841652523627800,7.172627685546875,0.18094225808382033,0.044087024673493576,-0.10910155869927257
1690841652533667800,7.182667724609375,0.18468495174348354,0.04317785567301325,-0.10866307595046236
1690841652543707600,7.192707763671875,0.174661570379138,0.04002774847848341,-0.1076378976211883
1690841652553748500,7.20274853515625,0.17959902678132056,0.04724526037555188,-0.1054768471297808
1690841652563788500,7.21278857421875,0.182742585504055,0.05510331693217158,-0.11614457254596054
1690841652573828600,7.22282861328125,0.17570961812734603,0.051034112998191265,-0.11296630783602594
1690841652583899600,7.232899658203125,0.1799023936420679,0.044515378753934055,-0.10638957806052639
1690841652593939700,7.242939697265625,0.16837912910878658,0.03741111797299236,-0.1095729756033048
1690841652603980800,7.252980712890625,0.17870237020254134,0.045617074651829896,-0.1161038021441549
1690841652613996000,7.26299609375,0.1733183390766382,0.044181141830887644,-0.1095844468453899
1690841652624035800,7.273035888671875,0.169428345900774,0.0491392117628362,-0.11240277393544092
1690841652634076000,7.283075927734375,0.17750877650380134,0.04414756835484877,-0.11087130831815302
1690841652644117000,7.293116943359375,0.17960253391265868,0.05253925686413422,-0.10876235334016382
1690841652654156800,7.30315673828125,0.17421616469919682,0.05097041837852448,-0.11150726813413202
1690841652664196900,7.31319677734375,0.17077742242217062,0.04542920566322282,-0.11433043579608201
1690841652674238000,7.323238037109375,0.1734714838117361,0.0557970896163024,-0.11061826513884589
1690841652684278000,7.333278076171875,0.1752671350568533,0.04534138124929741,-0.11141677683908492
1690841652694318000,7.343318115234375,0.17751228363513946,0.03987984617408365,-0.10626551328944042
1690841652704358000,7.35335791015625,0.1716764170885086,0.04737184589728713,-0.10926095051206648
1690841652714429000,7.363428955078125,0.18409633820056914,0.04393056460330263,-0.10221576297460123
1690841652724470000,7.373469970703125,0.17377075901925562,0.04196112769385799,-0.10282854284439236
1690841652734509800,7.383509765625,0.17197452325224877,0.040974244681512936,-0.11029661370273679
1690841652744550000,7.3935498046875,0.17796061192452906,0.044444578540045764,-0.11780664227297528
1690841652754590000,7.40358984375,0.18200024270415305,0.04579588355114683,-0.10862970340382307
1690841652764631000,7.413631103515625,0.18244798647165297,0.039688597918301816,-0.10652171654021367
1690841652774670800,7.4236708984375,0.17556465669870375,0.039948134770477185,-0.10276388011034578
1690841652784711000,7.4337109375,0.18199907366037368,0.04076783538921736,-0.11289753518244251
1690841652794751000,7.4437509765625,0.18125088564157485,0.04117511928216554,-0.10627481084074825
1690841652804791800,7.453791748046875,0.17945640344023703,0.03488423897703178,-0.1054408077020198
1690841652814831900,7.463831787109375,0.17930501227080822,0.04397787434374913,-0.11172745022345333
1690841652824872000,7.473871826171875,0.1811000789940357,0.0419699685874395,-0.1122993866262026
1690841652834913000,7.4839130859375,0.18828326849639415,0.044533526331977914,-0.10585994642954319
1690841652844953000,7.493953125,0.1794540653526783,0.04103470616447739,-0.11108480493836104
1690841652855023900,7.50402392578125,0.1785568242520094,0.0446606781092938,-0.10614610642716288
1690841652865064000,7.51406396484375,0.18993045118153093,0.04606743963467888,-0.10162614478468894
1690841652875104000,7.52410400390625,0.18529285450875757,0.04141067247055471,-0.11243927002092823
1690841652885144800,7.534144775390625,0.18140344585478305,0.05071279948879964,-0.10806489086160435
1690841652895185000,7.544184814453125,0.18155308345854282,0.04290576073336415,-0.10473775573289021
1690841652905225000,7.554224853515625,0.1781120030939579,0.046068910072557624,-0.10697072068303823
1690841652915264800,7.5642646484375,0.17781389693021774,0.044609788172272964,-0.11396697277855128
1690841652925305900,7.574305908203125,0.17482056033313273,0.03662308200099505,-0.1176820843115449
1690841652935346000,7.584345947265625,0.17422317896187303,0.044327555431099605,-0.11053915375433862
1690841652945386000,7.594385986328125,0.17317688477933404,0.03940827400642447,-0.10690068765413016
1690841652955426800,7.6044267578125,0.17257774984240531,0.0386694292047061,-0.10766659399271011
1690841652965467000,7.614466796875,0.17796645714342593,0.04794896993180737,-0.11055621448699385
1690841652975507000,7.6245068359375,0.17826573235094545,0.04179483121624216,-0.11639542376818135
1690841652985546800,7.634546630859375,0.17542203335762022,0.03668550711218267,-0.10698577212169766
1690841652995617800,7.64461767578125,0.18126082251369952,0.03892348616416566,-0.10425137872174381
1690841653005657900,7.654657958984375,0.1887432872235775,0.047830147591419514,-0.11147859002891927
1690841653015699000,7.664698974609375,0.17512568075954912,0.04427315836274065,-0.11054496244061737
1690841653025739000,7.674739013671875,0.1802162818968296,0.043224379962170496,-0.10018770947940647
1690841653035779000,7.684779052734375,0.18171324245631693,0.042857766006328166,-0.09957762389020063
1690841653045820000,7.69481982421875,0.4080453788399696,-0.05361489587216638,-0.09337393781132995
1690841653055860000,7.70485986328125,-0.5681827493041753,-0.7135425296142697,-0.28260721877524625
1690841653065899800,7.714899658203125,0.3412608303338289,0.2516433589791879,0.19201538596311582
1690841653075939800,7.72493994140625,0.3061865943431854,0.05223663892205804,-0.06424381451476364
1690841653085981000,7.73498095703125,0.03104921825826168,0.08791874114535748,0.0616777816853486
1690841653096021000,7.74502099609375,0.41926001581549643,0.27232551526827736,0.030551808396447448
1690841653106061000,7.75506103515625,0.020158406409621236,0.1471724009563215,-0.19704799156915395
1690841653116102000,7.765101806640625,0.41280572510957714,0.07004199766581877,-0.33733287976775317
1690841653126172000,7.775171875,0.14435644848644733,0.20609275542600078,-0.19320033969767392
1690841653136213000,7.785212890625,0.31360008547008034,0.1285186817549169,-0.2950061336318962
1690841653146252800,7.795252685546875,0.17069734292328356,0.16516093424726278,-0.21443214749246833
1690841653156292900,7.80529296875,0.28251287328898905,0.13527789195785297,-0.12063337186519056
1690841653166334000,7.815333984375,0.10691840597391128,0.10485475144237279,-0.008007931622397154
1690841653176374000,7.8253740234375,0.23228782991766928,0.08233834719713777,0.05172320950720459
1690841653186414000,7.8354140625,0.13412380828559398,0.04187048113518394,0.08236329897530377
1690841653196454100,7.8454541015625,0.15446809265613556,-0.0014365264759864658,0.035980674177920446
1690841653206495000,7.855494873046875,0.09291618410646915,-0.04156826505190692,-0.0616895999873057
1690841653216534800,7.86553466796875,0.2229933473497629,-0.07672859929027036,-0.16308898681141434
1690841653226574800,7.875574951171875,0.07557458868324757,-0.09254050092818215,-0.21253404051987454
1690841653236616000,7.885615966796875,0.21540625322163104,-0.09522188549926504,-0.24368649995690211
1690841653246656000,7.895656005859375,0.10067103601694107,-0.07438517796928062,-0.20255115556269884
1690841653256696000,7.905696044921875,0.195273565775156,-0.04602693409435451,-0.14548651196230203
1690841653266767000,7.91576708984375,0.13247428751289844,-0.006392788043338805,-0.07046581256845966
1690841653276807000,7.925806884765625,0.16427403187751768,0.0336585605064407,-0.021776162070874124
1690841653286847000,7.935846923828125,0.1928121440976858,0.05256622706945054,-0.010831236281665041
1690841653296887800,7.9458876953125,0.18202128549218177,0.07954875301122664,-0.025366642577201125
1690841653306927900,7.955927978515625,0.16885317636132238,0.09700593763813375,-0.06469084589621052
1690841653316968000,7.965968017578125,0.24577508800029754,0.10525176966963336,-0.1150172307501547
1690841653327009000,7.976009033203125,0.16303776808083056,0.12448154432647861,-0.13458326989035121
1690841653337049000,7.986049072265625,0.2233598425745964,0.12994184642583131,-0.16061698894100263
1690841653347089200,7.996089111328125,0.2296685873299837,0.12091691978061571,-0.1576682769369334
1690841653357129000,8.00612890625,0.20546002874672412,0.10921051723277196,-0.14215646335729398
1690841653367169800,8.016169677734375,0.1824596769094467,0.08728849868411198,-0.10829217854514718
1690841653377209900,8.0262099609375,0.19029577736258504,0.07050236345287413,-0.08592581376247108
1690841653387250000,8.03625,0.16851064653396605,0.05351151769608259,-0.06371682236543856
1690841653397291000,8.046291015625,0.17829671201109884,0.022803130498435346,-0.05927109500295482
1690841653407361000,8.056361083984376,0.1425800864636898,-0.005077111468045041,-0.07154808224667794
1690841653417402000,8.066402099609375,0.17597499106526374,-0.014089105566451324,-0.09566993066086434
1690841653427442000,8.07644189453125,0.15218553467690943,-0.024143521389877423,-0.10924389891256578
1690841653437482000,8.08648193359375,0.14647884746789933,-0.03162995902197435,-0.1244208910472691
1690841653447522000,8.09652197265625,0.17382278146743774,-0.020620836289599535,-0.1308697931920178
1690841653457563000,8.10656298828125,0.15581775369942188,-0.015408417137246578,-0.12354134086691773
1690841653467603000,8.11660302734375,0.1482867736726999,-0.001105531822796911,-0.10239681862993165
1690841653477643000,8.12664306640625,0.1926853028476238,0.013857086908863857,-0.08641971649294719
1690841653487684000,8.13668408203125,0.17334756517112254,0.04115759275862947,-0.08571723077939823
1690841653497724200,8.14672412109375,0.19427403334379195,0.06551681185895576,-0.08834799940809607
1690841653507764000,8.156763916015626,0.19201719432771205,0.07038144962009973,-0.09300267507983372
1690841653517804000,8.166803955078125,0.19455694193840026,0.07932579444292932,-0.0961173091021832
1690841653527844900,8.176844970703126,0.19994681828320024,0.08035932960859499,-0.10025110270497388
1690841653537916000,8.186916015625,0.1769131486982107,0.08469470106493682,-0.11246626762570813
1690841653547956000,8.1969560546875,0.2017711111009121,0.08473146201190539,-0.11650023584952578
1690841653557996000,8.20699609375,0.19610767851173877,0.07835746086742729,-0.10346077633332461
1690841653568035800,8.217035888671875,0.16636252858936787,0.07348056641290895,-0.09128081972328946
1690841653578077000,8.227076904296876,0.18435235878825187,0.05294353594924323,-0.09775663727442734
1690841653588117000,8.237116943359375,0.17989479485750198,0.04420012965914793,-0.08850790267754345
1690841653598157000,8.247156982421876,0.1582259838849306,0.03515081749134697,-0.09199727003010921
1690841653608206600,8.25720654296875,0.17560265062153338,0.019591237513534723,-0.1009822665237356
1690841653618246700,8.26724658203125,0.16992402046322821,0.007899420613469555,-0.10680963010350242
1690841653628286700,8.27728662109375,0.17111644511818885,0.0011018968272954225,-0.10486591215720399
1690841653638326500,8.287326416015626,0.1749924097687006,0.004772347234655172,-0.11136753086987883
1690841653648367600,8.29736767578125,0.16509411608874797,0.011421174131985753,-0.10633204832016489
1690841653658407700,8.30740771484375,0.178986447840929,0.015537212882377206,-0.10785986067564227
1690841653668447500,8.317447509765625,0.17118132704794406,0.0256051092418842,-0.09156615773700177
1690841653678518500,8.3275185546875,0.1651753646314144,0.038506210600165645,-0.08510698992656543
1690841653688558600,8.33755859375,0.18431436486542224,0.048844621863588684,-0.08404287695954553
1690841653698599700,8.347599609375,0.1702379087179899,0.05526122917393222,-0.08616740396600216
1690841653708639700,8.3576396484375,0.17068097631037235,0.06781689636171795,-0.09364811511021107
1690841653718679600,8.367679443359375,0.19537118093073366,0.06553718792670406,-0.09693307333132252
1690841653728719400,8.37771923828125,0.18684476012587548,0.0683624836136587,-0.1025240617387928
1690841653738760400,8.387760498046875,0.2070546044617891,0.06376510022026487,-0.10430302671059034
1690841653748800500,8.397800537109376,0.1910556558191776,0.05965206627771258,-0.09923916744976304
1690841653758840600,8.407840576171875,0.18239187237024307,0.05786837946502491,-0.09907382995337247
1690841653768881700,8.417881591796874,0.18225801685750484,0.0451702076671645,-0.09082285595587454
1690841653778921700,8.427921630859375,0.17000643804967402,0.04562750471429899,-0.09117324942927807
1690841653788961500,8.43796142578125,0.1785515635550022,0.03899985760231502,-0.08915557119762524
1690841653799001300,8.44800146484375,0.1733276914268732,0.02818643097197637,-0.08569875440779141
1690841653809042400,8.45804248046875,0.1715367163568735,0.029643534445110708,-0.09487612253520637
1690841653819113500,8.468113525390624,0.1833534108787775,0.02530372427566908,-0.10508185646282509
1690841653829153500,8.478153564453125,0.16568682128489018,0.015461873490689322,-0.09568500949898734
1690841653839193600,8.488193603515626,0.16672317859530447,0.024689875826798376,-0.10370249440101906
1690841653849233700,8.498233642578125,0.18062836982905864,0.027420086241979152,-0.10837733607795089
1690841653859274800,8.508274658203124,0.17597791367471216,0.023469001395488156,-0.09157969307200983
1690841653869314600,8.518314453125,0.1755149723380804,0.03464526998884976,-0.09248332738084718
1690841653879354400,8.528354248046876,0.17804829020798205,0.043420313526224344,-0.0992043609978631
1690841653889395500,8.5383955078125,0.17250468460619447,0.05722233664644882,-0.08916433902597054
1690841653899435500,8.548435546875,0.18986089307665824,0.061233015326224265,-0.09919563883529044
1690841653909475600,8.5584755859375,0.18417524865567683,0.05701758958827704,-0.09461595549536868
1690841653919515600,8.568515625,0.18747195211350917,0.059062457220954816,-0.09466012343065813
1690841653929556700,8.578556640625,0.1897229459106922,0.052673276773653924,-0.10139759672582149
1690841653939596500,8.588596435546876,0.17925532791018484,0.05425864626895636,-0.10483529782323166
1690841653949667300,8.598667236328126,0.1798632306754589,0.049938545446982605,-0.1002294479955919
1690841653959707400,8.608707275390625,0.17373510318398475,0.04364494346179999,-0.09954924717908725
1690841653969747500,8.61874755859375,0.17374328649044035,0.0410777872543782,-0.10158031461527571
1690841653979788500,8.62878857421875,0.18317746978998184,0.03607206965526566,-0.09048416205341928
1690841653989828600,8.63882861328125,0.17106325362622737,0.03447547551305033,-0.09723163615278899
1690841653999868700,8.64886865234375,0.17630232332348822,0.031647987869009374,-0.09966129271881655
1690841654009908700,8.65890869140625,0.17674948256909845,0.02841848616218194,-0.09806403185632079
1690841654019949600,8.668949462890625,0.1791390080541372,0.026462931647617368,-0.09561180726545862
1690841654029989400,8.6789892578125,0.17733926515579224,0.02437313802782446,-0.09590809593144804
1690841654040029400,8.689029541015625,0.17209551928341388,0.027968422573432326,-0.09897926527140662
1690841654050070500,8.699070556640624,0.180168935623765,0.033681959648337215,-0.0959585109444335
1690841654060110600,8.709110595703125,0.18016484397053717,0.035740316950250414,-0.09852578588286415
1690841654070150700,8.719150634765626,0.17746610640585422,0.04291882114433683,-0.09186327752005308
1690841654080190700,8.729190673828125,0.17836334750652313,0.054153158334176985,-0.09536527602532878
1690841654090261500,8.739261474609375,0.1604085886210203,0.05467151051932014,-0.08887529295152052
1690841654100301600,8.749301513671876,0.19078677574992178,0.05843395005906932,-0.09087980117434635
1690841654110342400,8.75934228515625,0.17672434812784193,0.052411849358491594,-0.09340146513907238
1690841654120382500,8.769382568359376,0.18630466189980505,0.049419069883832704,-0.09731648315833881
1690841654130422500,8.779422607421875,0.17987667467892168,0.05165204396713525,-0.10176041128938086
1690841654140463600,8.789463623046874,0.18646715898513794,0.042229852499486874,-0.10187984555112198
1690841654150503700,8.799503662109375,0.16282967828810213,0.04458272663541138,-0.10308101976811886
1690841654160543700,8.809543701171876,0.18198855226635932,0.04516354959751479,-0.10190353695396333
1690841654170583600,8.81958349609375,0.17001929753124712,0.03553629141128622,-0.09168912652954458
1690841654180624400,8.829624267578126,0.17315993364453314,0.03158485950492322,-0.09608958997819572
1690841654190664400,8.83966455078125,0.15490063885450361,0.033314258847106246,-0.09133556385152042
1690841654200704500,8.84970458984375,0.1846732613056898,0.029709749815426765,-0.0877131264375057
1690841654210745600,8.85974560546875,0.1758417200744152,0.033354152466077355,-0.08843640834391117
1690841654220785700,8.86978564453125,0.18736323104202746,0.03383578023687005,-0.08867034496394917
1690841654230856700,8.879856689453124,0.17090426367223263,0.03495227184509858,-0.08747178282914683
1690841654240896500,8.889896484375,0.1869172408401966,0.038165397805860264,-0.10018057648572139
1690841654250936600,8.8999365234375,0.17943360708653927,0.04112255797786638,-0.10778594605606048
1690841654260977400,8.909977294921875,0.17494214088618754,0.042818666971800846,-0.10680749294534325
1690841654271017500,8.920017578125,0.17044833659827707,0.044071361313480883,-0.1040843972575385
1690841654281057500,8.9300576171875,0.18331190982460974,0.04971655499306507,-0.10367608131812885
1690841654291097600,8.94009765625,0.16580372566282747,0.0437266669285018,-0.09517717870785854
1690841654301138700,8.950138671875,0.1698462790518999,0.04749059517243877,-0.09366846377849579
1690841654311178800,8.9601787109375,0.18571254122555256,0.04021508774412796,-0.08768165358700789
1690841654321218600,8.970218505859375,0.18796528858840464,0.04423474431480281,-0.086490178780118
1690841654331259400,8.98025927734375,0.18139000185132026,0.041368933954369275,-0.08876560376565903
1690841654341299500,8.990299560546875,0.17900164541006086,0.03870298441443592,-0.09555712706930934
1690841654351339500,9.000339599609376,0.17032441795766354,0.03970448960717767,-0.09610009310590102
1690841654361410600,9.01041064453125,0.1748135460704565,0.03856880924128927,-0.09661117530004121
1690841654371450600,9.02045068359375,0.18139526254832744,0.04041472023576498,-0.10222241191109642
1690841654381490400,9.030490478515626,0.17840075690746307,0.026991576897911727,-0.10750184101820923
1690841654391531500,9.040531494140625,0.17046704129874704,0.03511601103944704,-0.1035856448220089
1690841654401571600,9.050571533203126,0.17734569489657878,0.04433407650343142,-0.09999160238541661
1690841654411611600,9.060611572265625,0.1797369739472866,0.040956937353685496,-0.0857543387862388
1690841654421652500,9.070652587890624,0.18407821802198887,0.040592232227139174,-0.08499185738060623
1690841654431692500,9.080692626953125,0.18018705580234526,0.04102924453807063,-0.08845619075661525
1690841654441732600,9.090732666015626,0.17734511037468909,0.047096234693145375,-0.08354958615042268
1690841654451772400,9.1007724609375,0.18064006026685236,0.04772930843229405,-0.08858344299863093
1690841654461813800,9.110813720703124,0.17735095559358596,0.04346207030871883,-0.08920077117937616
1690841654471853600,9.120853515625,0.18543430880606174,0.048958046509651465,-0.09954062548121437
1690841654481893600,9.1308935546875,0.18423837701976298,0.04839854033021256,-0.09772807790022343
1690841654491934500,9.1409345703125,0.18124504042267797,0.04513752924026921,-0.1016879579745233
1690841654502004700,9.151004638671875,0.1755582269579172,0.04036341017363593,-0.10174326835833489
1690841654512045600,9.161045654296874,0.17810323526561259,0.03928848355165682,-0.09413390759946778
1690841654522085600,9.171085693359375,0.17720657868683337,0.03493573170225136,-0.0952177481802646
1690841654532125400,9.18112548828125,0.17571429430246352,0.040998949864506716,-0.09514133107634261
1690841654542166500,9.19116650390625,0.17706337082386014,0.040920386469271035,-0.09099582876944914
1690841654552206600,9.20120654296875,0.17602175281643867,0.03794486865666695,-0.08878028074498288
1690841654562246700,9.21124658203125,0.1832049423187971,0.03224281195700168,-0.08421862625209614
1690841654572286700,9.22128662109375,0.17871406064033507,0.04244803442796692,-0.09234519755179062
1690841654582327600,9.23132763671875,0.16808686816394328,0.047420534744067114,-0.09198790854671969
1690841654592367600,9.24136767578125,0.18169862940907477,0.03886325301006436,-0.09820831743152812
1690841654602407400,9.251407470703125,0.17750702293813228,0.0397024894463364,-0.09980340460324659
1690841654612412700,9.26141259765625,0.18079612761139868,0.03626357363937423,-0.10104665526314638
1690841654622453800,9.271453857421875,0.18154373110830782,0.031212482528574764,-0.10487495398018508
1690841654632493800,9.281493896484376,0.1757061109960079,0.04347429046947509,-0.09574340688902884
1690841654642564900,9.29156494140625,0.17645312997102736,0.04024354665363207,-0.09494751640413887
1690841654652605000,9.30160498046875,0.1782505347818136,0.03848791689164936,-0.08846324155190959
1690841654662644700,9.311644775390626,0.1764560525804758,0.03478624936211854,-0.0866201801016461
1690841654672685600,9.321685546875,0.18139467802643774,0.042929433869896456,-0.08915103201982565
1690841654682725600,9.3317255859375,0.17181845590770242,0.04540521286628209,-0.0872521852617152
1690841654692765700,9.341765625,0.17825638000071048,0.0416300508422777,-0.0842912530968897
1690841654702806800,9.351806884765624,0.18529051642119884,0.039489714345335956,-0.09582158669177442
1690841654712846800,9.361846923828125,0.1772100858181715,0.03400778493606485,-0.10079510992118157
1690841654722887000,9.371886962890626,0.17646365136504172,0.03530877539888024,-0.09317441491754724
1690841654732926700,9.3819267578125,0.17721183938384055,0.0352121009582188,-0.0918714608265087
1690841654742967800,9.3919677734375,0.18334756565988064,0.04206488946243189,-0.10838393021551891
1690841654753007600,9.402007568359375,0.1794581570059061,0.033215995237557215,-0.10081579651618376
1690841654763047700,9.412047607421876,0.17391864305734633,0.04356103717116639,-0.0956255252635572
1690841654773118700,9.42211865234375,0.17661036635935307,0.039823805137909944,-0.09846738849282265
1690841654783158800,9.43215869140625,0.17646189779937266,0.0465028079777956,-0.09608132447334937
1690841654793199900,9.442199951171874,0.17436872491240502,0.0501769847122021,-0.08722040188396349
1690841654803240000,9.452239990234375,0.17766016767323017,0.04761081488546915,-0.09141639226907863
1690841654813279700,9.46227978515625,0.1852916854649782,0.04718965773079544,-0.09713949175677261
1690841654823319600,9.472319580078125,0.18424480676054952,0.04421524502988904,-0.09352870824793354
1690841654833360600,9.482360595703126,0.18379998560249805,0.039675884567201135,-0.09064777338360436
1690841654843400700,9.492400634765625,0.18410159889757632,0.03727746338965371,-0.09464836906078271
1690841654853440800,9.502440673828126,0.18215631004869937,0.02915116608459502,-0.10221139732673763
1690841654863481900,9.51248193359375,0.17901508941352368,0.03542564324419945,-0.09540575416618957
1690841654873522000,9.52252197265625,0.17482757459580897,0.04010589174861088,-0.10107523290365934
1690841654883561700,9.532561767578125,0.18530337590277193,0.0400202592917718,-0.09177790079154073
1690841654893601500,9.5426015625,0.18201251766383647,0.04087558834631927,-0.08194576768297701
1690841654903642600,9.552642578125,0.1806646101862192,0.0362578471514862,-0.08610074107111432
1690841654913713700,9.562713623046875,0.1803641659349203,0.033426770177716385,-0.0918526099955663
1690841654923753700,9.572753662109376,0.17782266475856304,0.04220512905018404,-0.09088766482039354
1690841654933793800,9.582793701171875,0.17513035693466664,0.03532294092155062,-0.09650715780314058
1690841654943833900,9.592833740234376,0.17587854495346544,0.03392813469544053,-0.09644919880451634
1690841654953875000,9.602875,0.1748316662490368,0.03704554519676603,-0.09102341089611872
1690841654963914800,9.612914794921876,0.1797673690855503,0.040625805703178045,-0.09880096782874316
1690841654973954600,9.62295458984375,0.1730348459601402,0.0438267571689561,-0.09622008449006825
1690841654983995600,9.63299560546875,0.18081600135564804,0.043265725752711294,-0.08157989351265132
1690841654994035700,9.64303564453125,0.1710913106769323,0.034717778102634475,-0.0883439534206409
1690841655004075800,9.65307568359375,0.1826134061664343,0.039491677973559125,-0.07872459541307762
1690841655014115800,9.66311572265625,0.1845598640590906,0.04629448072304949,-0.0838399839317426
1690841655024157000,9.673156982421874,0.1766302401036024,0.04225503260651603,-0.08539765256936661
1690841655034196700,9.68319677734375,0.18142039698958395,0.038647582699079065,-0.09030908861430362
1690841655044236500,9.693236572265626,0.17947744622826575,0.038822573939803984,-0.0975114942737855
1690841655054307600,9.7033076171875,0.17484101859927176,0.040193259504809974,-0.09884024039320648
1690841655064347600,9.71334765625,0.17783377067446707,0.0352927832453046,-0.09438569040345028
1690841655074388700,9.723388671875,0.18067980775535106,0.04139103618832305,-0.08861275129150599
1690841655084428800,9.7334287109375,0.17753683355450628,0.036681671187281606,-0.09216809655237011
1690841655094468900,9.74346875,0.1682604711651802,0.0453805076832883,-0.08793556441599502
1690841655104508700,9.7535087890625,0.17738602690696714,0.03910469708312302,-0.08898900072537362
1690841655114549800,9.7635498046875,0.17843290561139583,0.03661605860516429,-0.09313689591875299
1690841655124589600,9.773589599609375,0.17768413307070732,0.04336500314241275,-0.09275349522489122
1690841655134629600,9.783629638671876,0.17962942191958425,0.037022292185341935,-0.0932993016725406
1690841655144670700,9.793670654296875,0.1755897911399603,0.034459118033293636,-0.08695906580034643
1690841655154710800,9.803710693359376,0.18112872056663035,0.036609080875106156,-0.09207460044948383
1690841655164750800,9.813750732421875,0.18756372205018995,0.03138506261650473,-0.09308108321144246
1690841655174790700,9.823790771484376,0.182477797088027,0.04078264023270458,-0.09067237810189835
1690841655184861700,9.83386181640625,0.1712538077622652,0.05168610150036402,-0.09448441067072562
1690841655194902800,9.84390283203125,0.16706512390077113,0.03849464802653529,-0.08629319490329362
1690841655204942600,9.853942626953126,0.1775403406858444,0.044386939201829956,-0.09440457776701078
1690841655214982700,9.863982666015625,0.17380115415751934,0.03786442383159883,-0.09073491281094029
1690841655225022700,9.874022705078126,0.17350421703755856,0.030976363084604962,-0.09117896678401156
1690841655235063800,9.884063720703125,0.17560089705586432,0.03751361023308709,-0.09863425122601911
1690841655245103900,9.894103759765626,0.18218670518696306,0.03792292168634012,-0.09409003192512318
1690841655255143700,9.904143798828125,0.1771007802248001,0.03652565864166245,-0.09345571607695892
1690841655265183700,9.914183837890626,0.18099428053200245,0.04124879643972963,-0.08403581703109667
1690841655275224600,9.924224609375,0.18324118267595768,0.0367886204267852,-0.08479918435271828
1690841655285264600,9.9342646484375,0.17905308333635328,0.03590476853065192,-0.08826943601286039
1690841655295304700,9.9443046875,0.18129881643652915,0.03876947377938777,-0.093307064853888
1690841655305345800,9.954345703125,0.1833925738453865,0.04487454005568288,-0.09245577265364117
1690841655315385900,9.9643857421875,0.17516542824804782,0.03628836102075875,-0.09713031293647363
1690841655325456600,9.97445654296875,0.18220014919042588,0.04402757697068155,-0.097531422816962
1690841655335496700,9.98449658203125,0.18399696947932243,0.037994881810853254,-0.09291354462481104
1690841655345536800,9.994536865234375,0.17502046681940556,0.02720297289257869,-0.10069921179865486
1690841655355577600,10.00457763671875,0.1825029315292835,0.03923154746633954,-0.09592779614576138
1690841655365617700,10.01461767578125,0.17531915750503538,0.0353864620112814,-0.09025025283284485
1690841655375657700,10.02465771484375,0.17950842588841914,0.0387285207144916,-0.0865840310760308
1690841655385697800,10.03469775390625,0.17591478531062602,0.046163145960960536,-0.08747479677014053
1690841655395739000,10.04473876953125,0.17621406051814556,0.03863315231492743,-0.08803082321770489
1690841655405778700,10.05477880859375,0.17621464504003523,0.0366713415895123,-0.0879381216992624
1690841655415818800,10.06481884765625,0.17651567381322383,0.03830146354199387,-0.09377821689643896
1690841655425859600,10.074859619140625,0.17860943122208117,0.03622643823307008,-0.09344368771244771
1690841655435899600,10.084899658203126,0.18429624468684194,0.037895211695507164,-0.08878872891291975
1690841655445939700,10.094939697265625,0.1730751779705286,0.034317006148863585,-0.08868388029895723
1690841655455979800,10.104979736328126,0.18534721504449844,0.030617201782856134,-0.09861846913499757
1690841655466050600,10.115050537109376,0.17277765632867811,0.033764751694118605,-0.09934917629603296
1690841655476090600,10.125090576171875,0.17876432952284813,0.03754523834721185,-0.09256773599497974
1690841655486131700,10.135131591796876,0.17607143717706203,0.04394064760589972,-0.0929647907548584
1690841655496171800,10.145171875,0.17442600805759428,0.04142409820770845,-0.09233080370025709
1690841655506211800,10.1552119140625,0.1762210747808218,0.03450425408296287,-0.09265791676277295
1690841655516252700,10.165252685546875,0.17367548195123672,0.03775263402019627,-0.09660148502308875
1690841655526292700,10.175292724609376,0.17846680788099764,0.041085075511690224,-0.09510967556275426
1690841655536332800,10.185332763671875,0.18355565545260905,0.03497828306918964,-0.08993141440832987
1690841655546372600,10.19537255859375,0.18864333398044109,0.03694591161403805,-0.09222001853585243
1690841655556413700,10.20541357421875,0.18579963498711585,0.03645203628302551,-0.09581654519047587
1690841655566453800,10.215453857421876,0.18011282152235508,0.032763913221657275,-0.08962159954048693
1690841655576493800,10.225493896484375,0.1813099223524332,0.03949296574834734,-0.08976723682256416
1690841655586534700,10.23553466796875,0.17846563883721828,0.03508278462328016,-0.08453287069988437
1690841655596605000,10.24560498046875,0.16859247959852217,0.03976370898112654,-0.08674909457778558
1690841655606645800,10.255645751953125,0.17263269490003585,0.035058344301767644,-0.09193937496356666
1690841655616684500,10.2656845703125,0.17383096477389334,0.03138814048958011,-0.08278561604060232
1690841655626724400,10.275724365234375,0.17936989420056343,0.040187396019604055,-0.08977541099586524
1690841655636765400,10.285765380859376,0.17922142564058302,0.039189534955518315,-0.08704848851631394
1690841655646805200,10.29580517578125,0.1763777266472578,0.04379422487253323,-0.08781695213816128
1690841655656845300,10.30584521484375,0.17532909437716007,0.04315399074023589,-0.09322925037732348
1690841655666885400,10.315885498046875,0.18625205492973326,0.037223312916466966,-0.08944781387615948
1690841655676926500,10.325926513671876,0.17398177142143248,0.03858087413841858,-0.09230775161823257
1690841655686966500,10.335966552734375,0.17682313232719898,0.04010750831696205,-0.09289159765448421
1690841655697006600,10.346006591796876,0.18026362816989422,0.04000601157071069,-0.08794991260175593
1690841655707046100,10.356046142578125,0.17532441820204256,0.039439463729131964,-0.09136128281466663
1690841655717087200,10.366087158203126,0.18654840752780436,0.04497031031404622,-0.09065799338351935
1690841655727127300,10.376127197265625,0.17936755611300467,0.041528618028108026,-0.08454970310367643
1690841655737198300,10.3861982421875,0.1747299594402313,0.048497178399097174,-0.08934662765716202
1690841655747238400,10.39623828125,0.18131167591810227,0.04062595183365047,-0.08866521213110536
1690841655757278500,10.406278564453125,0.17831892384290693,0.03937800673232414,-0.08533899945099838
1690841655767319600,10.416319580078126,0.1771229920566082,0.0390474687368609,-0.09193984988760202
1690841655777359400,10.426359375,0.17398294046521187,0.04463331517833285,-0.0913862985249143
1690841655787399200,10.436399169921875,0.18281155908703803,0.04008497682474553,-0.0899847976965364
1690841655797440300,10.446440185546875,0.17577800718843936,0.03983749573654495,-0.08559300161153077
1690841655807480300,10.456480224609376,0.17847031501233576,0.043889602405251936,-0.08879895804598927
1690841655817520400,10.466520263671875,0.17742402082979677,0.033923257590923454,-0.08701489677396602
1690841655827560400,10.476560546875,0.18714929603040217,0.03837906795600429,-0.08675537818809971
1690841655837601500,10.4866015625,0.17473171300590037,0.03747642916101031,-0.08300727770095691
1690841655847641300,10.496641357421876,0.16904723762869833,0.03868610634487122,-0.08316592059507966
1690841655857681200,10.50668115234375,0.17398644759654996,0.03579834901411086,-0.08975761047769337
1690841655867722200,10.51672216796875,0.17817630050182343,0.035500763440178704,-0.08948340577934868
1690841655877792300,10.526792236328125,0.18056933311820028,0.042291437360458074,-0.08632386403619312
1690841655887833300,10.536833251953125,0.17294132245779037,0.02952470297156833,-0.09246490580816753
1690841655897873400,10.546873291015626,0.17383856355845928,0.04434323705742135,-0.08949333351831883
1690841655907913500,10.55691357421875,0.1814712503939867,0.04255072761746123,-0.08731931394748389
1690841655917953300,10.566953369140625,0.1748883648723364,0.03711457357867621,-0.08586390010793693
1690841655927994400,10.576994384765625,0.18341712376475333,0.0376650653345976,-0.08881421041404827
1690841655938034200,10.5870341796875,0.17623627234995365,0.041614405748574064,-0.08876890083444304
1690841655948074200,10.59707421875,0.1841688189148903,0.04040068257725797,-0.08560255489116535
1690841655958115300,10.607115234375,0.17204758848845958,0.03984830025834962,-0.09033354720212519
1690841655968155400,10.6171552734375,0.1689051988095045,0.03835090130744502,-0.08435410746634006
1690841655978195500,10.627195556640626,0.18476678480803965,0.031957830136315896,-0.0736300944188144
1690841655988235500,10.637235595703125,0.1793804155945778,0.037769055432034654,-0.08059925757800228
1690841655998276400,10.6472763671875,0.19000526998341083,0.04885602004043758,-0.09104467287985607
1690841656008316200,10.657316162109375,0.1759381661862135,0.04054638379141688,-0.0867040498596616
1690841656018387200,10.66738720703125,0.17279811459481714,0.03636271403175778,-0.08995990985045209
1690841656028427300,10.67742724609375,0.17369886282682417,0.040720434317225586,-0.09547028903607278
1690841656038467300,10.68746728515625,0.18207856863737104,0.04608463736465201,-0.08644391021928749
1690841656048508400,10.69750830078125,0.1765425618201494,0.04348392594750039,-0.09141996333249844
1690841656058548500,10.707548583984375,0.16576923887133596,0.04642710325992666,-0.08879881191551685
1690841656068588300,10.71758837890625,0.17594342688322065,0.041519302210491146,-0.08546057087089866
1690841656078629400,10.72762939453125,0.17549568311572075,0.037243506321124734,-0.08320822536684572
1690841656088669200,10.737669189453126,0.18222995980679987,0.03634524230714887,-0.08285523807755671
1690841656098709200,10.747709228515625,0.18372925845384597,0.038246034427173434,-0.08439122460633516
1690841656108749300,10.757749267578125,0.18028817808926104,0.03918817411549389,-0.0977189173462335
1690841656118790400,10.767790283203125,0.1768488512903452,0.041591097938222805,-0.08915138821285218
1690841656128830500,10.77783056640625,0.17984277240931987,0.04263126377407461,-0.08665721504325047
1690841656138870500,10.78787060546875,0.17325988688766955,0.03908975524231791,-0.09184417096078396
1690841656148941300,10.79794140625,0.18014380118250845,0.03889406827343628,-0.08741931285639293
1690841656158981400,10.8079814453125,0.1770014115035534,0.04311215175935067,-0.09014323966125957
1690841656169022200,10.818022216796875,0.1811924334526062,0.04011713466183282,-0.08840490809394977
1690841656179062300,10.828062255859376,0.18762918850183485,0.03656104961545206,-0.0898943429341074
1690841656189102300,10.838102294921875,0.18134557818770408,0.042655320503097026,-0.09339781187726184
1690841656199142400,10.848142333984375,0.17116905208826064,0.04243162214928307,-0.09085970823438838
1690841656209183500,10.85818359375,0.1744610793709755,0.04455660581346601,-0.08322676567053422
1690841656219223300,10.868223388671876,0.17850246371626852,0.04158881464959122,-0.08287977886376902
1690841656229263400,10.878263427734375,0.18419044622480868,0.03649101658654399,-0.07811247313041239
1690841656239304200,10.88830419921875,0.17790742043256758,0.0314107359138783,-0.07842425162647851
1690841656249344300,10.89834423828125,0.17760814522504806,0.04184396758759394,-0.08300556980106048
1690841656259384300,10.90838427734375,0.18284546135663984,0.03459107384989038,-0.08232206278261728
1690841656269424400,10.91842431640625,0.1862853726774454,0.03592995777083561,-0.0880001540848054
1690841656279465500,10.928465576171876,0.1738677896529436,0.03945845155739225,-0.09163242790624498
1690841656289536500,10.93853662109375,0.1786561929732561,0.03898718991698697,-0.0854942356784828
1690841656299576300,10.948576416015625,0.18105039463341235,0.039898952733352776,-0.09027991731874645
1690841656309616400,10.958616455078126,0.18449264404177665,0.04130269118458964,-0.08700618374454788
1690841656319656400,10.968656494140625,0.1752139435648918,0.03631340413047,-0.09141212708591483
1690841656329697300,10.978697265625,0.17147417251467703,0.03841319855446927,-0.08473822054625488
1690841656339737300,10.9887373046875,0.17835750228762626,0.04148921759948134,-0.08044937337907031
1690841656349777400,10.99877734375,0.17925532791018484,0.03715066780536435,-0.07868447346524335
1690841656359817200,11.008817138671875,0.18733400494754313,0.044114067944046105,-0.08381727890959009
1690841656369858300,11.0188583984375,0.1853881315767765,0.044469722114456815,-0.08570289172679185
1690841656379898400,11.0288984375,0.18030103757083416,0.03605120039717294,-0.08549682036121375
1690841656389938400,11.0389384765625,0.17805647351443765,0.034100276391953226,-0.09133135346728377
1690841656399979300,11.048979248046875,0.18508885636925695,0.03793031040835194,-0.08860153577774763
1690841656410019300,11.059019287109376,0.1879325553625822,0.033832912426348775,-0.08535561265908181
1690841656420059400,11.069059326171875,0.18703648330569267,0.031552601203136146,-0.08576256775846704
1690841656430130200,11.079130126953125,0.18045476682782172,0.03832504534698091,-0.08922755872160196
1690841656440170200,11.089170166015625,0.17057868497967718,0.033359221366839484,-0.08486431287764572
1690841656450211300,11.09921142578125,0.16923253106772898,0.04324071917561814,-0.08540991839589551
1690841656460251400,11.10925146484375,0.1711801580041647,0.03754703757865354,-0.08102419585864991
1690841656470291500,11.11929150390625,0.1853968994051218,0.035902740970347076,-0.08123699835911392
1690841656480331500,11.12933154296875,0.18075871821045875,0.04038269026284106,-0.07984489554674364
1690841656490372400,11.139372314453125,0.1761205370157957,0.03920718021006323,-0.08418175570727325
1690841656500412400,11.149412353515626,0.17372458178997038,0.03598763364166952,-0.07930231310264207
1690841656510452200,11.1594521484375,0.17417349460124967,0.03950204410394653,-0.07798229827894829
1690841656520493300,11.169493408203126,0.17851298511028288,0.03754595986641943,-0.08575674080587924
1690841656530533400,11.179533447265625,0.17761282140016554,0.03477646775362082,-0.08379016257380136
1690841656540573400,11.189573486328126,0.17566928611695765,0.039112213669298214,-0.08154208225291222
1690841656550613500,11.199613525390625,0.17731296167075633,0.045604288235493,-0.08402454671841114
1690841656560684500,11.2096845703125,0.17282383355796335,0.046224849552940574,-0.07893703258736058
1690841656570724400,11.219724365234375,0.17132862656414508,0.038883227219013494,-0.08590364759643562
1690841656580765200,11.22976513671875,0.17058043854534624,0.029914268544735386,-0.08976950184488669
1690841656590805200,11.23980517578125,0.17477029145061967,0.03494154038853012,-0.09019236689945682
1690841656600845300,11.24984521484375,0.1782113718152046,0.03757549648815766,-0.08385240502189845
1690841656610886400,11.259886474609376,0.16953414436280725,0.03867297286866232,-0.0824407663919963
1690841656620932400,11.269932373046874,0.17851415415406227,0.04430067655732855,-0.08719960569110699
1690841656630972400,11.279972412109375,0.18195698808431623,0.03759071232359856,-0.0771078352656681
1690841656641012500,11.290012451171876,0.17537293351888655,0.034596498943679034,-0.08575599188720807
1690841656651053300,11.30005322265625,0.17941607142984867,0.04130258158673532,-0.08776655539148487
1690841656661093000,11.310093017578126,0.1779208644360304,0.04879874602840282,-0.0879759968910832
1690841656671133200,11.32013330078125,0.18390695310831068,0.044471603544289244,-0.084653355274396
1690841656681174300,11.33017431640625,0.17852058389484882,0.03687163166827522,-0.08043702535415068
1690841656691214300,11.34021435546875,0.1749310349702835,0.03938883865359239,-0.08673841792014426
1690841656701285400,11.350285400390625,0.17852175293862818,0.04135485976324416,-0.08275219782819039
1690841656711325400,11.360325439453124,0.1777718113541603,0.03708211434748955,-0.08385438691643066
1690841656721365200,11.370365234375,0.17926935643553732,0.040918048381712285,-0.08667732624951749
1690841656731406300,11.38040625,0.19049509932696818,0.04458084520557895,-0.08475033110915682
1690841656741446100,11.390446044921875,0.17822656938433645,0.03074270045920275,-0.08512709199967794
1690841656751486200,11.400486328125,0.18047171796262262,0.040142113839462396,-0.07652495734379626
1690841656761526300,11.4105263671875,0.18705401896238327,0.04346247216751799,-0.08161651746230199
1690841656771567400,11.4205673828125,0.18046762630939484,0.038483724773721764,-0.07395433053765446
1690841656781607400,11.430607421875,0.17552841634154318,0.032149580715596676,-0.06756975320023484
1690841656791647500,11.4406474609375,0.1798673223286867,0.0449053918516729,-0.07905291405199096
1690841656801688300,11.450688232421875,0.1782201396435499,0.03918491357932798,-0.08178687819368205
1690841656811728100,11.46072802734375,0.17881927458047867,0.033831423722160976,-0.07982668403661809
1690841656821768200,11.470768310546875,0.1768739857316017,0.03348112158030271,-0.06869326820429414
1690841656831808300,11.480808349609376,0.16714812600910664,0.03313048151172698,-0.0798072760832496
1690841656841879300,11.49087939453125,0.17044132233560083,0.03884662153567187,-0.08890160556971095
1690841656851919400,11.50091943359375,0.1753793632596731,0.03604520904780365,-0.08714515382382088
1690841656861960400,11.51096044921875,0.1854050827115774,0.03898062317888252,-0.08510830510081722
1690841656872000300,11.521000244140625,0.1830091274857521,0.041048159301094705,-0.09092510162079706
1690841656882040300,11.531040283203126,0.1851052229821682,0.03174013226502575,-0.08511688113291747
1690841656892081200,11.5410810546875,0.18600480217039583,0.04091283335047774,-0.08440138067416847
1690841656902121200,11.551121337890624,0.1747837354540825,0.03967780252965167,-0.07915981762572191
1690841656912161300,11.561161376953125,0.17194179002642632,0.03725152523079887,-0.08037739498824811
1690841656922201300,11.571201416015626,0.18002222062945364,0.04100162587878294,-0.08833754194616339
1690841656932242400,11.581242431640625,0.19064765954017637,0.0394844262488652,-0.08251494587305933
1690841656942282500,11.591282470703124,0.17598375889360904,0.039152134687732904,-0.08407854192797094
1690841656952322300,11.601322265625,0.16999708569943903,0.0403535920325201,-0.07862929094559512
1690841656962363100,11.611363037109374,0.1849614305973053,0.040332987635908646,-0.08319572207829914
1690841656972433400,11.621433349609376,0.17987375206947326,0.03438749583549797,-0.08755774407954886
1690841656982474200,11.63147412109375,0.18391630545854568,0.034491814726497975,-0.09350049593360163
1690841656992514300,11.641514404296874,0.18795710528194903,0.041222355957375834,-0.07833186063528992
1690841657002554400,11.651554443359375,0.17643617883622645,0.040405788010638204,-0.0765321086037904
1690841657012594200,11.66159423828125,0.1801765344083309,0.039752886193012815,-0.08100193836106918
1690841657022635300,11.67163525390625,0.1833183395653963,0.03825975242527201,-0.08013029749253764
1690841657032675300,11.68167529296875,0.17478958067297934,0.03624896059213206,-0.07822904871478677
1690841657042715400,11.69171533203125,0.1794283463895321,0.03794881417942233,-0.0875771337666083
1690841657052756200,11.701756103515624,0.1872089172631502,0.03759611001792364,-0.0817401438419707
1690841657062796300,11.71179638671875,0.17673311595618724,0.040242633338179436,-0.08416849436690099
1690841657072836400,11.72183642578125,0.1803244184464216,0.03586420819140039,-0.08548468239884822
1690841657082876200,11.731876220703125,0.17523790896236896,0.03790528556494974,-0.07723272202066145
1690841657092917200,11.741917236328124,0.17882979597449303,0.03686267204368487,-0.07971804516352712
1690841657102957300,11.751957275390625,0.17553776869177817,0.040465993765275925,-0.0837684530654922
1690841657113028400,11.7620283203125,0.16715981644690037,0.036914374831458555,-0.08775191494477912
1690841657123068400,11.772068359375,0.17568974438309667,0.038122426313813775,-0.0850021413126029
1690841657133108500,11.7821083984375,0.17703823638260363,0.034964044481283055,-0.07316601143786683
1690841657143149300,11.7921494140625,0.1836234599918127,0.03246444621789269,-0.07972411871128715
1690841657153189400,11.802189453125,0.17778700892329216,0.03909977431283332,-0.08221980798454023
1690841657163229200,11.812229248046876,0.17254969279170035,0.03660828629066236,-0.08811100318129174
1690841657173270300,11.822270263671875,0.1776373713195324,0.035924103418784215,-0.08024383173645473
1690841657183310300,11.832310302734374,0.17688918330073355,0.036888838531402866,-0.07746780028501525
1690841657193350400,11.842350341796875,0.1816793401867151,0.03207134611392393,-0.08103113705608993
1690841657203390500,11.852390380859376,0.17943711421787736,0.03165481946859509,-0.07953809461989439
1690841657213431300,11.862431396484375,0.18646949707269667,0.03521662186970934,-0.08405591910420916
1690841657223471400,11.872471435546874,0.1842243484944105,0.03139485335815698,-0.07818876237017103
1690841657233511200,11.88251123046875,0.1908072340160608,0.0392635226403363,-0.08447866542777047
1690841657243552300,11.89255224609375,0.18631927494704723,0.04204797486024908,-0.08385995814069173
1690841657253622300,11.902622314453126,0.18018471771478653,0.0383272921029944,-0.07546093570832163
1690841657263663400,11.912663330078125,0.178839148324728,0.03663685479802079,-0.08117917635780758
1690841657273703400,11.922703369140624,0.17749065632522104,0.04240290751145221,-0.07747113388641737
1690841657283743500,11.932743408203125,0.1725508618354797,0.044229794145049524,-0.07573406269443221
1690841657293783600,11.942783447265626,0.17479542589187622,0.03540389720327221,-0.08199472139123827
1690841657303824400,11.952824462890625,0.17734218776524066,0.032679166680807246,-0.08488606805172748
1690841657313864200,11.9628642578125,0.17061024916172027,0.03862299624709412,-0.0911092442823574
1690841657323904300,11.972904296875,0.1795896744310856,0.036798703429382296,-0.08127309258580208
1690841657333945300,11.9829453125,0.17869301785230635,0.028248326360201463,-0.08133270468539558
1690841657343985400,11.9929853515625,0.173605923846364,0.0338270306748338,-0.08251004136907868
1690841657354025500,12.003025390625,0.17689853565096855,0.042089439381798724,-0.09400301122879609
1690841657364065500,12.0130654296875,0.17834405828416347,0.038920097763836384,-0.08407793000661767
1690841657374106400,12.0231064453125,0.28300854785144325,0.03499722523167729,-0.060234250079840415
1690841657384177200,12.03317724609375,0.08235621164739132,-0.23471690196180714,-0.1855913625312969
1690841657394217200,12.04321728515625,-0.10058861843049526,0.09641136927846819,-0.015164507112465798
1690841657404257300,12.05325732421875,0.31131343583762644,0.33890922570638354,0.09950363620538263
1690841657414297300,12.06329736328125,0.35472821467220783,-0.27999687188006933,-0.4226166327670216
1690841657424338400,12.07333837890625,-0.03990238679945469,0.3025939584123902,0.18999602723103015
1690841657434378500,12.08337841796875,0.43396775560379025,0.26279961683098224,0.08911870065280236
1690841657444418300,12.093418212890626,0.06070201372206211,0.015405878120288251,-0.23652656346596776
1690841657454459400,12.10345947265625,0.29732290440797804,0.0591246266038157,-0.1757471005935222
1690841657464499200,12.113499267578124,0.12179682615399359,0.027221504063112658,-0.3256674668174237
1690841657474539300,12.123539306640625,0.2369926466077566,-0.00957550059952773,-0.185018165753223
1690841657484579300,12.133579345703126,0.15090367817282677,0.0458954075360205,-0.17612196178790182
1690841657494620400,12.143620361328125,0.2092296104133129,-0.022490904477797447,-0.05305518876332789
1690841657504660500,12.153660400390624,0.09503390691280364,0.00308508826745674,-0.031225241545448076
1690841657514700300,12.1637001953125,0.1982809308975935,0.0069787347051315,0.02169140639686957
1690841657524771300,12.173771240234375,0.12946458430290222,-0.035860609728517005,0.017500293116271496
1690841657534811100,12.18381103515625,0.16584814932644365,0.0025181842328514904,-0.02328119633896276
1690841657544852200,12.193852294921875,0.13263853816390037,-0.001715973605029285,-0.06559866318982094
1690841657554892300,12.203892333984374,0.21583120063543318,0.013442487359140068,-0.1181533550851047
1690841657564932400,12.213932373046875,0.11359832212924957,0.040176618897262956,-0.13842654698081314
1690841657574972400,12.223972412109376,0.23161446070075034,0.033054877258557824,-0.1693436450256966
1690841657585013500,12.234013427734375,0.16212766749858856,0.0646344212675467,-0.17141031349822877
1690841657595053300,12.24405322265625,0.21055589058101176,0.07123621241906658,-0.15277326230383478
1690841657605093000,12.254093017578125,0.18986556925177572,0.047135571189690376,-0.12258123626364394
1690841657615132700,12.264132568359376,0.20480770231783388,0.08498477005269378,-0.10136729291910306
1690841657625172700,12.2741728515625,0.19897651194632052,0.06541766233341768,-0.060982876490056515
1690841657635212500,12.284212646484375,0.17012684955894947,0.07220961489533073,-0.04454838597439229
1690841657645252400,12.29425244140625,0.16897592595815658,0.07830590421012602,-0.031059967981139195
1690841657655293400,12.30429345703125,0.21990707177221774,0.06315680472934618,-0.047909916563052685
1690841657665363500,12.314363525390625,0.15082885937094687,0.07061427199528553,-0.07218868170515634
1690841657675404500,12.324404541015625,0.19007658165395258,0.048376136702159414,-0.09912181554725392
