time,seconds_elapsed,z,y,x
1690841645385443300,0.034443359375,-0.0015132081462070346,0.03494573384523392,0.07070772349834442
1690841645395483400,0.0444833984375,-0.004738828632980585,0.03549168258905411,0.0036706349346786737
1690841645405523500,0.0545234375,-0.006608101539313793,0.022598786279559135,-0.06156110018491745
1690841645415564500,0.064564453125,-0.006748982705175877,-0.0002569950302131474,-0.11884436011314392
1690841645425604400,0.074604248046875,-0.005822469014674425,-0.022527679800987244,-0.15846288204193115
1690841645435644400,0.08464453125,-0.004021106753498316,-0.03501524031162262,-0.1786845326423645
1690841645445684500,0.0946845703125,-0.0030543794855475426,-0.030970165506005287,-0.17475423216819763
1690841645455725300,0.104725341796875,-0.0037968687247484922,-0.016465526074171066,-0.15487639605998993
1690841645465765400,0.114765380859375,-0.004555337131023407,0.0008226504432968795,-0.12074372917413712
1690841645475805400,0.124805419921875,-0.00538491178303957,0.01715821400284767,-0.08003225177526474
1690841645485876500,0.13487646484375,-0.00723447697237134,0.026852119714021683,-0.03694390133023262
1690841645495916300,0.144916259765625,-0.0048858351074159145,0.02375752665102482,0.005315669346600771
1690841645505957400,0.154957275390625,-0.004491687286645174,0.009141034446656704,0.04246516898274422
1690841645515997400,0.16499755859375,-0.0036511938087642193,-0.008099472150206566,0.07329791784286499
1690841645526037500,0.17503759765625,-0.003637611633166671,-0.020671723410487175,0.09020072966814041
1690841645536077600,0.18507763671875,-0.005136438645422459,-0.02748914808034897,0.09691908955574036
1690841645546118400,0.195118408203125,-0.0033481260761618614,-0.021807294338941574,0.08585978299379349
1690841645556158500,0.205158447265625,-0.005152151454240084,-0.009157013148069382,0.06366446614265442
1690841645566198300,0.2151982421875,-0.00498144282028079,0.008535963483154774,0.03187350928783417
1690841645576239400,0.2252392578125,-0.005447762086987495,0.017068732529878616,-0.006708502769470215
1690841645586279400,0.235279541015625,-0.0036999296862632036,0.018266089260578156,-0.04474829509854317
1690841645596319500,0.245319580078125,-0.0029915287159383297,0.00881160143762827,-0.07475679367780685
1690841645606355200,0.255355224609375,-0.004988633096218109,-0.0054821171797811985,-0.09775878489017487
1690841645616426200,0.26542626953125,-0.0034016557037830353,-0.015132879838347435,-0.109835684299469
1690841645626467300,0.27546728515625,-0.0035481294617056847,-0.018823223188519478,-0.1061200425028801
1690841645636507400,0.28550732421875,-0.004832039587199688,-0.015015168115496635,-0.09215043485164642
1690841645646547200,0.295547119140625,-0.006840861868113279,-0.0046669235453009605,-0.07023581117391586
1690841645656587000,0.3055869140625,-0.006688795518130064,0.004890629090368748,-0.04322017356753349
1690841645666628000,0.315628173828125,-0.004188353195786476,0.01079965103417635,-0.015199725516140461
1690841645676668200,0.325668212890625,-0.004573978949338198,0.013555223122239113,0.010482468642294407
1690841645686708200,0.335708251953125,-0.0023315974976867437,0.005676794331520796,0.030120085924863815
1690841645696749300,0.345749267578125,-0.002225070958957076,-0.0018985675415024161,0.042019087821245193
1690841645706789400,0.355789306640625,-0.004997421521693468,-0.00893676932901144,0.04460528492927551
1690841645716829200,0.3658291015625,-0.004355067387223244,-0.013652428984642029,0.03602271527051926
1690841645726869000,0.375868896484375,-0.004999019671231508,-0.012987171299755573,0.021348964422941208
1690841645736910000,0.38591015625,-0.0051806471310555935,-0.00529463030397892,0.00392762990668416
1690841645746950100,0.3959501953125,-0.00504083139821887,0.0015939018921926618,-0.019876236096024513
1690841645757021200,0.406021240234375,-0.005043228156864643,0.005792907904833555,-0.04051626846194267
1690841645767061200,0.416061279296875,-0.003930825740098953,0.006719687953591347,-0.055690426379442215
1690841645777101300,0.426101318359375,-0.002947586588561535,0.003765976056456566,-0.0651284009218216
1690841645787142400,0.436142333984375,-0.004316185135394335,-0.0014602112350985408,-0.06515982747077942
1690841645797182200,0.44618212890625,-0.005989182740449905,-0.007001983001828194,-0.06306445598602295
1690841645807222000,0.456221923828125,-0.004897287115454674,-0.007993478327989578,-0.05272126942873001
1690841645817262000,0.466261962890625,-0.004226969089359045,-0.007719704881310463,-0.03790690377354622
1690841645827303200,0.47630322265625,-0.00612154183909297,-0.0038804919458925724,-0.0240174513310194
1690841645837343200,0.48634326171875,-0.004430434666574001,-0.0005723133217543364,-0.00983372237533331
1690841645847383300,0.49638330078125,-0.004533232655376196,0.0020748688839375973,0.0033571808598935604
1690841645857424400,0.50642431640625,-0.0008364989189431071,0.0018274611793458462,0.010822554118931293
1690841645867464200,0.516464111328125,-0.004341219086199999,0.0003406183095648885,0.014481737278401852
1690841645877504000,0.52650390625,-0.00577932596206665,-0.004299141000956297,0.012646819464862347
1690841645887575000,0.536574951171875,-0.0035033884923905134,-0.006558034103363752,0.0051569449715316296
1690841645897615000,0.546614990234375,-0.005810751114040613,-0.004583300091326237,-0.0067780110985040665
1690841645907656200,0.55665625,-0.005299424286931753,-0.003549461020156741,-0.01763172447681427
1690841645917696300,0.5666962890625,-0.004289819858968258,-0.0018311894964426756,-0.030776554718613625
1690841645927736300,0.576736328125,-0.00564110791310668,-0.001315068919211626,-0.04205557331442833
1690841645937776000,0.586776123046875,-0.004526042379438877,0.002004561247304082,-0.048892974853515625
1690841645947817000,0.59681689453125,-0.004848018288612366,-0.000731836655177176,-0.04820454865694046
1690841645957857000,0.60685693359375,-0.00520674604922533,-0.0013398362789303064,-0.04508758336305618
1690841645967897000,0.61689697265625,-0.004599545616656542,-0.0020746025256812572,-0.0378645583987236
1690841645977937200,0.626937255859375,-0.005617405753582716,-0.004571315832436085,-0.028149079531431198
1690841645987978200,0.636978271484375,-0.00264824740588665,-0.0037324202712625265,-0.01768551953136921
1690841645998018300,0.647018310546875,-0.0049026133492589,-0.003626160090789199,-0.009100819937884808
1690841646008058400,0.657058349609375,-0.004316451493650675,-0.001978728687390685,-0.0010673949727788568
1690841646018099200,0.66709912109375,-0.004760134033858776,-0.0010349043877795339,-0.0003707120195031166
1690841646028169200,0.677169189453125,-0.0021888520568609238,0.00038962045800872147,-0.001999235013499856
1690841646038210000,0.6872099609375,-0.005258145276457071,0.0004588626616168767,-0.0068057081662118435
1690841646048250000,0.69725,-0.00509755639359355,-0.0016479641199111938,-0.011831891722977161
1690841646058290200,0.707290283203125,-0.004544950556010008,-0.0016556872287765145,-0.018366489559412003
1690841646068331300,0.717331298828125,-0.006668022833764553,-0.0038687740452587605,-0.024517860263586044
1690841646078371300,0.727371337890625,-0.004795287735760212,-0.003031742526218295,-0.031321436166763306
1690841646088411100,0.7374111328125,-0.004072239622473717,-0.0034352114889770746,-0.03471536934375763
1690841646098451200,0.747451171875,-0.003748132847249508,-0.0011978897964581847,-0.03404957801103592
1690841646108492000,0.757491943359375,-0.0043899547308683395,-0.0010327738709747791,-0.03271373733878136
1690841646118532000,0.767531982421875,-0.003740143496543169,-0.0010990865994244814,-0.02754986844956875
1690841646128572200,0.777572265625,-0.006564692128449678,-0.0002540655550546944,-0.02544384077191353
1690841646138613200,0.78761328125,-0.0054762582294642925,-0.0022426480427384377,-0.020855480805039406
1690841646148653300,0.7976533203125,-0.004030427895486355,-0.005664277356117964,-0.01667564921081066
1690841646158724400,0.807724365234375,-0.005536179058253765,-0.004861867055296898,-0.012590093538165092
1690841646168764200,0.81776416015625,-0.005087703000754118,-0.0022186795249581337,-0.009665144607424736
1690841646178804200,0.82780419921875,-0.00535508431494236,-0.0014405038673430681,-0.008238755166530609
1690841646188844300,0.83784423828125,-0.004217648413032293,-0.0008207862265408039,-0.01104519423097372
1690841646198885000,0.847885009765625,-0.0041342913173139095,-0.0027537085115909576,-0.015416773036122322
1690841646208925200,0.85792529296875,-0.005656021647155285,-0.0017294568242505193,-0.01842002011835575
1690841646218965200,0.86796533203125,-0.0049675945192575455,-0.0035337484441697598,-0.022904517129063606
1690841646229006300,0.87800634765625,-0.004339354578405619,-0.0021960425656288862,-0.02712829038500786
1690841646239046100,0.888046142578125,-0.0037952708080410957,-0.002150502521544695,-0.029229257255792618
1690841646249086200,0.898086181640625,-0.005065332166850567,-0.0028573055751621723,-0.030180273577570915
1690841646259126300,0.908126220703125,-0.004924184642732143,-0.002686064224690199,-0.02906068041920662
1690841646269167000,0.9181669921875,-0.004430168308317661,-0.0013528858544304967,-0.027155455201864243
1690841646279207200,0.928207275390625,-0.003747866488993168,-0.002258360618725419,-0.02141714096069336
1690841646289247200,0.938247314453125,-0.0027244137600064278,-0.001725728390738368,-0.02016305923461914
1690841646299318300,0.948318359375,-0.005391303449869156,-0.0024799355305731297,-0.015660718083381653
1690841646309358000,0.958358154296875,-0.0037832865491509438,-0.001253017340786755,-0.01477495115250349
1690841646319399200,0.968399169921875,-0.00221947836689651,-0.002445048186928034,-0.014181865379214287
1690841646329439200,0.978439208984375,-0.0046208505518734455,-0.0008554073283448815,-0.015233281068503857
1690841646339479300,0.988479248046875,-0.004017644561827183,-0.0021321268286556005,-0.017536915838718414
1690841646349520100,0.99852001953125,-0.004978513345122337,-0.002804841147735715,-0.019702598452568054
1690841646359560200,1.008560302734375,-0.004309260752052069,-0.00424214918166399,-0.021438978612422943
1690841646369600300,1.018600341796875,-0.003862382611259818,-0.003379551460966468,-0.023152723908424377
1690841646379640000,1.02864013671875,-0.004013916477560997,-0.003907922655344009,-0.024349015206098557
1690841646389681200,1.03868115234375,-0.005407282151281834,-0.0010450243717059493,-0.023506391793489456
1690841646399721200,1.04872119140625,-0.004564125556498766,-0.0017243968322873116,-0.024839036166667938
1690841646409761300,1.05876123046875,-0.00506906071677804,-0.0008676578872837126,-0.024217987433075905
1690841646419801300,1.06880126953125,-0.004028563853353262,0.001374457380734384,-0.02105761505663395
1690841646429842200,1.07884228515625,-0.003937750123441219,-0.003227218519896269,-0.021525265648961067
1690841646439913200,1.088913330078125,-0.003940679598599672,-0.001273523666895926,-0.021453360095620155
1690841646449953000,1.098953125,-0.00481233187019825,-0.003989415243268013,-0.020120713859796524
1690841646459993000,1.1089931640625,-0.003846669802442193,-0.0037151097785681486,-0.018628012388944626
1690841646470033200,1.119033203125,-0.0049308426678180695,-0.002814428647980094,-0.017343303188681602
1690841646480074200,1.12907421875,-0.005684783682227135,-0.00008202536264434457,-0.017974207177758217
1690841646490114300,1.1391142578125,-0.003674097126349807,0.0012724583502858877,-0.017421068623661995
1690841646500154400,1.149154296875,-0.0036844832357019186,-0.0004647216119337827,-0.019124159589409828
1690841646510195200,1.1591953125,-0.0028133634477853775,-0.000015978966985130683,-0.01884319633245468
1690841646520235300,1.1692353515625,-0.004686098080128431,-0.0027867318131029606,-0.021935392171144485
1690841646530275000,1.179275146484375,-0.003960120491683483,-0.0017419736832380295,-0.023865917697548866
1690841646540315100,1.189315185546875,-0.004066380672156811,-0.0002924150903709233,-0.023331422358751297
1690841646550356200,1.199356201171875,-0.002846386516466737,-0.003640541108325124,-0.025074459612369537
1690841646560396300,1.209396240234375,-0.00440992834046483,-0.003203516360372305,-0.022469623014330864
1690841646570467300,1.21946728515625,-0.0037705034483224154,-0.0019046928500756621,-0.023077622056007385
1690841646580507400,1.22950732421875,-0.004396612755954266,-0.0009488842915743589,-0.020352410152554512
1690841646590547200,1.239547119140625,-0.004475442226976156,0.0003414172388147563,-0.020174777135252953
1690841646600588000,1.249588134765625,-0.005227785091847181,-0.0018082864116877317,-0.01840963400900364
1690841646610620700,1.25962060546875,-0.005001150071620941,-0.0035950010642409325,-0.017469804733991623
1690841646620660700,1.26966064453125,-0.004944690968841314,-0.0003635214816313237,-0.017527861520648003
1690841646630700800,1.27970068359375,-0.0037473340053111315,-0.000663393409922719,-0.018317755311727524
1690841646640742000,1.289741943359375,-0.0041004689410328865,-0.0014442323008552194,-0.02058064192533493
1690841646650781700,1.29978173828125,-0.006389455869793892,0.00017843178648035973,-0.022834742441773415
1690841646660821800,1.30982177734375,-0.004408597014844418,-0.002626675646752119,-0.020928718149662018
1690841646670862600,1.319862548828125,-0.004965996369719505,-0.002570483135059476,-0.021523667499423027
1690841646680902700,1.329902587890625,-0.006446714047342539,-0.002743322169408202,-0.0223228819668293
1690841646690942700,1.339942626953125,-0.0057441722601652145,-0.0023792681749910116,-0.021028852090239525
1690841646700982800,1.349982666015625,-0.005252019967883825,-0.0013819142477586865,-0.022821692749857903
1690841646711053800,1.3600537109375,-0.0048951562494039536,-0.0020724718924611807,-0.019120963290333748
1690841646721095000,1.370094970703125,-0.005203284323215485,-0.002688727341592312,-0.0205747839063406
1690841646731134700,1.380134765625,-0.004294081125408411,-0.003980893176048994,-0.01966877654194832
1690841646741174800,1.3901748046875,-0.005056277383118868,-0.0008572715451009572,-0.019466642290353775
1690841646751214800,1.40021484375,-0.004770520608872175,-0.0030892668291926384,-0.020304206758737564
1690841646761255700,1.410255615234375,-0.004972121678292751,-0.0023031015880405903,-0.020779313519597054
1690841646771295700,1.420295654296875,-0.003572896821424365,-0.0028823392931371927,-0.02154816873371601
1690841646781335800,1.430335693359375,-0.0046879625879228115,-0.002430933527648449,-0.01992763578891754
1690841646791377000,1.440376953125,-0.00492125516757369,0.0010719223646447062,-0.019770242273807526
1690841646801416700,1.450416748046875,-0.004973985720425844,-0.0006700513185933232,-0.021579593420028687
1690841646811456800,1.460456787109375,-0.00714579364284873,-0.00035127095179632306,-0.020657608285546303
1690841646821496800,1.470496826171875,-0.005305016878992319,-0.001160339335910976,-0.0216581579297781
1690841646831537700,1.48053759765625,-0.004840828012675047,-0.004884503781795502,-0.022245917469263077
1690841646841577700,1.49057763671875,-0.007129814941436052,-0.003486876841634512,-0.020107664167881012
1690841646851648800,1.500648681640625,-0.006569485645741224,-0.0025925873778760433,-0.0214187391102314
1690841646861688800,1.510688720703125,-0.00555109279230237,-0.00037523938226513565,-0.021220600232481956
1690841646871728600,1.520728759765625,-0.003882622579112649,-0.0008801747462712228,-0.020372916013002396
1690841646881769700,1.530769775390625,-0.005251220893114805,0.0003677825443446636,-0.02166774496436119
1690841646891809800,1.540809814453125,-0.004781173076480627,-0.002171807922422886,-0.019207250326871872
1690841646901849900,1.550849853515625,-0.0051990230567753315,-0.0031342741567641497,-0.019174227491021156
1690841646911889700,1.5608896484375,-0.0027206854429095984,-0.00347409350797534,-0.018602978438138962
1690841646921930800,1.5709306640625,-0.0054911719635128975,-0.0016889767721295357,-0.0199848935008049
1690841646931970800,1.580970703125,-0.004948419518768787,-0.0030447919853031635,-0.020003268495202065
1690841646942010600,1.5910107421875,-0.004670385736972094,-0.002716158051043749,-0.01896090805530548
1690841646952051700,1.6010517578125,-0.0028671592008322477,-0.003828826593235135,-0.021142303943634033
1690841646962091800,1.611091796875,-0.006616357248276472,-0.002925216220319271,-0.023917317390441895
1690841646972131800,1.6211318359375,-0.005328186322003603,-0.0027270768769085407,-0.020013654604554176
1690841646982203000,1.631202880859375,-0.004870122764259577,-0.0010538127971813083,-0.02135615423321724
1690841646992242700,1.64124267578125,-0.004971322603523731,-0.0017670074012130499,-0.020259998738765717
1690841647002283800,1.65128369140625,-0.006743390113115311,-0.0018977685831487179,-0.02027357928454876
1690841647012323600,1.661323486328125,-0.005364938173443079,-0.002441585995256901,-0.02081686444580555
1690841647022363600,1.67136376953125,-0.004490089602768421,-0.00013022858183830976,-0.021201426163315773
1690841647032403700,1.68140380859375,-0.004471447318792343,-0.003468767274171114,-0.020858677104115486
1690841647042444800,1.69144482421875,-0.0038900794461369514,-0.002499376656487584,-0.02106853388249874
1690841647052484900,1.70148486328125,-0.004833104554563761,-0.003239469137042761,-0.020737236365675926
1690841647062524700,1.711524658203125,-0.005094893276691437,-0.002496979897841811,-0.02195776253938675
1690841647072564700,1.721564697265625,-0.004742024466395378,-0.002558232517912984,-0.0205707885324955
1690841647082605800,1.731605712890625,-0.004577973857522011,-0.0012604740913957357,-0.020002469420433044
1690841647092645600,1.741645751953125,-0.0036946034524589777,-0.001817341079004109,-0.019342804327607155
1690841647102685700,1.751685791015625,-0.0047031426802277565,-0.0014199974248185754,-0.019219234585762024
1690841647112726800,1.761726806640625,-0.004252802114933729,-0.00177899154368788,-0.020177174359560013
1690841647122796800,1.771796875,-0.00373028963804245,-0.0020572920329868793,-0.01888420805335045
1690841647132838000,1.781837890625,-0.005282912403345108,-0.0010873686987906694,-0.02004028670489788
1690841647142877700,1.791877685546875,-0.005001150071620941,-0.0013142699608579278,-0.02183871902525425
1690841647152917500,1.80191748046875,-0.00475507415831089,-0.0024205471854656935,-0.02196814864873886
1690841647162958600,1.81195849609375,-0.0038687740452587605,-0.002148372121155262,-0.019991816952824593
1690841647172998700,1.82199853515625,-0.005900765769183636,-0.001499359728768468,-0.021373199298977852
1690841647183038700,1.832038818359375,-0.004367584362626076,-0.002966495230793953,-0.02148558385670185
1690841647193078800,1.842078857421875,-0.004652276169508696,-0.0032344090286642313,-0.022518891841173172
1690841647203119900,1.852119873046875,-0.004206462763249874,0.00017257283616345376,-0.021694377064704895
1690841647213159700,1.86215966796875,-0.004792358260601759,-0.0007699198904447258,-0.018438395112752914
1690841647223199700,1.87219970703125,-0.0043657198548316956,-0.0006713828770443797,-0.019090071320533752
1690841647233240800,1.88224072265625,-0.0037151097785681486,-0.004619252867996693,-0.019566776230931282
1690841647243280600,1.89228076171875,-0.004542553797364235,-0.001499359728768468,-0.017830396071076393
1690841647253320700,1.90232080078125,-0.005395830608904362,-0.004233360756188631,-0.02328907698392868
1690841647263391700,1.912391845703125,-0.005376921966671944,-0.0032226911280304193,-0.02298307977616787
1690841647273431800,1.922431884765625,-0.004550543148070574,0.00023675501870457083,-0.023073626682162285
1690841647283472000,1.932471923828125,-0.004384362138807774,0.00072597770486027,-0.02099742740392685
1690841647293512700,1.9425126953125,-0.005218463949859142,-0.0010250506456941366,-0.020626448094844818
1690841647303552500,1.952552490234375,-0.00436119269579649,-0.0019241338595747948,-0.0201641246676445
1690841647313592600,1.962592529296875,-0.006025401875376701,-0.0034490597900003195,-0.020188093185424805
1690841647323633700,1.972633544921875,-0.004086087923496962,-0.005869873333722353,-0.018073542043566704
1690841647333673700,1.982673828125,-0.004201669245958328,-0.002156095113605261,-0.02039209008216858
1690841647343713800,1.9927138671875,-0.004593153949826956,0.00000958738019107841,-0.01967436820268631
1690841647353753900,2.00275390625,-0.00509968725964427,0.0010455570882186294,-0.02340039797127247
1690841647363794700,2.012794677734375,-0.00347489258274436,0.0007446198142133653,-0.02052658051252365
1690841647373834800,2.022834716796875,-0.004487426485866308,-0.001097755040973425,-0.021631259471178055
1690841647383874600,2.03287451171875,-0.006312224548310041,-0.003236273303627968,-0.022964438423514366
1690841647393945600,2.042945556640625,-0.005794771946966648,-0.004523645620793104,-0.022485068067908287
1690841647403985700,2.052985595703125,-0.005028048064559698,-0.003718571737408638,-0.02010633423924446
1690841647414026800,2.06302685546875,-0.003323092358186841,-0.0035260252188891172,-0.020387830212712288
1690841647424066800,2.07306689453125,-0.004559331573545933,-0.0034815503749996424,-0.01775635965168476
1690841647434107000,2.08310693359375,-0.004232828039675951,0.00027057717670686543,-0.018573418259620667
1690841647444147700,2.093147705078125,-0.00481233187019825,-0.0017267935909330845,-0.020352942869067192
1690841647454187500,2.1031875,-0.005148422904312611,0.0008878979133442044,-0.0193175058811903
1690841647464227600,2.1132275390625,-0.004328169394284487,-0.0011001517996191978,-0.021167868748307228
1690841647474267600,2.123267578125,-0.004854942671954632,-0.002067944500595331,-0.022902918979525566
1690841647484308700,2.133308837890625,-0.004977181553840637,-0.004634432960301638,-0.020376378670334816
1690841647494348800,2.143348876953125,-0.004159058444201946,-0.002596848411485553,-0.022250443696975708
1690841647504388900,2.153388916015625,-0.004382763989269733,0.00010386328358436003,-0.02069968543946743
1690841647514429700,2.1634296875,-0.00515721132978797,0.00032437301706522703,-0.019178221002221107
1690841647524469800,2.1734697265625,-0.0054488275200128555,-0.0008146609761752188,-0.018751051276922226
1690841647534540500,2.18354052734375,-0.004236822947859764,-0.0030192257836461067,-0.018915900960564613
1690841647544580600,2.19358056640625,-0.0018341189716011286,-0.004057059530168772,-0.019947076216340065
1690841647554620700,2.20362060546875,-0.004987301770597696,-0.004247741773724556,-0.01901470310986042
1690841647564660700,2.21366064453125,-0.004290352575480938,-0.003506850451231003,-0.021579327061772346
1690841647574701800,2.223701904296875,-0.004622715059667826,-0.0017560884589329362,-0.02310079149901867
1690841647584742000,2.233741943359375,-0.005372661165893078,-0.001582982949912548,-0.021151358261704445
1690841647594781700,2.24378173828125,-0.005224056541919708,0.0010162622202187777,-0.020925521850585938
1690841647604829200,2.2538291015625,-0.004098604898899794,-0.00040986048406921327,-0.021226990967988968
1690841647614869000,2.263868896484375,-0.004863731097429991,-0.002122006844729185,-0.021557755768299103
1690841647624909000,2.273908935546875,-0.005396363325417042,-0.002447711303830147,-0.019340675324201584
1690841647634949000,2.28394921875,-0.003739877138286829,-0.0036935380194336176,-0.020840033888816833
1690841647644990200,2.293990234375,-0.003882888937368989,-0.002832271857187152,-0.01943575032055378
1690841647655030000,2.304030029296875,-0.004507400095462799,-0.002013882389292121,-0.019213374704122543
1690841647665070000,2.314070068359375,-0.005012601613998413,0.0010996191995218396,-0.02123364992439747
1690841647675141000,2.32414111328125,-0.004747084807604551,-0.0010037453612312675,-0.021887987852096558
1690841647685181200,2.33418115234375,-0.004883171990513802,-0.0011941614793613553,-0.01992097683250904
1690841647695222000,2.344221923828125,-0.005374525208026171,-0.0012301141396164894,-0.022471221163868904
1690841647705262000,2.354261962890625,-0.004404069390147924,-0.0025545042008161545,-0.020532704889774323
1690841647715302100,2.36430224609375,-0.0029891319572925568,-0.0012610068079084158,-0.022489596158266068
1690841647725342000,2.374342041015625,-0.005000085104256868,-0.0012980246683582664,-0.021579593420028687
1690841647735383000,2.384383056640625,-0.00404614070430398,0.0002335592289455235,-0.018561966717243195
1690841647745423000,2.394423095703125,-0.003975566942244768,-0.0009712548344396055,-0.019211245700716972
1690841647755463200,2.404463134765625,-0.005687180440872908,0.0003278351214248687,-0.01984880492091179
1690841647765504000,2.41450390625,-0.004673847462981939,-0.002520682057365775,-0.02082645148038864
1690841647775544000,2.4245439453125,-0.0046935551799833775,-0.0022596921771764755,-0.01883440837264061
1690841647785584000,2.434584228515625,-0.006316485349088907,-0.00119602563790977,-0.021262677386403084
1690841647795624000,2.4446240234375,-0.0062970444560050964,-0.0021587584633380175,-0.02213246561586857
1690841647805695000,2.454695068359375,-0.005754558369517326,-0.0007874967413954437,-0.022058164700865746
1690841647815736000,2.464736083984375,-0.004727377090603113,-0.00279072648845613,-0.020495422184467316
1690841647825776000,2.474776123046875,-0.00570023013278842,-0.0012668657582253218,-0.017737451940774918
1690841647835816200,2.484816162109375,-0.005472263321280479,-0.0011717908782884479,-0.02034255675971508
1690841647845856300,2.494856201171875,-0.005125253461301327,-0.003394731320440769,-0.019763851538300514
1690841647855897000,2.50489697265625,-0.005115399602800608,-0.004750546533614397,-0.01889992132782936
1690841647865937000,2.51493701171875,-0.003934554290026426,-0.003466370515525341,-0.02034042589366436
1690841647875977000,2.52497705078125,-0.005400890484452248,-0.0020391824655234814,-0.02191248908638954
1690841647886018000,2.53501806640625,-0.004761199466884136,-0.002517219865694642,-0.021518608555197716
1690841647896058000,2.54505810546875,-0.002710299100726843,-0.001255680457688868,-0.02251063473522663
1690841647906098200,2.55509814453125,-0.005438441410660744,-0.0010783139150589705,-0.02292875200510025
1690841647916138200,2.56513818359375,-0.005540173966437578,-0.0019619506783783436,-0.02106001228094101
1690841647926179000,2.575178955078125,-0.0028706213925033808,-0.0032621060963720083,-0.020368387922644615
1690841647936219100,2.58521923828125,-0.005661880597472191,0.0002993392990902066,-0.017702830955386162
1690841647946290000,2.5952900390625,-0.005225121974945068,-0.00196381495334208,-0.018867164850234985
1690841647956330000,2.605330078125,-0.0038184402510523796,-0.002030926523730159,-0.020679712295532227
1690841647966370000,2.6153701171875,-0.0044195158407092094,-0.002672215923666954,-0.02165869064629078
1690841647976411100,2.6254111328125,-0.006737264804542065,-0.002886067610234022,-0.020676249638199806
1690841647986451200,2.635451171875,-0.005356948357075453,-0.0015094797126948833,-0.022584937512874603
1690841647996491300,2.6454912109375,-0.00490154791623354,-0.0037950044497847557,-0.021865617483854294
1690841648006531000,2.655531005859375,-0.0052054147236049175,-0.0031398669816553593,-0.021626997739076614
1690841648016572000,2.665572021484375,-0.004881307948380709,-0.0030567762441933155,-0.021870944648981094
1690841648026612000,2.675612060546875,-0.006573746912181377,-0.0029854036401957273,-0.019950538873672485
1690841648036652000,2.685652099609375,-0.005389971658587456,-0.0010069411946460605,-0.019151324406266212
1690841648046693000,2.695693115234375,-0.004991296678781509,-0.0018359832465648651,-0.02069063112139702
1690841648056733200,2.705733154296875,-0.0059865196235477924,0.0009139968897216022,-0.02075561136007309
1690841648066773200,2.715773193359375,-0.0037939392495900393,0.000185888638952747,-0.019451994448900223
1690841648076813300,2.725813232421875,-0.004534830804914236,0.00018189390539191663,-0.02100887894630432
1690841648086884000,2.735884033203125,-0.004804342519491911,-0.0036274916492402554,-0.021886922419071198
1690841648096925000,2.745925048828125,-0.00504003232344985,-0.0019145464757457376,-0.02292608842253685
1690841648106965000,2.755965087890625,-0.0049678608775138855,-0.0020149475894868374,-0.021866682916879654
1690841648117005000,2.766005126953125,-0.004084490239620209,-0.0010743191232904792,-0.02039901539683342
1690841648127045000,2.776045166015625,-0.004817392211407423,-0.002439721953123808,-0.019846143200993538
1690841648137086200,2.786086181640625,-0.00475507415831089,-0.0014956312952563167,-0.02095215395092964
1690841648147126300,2.796126220703125,-0.00446851784363389,-0.0016700683627277613,-0.020430440083146095
1690841648157166000,2.806166015625,-0.004908205941319466,-0.0025923210196197033,-0.020370785146951675
1690841648167207000,2.81620703125,-0.006649380549788475,-0.0026788737159222364,-0.021637650206685066
1690841648177247000,2.8262470703125,-0.0036546560004353523,-0.000630902883131057,-0.02075374871492386
1690841648187287000,2.836287109375,-0.0054941014386713505,-0.0018112158868461847,-0.019886355847120285
1690841648197327000,2.8463271484375,-0.0046304380521178246,-0.001246892032213509,-0.021862421184778214
1690841648207368200,2.8563681640625,-0.006227003410458565,-0.0026024410035461187,-0.020956147462129593
1690841648217438200,2.866438232421875,-0.0048738508485257626,-0.002993126632645726,-0.021877868101000786
1690841648227479300,2.876479248046875,-0.004640025552362204,-0.003775030840188265,-0.020856546238064766
1690841648237519000,2.88651904296875,-0.004306064918637276,-0.004971056245267391,-0.019581690430641174
1690841648247559200,2.89655908203125,-0.005663744639605284,-0.002241050126031041,-0.021253356710076332
1690841648257600000,2.90660009765625,-0.0052056810818612576,-0.0020181434229016304,-0.021709023043513298
1690841648267640000,2.91664013671875,-0.00666296249255538,-0.0001496696495451033,-0.018739866092801094
1690841648277680000,2.92668017578125,-0.004493285436183214,-0.0002069276088150218,-0.019826967269182205
1690841648287720200,2.93672021484375,-0.00567040266469121,-0.0032629049383103848,-0.0204584039747715
1690841648297761300,2.94676123046875,-0.0049763829447329044,0.004861600697040558,-0.01962243765592575
1690841648307801000,2.956801025390625,-0.00503896689042449,-0.001969141187146306,-0.020544156432151794
1690841648317841200,2.966841064453125,-0.005942843854427338,-0.0030181603506207466,-0.02099183388054371
1690841648327882000,2.976882080078125,-0.002841060282662511,0.00033422670094296336,-0.020893031731247902
1690841648337922000,2.986922119140625,-0.004235225263983011,-0.0028631645254790783,-0.020168118178844452
1690841648347962000,2.996962158203125,-0.00433029979467392,-0.00008202536264434457,-0.020110327750444412
1690841648358033200,3.007033203125,-0.004061587154865265,0.0008671252289786935,-0.017055416479706764
1690841648368073200,3.0170732421875,-0.0043686493299901485,-0.003400590270757675,-0.01888846978545189
1690841648378113000,3.027113037109375,-0.004926315508782864,-0.0016823188634589314,-0.020850419998168945
1690841648388154000,3.037154052734375,-0.004520449787378311,-0.0009155947482213378,-0.01949061080813408
1690841648398194200,3.047194091796875,-0.003457315731793642,-0.0019528960110619664,-0.02267388626933098
1690841648408234200,3.057234130859375,-0.004866660572588444,-0.0031561122741550207,-0.020488763228058815
1690841648418275000,3.067275146484375,-0.004006459377706051,-0.001035436987876892,-0.020770791918039322
1690841648428315100,3.077315185546875,-0.004680771846324205,-0.0026988473255187273,-0.019642677158117294
1690841648438355200,3.087355224609375,-0.005131645128130913,-0.0014149374328553677,-0.019955864176154137
1690841648448395000,3.09739501953125,-0.0051659997552633286,0.001008539111353457,-0.020169982686638832
1690841648458436000,3.10743603515625,-0.004458930809050798,-0.003707919269800186,-0.02033989317715168
1690841648468476200,3.11747607421875,-0.004542021080851555,-0.004893824923783541,-0.01937263272702694
1690841648478516200,3.12751611328125,-0.004661597311496735,-0.002275404753163457,-0.019474897533655167
1690841648488557000,3.13755712890625,-0.004233627114444971,0.0002687129599507898,-0.020136959850788116
1690841648498627000,3.147626953125,-0.005062935408204794,-0.0027366643771529198,-0.02088690549135208
1690841648508668200,3.157668212890625,-0.005274923052638769,-0.0023153522051870823,-0.01918621174991131
1690841648518708200,3.167708251953125,-0.006294913589954376,-0.003478354774415493,-0.020190754905343056
1690841648528748000,3.177748046875,-0.0028336034156382084,-0.0027539748698472977,-0.02105441875755787
1690841648538789000,3.1877890625,-0.003930293023586273,-0.0016799219883978367,-0.020985975861549377
1690841648548829200,3.1978291015625,-0.005626194179058075,-0.0020479708909988403,-0.021809691563248634
1690841648558869200,3.207869140625,-0.0026378610637038946,-0.0015475628897547722,-0.020795559510588646
1690841648568909000,3.217908935546875,-0.006429669912904501,-0.002822684356942773,-0.02285764552652836
1690841648578950100,3.2279501953125,-0.004503405187278986,-0.0016250609187409282,-0.02076706290245056
1690841648588990200,3.237990234375,-0.005381449591368437,-0.0014439659425988793,-0.02040460705757141
1690841648599030000,3.248030029296875,-0.004493551794439554,-0.0024671524297446012,-0.021379590034484863
1690841648609054200,3.25805419921875,-0.004673581570386887,-0.0035145736765116453,-0.02178385853767395
1690841648619094300,3.26809423828125,-0.003841077210381627,-0.002189651131629944,-0.022179337218403816
1690841648629165300,3.278165283203125,-0.005024585872888565,-0.0021054951939731836,-0.020023776218295097
1690841648639205400,3.288205322265625,-0.004005660768598318,-0.004555337131023407,-0.02183978445827961
1690841648649245400,3.298245361328125,-0.0046424223110079765,-0.0011768508702516556,-0.022668028250336647
1690841648659285500,3.308285400390625,-0.0029406624380499125,-0.0009680590592324734,-0.02274525910615921
1690841648669326600,3.31832666015625,-0.0062701464630663395,-0.0003091930120717734,-0.021374264732003212
1690841648679366400,3.328366455078125,-0.006015814375132322,-0.003174221608787775,-0.020441625267267227
1690841648689406500,3.338406494140625,-0.004948419518768787,-0.0011230550007894635,-0.01954999938607216
1690841648699447300,3.348447265625,-0.0060933125205338,-0.0035031221341341734,-0.02021419070661068
1690841648709487400,3.3584873046875,-0.004320180043578148,-0.0038898130878806114,-0.0211284551769495
1690841648719527400,3.36852734375,-0.0043955473229289055,-0.00293347192928195,-0.019881030544638634
1690841648729567500,3.3785673828125,-0.005750829819589853,-0.002415753435343504,-0.019898340106010437
1690841648739608600,3.388608642578125,-0.0046996804885566235,0.002688993699848652,-0.01882854849100113
1690841648749648400,3.3986484375,-0.005438441410660744,-0.0013829795643687248,-0.02022617496550083
1690841648759688400,3.4086884765625,-0.004879177547991276,-0.0038003309164196253,-0.020805146545171738
1690841648769759500,3.418759521484375,-0.003885285696014762,-0.00009241169027518481,-0.021814217790961266
1690841648779799600,3.428799560546875,-0.004086620640009642,0.0003603257064241916,-0.019631758332252502
1690841648789840400,3.43884033203125,-0.007707187905907631,-0.001683650421909988,-0.02053004316985607
1690841648799880400,3.44888037109375,-0.004997155629098415,-0.0023270701058208942,-0.019583821296691895
1690841648809920500,3.45892041015625,-0.002764893928542733,-0.0009507485083304346,-0.02184271439909935
1690841648819961600,3.468961669921875,-0.004232828039675951,-0.0008713863207958639,-0.021523401141166687
1690841648830001400,3.47900146484375,-0.003677292726933956,-0.0012932310346513987,-0.020296482369303703
1690841648840041500,3.48904150390625,-0.004466920159757137,-0.0005605954211205244,-0.019512981176376343
1690841648850081500,3.49908154296875,-0.0040456079877913,-0.0036125779151916504,-0.01948395185172558
1690841648860122400,3.509122314453125,-0.004338821861892939,-0.0036908749025315046,-0.019957728683948517
1690841648870162400,3.519162353515625,-0.0031198931392282248,-0.002100967802107334,-0.018757442012429237
1690841648880202500,3.529202392578125,-0.006699980702251196,-0.002715625334531069,-0.02045520767569542
1690841648890242300,3.5392421875,-0.004775047767907381,-0.0027419906109571457,-0.020010726526379585
1690841648900313300,3.549313232421875,-0.006016080733388662,-0.0031755531672388315,-0.02100248634815216
1690841648910354400,3.5593544921875,-0.0043902210891246796,-0.001446362817659974,-0.021519407629966736
1690841648920394500,3.56939453125,-0.006451507564634085,-0.0009078715811483562,-0.020138824358582497
1690841648930434600,3.5794345703125,-0.0037438718136399984,-0.001359277404844761,-0.02016092836856842
1690841648940474600,3.589474609375,-0.006370547693222761,-0.002280997345224023,-0.020172646269202232
1690841648950515500,3.599515380859375,-0.005358812864869833,-0.002642122097313404,-0.01985812745988369
1690841648960555500,3.609555419921875,-0.00678253872320056,-0.0016732640797272325,-0.021194234490394592
1690841648970595300,3.61959521484375,-0.004855475388467312,-0.0020208065398037434,-0.02004348300397396
1690841648980636400,3.629636474609375,-0.004965463653206825,-0.0010311759542673826,-0.019570238888263702
1690841648990676500,3.639676513671875,-0.0043308325111866,-0.0007866977830417454,-0.020474914461374283
1690841649000716500,3.649716552734375,-0.004032824654132128,-0.001130245509557426,-0.02081499993801117
1690841649010756600,3.659756591796875,-0.0049673281610012054,-0.004555869847536087,-0.018933210521936417
1690841649020797400,3.66979736328125,-0.0030423952266573906,-0.0009001484140753746,-0.019583821296691895
1690841649030837500,3.67983740234375,-0.005650694947689772,-0.001942776027135551,-0.020893031731247902
1690841649040908300,3.689908203125,-0.005542570725083351,-0.0018311894964426756,-0.01984960399568081
1690841649050948400,3.6999482421875,-0.004904477391391993,-0.0007832356495782733,-0.01990899257361889
1690841649060988400,3.709988525390625,-0.003989947959780693,-0.002743322169408202,-0.020674651488661766
1690841649071029500,3.720029541015625,-0.004254133440554142,-0.002460494404658675,-0.02274392731487751
1690841649081069600,3.730069580078125,-0.004284493625164032,-0.003300189273431897,-0.020538831129670143
1690841649091109600,3.740109619140625,-0.0031348068732768297,-0.0019744676537811756,-0.02003735676407814
1690841649101149400,3.7501494140625,-0.004283694550395012,-0.0020607539918273687,-0.020062923431396484
1690841649111190500,3.7601904296875,-0.00392736354842782,-0.001032241270877421,-0.02137186750769615
1690841649121230300,3.770230224609375,-0.0067633637227118015,-0.00040852889651432633,-0.021251492202281952
1690841649131270400,3.7802705078125,-0.0046783750876784325,-0.0013584784464910626,-0.020868796855211258
1690841649141311500,3.7903115234375,-0.00646722037345171,-0.0019302591681480408,-0.019958794116973877
1690841649151351600,3.8003515625,-0.0047026099637150764,-0.00221921200864017,-0.022293854504823685
1690841649161391600,3.8103916015625,-0.004593153949826956,-0.0020905814599245787,-0.01960592530667782
1690841649171431400,3.820431396484375,-0.004764395300298929,-0.002257561543956399,-0.02009647898375988
1690841649181502500,3.83050244140625,-0.004283161833882332,-0.003328418591991067,-0.02178705483675003
1690841649191543300,3.840543212890625,-0.005270395893603563,-0.003877029987052083,-0.020012591034173965
1690841649201583400,3.850583251953125,-0.004327903036028147,-0.0015355786308646202,-0.02046452835202217
1690841649211623400,3.86062353515625,-0.0049561429768800735,-0.0007848335662856698,-0.02154976688325405
1690841649221663500,3.87066357421875,-0.0038535939529538155,-0.0008788431296125054,-0.020624585449695587
1690841649231704600,3.88070458984375,-0.003879693103954196,-0.001549959764815867,-0.020251208916306496
1690841649241744600,3.89074462890625,-0.005041630007326603,-0.0022117553744465113,-0.02045680582523346
1690841649251784400,3.900784423828125,-0.004415254574269056,-0.001600826159119606,-0.020369719713926315
1690841649261825500,3.910825439453125,-0.005287440028041601,-0.0023494407068938017,-0.020506074652075768
1690841649271865300,3.920865234375,-0.0038192393258213997,0.00026738137239590287,-0.020262127742171288
1690841649281905400,3.930905517578125,-0.005044293589890003,-0.0035401401109993458,-0.021620074287056923
1690841649291945500,3.940945556640625,-0.017301492393016815,-0.08549652248620987,0.04258154705166817
1690841649301986600,3.950986572265625,0.08246850967407227,0.28228574991226196,-0.13131675124168396
1690841649312056600,3.961056640625,-0.0019510318525135517,-0.133594810962677,-0.09297814220190048
1690841649322097700,3.97109765625,-0.00046818371629342437,-0.03708744794130325,-0.07268485426902771
1690841649332137500,3.981137451171875,-0.0284673273563385,0.03478993847966194,-0.04266783595085144
1690841649342177300,3.99117724609375,-0.03093660995364189,0.1359357237815857,-0.00410473020747304
1690841649352218400,4.00121826171875,-0.029631128534674644,0.07702208310365677,0.0085426215082407
1690841649362258400,4.011258544921875,-0.012574381195008755,-0.02841166779398918,-0.015591476112604141
1690841649372298500,4.021298583984375,0.00424161646515131,-0.05360996350646019,-0.035235218703746796
1690841649382338600,4.031338623046875,0.014737666584551334,-0.06474730372428894,-0.038846198469400406
1690841649392379600,4.041379638671875,0.011504056863486767,-0.05962018668651581,-0.029048696160316467
1690841649402419500,4.05141943359375,0.0014021543320268393,-0.041549574583768845,-0.021498899906873703
1690841649412459300,4.061459228515625,-0.007678425870835781,-0.014855644665658474,-0.009155148640275002
1690841649422500400,4.071500244140625,-0.013231382705271244,0.017894312739372253,0.0025278725661337376
1690841649432540400,4.08154052734375,-0.012314989231526852,0.03816709294915199,0.011578358709812164
1690841649442580500,4.09158056640625,-0.008892561309039593,0.041314948350191116,0.014942730776965618
1690841649452651500,4.101651611328125,-0.003340402850881219,0.025379393249750137,0.014503574930131435
1690841649462691600,4.111691650390625,0.0032892702147364616,0.0015851134667173028,0.007874967530369759
1690841649472731400,4.1217314453125,0.0006021407316438854,-0.02425766922533512,-0.00039787625428289175
1690841649482772200,4.131772216796875,-0.0010548781137913465,-0.03416356444358826,-0.009561014361679554
1690841649492812300,4.141812255859375,-0.007171093951910734,-0.03267405554652214,-0.02341211587190628
1690841649502852400,4.151852294921875,-0.009996174834668636,-0.016272712498903275,-0.03407647833228111
1690841649512893400,4.1618935546875,-0.009514941833913326,0.0038535939529538155,-0.04156209155917168
1690841649522933500,4.17193359375,-0.004020840395241976,0.01913214847445488,-0.04753236472606659
1690841649532973600,4.1819736328125,-0.0028839372098445892,0.021860823035240173,-0.04782717674970627
1690841649543013400,4.192013427734375,-0.0006583334179595113,0.016153935343027115,-0.042690206319093704
1690841649553054200,4.20205419921875,-0.002037584548816085,0.00242161238566041,-0.036979321390390396
1690841649563094300,4.21209423828125,-0.005321528296917677,-0.012533634901046753,-0.029648972675204277
1690841649573134300,4.22213427734375,-0.006079464219510555,-0.02130528911948204,-0.020295152440667152
1690841649583175400,4.232175537109375,-0.00791358295828104,-0.02082245796918869,-0.013854829594492912
1690841649593245400,4.242245361328125,-0.005306614562869072,-0.013230584561824799,-0.009248359128832817
1690841649603286500,4.25228662109375,-0.005110339727252722,-0.0016040218761190772,-0.0034615767654031515
1690841649613328400,4.262328369140625,-0.001505484920926392,0.01023000106215477,-0.0029411951545625925
1690841649623368400,4.272368408203125,-0.001463673310354352,0.014640195295214653,-0.0005938849062658846
1690841649633409500,4.282409423828125,-0.003976366017013788,0.010047574527561665,-0.008599880151450634
1690841649643449600,4.29244970703125,-0.004227501805871725,0.002651176881045103,-0.012223376892507076
1690841649653489700,4.30248974609375,-0.006075469311326742,-0.006178800016641617,-0.017174726352095604
1690841649663529500,4.312529541015625,-0.006665625609457493,-0.014129933901131153,-0.025653697550296783
1690841649673570300,4.3225703125,-0.007501591928303242,-0.014996526762843132,-0.031325165182352066
1690841649683610400,4.3326103515625,-0.005575327668339014,-0.010204700753092766,-0.032949961721897125
1690841649693650400,4.342650390625,-0.0020530307665467262,-0.0020668793004006147,-0.035111114382743835
1690841649703691500,4.35269140625,-0.00390312890522182,0.004810467828065157,-0.03528129309415817
1690841649713731600,4.362731689453125,-0.005149488337337971,0.007674431428313255,-0.03255687654018402
1690841649723802600,4.372802734375,-0.005605421494692564,0.006419816054403782,-0.025916552171111107
1690841649733842400,4.382842529296875,-0.005765743553638458,0.0002311623829882592,-0.02263314090669155
1690841649743882500,4.392882568359375,-0.005126052536070347,-0.005233377683907747,-0.019462114199995995
1690841649753922600,4.402922607421875,-0.004485561978071928,-0.010456102900207043,-0.013345632702112198
1690841649763963400,4.41296337890625,-0.0034405377227813005,-0.008745288476347923,-0.010322146117687225
1690841649774003500,4.42300341796875,-0.0041468082927167416,-0.004148139618337154,-0.008560997433960438
1690841649784043500,4.43304345703125,-0.004214984830468893,-0.001446096459403634,-0.011207113973796368
1690841649794084600,4.443084716796875,-0.005395830608904362,0.002671683207154274,-0.01506736595183611
1690841649804124700,4.453124755859375,-0.006419549696147442,0.003388339886441827,-0.015097726136446
1690841649814164500,4.46316455078125,-0.004510329570621252,0.002026399364694953,-0.020138025283813477
1690841649824204500,4.47320458984375,-0.005726861767470837,-0.0014362427173182368,-0.020982513204216957
1690841649834245400,4.483245361328125,-0.005123921670019627,-0.00446905056014657,-0.02599911019206047
1690841649844285400,4.493285400390625,-0.0051739891059696674,-0.003826163476333022,-0.02755253203213215
1690841649854325500,4.503325439453125,-0.004767857491970062,-0.005515406373888254,-0.028373584151268005
1690841649864396500,4.513396484375,-0.004896221682429314,-0.0037800907157361507,-0.027959195896983147
1690841649874436400,4.523436279296875,-0.005067729391157627,-0.0035931370221078396,-0.025617744773626328
1690841649884477400,4.5334775390625,-0.0057068876922130585,-0.0005336974863894284,-0.023084281012415886
1690841649894517500,4.543517578125,-0.005691175349056721,0.0024655545130372047,-0.021168667823076248
1690841649904557600,4.5535576171875,-0.0026317357551306486,-0.00018615495355334133,-0.018102571368217468
1690841649914598400,4.563598388671875,-0.004156661685556173,-0.00293400464579463,-0.017538780346512794
1690841649924638500,4.573638427734375,-0.004255465231835842,-0.0051987566985189915,-0.014621553011238575
1690841649934678500,4.583678466796875,-0.004805674310773611,-0.0036882117856293917,-0.013895043171942234
1690841649944718600,4.593718505859375,-0.004566522315144539,-0.005416603293269873,-0.015449264086782932
1690841649954759700,4.603759765625,-0.005760150961577892,-0.0019531622529029846,-0.01521969959139824
1690841649964799500,4.613799560546875,-0.004760666750371456,-0.002264485927298665,-0.016985109075903893
1690841649974839600,4.623839599609375,-0.003412308171391487,-0.0013132047606632113,-0.019035210832953453
1690841649984879600,4.633879638671875,-0.002825880190357566,-0.000571248063351959,-0.021133780479431152
1690841649994920400,4.64392041015625,-0.004281297791749239,-0.00021678130724467337,-0.024624120444059372
1690841650004991500,4.653991455078125,-0.0038309572264552116,-0.001817607437260449,-0.0262979157269001
1690841650015031600,4.664031494140625,-0.00501020485535264,-0.0037534593138843775,-0.02473570592701435
1690841650025071400,4.6740712890625,-0.005682653281837702,-0.0028991170693188906,-0.025540513917803764
1690841650035111400,4.684111328125,-0.007203051820397377,-0.0044381581246852875,-0.02478097938001156
1690841650045152500,4.694152587890625,-0.004319380968809128,-0.0017033577896654606,-0.02238413505256176
1690841650055192600,4.704192626953125,-0.0018964370246976614,-0.0014298511669039726,-0.020066119730472565
1690841650065232600,4.714232666015625,-0.004441353492438793,-0.0015544871566817164,-0.018220549449324608
1690841650075273500,4.7242734375,-0.004554005339741707,0.0007997472421266139,-0.01599920727312565
1690841650085313500,4.7343134765625,-0.0040765004232525826,-0.0017904432024806738,-0.019693011417984962
1690841650095353600,4.744353515625,-0.006342317909002304,-0.000012783173588104546,-0.017236243933439255
1690841650105393400,4.754393310546875,-0.005695968866348267,-0.004376638680696487,-0.01908101700246334
1690841650115434500,4.7644345703125,-0.005372661165893078,-0.004071973264217377,-0.018010959029197693
1690841650125474600,4.774474609375,-0.0037385455798357725,-0.0013440974289551377,-0.02057904377579689
1690841650135545600,4.784545654296875,-0.004200337454676628,-0.0028794098179787397,-0.02069143019616604
1690841650145585700,4.794585693359375,-0.004177700728178024,-0.002516953507438302,-0.022775620222091675
1690841650155625500,4.80462548828125,-0.004954811185598373,0.000026365294615970924,-0.022285331040620804
1690841650165666600,4.81466650390625,-0.004013916477560997,-0.002834668615832925,-0.022962041199207306
1690841650175706400,4.824706298828125,-0.006425941362977028,-0.0011371697764843702,-0.022550849243998528
1690841650185746400,4.834746337890625,-0.005210474599152803,-0.002266349969431758,-0.02365739271044731
1690841650195786500,4.844786376953125,-0.006215019151568413,-0.0011558119440451264,-0.020975323393940926
1690841650205827600,4.85482763671875,-0.005254150368273258,-0.0017872473690658808,-0.021227790042757988
1690841650215867400,4.864867431640625,-0.005368399899452925,-0.003562244353815913,-0.02226509153842926
1690841650225907500,4.874907470703125,-0.005587045568972826,-0.0024205471854656935,-0.01954467222094536
1690841650235948500,4.884948486328125,-0.005637912079691887,-0.001654622028581798,-0.018730809912085533
1690841650245988400,4.89498828125,-0.004402471706271172,-0.0012897689593955874,-0.019567575305700302
1690841650256028400,4.9050283203125,-0.004892759490758181,-0.0020365193486213684,-0.01810603402554989
1690841650266068500,4.915068359375,-0.0051537491381168365,-0.0020511667244136333,-0.019271433353424072
1690841650276139500,4.925139404296875,-0.005397428758442402,-0.0026756778825074434,-0.019945744425058365
1690841650286180600,4.9351806640625,-0.005446697119623423,-0.0020714066922664642,-0.021073592826724052
1690841650296220400,4.945220458984375,-0.005028048064559698,-0.0035276231355965137,-0.02057105489075184
1690841650306260500,4.955260498046875,-0.0025957829784601927,-0.0013701963471248746,-0.022357502952218056
1690841650316300300,4.96530029296875,-0.0025965820532292128,-0.0022684806026518345,-0.022040054202079773
1690841650326341400,4.97534130859375,-0.005584915168583393,-0.0025598304346203804,-0.02293327823281288
1690841650336381400,4.98538134765625,-0.003683684393763542,-0.0021257351618260145,-0.021343370899558067
1690841650346421500,4.99542138671875,-0.005399292800575495,-0.0026431872975081205,-0.021571604534983635
1690841650356462600,5.005462646484375,-0.004604339133948088,-0.002252501668408513,-0.02160489372909069
1690841650366502400,5.01550244140625,-0.005429120268672705,-0.0029260150622576475,-0.021750302985310555
1690841650376542500,5.02554248046875,-0.0044136568903923035,-0.001891909632831812,-0.02148451842367649
1690841650386582300,5.035582275390625,-0.005422994960099459,-0.0013781858142465353,-0.01979234628379345
1690841650396623400,5.045623291015625,-0.004883971065282822,-0.00224877311848104,-0.01913028582930565
1690841650406663400,5.055663330078125,-0.0043308325111866,-0.0010213222121819854,-0.0195489339530468
1690841650416734500,5.065734375,-0.005763879511505365,-0.002237587934359908,-0.0178128182888031
1690841650426774500,5.0757744140625,-0.0036993969697505236,-0.001961684552952647,-0.019284747540950775
1690841650436814600,5.085814697265625,-0.004792890977114439,-0.0009928264189511538,-0.020414993166923523
1690841650446855400,5.09585546875,-0.005086637567728758,-0.0033563817851245403,-0.02004747837781906
1690841650456895500,5.1058955078125,-0.003870371961966157,-0.0027624969370663166,-0.021081050857901573
1690841650466935300,5.115935302734375,-0.004870655480772257,-0.0031878037843853235,-0.021511416882276535
1690841650476975400,5.125975341796875,-0.0038810246624052525,-0.0017062872648239136,-0.022664831951260567
1690841650487016400,5.136016357421875,-0.00558092026039958,-0.002472478663548827,-0.021706627681851387
1690841650497056500,5.146056396484375,-0.004039216320961714,-0.0027750139124691486,-0.02130289189517498
1690841650507096600,5.1560966796875,-0.00544456671923399,-0.0018381137633696198,-0.022119682282209396
1690841650517137400,5.166137451171875,-0.005003014579415321,-0.0020450414158403873,-0.019031215459108353
1690841650527177500,5.176177490234375,-0.004690092988312244,-0.0021467742044478655,-0.0206363033503294
1690841650537217300,5.18621728515625,-0.00407463638111949,-0.002688460983335972,-0.02167227305471897
1690841650547288300,5.196288330078125,-0.005114867351949215,-0.004375573713332415,-0.021213410422205925
1690841650557328400,5.206328369140625,-0.004277835600078106,-0.0013574132462963462,-0.01900831237435341
1690841650567369500,5.216369384765625,-0.003620833856984973,-0.0011147991754114628,-0.020967332646250725
1690841650577409500,5.226409423828125,-0.004789428785443306,-0.0008886968716979027,-0.019767845049500465
1690841650587449600,5.23644970703125,-0.005634716246277094,-0.0019888486713171005,-0.0222051702439785
1690841650597489700,5.24648974609375,-0.004835767671465874,-0.0020961740519851446,-0.017119064927101135
1690841650607499000,5.2564990234375,-0.005320729687809944,-0.0009142631897702813,-0.021465344354510307
1690841650617539000,5.2665390625,-0.004474643152207136,-0.002388855442404747,-0.0213023591786623
1690841650627579100,5.2765791015625,-0.005083175376057625,-0.0012610068079084158,-0.020784374326467514
1690841650637619200,5.286619140625,-0.005599296186119318,-0.0027928571216762066,-0.02215403877198696
1690841650647660300,5.296660400390625,-0.0028221518732607365,-0.002127865795046091,-0.020720457658171654
1690841650657700400,5.306700439453125,-0.005264536943286657,-0.0022120214998722076,-0.020960142835974693
1690841650667740200,5.316740234375,-0.0015949672088027,-0.001796834752894938,-0.021219002082943916
1690841650677781000,5.326781005859375,-0.005812881514430046,-0.0009126652730628848,-0.01973002962768078
1690841650687851300,5.336851318359375,-0.004977714270353317,-0.0020530307665467262,-0.02153804898262024
1690841650697892000,5.34689208984375,-0.004256796557456255,-0.003358778776600957,-0.01882615126669407
1690841650707932200,5.35693212890625,-0.004613926634192467,-0.002829342382028699,-0.02105601690709591
1690841650717972200,5.36697216796875,-0.005408880300819874,-0.0013512879377231002,-0.020242154598236084
1690841650728013300,5.377013427734375,-0.004835501778870821,-0.000035952674807049334,-0.021136976778507233
1690841650738053000,5.38705322265625,-0.0038061898667365313,-0.0033723609521985054,-0.020188892260193825
1690841650748093200,5.39709326171875,-0.004652276169508696,-0.001734783174470067,-0.020187826827168465
1690841650758133200,5.40713330078125,-0.003900465788319707,-0.0021044297609478235,-0.02052871137857437
1690841650768174000,5.417174072265625,-0.005031776614487171,-0.001835716888308525,-0.02027464471757412
1690841650778214100,5.427214111328125,-0.005342034623026848,-0.0020764668006449938,-0.02098996937274933
1690841650788254200,5.437254150390625,-0.004066114313900471,-0.0016612798208370805,-0.020780112594366074
1690841650798295300,5.44729541015625,-0.002719087526202202,-0.001377919572405517,-0.022994264960289
1690841650808335400,5.45733544921875,-0.004701278172433376,-0.0024668860714882612,-0.01984907127916813
1690841650818375200,5.467375244140625,-0.00561128044500947,-0.002496180823072791,-0.019083945080637932
1690841650828446200,5.4774462890625,-0.004426706116646528,-0.0017957695527002215,-0.02046932280063629
1690841650838486300,5.487486328125,-0.004854143597185612,-0.0024501082953065634,-0.02159317582845688
1690841650848526300,5.4975263671875,-0.004147074185311794,-0.00006950850365683436,-0.021511683240532875
1690841650858567200,5.507567138671875,-0.006638728082180023,-0.0026200178544968367,-0.018882878124713898
1690841650868607200,5.517607177734375,-0.0057479003444314,-0.0026905916165560484,-0.021871211007237434
1690841650878647000,5.52764697265625,-0.005544435232877731,-0.0018495653057470918,-0.02022084966301918
1690841650888688000,5.537688232421875,-0.0037830201908946037,-0.003315103007480502,-0.020709538832306862
1690841650898728200,5.547728271484375,-0.004141747951507568,-0.0026756778825074434,-0.021380122750997543
1690841650908768300,5.557768310546875,-0.004605670925229788,-0.001734516816213727,-0.021206751465797424
1690841650918808300,5.567808349609375,-0.004531368613243103,-0.002560629276558757,-0.020416591316461563
1690841650928849200,5.57784912109375,-0.0038312235847115517,-0.0027292075101286173,-0.01943708024919033
1690841650938889200,5.58788916015625,-0.003180080559104681,-0.001582716591656208,-0.02172233909368515
1690841650948929300,5.59792919921875,-0.004584898240864277,0.00009827064059209079,-0.020680777728557587
1690841650959000000,5.608,-0.004603806417435408,-0.0012476909905672073,-0.020143350586295128
1690841650969040100,5.6180400390625,-0.002834934974089265,-0.004706338047981262,-0.020981980487704277
1690841650979081200,5.628081298828125,-0.003715908620506525,-0.001297225710004568,-0.020302342250943184
1690841650989121300,5.638121337890625,-0.00452897185459733,-0.0034999263007193804,-0.020709272474050522
1690841650999161300,5.648161376953125,-0.005708219483494759,-0.0009246495319530368,-0.02191328816115856
1690841651009202200,5.6582021484375,-0.003906857222318649,0.00020719393796753138,-0.021854432299733162
1690841651019242200,5.6682421875,-0.004677842371165752,-0.002689792774617672,-0.020002469420433044
1690841651029282000,5.678281982421875,-0.004177168011665344,-0.003997937310487032,-0.019766246899962425
1690841651039322000,5.688322021484375,-0.004489290527999401,-0.0031577101908624172,-0.02160915546119213
1690841651049363200,5.69836328125,-0.005307946354150772,-0.002290318487212062,-0.022461632266640663
1690841651059403300,5.7084033203125,-0.005565740168094635,-0.000734766130335629,-0.0199848935008049
1690841651069443300,5.718443359375,-0.004858138505369425,-0.0023129554465413094,-0.021795576438307762
1690841651079484200,5.728484130859375,-0.003992611076682806,-0.0037031255196779966,-0.019895676523447037
1690841651089524200,5.738524169921875,-0.005008873529732227,-0.0018628811230883002,-0.02040620520710945
1690841651099595300,5.74859521484375,-0.0046445527113974094,-0.0018311894964426756,-0.021559087559580803
1690841651109635000,5.758635009765625,-0.004600876942276955,-0.0012351741315796971,-0.01991218887269497
1690841651119675100,5.768675048828125,-0.005589708685874939,-0.003644536016508937,-0.019944678992033005
1690841651129715200,5.778715087890625,-0.005123921670019627,-0.001365668955259025,-0.021520471200346947
1690841651139756300,5.78875634765625,-0.005344165489077568,-0.002585396869108081,-0.02118970826268196
1690841651149796400,5.79879638671875,-0.005917277652770281,-0.0028045750223100185,-0.01907142996788025
1690841651159836400,5.80883642578125,-0.0036727653350681067,-0.0010130665032193065,-0.02148478478193283
1690841651169877200,5.818877197265625,-0.0046908920630812645,-0.00040533312130719423,-0.021013937890529633
1690841651179917000,5.8289169921875,-0.004530835896730423,-0.0010572749888524413,-0.021821675822138786
1690841651189957000,5.83895703125,-0.006317550782114267,-0.002935868687927723,-0.020855480805039406
1690841651199997200,5.8489970703125,-0.003930026665329933,-0.0021555626299232244,-0.020248545333743095
1690841651210038300,5.859038330078125,-0.0049433596432209015,-0.0038133803755044937,-0.0188400000333786
1690841651220078300,5.869078369140625,-0.002624545246362686,-0.0027150926180183887,-0.02028423175215721
1690841651230118400,5.879118408203125,-0.0046695866622030735,-0.0030482541769742966,-0.02257694862782955
1690841651240189400,5.889189453125,-0.00378967821598053,-0.002344913315027952,-0.020803015679121017
1690841651250229200,5.899229248046875,-0.004560130648314953,-0.0029550434555858374,-0.02142193540930748
1690841651260270000,5.90927001953125,-0.0054213968105614185,-0.002320412313565612,-0.02130129374563694
1690841651270310100,5.91931005859375,-0.0037888791412115097,-0.0011073424248024821,-0.01925572007894516
1690841651280350200,5.92935009765625,-0.004959871061146259,-0.0024687503464519978,-0.0201561339199543
1690841651290390300,5.939390380859375,-0.005142031237483025,-0.0008977515972219408,-0.020184896886348724
1690841651300431400,5.949431396484375,-0.004354534670710564,-0.002609631512314081,-0.019394736737012863
1690841651310471400,5.959471435546875,-0.004786765668541193,-0.0017925737192854285,-0.01882934756577015
1690841651320511000,5.969510986328125,-0.00412363838404417,-0.0021827267482876778,-0.021290641278028488
1690841651330552000,5.979552001953125,-0.003141997382044792,-0.0023992417845875025,-0.02015107497572899
1690841651340592000,5.989592041015625,-0.00446931691840291,-0.0008431567694060504,-0.02177400514483452
1690841651350632200,5.999632080078125,-0.005346562247723341,-0.0020631509833037853,-0.020350012928247452
1690841651360672300,6.00967236328125,-0.0049468218348920345,-0.00022956448083277792,-0.020327908918261528
1690841651370743300,6.019743408203125,-0.004780374001711607,-0.0014322480419650674,-0.022004900500178337
1690841651380784400,6.029784423828125,-0.005874933209270239,-0.0034234935883432627,-0.018565163016319275
1690841651390824200,6.03982421875,-0.004992894362658262,-0.0002892192860599607,-0.018279138952493668
1690841651400864000,6.049864013671875,-0.004938033409416676,-0.0030421288684010506,-0.019814450293779373
1690841651410904000,6.059904052734375,-0.004520449787378311,-0.001645567244850099,-0.021262411028146744
1690841651420945200,6.069945068359375,-0.002837864449247718,-0.0009134642314165831,-0.022237129509449005
1690841651430985200,6.079985107421875,-0.0036876790691167116,-0.0008138620178215206,-0.021079452708363533
1690841651441025300,6.090025390625,-0.0037742317654192448,-0.0038005972746759653,-0.019822174683213234
1690841651451066400,6.10006640625,-0.005144960712641478,-0.003560912562534213,-0.0182301364839077
1690841651461106200,6.110106201171875,-0.004081827122718096,-0.002799514913931489,-0.020139090716838837
1690841651471146000,6.12014599609375,-0.005017395596951246,-0.0010972223244607449,-0.02003815583884716
1690841651481186000,6.13018603515625,-0.003605920122936368,-0.0029696908313781023,-0.01986478455364704
1690841651491227100,6.14022705078125,-0.003765709698200226,-0.001121989800594747,-0.021566012874245644
1690841651501267200,6.15026708984375,-0.004225105047225952,-0.0018405106384307146,-0.02245151251554489
1690841651511338200,6.160338134765625,-0.005079447291791439,-0.0024591628462076187,-0.019111376255750656
1690841651521378300,6.17037841796875,-0.0046456181444227695,-0.0013313142117112875,-0.01973828487098217
1690841651531418000,6.180418212890625,-0.004110589157789946,-0.001186970854178071,-0.020002735778689384
1690841651541459200,6.190459228515625,-0.004820321686565876,-0.0020365193486213684,-0.02118411473929882
1690841651551499000,6.2004990234375,-0.005555354058742523,-0.0031526500824838877,-0.02136228047311306
1690841651561539000,6.2105390625,-0.005470931995660067,-0.00316063966602087,-0.02088078111410141
1690841651571579100,6.2205791015625,-0.004857605788856745,-0.0017526262672618032,-0.020798755809664726
1690841651581620200,6.2306201171875,-0.003802727675065398,-0.0017486315919086337,-0.02099369838833809
1690841651591660300,6.240660400390625,-0.004971855320036411,-0.001811748486943543,-0.02039475366473198
1690841651601700400,6.250700439453125,-0.005348959006369114,-0.0018192053539678454,-0.021271733567118645
1690841651611762700,6.2607626953125,-0.00560994865372777,-0.0031372036319226027,-0.021626198664307594
1690841651621802800,6.270802734375,-0.005398227367550135,-0.0013305152533575892,-0.020291689783334732
1690841651631842600,6.280842529296875,-0.005657885689288378,-0.0005139900604262948,-0.01997557282447815
1690841651641882600,6.290882568359375,-0.0046874298714101315,-0.00290444353595376,-0.021462414413690567
1690841651651953700,6.30095361328125,-0.006841394584625959,-0.0019097528420388699,-0.020248014479875565
1690841651661994800,6.310994873046875,-0.003922570031136274,-0.0022274679504334927,-0.020506074652075768
1690841651672034800,6.321034912109375,-0.005003813188523054,-0.001761148450896144,-0.02268027886748314
1690841651682075000,6.331074951171875,-0.005169461946934462,-0.0011499529937282205,-0.021589182317256927
1690841651692114700,6.34111474609375,-0.004367318004369736,-0.0013571468880400062,-0.02154337428510189
1690841651702155500,6.351155517578125,-0.0040975394658744335,-0.0019502328941598535,-0.021444572135806084
1690841651712195600,6.361195556640625,-0.004638161510229111,-0.0037348170299082994,-0.01980406418442726
1690841651722235600,6.371235595703125,-0.0057220677845180035,-0.0007664577569812536,-0.020864268764853477
1690841651732275700,6.381275634765625,-0.005486644338816404,-0.0019004317000508308,-0.021510617807507515
1690841651742316800,6.39131689453125,-0.005231247283518314,-0.0019254654180258512,-0.019478093832731247
1690841651752356900,6.40135693359375,-0.0036764938849955797,-0.002299639629200101,-0.02154603786766529
1690841651762397000,6.41139697265625,-0.004068511072546244,-0.0038719698786735535,-0.020716996863484383
1690841651772437800,6.421437744140625,-0.0041396175511181355,-0.0013941648649051785,-0.02201448753476143
1690841651782507800,6.4315078125,-0.005110606085509062,-0.002395247109234333,-0.019829630851745605
1690841651792548600,6.441548583984375,-0.004217648413032293,-0.000699079770129174,-0.020664531737565994
1690841651802588700,6.451588623046875,-0.005662146955728531,-0.002126800362020731,-0.020738834515213966
1690841651812628700,6.461628662109375,-0.00549303600564599,-0.001475657569244504,-0.02130874991416931
1690841651822669800,6.471669921875,-0.0036661075428128242,-0.002204830991104245,-0.019844545051455498
1690841651832710000,6.4817099609375,-0.004738562274724245,-0.0038285604678094387,-0.020793162286281586
1690841651842749700,6.491749755859375,-0.004306597635149956,-0.0028852687682956457,-0.021762287244200706
1690841651852789800,6.501789794921875,-0.00455693481490016,-0.0019153454340994358,-0.020742297172546387
1690841651862830600,6.51183056640625,-0.005323392804712057,-0.0016519587952643633,-0.02135668694972992
1690841651872870700,6.52187060546875,-0.003906058380380273,-0.0015904398169368505,-0.020661069080233574
1690841651882910700,6.53191064453125,-0.004053597338497639,-0.0013057478936389089,-0.02147732861340046
1690841651892951800,6.541951904296875,-0.006253368686884642,-0.005279982928186655,-0.019519638270139694
1690841651902992000,6.551991943359375,-0.003662645351141691,-0.00126766471657902,-0.020120713859796524
1690841651913031700,6.56203173828125,-0.004324973560869694,-0.0005483448621816933,-0.021100491285324097
1690841651923102700,6.572102783203125,-0.00250496924854815,-0.001201884588226676,-0.0192506592720747
1690841651933142800,6.582142822265625,-0.0026676885318011045,-0.0015238607302308083,-0.02148079127073288
1690841651943182600,6.5921826171875,-0.006280532572418451,-0.0020503676496446133,-0.021278923377394676
1690841651953223700,6.6022236328125,-0.00387330143712461,-0.0018498316640034318,-0.019761987030506134
1690841651963263700,6.612263671875,-0.00549276964738965,-0.002118011936545372,-0.02299027144908905
1690841651973303800,6.6223037109375,-0.0060144830495119095,-0.0034197650384157896,-0.021709023043513298
1690841651983345000,6.632344970703125,-0.0067844027653336525,-0.0009265137487091124,-0.02135322615504265
1690841651993384700,6.642384765625,-0.0037025928031653166,-0.0026847326662391424,-0.02149277552962303
1690841652003424800,6.6524248046875,-0.004328968469053507,-0.003129480639472604,-0.019829897210001945
1690841652013464600,6.662464599609375,-0.005167331546545029,-0.0007976167253218591,-0.02088797092437744
1690841652023505700,6.672505615234375,-0.005093295592814684,-0.001568069215863943,-0.020139889791607857
1690841652033545700,6.682545654296875,-0.0043830303475260735,-0.0019110844004899263,-0.019111908972263336
1690841652043585800,6.692585693359375,-0.003922303672879934,-0.0026256104465574026,-0.021197963505983353
1690841652053627000,6.702626953125,-0.0041308291256427765,-0.0011619371362030506,-0.018996328115463257
1690841652063696600,6.712696533203125,-0.0036882117856293917,-0.002382996492087841,-0.021152423694729805
1690841652073737700,6.72273779296875,-0.0046935551799833775,-0.0018437063554301858,-0.020057065412402153
1690841652083777800,6.73277783203125,-0.005313805304467678,0.00018908442871179432,-0.021854698657989502
1690841652093817600,6.742817626953125,-0.006600112188607454,-0.0022413162514567375,-0.021454159170389175
1690841652103858700,6.752858642578125,-0.004043477587401867,-0.002005360322073102,-0.021213144063949585
1690841652113898800,6.762898681640625,-0.005275455769151449,-0.002304965863004327,-0.020563066005706787
1690841652123938800,6.772938720703125,-0.0037169738207012415,-0.0024863271974027157,-0.02172846533358097
1690841652133978600,6.782978515625,-0.006177734583616257,-0.002217081608250737,-0.018823489546775818
1690841652144019700,6.793019775390625,-0.005435245577245951,-0.002270344877615571,-0.02063070982694626
1690841652154059800,6.803059814453125,-0.003864513011649251,-0.0035425368696451187,-0.020295949652791023
1690841652164099600,6.813099609375,-0.005101284943521023,-0.0027632960118353367,-0.020802749320864677
1690841652174140700,6.823140625,-0.004701011814177036,-0.0015017564874142408,-0.020652813836932182
1690841652184180700,6.8331806640625,-0.004935902543365955,-0.001829591696150601,-0.02089063450694084
1690841652194251800,6.843251708984375,-0.004622182343155146,-0.0016594156622886658,-0.02166321687400341
1690841652204291600,6.85329150390625,-0.004419249482452869,-0.0037920749746263027,-0.0202818363904953
1690841652214331600,6.86333154296875,-0.0039041941054165363,-0.0015627428656443954,-0.022879749536514282
1690841652224371700,6.873371826171875,-0.005616073962301016,-0.0027779433876276016,-0.020773721858859062
1690841652234412500,6.88341259765625,-0.006750048138201237,-0.002124403603374958,-0.021025389432907104
1690841652244452600,6.89345263671875,-0.0046727824956178665,0.00006524744821945205,-0.02015214040875435
1690841652254492700,6.90349267578125,-0.006584932096302509,-0.0019017633749172091,-0.022364428266882896
1690841652264533800,6.91353369140625,-0.0037619813811033964,-0.0019326560432091355,-0.017952902242541313
1690841652274573800,6.92357373046875,-0.004814994987100363,-0.002427737694233656,-0.020267454907298088
1690841652284613600,6.933613525390625,-0.004318049177527428,-0.002121740486472845,-0.021930865943431854
1690841652294653700,6.94365380859375,-0.004038683604449034,-0.0032887374982237816,-0.02178758755326271
1690841652304694500,6.953694580078125,-0.003968109842389822,-0.000925448490306735,-0.021019797772169113
1690841652314734600,6.963734619140625,-0.004293814767152071,-0.0016911072889342904,-0.021080251783132553
1690841652324774700,6.973774658203125,-0.006025934591889381,-0.0031441280152648687,-0.021039504557847977
1690841652334845700,6.983845703125,-0.0047119311057031155,-0.0032613070216029882,-0.021526064723730087
1690841652344885500,6.993885498046875,-0.0054970309138298035,-0.002371811307966709,-0.021638182923197746
1690841652354926600,7.003926513671875,-0.004795820452272892,-0.002602973720058799,-0.020546287298202515
1690841652364966700,7.013966552734375,-0.00373002327978611,-0.00250470289029181,-0.02022005058825016
1690841652375006700,7.0240068359375,-0.0031214910559356213,-0.0018485001055523753,-0.01920511946082115
1690841652385046800,7.034046875,-0.005655755288898945,-0.0027294738683849573,-0.021328458562493324
1690841652395087600,7.044087646484375,-0.0037462685722857714,-0.0027201527263969183,-0.021352160722017288
1690841652405127700,7.054127685546875,-0.0038573225028812885,-0.0020325244404375553,-0.01991165615618229
1690841652415167700,7.064167724609375,-0.004568919073790312,-0.0015691345324739814,-0.020840033888816833
1690841652425208800,7.074208740234375,-0.004519117996096611,-0.00304718897677958,-0.020679712295532227
1690841652435248600,7.08424853515625,-0.005123655777424574,-0.0024652881547808647,-0.02209571562707424
1690841652445288700,7.094288818359375,-0.004028031136840582,-0.0007659250986762345,-0.02159424126148224
1690841652455328800,7.104328857421875,-0.003668237943202257,-0.002201635157689452,-0.020145747810602188
1690841652465369600,7.11436962890625,-0.004738296382129192,-0.0006503439508378506,-0.019831495359539986
1690841652475440600,7.124440673828125,-0.0049337721429765224,-0.0017965685110539198,-0.02257455140352249
1690841652485480700,7.134480712890625,-0.0036970002111047506,-0.0007797735743224621,-0.023014770820736885
1690841652495520500,7.1445205078125,-0.004036819562315941,-0.0021856562234461308,-0.01973775215446949
1690841652505560600,7.154560546875,-0.0049649314023554325,-0.0024375913199037313,-0.02069648914039135
1690841652515601700,7.1646015625,-0.005092496518045664,-0.0007992146420292556,-0.02099023573100567
1690841652525641700,7.174641845703125,-0.006417419295758009,-0.0025121597573161125,-0.019930830225348473
1690841652535681800,7.184681884765625,-0.004883171990513802,-0.0030218889005482197,-0.021253090351819992
1690841652545722600,7.19472265625,-0.00529622845351696,-0.003229881636798382,-0.02190982550382614
1690841652555762700,7.2047626953125,-0.005886384751647711,-0.003032541600987315,-0.021506091579794884
1690841652565802800,7.214802734375,-0.004570250865072012,-0.0024559672456234694,-0.019343869760632515
1690841652575842600,7.224842529296875,-0.004403536673635244,-0.0029582392890006304,-0.018969696015119553
1690841652585883600,7.234883544921875,-0.004601676017045975,-0.0024375913199037313,-0.02172686718404293
1690841652595923700,7.244923828125,-0.003279150230810046,0.0010016148444265127,-0.021580392494797707
1690841652605994800,7.254994873046875,-0.004210457671433687,-0.0017334514996036887,-0.020447485148906708
1690841652616010000,7.265010009765625,-0.005511411931365728,-0.003486344125121832,-0.0206911638379097
1690841652626050000,7.275050048828125,-0.005314338020980358,-0.000300404557492584,-0.01907063089311123
1690841652636091000,7.2850908203125,-0.004846420604735613,-0.0025390577502548695,-0.021647505462169647
1690841652646131000,7.295130859375,-0.005633917171508074,-0.0012394351651892066,-0.020175309851765633
1690841652656170800,7.305170654296875,-0.005309277679771185,-0.0013158678775653243,-0.019172895699739456
1690841652666210800,7.3152109375,-0.004123372491449118,-0.0020911141764372587,-0.021019265055656433
1690841652676252000,7.325251953125,-0.006587595213204622,-0.0025963156949728727,-0.020928984507918358
1690841652686292000,7.3352919921875,-0.004865861497819424,-0.0017052220646291971,-0.021703165024518967
1690841652696332000,7.34533203125,-0.003290601773187518,-0.0016413062112405896,-0.02275111898779869
1690841652706372900,7.355372802734375,-0.005564941558986902,-0.0023209447972476482,-0.02088291198015213
1690841652716413000,7.365412841796875,-0.004141747951507568,-0.0002689792599994689,-0.022785473614931107
1690841652726452700,7.37545263671875,-0.004018443636596203,-0.002424808219075203,-0.020662400871515274
1690841652736492800,7.385492919921875,-0.004773716442286968,-0.0017334514996036887,-0.021406488493084908
1690841652746563800,7.395563720703125,-0.003769704606384039,-0.002472212305292487,-0.021883195266127586
1690841652756605000,7.40560498046875,-0.003568103304132819,-0.0015238607302308083,-0.018940934911370277
1690841652766645000,7.41564501953125,-0.004729241598397493,-0.0021694109309464693,-0.022731943055987358
1690841652776685000,7.42568505859375,-0.004600078333169222,-0.0022626216523349285,-0.02142992429435253
1690841652786725000,7.43572509765625,-0.0054701329208910465,-0.0018293253378942609,-0.018861571326851845
1690841652796766000,7.445765869140625,-0.003823234001174569,-0.0016982977977022529,-0.020790498703718185
1690841652806805800,7.4558056640625,-0.0051659997552633286,-0.0015070828376337886,-0.02153431996703148
1690841652816845800,7.465845703125,-0.004722317215055227,-0.0018192053539678454,-0.02106400579214096
1690841652826887000,7.475886962890625,-0.005340703297406435,-0.0024317323695868254,-0.020010193809866905
1690841652836927000,7.485927001953125,-0.004592887591570616,-0.0027108315844088793,-0.022814767435193062
1690841652846967000,7.495967041015625,-0.00487145408987999,-0.0020956413354724646,-0.01991085708141327
1690841652857007000,7.506007080078125,-0.005407015793025494,-0.0012418320402503014,-0.01876782812178135
1690841652867048000,7.5160478515625,-0.003970772959291935,-0.003120692213997245,-0.019290873780846596
1690841652877087700,7.526087646484375,-0.004108458757400513,-0.001936650718562305,-0.02057158760726452
1690841652887158800,7.53615869140625,-0.003891411004588008,-0.001401355373673141,-0.020184896886348724
1690841652897198800,7.54619873046875,-0.005733785685151815,0.0003635214816313237,-0.020195016637444496
1690841652907239000,7.556239013671875,-0.005765743553638458,-0.00233266269788146,-0.01853640004992485
1690841652917280000,7.566280029296875,-0.005031243897974491,-0.0011227887589484453,-0.020789701491594315
1690841652927320000,7.576320068359375,-0.004715659189969301,-0.002776345470920205,-0.02154976688325405
1690841652937360100,7.586360107421875,-0.005277852527797222,-0.0012634035665541887,-0.01967144012451172
1690841652947400000,7.59639990234375,-0.00373002327978611,-0.0034615767654031515,-0.020606474950909615
1690841652957440800,7.606440673828125,-0.005629922728985548,-0.002642122097313404,-0.02075960673391819
1690841652967480800,7.616480712890625,-0.003962783608585596,-0.0035236284602433443,-0.02117399498820305
1690841652977521000,7.62652099609375,-0.003950799349695444,-0.0005696501466445625,-0.022814501076936722
1690841652987562000,7.63656201171875,-0.0038655782118439674,-0.0027454528026282787,-0.020541761070489883
1690841652997602000,7.64660205078125,-0.005572131834924221,-0.0023007048293948174,-0.0215993020683527
1690841653007642000,7.65664208984375,-0.004718855023384094,-0.0009443568997085094,-0.021880265325307846
1690841653017713000,7.666712890625,-0.00475347600877285,-0.0026431872975081205,-0.022244052961468697
1690841653027753000,7.6767529296875,-0.004317516926676035,-0.0011411645682528615,-0.022177208214998245
1690841653037793000,7.68679296875,-0.01630200818181038,-0.12408492714166641,-0.20209237933158875
1690841653047833900,7.696833740234375,0.00024154871061909944,-0.026147713884711266,-0.1923622488975525
1690841653057874000,7.7068740234375,-0.004984105937182903,0.04657149687409401,-0.15620557963848114
1690841653067914000,7.7169140625,-0.0064866612665355206,-0.06459470838308334,-0.1370563954114914
1690841653077955000,7.726955078125,-0.011432684026658535,-0.059779975563287735,-0.09744586050510406
1690841653087995100,7.7369951171875,-0.013448962941765785,-0.07177858054637909,-0.04736432060599327
1690841653098035000,7.747034912109375,-0.008653675206005573,-0.052320729941129684,-0.026820162311196327
1690841653108075000,7.757074951171875,-0.007166033610701561,0.0004929511342197657,-0.020062923431396484
1690841653118115800,7.76711572265625,-0.002266349969431758,0.02400546707212925,0.0013126720441505313
1690841653128156000,7.777156005859375,-0.0005659217131324112,0.05235747992992401,0.026911508291959763
1690841653138196000,7.787196044921875,0.0024314660113304853,0.06888984888792038,0.04153066501021385
1690841653148237000,7.797237060546875,0.00009187905379803851,0.06184152886271477,0.05599801987409592
1690841653158306800,7.807306884765625,-0.0032471923623234034,0.029466545209288597,0.065853051841259
1690841653168348000,7.817347900390625,-0.004805407952517271,-0.005369998048990965,0.06400082260370255
1690841653178388000,7.827387939453125,-0.00929256808012724,-0.03549114987254143,0.06065881997346878
1690841653188428000,7.837427978515625,-0.007924235425889492,-0.05457642674446106,0.04584498703479767
1690841653198468900,7.84746875,-0.005997705273330212,-0.049438923597335815,0.025428926572203636
1690841653208509000,7.857509033203125,-0.0017425062833353877,-0.02961461804807186,-0.0008293083519674838
1690841653218549000,7.867549072265625,-0.00304612354375422,-0.002025866648182273,-0.028238030150532722
1690841653228589000,7.877589111328125,-0.002424009144306183,0.022464029490947723,-0.054013967514038086
1690841653238630100,7.887630126953125,-0.0060030315071344376,0.03473268076777458,-0.07163610309362411
1690841653248670000,7.897669921875,-0.005944708362221718,0.030961910262703896,-0.08311539143323898
1690841653258710000,7.9077099609375,-0.00860494002699852,0.01728178560733795,-0.08691838383674622
1690841653268750800,7.917750732421875,-0.0064866612665355206,-0.0016610135789960623,-0.08420781791210175
1690841653278791000,7.927791015625,-0.005062402691692114,-0.017063139006495476,-0.07639490813016891
1690841653288831000,7.9378310546875,-0.0027169568929821253,-0.027594609186053276,-0.06578247249126434
1690841653298902000,7.947902099609375,-0.004082892090082169,-0.027300063520669937,-0.052129246294498444
1690841653308941800,7.95794189453125,-0.0036506610922515392,-0.021561751142144203,-0.03522137179970741
1690841653318982000,7.96798193359375,-0.00307541829533875,-0.008635831996798515,-0.021801967173814774
1690841653329023000,7.97802294921875,-0.005536445416510105,0.004804076161235571,-0.0050687943585217
1690841653339063000,7.98806298828125,-0.005623264703899622,0.011122692376375198,0.008378038182854652
1690841653349102800,7.998102783203125,-0.00526773277670145,0.013908358290791512,0.02021712064743042
1690841653359144000,8.00814404296875,-0.004310858901590109,0.01269901730120182,0.02605903148651123
1690841653369184000,8.01818408203125,-0.0037169738207012415,0.004067446105182171,0.029193837195634842
1690841653379224000,8.02822412109375,-0.004092745948582888,-0.004310059826821089,0.025477662682533264
1690841653389264000,8.038263916015625,-0.004304733593016863,-0.011844675056636333,0.02053004316985607
1690841653399305000,8.048304931640626,-0.0041124531999230385,-0.012740562669932842,0.011392470449209213
1690841653409345000,8.058344970703125,-0.003340402850881219,-0.012375709600746632,-0.0031611721497029066
1690841653419384800,8.068384765625,-0.0059569585137069225,-0.0062738750129938126,-0.01829325407743454
1690841653429456000,8.078455810546876,-0.003698065411299467,0.001773132593370974,-0.03229828551411629
1690841653439496000,8.088495849609375,-0.0057676080614328384,0.004324707202613354,-0.04276930168271065
1690841653449537000,8.098537109375,-0.005406749434769154,0.006099704187363386,-0.05278544872999191
1690841653459576800,8.108576904296875,-0.005215800832957029,0.0017933726776391268,-0.05728832259774208
1690841653469617000,8.118616943359376,-0.005590241402387619,0.0010583401890471578,-0.055210523307323456
1690841653479658000,8.128657958984375,-0.004034156445413828,-0.004291151650249958,-0.05378839746117592
1690841653489698000,8.138697998046876,-0.003911917097866535,-0.006570284720510244,-0.04779095947742462
1690841653499737900,8.14873779296875,-0.005322860088199377,-0.00839747954159975,-0.041009485721588135
1690841653509778000,8.15877783203125,-0.004600344225764275,-0.007162838242948055,-0.0323326401412487
1690841653519819000,8.168819091796875,-0.002834402257576585,-0.0023664848413318396,-0.021139107644557953
1690841653529858800,8.17885888671875,-0.005598497111350298,-0.0006684534018859267,-0.012705142609775066
1690841653539899000,8.18889892578125,-0.00574816670268774,0.0013574132462963462,-0.005043760873377323
1690841653549939000,8.19893896484375,-0.0044109937734901905,0.003531884169206023,-0.00017097493400797248
1690841653559980000,8.20897998046875,-0.0035065840929746628,0.0006772418855689466,0.0057220677845180035
1690841653570051000,8.219051025390625,-0.0050701261498034,-0.0016261261189356446,0.005828594323247671
1690841653580091000,8.2290908203125,-0.0038029940333217382,-0.006570284720510244,0.0007510114228352904
1690841653590131000,8.239130859375,-0.0043982104398310184,-0.0060206083580851555,0.00027537086862139404
1690841653600170800,8.249170654296876,-0.004938832018524408,-0.004504470620304346,-0.006479737348854542
1690841653610220500,8.259220458984375,-0.00376011710613966,-0.0030365362763404846,-0.012897156178951263
1690841653620260400,8.26926025390625,-0.004488225560635328,-0.0014799186028540134,-0.021925538778305054
1690841653630300400,8.279300537109375,-0.003715908620506525,-0.0006090649403631687,-0.029981069266796112
1690841653640341500,8.289341552734374,-0.005555087700486183,0.0004391552647575736,-0.03383199870586395
1690841653650381600,8.299381591796875,-0.005240834783762693,0.0001752359967213124,-0.03839106485247612
1690841653660421600,8.309421630859376,-0.005363340023905039,-0.00040746363811194897,-0.039443813264369965
1690841653670461700,8.319461669921875,-0.005234176758676767,-0.004454935900866985,-0.038596127182245255
1690841653680502500,8.32950244140625,-0.003687146585434675,-0.004141481593251228,-0.039257392287254333
1690841653690542300,8.339542236328125,-0.003861050819978118,-0.005238703917711973,-0.032340362668037415
1690841653700582400,8.34958251953125,-0.006127400789409876,-0.0032671659719198942,-0.027416177093982697
1690841653710653400,8.3596533203125,-0.0039020637050271034,-0.0021763353142887354,-0.022404640913009644
1690841653720693500,8.369693603515625,-0.005249356850981712,-0.0026072347536683083,-0.01949806697666645
1690841653730734600,8.379734619140624,-0.004194212146103382,0.0005307680112309754,-0.01281752809882164
1690841653740774700,8.389774658203125,-0.004565190523862839,0.00002157160452043172,-0.012103534303605556
1690841653750814700,8.399814697265626,-0.0030565098859369755,-0.001829591696150601,-0.007227286696434021
1690841653760854500,8.4098544921875,-0.004721251782029867,0.0002721750643104315,-0.005046423990279436
1690841653770895400,8.419895263671876,-0.005789179354906082,-0.0027499801944941282,-0.007424626965075731
1690841653780935400,8.429935302734375,-0.0032229574862867594,-0.0022160164080560207,-0.011211375705897808
1690841653790975500,8.4399755859375,-0.005387841258198023,-0.00512711750343442,-0.012162390165030956
1690841653801016600,8.4500166015625,-0.005460012704133987,-0.0030146983917802572,-0.015626097097992897
1690841653811056600,8.460056640625,-0.005874400492757559,-0.002758502261713147,-0.01996891386806965
1690841653821096700,8.4700966796875,-0.005942843854427338,-0.0014924354618415236,-0.027211114764213562
1690841653831136500,8.480136474609376,-0.004844822455197573,-0.000565122754778713,-0.02690058946609497
1690841653841207600,8.49020751953125,-0.005327919963747263,-0.0025630262680351734,-0.03020930103957653
1690841653851248400,8.500248291015625,-0.005002748221158981,-0.003932689782232046,-0.031038077548146248
1690841653861288400,8.510288330078126,-0.0049255164340138435,-0.002201901515945792,-0.03127030283212662
1690841653871328500,8.52032861328125,-0.004936701618134975,-0.0026375947054475546,-0.03205833584070206
1690841653881368600,8.53036865234375,-0.0038045919500291348,-0.0031995216850191355,-0.027666248381137848
1690841653891409700,8.54040966796875,-0.006363889668136835,-0.002264219569042325,-0.027156520634889603
1690841653901449700,8.55044970703125,-0.004835501778870821,-0.0019289276096969843,-0.022241655737161636
1690841653911489500,8.560489501953125,-0.004193679895251989,-0.0025276062078773975,-0.020014187321066856
1690841653921530400,8.5705302734375,-0.005271993577480316,-0.0021662150975316763,-0.017055150121450424
1690841653931570400,8.5805703125,-0.005229915492236614,0.0003504719934426248,-0.014662299305200577
1690841653941610500,8.590610595703126,-0.003032541600987315,-0.0018469021888449788,-0.013675864785909653
1690841653951650600,8.600650634765625,-0.003922836389392614,-0.0013510215794667602,-0.013904896564781666
1690841653961691600,8.610691650390624,-0.005407282151281834,-0.0029166939202696085,-0.01489639189094305
1690841653971731700,8.620731689453125,-0.0051534827798604965,-0.0023036343045532703,-0.014666294679045677
1690841653981802500,8.630802490234375,-0.005931925028562546,-0.0025651566684246063,-0.014512630179524422
1690841653991842600,8.640842529296876,-0.005591573193669319,-0.0031846079509705305,-0.019763052463531494
1690841654001882600,8.650882568359375,-0.004327103961259127,-0.003061303636059165,-0.022834209725260735
1690841654011923500,8.66092333984375,-0.004218979738652706,-0.0046725161373615265,-0.02334633469581604
1690841654021963500,8.670963623046875,-0.003775563556700945,-0.002814162289723754,-0.02539856731891632
1690841654032003600,8.681003662109376,-0.005371862091124058,-0.0033955303952097893,-0.026804449036717415
1690841654042043600,8.691043701171875,-0.0041191112250089645,-0.0017592841759324074,-0.0273866169154644
1690841654052084700,8.701084716796874,-0.004869323689490557,-0.003976099658757448,-0.026814037933945656
1690841654062124500,8.71112451171875,-0.0039265644736588,-0.003888747887685895,-0.02557007409632206
1690841654072164600,8.72116455078125,-0.0036573191173374653,-0.0018841864075511694,-0.023496538400650024
1690841654082205400,8.731205322265625,-0.004849616438150406,-0.0003217098710592836,-0.020369719713926315
1690841654092245500,8.74124560546875,-0.0067753479816019535,-0.00316037330776453,-0.02081819623708725
1690841654102285600,8.75128564453125,-0.004366785287857056,-0.0023161512799561024,-0.018005898222327232
1690841654112325600,8.76132568359375,-0.004591289907693863,-0.002673813607543707,-0.01690414920449257
1690841654122396400,8.771396484375,-0.0031521173659712076,-0.0022442457266151905,-0.016455406323075294
1690841654132437500,8.7814375,-0.002938798163086176,-0.0013648699969053268,-0.015894809737801552
1690841654142477600,8.7914775390625,-0.003991812001913786,-0.0007121292874217033,-0.016711868345737457
1690841654152517600,8.801517578125,-0.00583871454000473,-0.0034205641131848097,-0.018430139869451523
1690841654162557700,8.8115576171875,-0.004327903036028147,-0.0008351673022843897,-0.01822427660226822
1690841654172598500,8.8215986328125,-0.002892192918807268,0.0002924150903709233,-0.02015826478600502
1690841654182638600,8.831638671875,-0.004799282643944025,-0.0005834985640831292,-0.022362830117344856
1690841654192678400,8.841678466796875,-0.004090615548193455,-0.0016399745363742113,-0.0232363473623991
1690841654202718500,8.851718505859376,-0.00577959232032299,-0.001755289500579238,-0.023443007841706276
1690841654212759600,8.861759521484375,-0.005887982901185751,-0.0028644960839301348,-0.022311430424451828
1690841654222799600,8.871799560546876,-0.0028091021813452244,-0.0031281490810215473,-0.023452328518033028
1690841654232839700,8.881839599609375,-0.004474376793950796,-0.003352387109771371,-0.02353541925549507
1690841654242880500,8.891880615234374,-0.004014449194073677,-0.004114849958568811,-0.023508256301283836
1690841654252950800,8.90195068359375,-0.003212571144104004,-0.001806155894882977,-0.023488814011216164
1690841654262991600,8.91199169921875,-0.003935352899134159,-0.0025806031189858913,-0.022913038730621338
1690841654273031400,8.922031494140626,-0.004144677426666021,0.00011957593233091757,-0.021441642194986343
1690841654283071500,8.932071533203125,-0.003754258155822754,0.0006412891671061516,-0.021740982308983803
1690841654293112600,8.942112548828124,-0.0035444011446088552,-0.0020184097811579704,-0.020205669105052948
1690841654303152600,8.952152587890625,-0.004792624618858099,-0.0013827132061123848,-0.018427476286888123
1690841654313192700,8.962192626953126,-0.004277569241821766,-0.0035947347059845924,-0.018495919182896614
1690841654323232800,8.972232666015625,-0.004542820155620575,-0.0034176346380263567,-0.016538230702280998
1690841654333273600,8.982273681640624,-0.0031198931392282248,-0.0029848709236830473,-0.01690760999917984
1690841654343313400,8.9923134765625,-0.00410552928224206,-0.0037297571543604136,-0.01690441556274891
1690841654353353500,9.002353515625,-0.004081294406205416,-0.001990979304537177,-0.01991724967956543
1690841654363394600,9.01239453125,-0.004352670628577471,-0.001576857641339302,-0.022185996174812317
1690841654373434600,9.0224345703125,-0.004890096373856068,-0.0017073525814339519,-0.023615580052137375
1690841654383474700,9.032474609375,-0.004718055948615074,-0.002163019496947527,-0.023318106308579445
1690841654393545700,9.042545654296875,-0.0033720945939421654,-0.0012873720843344927,-0.024929584935307503
1690841654403585800,9.052585693359376,-0.004589958116412163,-0.0008639294537715614,-0.02388615719974041
1690841654413625600,9.06262548828125,-0.004650145769119263,-0.0025366609916090965,-0.021047495305538177
1690841654423666400,9.07266650390625,-0.005437109619379044,-0.004314587451517582,-0.0224419254809618
1690841654433706500,9.08270654296875,-0.003733219113200903,-0.0007014766451902688,-0.02183366008102894
1690841654443746600,9.09274658203125,-0.004895955324172974,-0.004059456288814545,-0.020115654915571213
1690841654453787600,9.10278759765625,-0.005340969655662775,-0.0035124430432915688,-0.019940685480833054
1690841654463827700,9.11282763671875,-0.0036754286848008633,-0.0022218753583729267,-0.020137226209044456
1690841654473867800,9.12286767578125,-0.00373055599629879,-0.0027166905347257853,-0.019899671897292137
1690841654483907600,9.132907470703126,-0.0049164616502821445,0.00032384038786403835,-0.01998276263475418
1690841654493948400,9.142948486328125,-0.005232844967395067,-0.0017864484107121825,-0.020236030220985413
1690841654503988500,9.152988525390626,-0.00404667342081666,0.00021065604232717305,-0.020685836672782898
1690841654514028500,9.163028564453125,-0.006785734556615353,-0.0008612662786617875,-0.01818219944834709
1690841654524069600,9.173069580078124,-0.003757187630981207,-0.001585912425071001,-0.018670624122023582
1690841654534139600,9.1831396484375,-0.005766542628407478,-0.0012442287988960743,-0.018996860831975937
1690841654544180700,9.1931806640625,-0.004139351192861795,-0.004228300880640745,-0.019157981500029564
1690841654554220800,9.203220703125,-0.004775047767907381,-0.0034325483720749617,-0.021757759153842926
1690841654564260600,9.213260498046875,-0.004562793765217066,-0.0029787456151098013,-0.020231235772371292
1690841654574301400,9.223301513671874,-0.005642705596983433,-0.003070358419790864,-0.022183865308761597
1690841654584341500,9.233341552734375,-0.005706355441361666,-0.0036996633280068636,-0.023985760286450386
1690841654594381600,9.243381591796876,-0.0057106162421405315,-0.003183276392519474,-0.025123728439211845
1690841654604421600,9.253421630859375,-0.004637096077203751,-0.0030272151343524456,-0.02244964800775051
1690841654614428000,9.263427978515624,-0.005724198184907436,-0.0021044297609478235,-0.020178770646452904
1690841654624468000,9.273468017578125,-0.0030916635878384113,0.0002561961009632796,-0.01992017775774002
1690841654634507800,9.2835078125,-0.004716458264738321,0.0011193265672773123,-0.019704995676875114
1690841654644547600,9.293547607421875,-0.003954794257879257,0.00020719393796753138,-0.020175842568278313
1690841654654588700,9.303588623046876,-0.005399026442319155,-0.001201884588226676,-0.019841348752379417
1690841654664659700,9.31365966796875,-0.004429635591804981,-0.0013792511308565736,-0.01888767071068287
1690841654674699800,9.32369970703125,-0.003906590864062309,-0.0020093549974262714,-0.018786737695336342
1690841654684739800,9.33373974609375,-0.005524727515876293,-0.003748399205505848,-0.019882095977663994
1690841654694779600,9.343779541015625,-0.0055060856975615025,-0.0028602350503206253,-0.021397700533270836
1690841654704820700,9.35382080078125,-0.003718571737408638,-0.0015188007382676005,-0.020913803949952126
1690841654714860800,9.36386083984375,-0.00421471893787384,-0.004403803031891584,-0.02051353082060814
1690841654724900600,9.373900634765626,-0.005061604082584381,-0.001933454885147512,-0.02184857428073883
1690841654734941700,9.383941650390625,-0.004918059334158897,-0.0009643306257203221,-0.021804098039865494
1690841654744981800,9.393981689453126,-0.004761199466884136,0.001065264455974102,-0.01918647810816765
1690841654755021800,9.404021728515625,-0.004354801028966904,0.000556334329303354,-0.02027437835931778
1690841654765062000,9.414061767578126,-0.0055090151727199554,-0.0005856291390955448,-0.02129170671105385
1690841654775103000,9.42410302734375,-0.004631237126886845,-0.0037345506716519594,-0.022653380408883095
1690841654785142800,9.434142822265626,-0.005260542035102844,-0.0037875475827604532,-0.02070421352982521
1690841654795182600,9.4441826171875,-0.003560912562534213,0.00021252025908324867,-0.021759890019893646
1690841654805253600,9.454253662109375,-0.005176119972020388,-0.0020652813836932182,-0.02191062457859516
1690841654815293700,9.464293701171876,-0.00472577940672636,-0.002560629276558757,-0.021020596846938133
1690841654825334800,9.474334716796875,-0.004519117996096611,-0.0005286374944262207,-0.01828979142010212
1690841654835374800,9.484374755859376,-0.003786748740822077,-0.0020482372492551804,-0.016697220504283905
1690841654845414700,9.49441455078125,-0.004060521721839905,-0.0010980212828144431,-0.01774517446756363
1690841654855454700,9.504454833984376,-0.0036884781438857317,-0.0012037487467750907,-0.02003682404756546
1690841654865495800,9.514495849609375,-0.0067239492200315,-0.0013409015955403447,-0.018866099417209625
1690841654875535600,9.52453564453125,-0.004338023252785206,-0.0019257317762821913,-0.018077537417411804
1690841654885575700,9.53457568359375,-0.004011519718915224,-0.002153698354959488,-0.02057718113064766
1690841654895616800,9.54461669921875,-0.00484189298003912,-0.003855724586173892,-0.022185996174812317
1690841654905656800,9.55465673828125,-0.004674646537750959,-0.0029166939202696085,-0.02130289189517498
1690841654915696600,9.564696533203126,-0.004474110435694456,-0.002975283656269312,-0.021334849298000336
1690841654925736700,9.57473681640625,-0.004996889270842075,-0.0019228023011237383,-0.021229121834039688
1690841654935777800,9.58477783203125,-0.004711132030934095,-0.0033273533917963505,-0.02167067490518093
1690841654945848600,9.5948486328125,-0.004876514431089163,-0.0026288062799721956,-0.020235497504472733
1690841654955888600,9.604888671875,-0.005574528593569994,-0.0020415792241692543,-0.020599817857146263
1690841654965928700,9.6149287109375,-0.0035244273021817207,-0.00014700648898724467,-0.020717529579997063
1690841654975968800,9.62496875,-0.00424268189817667,-0.0021345235873013735,-0.01997557282447815
1690841654986009900,9.635009765625,-0.003930293023586273,-0.0038277613930404186,-0.02279852330684662
1690841654996049700,9.645049560546875,-0.005606752820312977,-0.0037702370900660753,-0.02178039588034153
1690841655006089700,9.65508984375,-0.004160390235483646,-0.0036573191173374653,-0.01956278271973133
1690841655016130600,9.665130615234375,-0.005576126743108034,-0.00436012726277113,-0.020891699939966202
1690841655026170600,9.675170654296876,-0.003906590864062309,-0.00247540813870728,-0.02064162865281105
1690841655036210700,9.685210693359375,-0.004289287142455578,-0.0014532869681715965,-0.020841632038354874
1690841655046250800,9.695250732421876,-0.00452817277982831,-0.0033545177429914474,-0.017842913046479225
1690841655056291800,9.705291748046875,-0.0054757255129516125,-0.002907639369368553,-0.020536167547106743
1690841655066331600,9.71533154296875,-0.004830707795917988,-0.0021694109309464693,-0.02123258449137211
1690841655076402700,9.725402587890626,-0.005047755315899849,-0.0029414615128189325,-0.021218469366431236
1690841655086442800,9.73544287109375,-0.003314037574455142,-0.0016165387351065874,-0.02052711322903633
1690841655096482800,9.74548291015625,-0.0028820729348808527,-0.002600044244900346,-0.021015269681811333
1690841655106523600,9.755523681640625,-0.0043870252557098866,-0.0013736584223806858,-0.021578263491392136
1690841655116563700,9.765563720703126,-0.004765992984175682,-0.002526541007682681,-0.02202327735722065
1690841655126603800,9.775603759765625,-0.0041308291256427765,-0.003534813644364476,-0.023377494886517525
1690841655136643600,9.7856435546875,-0.004018709994852543,-0.0020594224333763123,-0.020480507984757423
1690841655146684700,9.7956845703125,-0.004447745159268379,-0.0017129451734945178,-0.02100914530456066
1690841655156724700,9.805724853515626,-0.005405684467405081,-0.001740109408274293,-0.021688517183065414
1690841655166764800,9.815764892578125,-0.0047028763219714165,-0.0031518512405455112,-0.0207673292607069
1690841655176805600,9.8258056640625,-0.004827511962503195,-0.0011739213950932026,-0.02034868113696575
1690841655186845700,9.835845703125,-0.001986984396353364,-0.0008250473183579743,-0.02154204435646534
1690841655196885800,9.8458857421875,-0.004388622939586639,-0.003593403147533536,-0.020267454907298088
1690841655206925600,9.855925537109375,-0.005085306242108345,-0.0038187066093087196,-0.019579026848077774
1690841655216996600,9.86599658203125,-0.004815261345356703,-0.003710848744958639,-0.019097527489066124
1690841655227037700,9.87603759765625,-0.0041547976434230804,-0.002019474981352687,-0.022102639079093933
1690841655237077800,9.886077880859375,-0.0034072482958436012,-0.001035436987876892,-0.01943681389093399
1690841655247117800,9.896117919921876,-0.003802727675065398,-0.002013882389292121,-0.01996625028550625
1690841655257158000,9.906157958984375,-0.004517786670476198,-0.002229065867140889,-0.020238691940903664
1690841655267198700,9.91619873046875,-0.005636313930153847,-0.0032085764687508345,-0.02064189501106739
1690841655277238800,9.92623876953125,-0.004865595139563084,-0.0018588864477351308,-0.01792733557522297
1690841655287278600,9.936278564453126,-0.005544168874621391,-0.004659732803702354,-0.02046905644237995
1690841655297318700,9.946318603515625,-0.005397694651037455,-0.0021313277538865805,-0.02195643074810505
1690841655307359700,9.95635986328125,-0.004228567238897085,-0.0038687740452587605,-0.020549749955534935
1690841655317399800,9.96639990234375,-0.005044825840741396,-0.002798982197418809,-0.021827001124620438
1690841655327440000,9.97643994140625,-0.0029499835800379515,-0.0036573191173374653,-0.021410750225186348
1690841655337480700,9.986480712890625,-0.003973702434450388,-0.0020879183430224657,-0.021672803908586502
1690841655347520800,9.996520751953126,-0.005408347584307194,-0.0012652678415179253,-0.019949739798903465
1690841655357591600,10.006591552734376,-0.004280765075236559,-0.0019342538435012102,-0.020167585462331772
1690841655367631600,10.016631591796875,-0.00395612558349967,0.0013869742397218943,-0.019053852185606956
1690841655377671700,10.026671630859376,-0.006385461427271366,-0.0008088020258583128,-0.02166960947215557
1690841655387712800,10.036712646484375,-0.0057444386184215546,-0.000907338981050998,-0.02015320584177971
1690841655397752800,10.0467529296875,-0.003887682454660535,-0.0013116068439558148,-0.02057291939854622
1690841655407793000,10.05679296875,-0.005602225661277771,-0.0025305356830358505,-0.020739633589982986
1690841655417833000,10.0668330078125,-0.003817375050857663,-0.002927080262452364,-0.021617943421006203
1690841655427873800,10.076873779296875,-0.003879693103954196,-0.0019494339358061552,-0.021614214405417442
1690841655437913600,10.08691357421875,-0.004735899157822132,-0.0036458675749599934,-0.019869845360517502
1690841655447953700,10.09695361328125,-0.005515939090400934,-0.0018911106744781137,-0.02002990059554577
1690841655457994800,10.106994873046874,-0.005268265027552843,-0.0006668555433861911,-0.018934275954961777
1690841655468034800,10.117034912109375,-0.00484269205480814,-0.0019438412273302674,-0.020604344084858894
1690841655478075000,10.127074951171876,-0.005169994663447142,-0.002692722249776125,-0.02040620520710945
1690841655488146000,10.13714599609375,-0.005061071366071701,-0.00018429075134918094,-0.020556140691041946
1690841655498185700,10.147185791015625,-0.0067484499886631966,-0.0030634342692792416,-0.021516477689146996
1690841655508225800,10.157225830078126,-0.005281048361212015,-0.0011017497163265944,-0.021926337853074074
1690841655518266600,10.1672666015625,-0.005282113794237375,-0.0020754013676196337,-0.02051539532840252
1690841655528306700,10.177306640625,-0.003751062322407961,-0.0033449302427470684,-0.019539080560207367
1690841655538346800,10.1873466796875,-0.003981425892561674,0.000185888638952747,-0.020489295944571495
1690841655548387800,10.197387939453124,-0.006558566819876432,-0.001336107961833477,-0.019220300018787384
1690841655558428000,10.207427978515625,-0.0041646515019237995,-0.0008450209861621261,-0.0200437493622303
1690841655568468000,10.217468017578126,-0.004364122170954943,-0.0026913906913250685,-0.019582223147153854
1690841655578507800,10.2275078125,-0.004197407979518175,-0.0012040151050314307,-0.021323664113879204
1690841655588548600,10.237548583984376,-0.004008590243756771,-0.0038128476589918137,-0.01919260248541832
1690841655598588700,10.247588623046875,-0.004463990684598684,-0.002034388715401292,-0.0211859792470932
1690841655608628700,10.257628662109376,-0.003765709698200226,-0.002826146548613906,-0.022227806970477104
1690841655618668300,10.267668212890625,-0.004452805500477552,-0.0023337281309068203,-0.020673852413892746
1690841655628738300,10.27773828125,-0.0029619678389281034,-0.0028418591246008873,-0.020320983603596687
1690841655638779400,10.287779296875,-0.0033806166611611843,-0.0008050735923461616,-0.021081050857901573
1690841655648819500,10.2978193359375,-0.0046663908287882805,-0.0005707154050469398,-0.020207533612847328
1690841655658859300,10.307859375,-0.0037771612405776978,-0.000788561999797821,-0.021397434175014496
1690841655668900400,10.317900390625,-0.004974518436938524,-0.0017212009988725185,-0.02034122496843338
1690841655678940400,10.3279404296875,-0.0038842204958200455,0.00035606464371085167,-0.02123657986521721
1690841655688980200,10.337980224609375,-0.005499161314219236,-0.002496447181329131,-0.020537499338388443
1690841655699020300,10.348020263671875,-0.004005394410341978,-0.001121989800594747,-0.018988871946930885
1690841655709061400,10.358061279296875,-0.005021656397730112,-0.0009329052991233766,-0.021385716274380684
1690841655719101400,10.368101318359376,-0.005666407756507397,-0.0031409321818500757,-0.02129570208489895
1690841655729141500,10.3781416015625,-0.005286640953272581,-0.003823500359430909,-0.022241389378905296
1690841655739182600,10.3881826171875,-0.004260258749127388,-0.001799764228053391,-0.01931058056652546
1690841655749222400,10.398222412109375,-0.004989964887499809,-0.002156095113605261,-0.020484767854213715
1690841655759262200,10.40826220703125,-0.005584382452070713,-0.003454652614891529,-0.021034445613622665
1690841655769333200,10.418333251953126,-0.005249623209238052,-0.0025276062078773975,-0.020298346877098083
1690841655779373300,10.428373291015625,-0.005470665637403727,-0.0038461373187601566,-0.020535368472337723
1690841655789413400,10.438413330078125,-0.003953995183110237,-0.0025041704066097736,-0.021511683240532875
1690841655799454500,10.448454345703125,-0.002204830991104245,-0.0026732811238616705,-0.019846143200993538
1690841655809494300,10.458494384765626,-0.0054331147111952305,-0.004510063212364912,-0.020143883302807808
1690841655819534300,10.468534423828125,-0.005693305749446154,-0.0015837819082662463,-0.021099692210555077
1690841655829575400,10.478575439453126,-0.005124987103044987,-0.004855475388467312,-0.020437097176909447
1690841655839615200,10.488615234375,-0.0037289580795913935,-0.0019646140281111,-0.019832560792565346
1690841655849655300,10.4986552734375,-0.004265584982931614,-0.0016098808264359832,-0.022004900500178337
1690841655859695400,10.5086953125,-0.004977980628609657,-0.002528405049815774,-0.020713534206151962
1690841655869736400,10.518736328125,-0.004822984803467989,-0.0009398295660503209,-0.022527946159243584
1690841655879776500,10.528776611328125,-0.005073321983218193,-0.001395496423356235,-0.02153218910098076
1690841655889816300,10.53881640625,-0.004685565363615751,-0.001609614584594965,-0.02021578885614872
1690841655899887400,10.548887451171876,-0.003687146585434675,-0.00245117349550128,-0.021168401464819908
1690841655909927400,10.558927490234375,-0.003656520042568445,-0.0017949705943465233,-0.021447768434882164
1690841655919968300,10.56896826171875,-0.004001932218670845,-0.0008223841432482004,-0.020987041294574738
1690841655930008300,10.57900830078125,-0.005125786177814007,-0.00267780851572752,-0.02052471600472927
1690841655940048400,10.58904833984375,-0.004883438348770142,-0.003579022129997611,-0.020604610443115234
1690841655950088200,10.599088134765625,-0.005399026442319155,-0.003485811408609152,-0.02183579094707966
1690841655960129300,10.60912939453125,-0.005250688176602125,-0.0022626216523349285,-0.020021378993988037
1690841655970169300,10.61916943359375,-0.004467452876269817,-0.0007621967233717442,-0.021339643746614456
1690841655980209400,10.62920947265625,-0.005154814571142197,-0.0022027005907148123,-0.022819828242063522
1690841655990250200,10.639250244140625,-0.004415520932525396,0.00021944446780253202,-0.020411266013979912
1690841656000290300,10.649290283203126,-0.004059722647070885,-0.00039308256236836314,-0.0199835617095232
1690841656010330400,10.659330322265625,-0.005648031830787659,-0.0020964404102414846,-0.021708223968744278
1690841656020370200,10.6693701171875,-0.005231513641774654,-0.002231995342299342,-0.020429907366633415
1690841656030411300,10.679411376953125,-0.005845638457685709,-0.0007115966291166842,-0.020266389474272728
1690841656040482300,10.689482421875,-0.004147606901824474,-0.003306314582005143,-0.02093750610947609
1690841656050522400,10.6995224609375,-0.004194478504359722,-0.000707868195604533,-0.02143258787691593
1690841656060562400,10.7095625,-0.005360943265259266,-0.0035143073182553053,-0.020185695961117744
1690841656070602500,10.7196025390625,-0.004010987002402544,-0.00245117349550128,-0.021926870569586754
1690841656080643300,10.729643310546875,-0.003974501509219408,-0.0018261295044794679,-0.020984377712011337
1690841656090683400,10.739683349609376,-0.004217648413032293,-0.0009235842735506594,-0.020383834838867188
1690841656100723200,10.74972314453125,-0.00523683987557888,-0.002531068166717887,-0.01938328519463539
1690841656110764300,10.759764404296876,-0.0054730623960494995,-0.0046354979276657104,-0.020682375878095627
1690841656120804400,10.769804443359375,-0.005774265620857477,-0.003944674041122198,-0.01882481947541237
1690841656130844400,10.779844482421876,-0.0033388049341738224,0.000291616132017225,-0.02050873637199402
1690841656140884500,10.789884521484375,-0.00375985074788332,-0.0027031085919588804,-0.02178439125418663
1690841656150925300,10.79992529296875,-0.004601942375302315,-0.0027334685437381268,-0.019894346594810486
1690841656160965400,10.80996533203125,-0.005455485545098782,-0.0034051176626235247,-0.020564131438732147
1690841656171005200,10.820005126953125,-0.0041151163168251514,-0.002208026824519038,-0.02058170735836029
1690841656181076200,10.830076171875,-0.003923369105905294,-0.0033302828669548035,-0.021796109154820442
1690841656191116300,10.8401162109375,-0.005330849438905716,-0.0025502429343760014,-0.021616611629724503
1690841656201157400,10.850157470703126,-0.004744421225041151,-0.0022122878581285477,-0.021693577989935875
1690841656211197400,10.860197509765625,-0.00427171029150486,-0.001333178486675024,-0.017912687733769417
1690841656221237500,10.870237548828126,-0.002769421087577939,-0.0024431839119642973,-0.02100248634815216
1690841656231277600,10.880277587890625,-0.004730839282274246,-0.003073554253205657,-0.021748438477516174
1690841656241318400,10.890318359375,-0.0041191112250089645,-0.003686880227178335,-0.02002883516252041
1690841656251358200,10.900358154296875,-0.00432976707816124,-0.002944923471659422,-0.02010340429842472
1690841656261398300,10.910398193359375,-0.003462908323854208,-0.00010679275874281302,-0.022223280742764473
1690841656271439400,10.920439453125,-0.004848284646868706,-0.0008721852791495621,-0.020659739151597023
1690841656281479400,10.9304794921875,-0.005765477195382118,-0.0035396073944866657,-0.020656809210777283
1690841656291519500,10.94051953125,-0.0041057956404984,-0.0012463594321161509,-0.02117213048040867
1690841656301559600,10.9505595703125,-0.003694869577884674,-0.0022157500497996807,-0.020831245929002762
1690841656311630300,10.96063037109375,-0.004246676806360483,0.00020746025256812572,-0.018495120108127594
1690841656321671200,10.970671142578125,-0.004790227860212326,-0.001615473534911871,-0.02064828760921955
1690841656331711200,10.980711181640626,-0.0036999296862632036,-0.0008681904873810709,-0.02076093852519989
1690841656341751300,10.990751220703125,-0.003967843484133482,-0.002906840294599533,-0.02117852121591568
1690841656351791400,11.000791259765625,-0.00401657959446311,-0.0017265273490920663,-0.020310597494244576
1690841656361832400,11.01083251953125,-0.005751628894358873,-0.0016343819443136454,-0.021891716867685318
1690841656371872500,11.02087255859375,-0.00430127140134573,-0.002709766384214163,-0.01925012655556202
1690841656381912600,11.03091259765625,-0.005374791566282511,-0.0008809737046249211,-0.020135361701250076
1690841656391953400,11.040953369140626,-0.005766542628407478,-0.0021640846971422434,-0.02082858234643936
1690841656401993200,11.0509931640625,-0.005264536943286657,-0.0007534082396887243,-0.018997127190232277
1690841656412033300,11.061033203125,-0.004540423396974802,-0.004454669542610645,-0.0212448351085186
1690841656422073300,11.0710732421875,-0.0038951393216848373,-0.001591771375387907,-0.021256020292639732
1690841656432114400,11.081114501953126,-0.004012584686279297,0.00004846953015658073,-0.020791564136743546
1690841656442154500,11.091154541015625,-0.004059189930558205,-0.00027856664382852614,-0.020053070038557053
1690841656452225500,11.1012255859375,-0.004262921866029501,-0.0024549018125981092,-0.019930033013224602
1690841656462265300,11.111265380859376,-0.002840793924406171,-0.0026642263401299715,-0.020893298089504242
1690841656472305400,11.121305419921875,-0.003111903788521886,-0.004713528789579868,-0.021025655791163445
1690841656482346200,11.13134619140625,-0.0040852888487279415,-0.0007520766812376678,-0.02057371847331524
1690841656492386300,11.14138623046875,-0.004500742070376873,-0.0007805725326761603,-0.02057158760726452
1690841656502426400,11.15142626953125,-0.004959871061146259,-0.0038482677191495895,-0.020381703972816467
1690841656512466400,11.161466552734375,-0.00415319949388504,-0.0027201527263969183,-0.019892482087016106
1690841656522507500,11.171507568359376,-0.0035582494456321,-0.000800279900431633,-0.02051006816327572
1690841656532547600,11.181547607421875,-0.005000617355108261,-0.00202240445651114,-0.019811255857348442
1690841656542587400,11.19158740234375,-0.005474660079926252,-0.0026905916165560484,-0.021265873685479164
1690841656552628200,11.201628173828125,-0.0041401502676308155,-0.0022455775178968906,-0.020778780803084373
1690841656562668300,11.211668212890626,-0.006649114191532135,-0.003338006092235446,-0.020017117261886597
1690841656572708400,11.221708251953125,-0.004807271994650364,-0.001514806062914431,-0.020494356751441956
1690841656582748400,11.23174853515625,-0.0049063414335250854,-0.003385676769539714,-0.021207816898822784
1690841656592819500,11.2418193359375,-0.003933755215257406,-0.0009190568816848099,-0.02149117738008499
1690841656602859300,11.251859375,-0.004832572303712368,-0.002201635157689452,-0.019752666354179382
1690841656612906200,11.26190625,-0.005274390336126089,-0.0023497070651501417,-0.020369719713926315
1690841656622946300,11.2719462890625,-0.003852795111015439,-0.0028154938481748104,-0.020853882655501366
1690841656632986400,11.281986328125,-0.0038458709605038166,-0.00224957219325006,-0.021193435415625572
1690841656643027200,11.292027099609374,-0.0027276095934212208,-0.00105301383882761,-0.01876782812178135
1690841656653067300,11.3020673828125,-0.004671717062592506,-0.0036826191935688257,-0.022470422089099884
1690841656663107300,11.312107421875,-0.004974252078682184,-0.0015097459545359015,-0.020380105823278427
1690841656673147100,11.322147216796875,-0.004294347018003464,-0.0025212145410478115,-0.018805112689733505
1690841656683188500,11.3321884765625,-0.004026167094707489,-0.0012282498646527529,-0.019391007721424103
1690841656693228300,11.342228271484375,-0.0030075078830122948,-0.0037731665652245283,-0.0213558878749609
1690841656703268400,11.352268310546876,-0.004936701618134975,-0.0029257487040013075,-0.019765980541706085
1690841656713309200,11.36230908203125,-0.003879959462210536,-0.003674097126349807,-0.020170249044895172
1690841656723349200,11.372349365234374,-0.004193946253508329,-0.002966495230793953,-0.020476246252655983
1690841656733420300,11.382420166015624,-0.0052200620993971825,-0.0048975530080497265,-0.020365193486213684
1690841656743460400,11.39246044921875,-0.004249073565006256,-0.002731071785092354,-0.01991431973874569
1690841656753500200,11.402500244140626,-0.0040948763489723206,0.00022210762836039066,-0.020005665719509125
1690841656763541200,11.412541259765625,-0.005335110705345869,-0.001234641415067017,-0.02123897522687912
1690841656773581300,11.422581298828124,-0.005300489254295826,-0.0008207862265408039,-0.020556407049298286
1690841656783621400,11.432621337890625,-0.005322860088199377,-0.0022218753583729267,-0.01997903361916542
1690841656793661400,11.442661376953126,-0.004811799619346857,-0.0014357101172208786,-0.020195282995700836
1690841656803702300,11.452702392578125,-0.005066397599875927,0.00035712990211322904,-0.019033346325159073
1690841656813742300,11.462742431640624,-0.00452923821285367,-0.0004732437082566321,-0.021143633872270584
1690841656823782100,11.4727822265625,-0.0052235242910683155,-0.0038338867016136646,-0.020146813243627548
1690841656833823200,11.4828232421875,-0.0032527849543839693,-0.002213885774835944,-0.020196082070469856
1690841656843863300,11.49286328125,-0.00404480891302228,-0.0014807175612077117,-0.021104486659169197
1690841656853903400,11.5029033203125,-0.0065508438274264336,-0.00583658367395401,-0.021192902699112892
1690841656863974400,11.512974365234374,-0.004574511665850878,-0.0008602010202594101,-0.01920165680348873
1690841656874014500,11.523014404296875,-0.004235757514834404,-0.002058889716863632,-0.019708456471562386
1690841656884054500,11.533054443359376,-0.0057042245753109455,-0.0007323693134821951,-0.01924719847738743
1690841656894095400,11.543095458984375,-0.003965446725487709,-0.0013558153295889497,-0.020836573094129562
1690841656904135200,11.55313525390625,-0.003050118451938033,-0.002659965306520462,-0.023001722991466522
1690841656914175200,11.56317529296875,-0.004287423100322485,0.0003890878288075328,-0.01992630399763584
1690841656924216300,11.57321630859375,-0.005976399872452021,-0.0010538127971813083,-0.01943175494670868
1690841656934256400,11.58325634765625,-0.005341768264770508,-0.0019262643763795495,-0.02020833268761635
1690841656944296400,11.59329638671875,-0.0041153826750814915,-0.001499359728768468,-0.02135961689054966
1690841656954336500,11.60333642578125,-0.004426706116646528,-0.002831472782418132,-0.022045115008950233
1690841656964377300,11.61337744140625,-0.0054357778280973434,-0.0031499869655817747,-0.02124030701816082
1690841656974417200,11.623417236328125,-0.003961185924708843,-0.002668487373739481,-0.01992896758019924
1690841656984457200,11.633457275390626,-0.005548429675400257,-0.004481833893805742,-0.02040194347500801
1690841656994498300,11.643498291015625,-0.003748931922018528,-0.0010841728653758764,-0.020354008302092552
1690841657004568300,11.653568359375,-0.0033598439767956734,-0.0021283982787281275,-0.019954266026616096
1690841657014609400,11.663609375,-0.004489290527999401,-0.0019539613276720047,-0.021879732608795166
1690841657024649500,11.6736494140625,-0.005302620120346546,-0.0015169365797191858,-0.020608605816960335
1690841657034689500,11.683689453125,-0.003832288784906268,-0.0034589136485010386,-0.020250942558050156
1690841657044729300,11.693729248046875,-0.004547880031168461,0.00011611382069531828,-0.018870094791054726
