time,seconds_elapsed,z,y,x
1690840328062959000,0.029958984375,-0.9753570556640625,0.052825927734375,0.001190185546875
1690840328072968200,0.03996826171875,-0.9766845703125,0.0478668212890625,-0.000732421875
1690840328082978300,0.049978271484375,-0.9772186279296875,0.0420379638671875,-0.0012664794921875
1690840328093018400,0.060018310546875,-0.97802734375,0.036834716796875,0.0014495849609375
1690840328103059200,0.07005908203125,-0.9801788330078125,0.03106689453125,0.0045318603515625
1690840328113099300,0.080099365234375,-0.9821319580078125,0.0247955322265625,0.0055084228515625
1690840328123170300,0.09017041015625,-0.98309326171875,0.0187835693359375,0.0070343017578125
1690840328133210000,0.100210205078125,-0.98297119140625,0.0147857666015625,0.007232666015625
1690840328143250200,0.110250244140625,-0.9832305908203125,0.01080322265625,0.005157470703125
1690840328153291300,0.120291259765625,-0.9833831787109375,0.0077056884765625,0.0035400390625
1690840328163331300,0.130331298828125,-0.983001708984375,0.0077056884765625,0.0009002685546875
1690840328173371400,0.140371337890625,-0.981109619140625,0.0096435546875,-0.000152587890625
1690840328183412200,0.150412109375,-0.9811859130859375,0.0117034912109375,0
1690840328193452300,0.160452392578125,-0.98052978515625,0.0157318115234375,0.000701904296875
1690840328203492400,0.170492431640625,-0.9791717529296875,0.0198516845703125,0.002899169921875
1690840328213532200,0.1805322265625,-0.97821044921875,0.0244140625,0.0051422119140625
1690840328223573200,0.1905732421875,-0.9766082763671875,0.0291900634765625,0.006134033203125
1690840328233613300,0.20061328125,-0.9756622314453125,0.034942626953125,0.0057525634765625
1690840328243653400,0.2106533203125,-0.97369384765625,0.038909912109375,0.0059661865234375
1690840328253694200,0.220694091796875,-0.9714508056640625,0.0418701171875,0.005096435546875
1690840328263764500,0.230764404296875,-0.9725189208984375,0.044647216796875,0.00372314453125
1690840328273805300,0.240805419921875,-0.970672607421875,0.0455169677734375,0.0021514892578125
1690840328283845000,0.25084521484375,-0.9699859619140625,0.046234130859375,0.00152587890625
1690840328293885200,0.26088525390625,-0.96978759765625,0.046142578125,0.00128173828125
1690840328303925200,0.27092529296875,-0.9701385498046875,0.0449676513671875,0.001678466796875
1690840328313966300,0.28096630859375,-0.97247314453125,0.0426788330078125,0.003173828125
1690840328324006400,0.29100634765625,-0.9750518798828125,0.038726806640625,0.0033111572265625
1690840328334046500,0.30104638671875,-0.975982666015625,0.03448486328125,0.0037841796875
1690840328344087300,0.31108740234375,-0.9771270751953125,0.0308990478515625,0.005523681640625
1690840328354127000,0.321127197265625,-0.9789276123046875,0.0272369384765625,0.0050201416015625
1690840328364167200,0.331167236328125,-0.980010986328125,0.0243682861328125,0.0047760009765625
1690840328374181600,0.341181640625,-0.980194091796875,0.0211181640625,0.00396728515625
1690840328384222500,0.351222412109375,-0.980224609375,0.0186614990234375,0.00335693359375
1690840328394262500,0.361262451171875,-0.9806671142578125,0.0177764892578125,0.001708984375
1690840328404302600,0.371302490234375,-0.9811248779296875,0.0174713134765625,0.0016326904296875
1690840328414373600,0.38137353515625,-0.9803314208984375,0.0187835693359375,0.002532958984375
1690840328424413700,0.39141357421875,-0.9814910888671875,0.019866943359375,0.0030975341796875
1690840328434454800,0.401454833984375,-0.980682373046875,0.0214996337890625,0.0036163330078125
1690840328444494600,0.41149462890625,-0.9791717529296875,0.024810791015625,0.00445556640625
1690840328454534700,0.42153466796875,-0.97894287109375,0.0276336669921875,0.0040130615234375
1690840328464575500,0.431575439453125,-0.977386474609375,0.0304718017578125,0.0040130615234375
1690840328474615600,0.441615478515625,-0.976409912109375,0.033355712890625,0.00445556640625
1690840328484655600,0.451655517578125,-0.9761962890625,0.0363006591796875,0.0045928955078125
1690840328494695700,0.46169580078125,-0.9755706787109375,0.03802490234375,0.0024566650390625
1690840328504736800,0.47173681640625,-0.974609375,0.038970947265625,0.0019989013671875
1690840328514776600,0.481776611328125,-0.9750823974609375,0.039398193359375,0.0026702880859375
1690840328524816600,0.491816650390625,-0.9743194580078125,0.0398101806640625,0.00311279296875
1690840328534856400,0.5018564453125,-0.9750823974609375,0.0395050048828125,0.0026092529296875
1690840328544897500,0.5118974609375,-0.9743499755859375,0.0372161865234375,0.003570556640625
1690840328554968600,0.521968505859375,-0.976043701171875,0.035125732421875,0.00360107421875
1690840328565008600,0.532008544921875,-0.9763336181640625,0.0339202880859375,0.003082275390625
1690840328575048700,0.542048583984375,-0.977630615234375,0.0315399169921875,0.0042877197265625
1690840328585088500,0.552088623046875,-0.97930908203125,0.0292816162109375,0.00433349609375
1690840328595129600,0.562129638671875,-0.9793548583984375,0.0272216796875,0.0037841796875
1690840328605169400,0.57216943359375,-0.980499267578125,0.0251617431640625,0.0044403076171875
1690840328615209500,0.58220947265625,-0.9807891845703125,0.0242767333984375,0.0032501220703125
1690840328625250600,0.59225048828125,-0.9802398681640625,0.0238494873046875,0.00360107421875
1690840328635290600,0.60229052734375,-0.9801025390625,0.0229949951171875,0.003173828125
1690840328645330700,0.61233056640625,-0.980133056640625,0.0229644775390625,0.0025482177734375
1690840328655370500,0.62237060546875,-0.98095703125,0.0231170654296875,0.0035247802734375
1690840328665411600,0.63241162109375,-0.97998046875,0.0254364013671875,0.0033111572265625
1690840328675451400,0.642451416015625,-0.9795074462890625,0.0272979736328125,0.0045928955078125
1690840328685491500,0.652491455078125,-0.97857666015625,0.0289154052734375,0.00457763671875
1690840328695532500,0.662532470703125,-0.9777069091796875,0.03076171875,0.0036773681640625
1690840328705602600,0.6726025390625,-0.977630615234375,0.0326080322265625,0.0033721923828125
1690840328715643600,0.6826435546875,-0.9776763916015625,0.0340576171875,0.0035552978515625
1690840328725683700,0.69268359375,-0.976959228515625,0.0352783203125,0.00335693359375
1690840328735723500,0.7027236328125,-0.9770050048828125,0.0353851318359375,0.0039520263671875
1690840328745763600,0.712763671875,-0.976806640625,0.03533935546875,0.0034637451171875
1690840328755804400,0.722804443359375,-0.9761962890625,0.0359649658203125,0.0038604736328125
1690840328765844500,0.732844482421875,-0.976715087890625,0.0348968505859375,0.003204345703125
1690840328775884500,0.742884521484375,-0.9763031005859375,0.0336151123046875,0.0035552978515625
1690840328785925600,0.752925537109375,-0.9766693115234375,0.03155517578125,0.003387451171875
1690840328795965700,0.762965576171875,-0.9781494140625,0.031463623046875,0.0025634765625
1690840328806005500,0.773005615234375,-0.9779510498046875,0.030242919921875,0.00311279296875
1690840328816045600,0.783045654296875,-0.97869873046875,0.029022216796875,0.003143310546875
1690840328826086400,0.79308642578125,-0.9797821044921875,0.028411865234375,0.00311279296875
1690840328836126500,0.80312646484375,-0.980377197265625,0.0269317626953125,0.00341796875
1690840328846197500,0.813197509765625,-0.9802703857421875,0.0268096923828125,0.0030364990234375
1690840328856237600,0.823237548828125,-0.979583740234375,0.0258331298828125,0.0029144287109375
1690840328866277600,0.833277587890625,-0.9802398681640625,0.0255889892578125,0.0028228759765625
1690840328876318700,0.843318603515625,-0.9803619384765625,0.0272674560546875,0.0030059814453125
1690840328886358500,0.853358642578125,-0.9795074462890625,0.0277862548828125,0.0032958984375
1690840328896398600,0.863398681640625,-0.979095458984375,0.0283203125,0.0031280517578125
1690840328906439400,0.873439453125,-0.9788360595703125,0.029083251953125,0.0033416748046875
1690840328916479500,0.8834794921875,-0.978851318359375,0.0303955078125,0.003448486328125
1690840328926519600,0.89351953125,-0.9776153564453125,0.031463623046875,0.0037078857421875
1690840328936559600,0.9035595703125,-0.977569580078125,0.0328369140625,0.0037384033203125
1690840328946600700,0.9136005859375,-0.978240966796875,0.0330810546875,0.0035858154296875
1690840328956640500,0.923640625,-0.9779510498046875,0.0328521728515625,0.0029296875
1690840328966680600,0.9336806640625,-0.977386474609375,0.0336761474609375,0.0031585693359375
1690840328976721400,0.943721435546875,-0.9779815673828125,0.0334320068359375,0.002960205078125
1690840328986761500,0.953761474609375,-0.9782257080078125,0.033447265625,0.0032501220703125
1690840328996832500,0.96383251953125,-0.9786529541015625,0.0336456298828125,0.0046539306640625
1690840329006872600,0.97387255859375,-0.9782257080078125,0.03240966796875,0.00433349609375
1690840329016912400,0.983912353515625,-0.9793243408203125,0.0309600830078125,0.0033416748046875
1690840329026952400,0.993952392578125,-0.9789581298828125,0.030670166015625,0.0033111572265625
1690840329036993500,1.00399365234375,-0.9788970947265625,0.0298004150390625,0.003082275390625
1690840329047033600,1.01403369140625,-0.97998046875,0.0290679931640625,0.003265380859375
1690840329057073700,1.02407373046875,-0.979827880859375,0.028839111328125,0.00372314453125
1690840329067114500,1.034114501953125,-0.9801483154296875,0.0276947021484375,0.003631591796875
1690840329077154600,1.044154541015625,-0.979736328125,0.027923583984375,0.00372314453125
1690840329087194600,1.054194580078125,-0.9791412353515625,0.02813720703125,0.0039215087890625
1690840329097234400,1.064234375,-0.9793853759765625,0.027862548828125,0.003997802734375
1690840329107275500,1.074275634765625,-0.9795379638671875,0.028839111328125,0.00311279296875
1690840329117315600,1.084315673828125,-0.9792022705078125,0.0288848876953125,0.0034942626953125
1690840329127355600,1.094355712890625,-0.98016357421875,0.029327392578125,0.00408935546875
1690840329137426700,1.1044267578125,-0.9781341552734375,0.031005859375,0.003753662109375
1690840329147466800,1.114466796875,-0.9788970947265625,0.0308685302734375,0.003387451171875
1690840329157507600,1.124507568359375,-0.9780731201171875,0.0308380126953125,0.0034332275390625
1690840329167547400,1.13454736328125,-0.9784088134765625,0.0314178466796875,0.0039215087890625
1690840329177587500,1.14458740234375,-0.9787139892578125,0.03155517578125,0.0031890869140625
1690840329187627500,1.15462744140625,-0.9794769287109375,0.0318450927734375,0.0028228759765625
1690840329197668600,1.164668701171875,-0.979644775390625,0.03173828125,0.0037841796875
1690840329207708700,1.174708740234375,-0.9790191650390625,0.0312652587890625,0.0039520263671875
1690840329217748700,1.184748779296875,-0.9793701171875,0.030975341796875,0.004150390625
1690840329227789600,1.19478955078125,-0.979644775390625,0.031036376953125,0.003326416015625
1690840329237829600,1.20482958984375,-0.98016357421875,0.0307464599609375,0.0024566650390625
1690840329247869400,1.214869384765625,-0.9795379638671875,0.0301055908203125,0.0040130615234375
1690840329257909500,1.224909423828125,-0.9792633056640625,0.029754638671875,0.0035400390625
1690840329267950600,1.23495068359375,-0.9810943603515625,0.0300140380859375,0.0023193359375
1690840329277990700,1.24499072265625,-0.9806976318359375,0.028839111328125,0.0025634765625
1690840329288061700,1.255061767578125,-0.980377197265625,0.0290069580078125,0.003265380859375
1690840329298101800,1.265101806640625,-0.9809112548828125,0.029266357421875,0.00341796875
1690840329308141600,1.2751416015625,-0.98114013671875,0.02813720703125,0.0037689208984375
1690840329318182400,1.285182373046875,-0.9803009033203125,0.029296875,0.003692626953125
1690840329328222500,1.295222412109375,-0.980072021484375,0.030029296875,0.0033111572265625
1690840329338262500,1.305262451171875,-0.9800567626953125,0.0295562744140625,0.0035858154296875
1690840329348303600,1.3153037109375,-0.9808197021484375,0.0304412841796875,0.0033111572265625
1690840329358343700,1.32534375,-0.9801483154296875,0.0308380126953125,0.00274658203125
1690840329368383700,1.3353837890625,-0.97991943359375,0.0314788818359375,0.003265380859375
1690840329378412800,1.345412841796875,-0.97900390625,0.03125,0.00384521484375
1690840329388453600,1.35545361328125,-0.9797210693359375,0.0306396484375,0.003448486328125
1690840329398493700,1.36549365234375,-0.97998046875,0.0307769775390625,0.0032958984375
1690840329408533500,1.375533447265625,-0.9797515869140625,0.03094482421875,0.00274658203125
1690840329418574600,1.38557470703125,-0.979339599609375,0.031036376953125,0.0025634765625
1690840329428644600,1.39564453125,-0.979736328125,0.0306549072265625,0.00341796875
1690840329438685700,1.405685791015625,-0.9800262451171875,0.030364990234375,0.0029296875
1690840329448725800,1.415725830078125,-0.979278564453125,0.0311737060546875,0.003143310546875
1690840329458765800,1.425765869140625,-0.980316162109375,0.0307769775390625,0.0040130615234375
1690840329468805600,1.4358056640625,-0.979339599609375,0.0300445556640625,0.003021240234375
1690840329478846500,1.445846435546875,-0.9797821044921875,0.029296875,0.0035247802734375
1690840329488886500,1.455886474609375,-0.98004150390625,0.0300445556640625,0.0034332275390625
1690840329498926600,1.465926513671875,-0.980926513671875,0.0297393798828125,0.0031585693359375
1690840329508967700,1.4759677734375,-0.980682373046875,0.0293121337890625,0.0024566650390625
1690840329519007700,1.4860078125,-0.980712890625,0.029327392578125,0.0029449462890625
1690840329529047800,1.4960478515625,-0.9806060791015625,0.029754638671875,0.00335693359375
1690840329539088000,1.506087890625,-0.980133056640625,0.0293731689453125,0.0026397705078125
1690840329549128700,1.516128662109375,-0.9795989990234375,0.0296630859375,0.002410888671875
1690840329559168500,1.52616845703125,-0.980072021484375,0.030029296875,0.003204345703125
1690840329569208600,1.53620849609375,-0.9802398681640625,0.0297393798828125,0.0032958984375
1690840329579279600,1.546279541015625,-0.979888916015625,0.029937744140625,0.0041656494140625
1690840329589319700,1.556319580078125,-0.9787445068359375,0.0306854248046875,0.0039215087890625
1690840329599360800,1.56636083984375,-0.978973388671875,0.030914306640625,0.0037994384765625
1690840329609400800,1.57640087890625,-0.98004150390625,0.0307769775390625,0.0031890869140625
1690840329619440600,1.586440673828125,-0.9800262451171875,0.0313262939453125,0.0031585693359375
1690840329629481500,1.5964814453125,-0.977203369140625,0.0311431884765625,0.0023345947265625
1690840329639521500,1.606521484375,-0.9811248779296875,0.03125,0.0030975341796875
1690840329649561600,1.6165615234375,-0.9796142578125,0.0296783447265625,0.00286865234375
1690840329659601700,1.6266015625,-0.979156494140625,0.03009033203125,0.0041351318359375
1690840329669642800,1.636642822265625,-0.9800567626953125,0.0303497314453125,0.0035400390625
1690840329679682800,1.646682861328125,-0.979461669921875,0.029510498046875,0.0036163330078125
1690840329689723000,1.656722900390625,-0.9805145263671875,0.0296630859375,0.003326416015625
1690840329699762700,1.6667626953125,-0.9818572998046875,0.030242919921875,0.0036773681640625
1690840329709803500,1.676803466796875,-0.9791259765625,0.0298309326171875,0.0034332275390625
1690840329719874600,1.68687451171875,-0.9808807373046875,0.0293731689453125,0.003204345703125
1690840329729914600,1.69691455078125,-0.979583740234375,0.0289459228515625,0.00421142578125
1690840329739954700,1.70695458984375,-0.98089599609375,0.0292816162109375,0.004058837890625
1690840329749994800,1.716994873046875,-0.980255126953125,0.03021240234375,0.00323486328125
1690840329760035800,1.727035888671875,-0.981903076171875,0.0295257568359375,0.0030670166015625
1690840329770075600,1.73707568359375,-0.9785919189453125,0.02984619140625,0.002777099609375
1690840329780115700,1.74711572265625,-0.981109619140625,0.0300445556640625,0.003082275390625
1690840329790156500,1.757156494140625,-0.9781951904296875,0.029449462890625,0.003509521484375
1690840329800196600,1.767196533203125,-0.980499267578125,0.0299072265625,0.00323486328125
1690840329810236700,1.777236572265625,-0.9810028076171875,0.0298919677734375,0.003204345703125
1690840329820276700,1.78727685546875,-0.9804229736328125,0.0297698974609375,0.003631591796875
1690840329830317800,1.79731787109375,-0.9809112548828125,0.030029296875,0.003448486328125
1690840329840357600,1.807357666015625,-0.9798583984375,0.0303955078125,0.0033416748046875
1690840329850397700,1.817397705078125,-0.979827880859375,0.0305938720703125,0.0027008056640625
1690840329860438500,1.8274384765625,-0.980316162109375,0.0298309326171875,0.00213623046875
1690840329870508500,1.837508544921875,-0.9803619384765625,0.02923583984375,0.0026397705078125
1690840329880549600,1.847549560546875,-0.979522705078125,0.029632568359375,0.0035552978515625
1690840329890589700,1.857589599609375,-0.9805145263671875,0.0298919677734375,0.0039215087890625
1690840329900629800,1.867629638671875,-0.98065185546875,0.0306243896484375,0.0039215087890625
1690840329910669600,1.877669677734375,-0.9818878173828125,0.030364990234375,0.002593994140625
1690840329920710700,1.887710693359375,-0.9810028076171875,0.0298004150390625,0.0028533935546875
1690840329930750700,1.897750732421875,-0.979156494140625,0.02978515625,0.002685546875
1690840329940790500,1.90779052734375,-0.9811859130859375,0.0301971435546875,0.0026702880859375
1690840329950831600,1.91783154296875,-0.980072021484375,0.030853271484375,0.003143310546875
1690840329960871700,1.92787158203125,-0.981109619140625,0.03045654296875,0.003448486328125
1690840329970911700,1.937911865234375,-0.9801177978515625,0.0302276611328125,0.0031280517578125
1690840329980951600,1.94795166015625,-0.9805145263671875,0.0302734375,0.003875732421875
1690840329990992600,1.95799267578125,-0.9806060791015625,0.02972412109375,0.0027313232421875
1690840330001032700,1.96803271484375,-0.9805908203125,0.0294036865234375,0.0034942626953125
1690840330011103700,1.978103759765625,-0.980194091796875,0.02972412109375,0.0040740966796875
1690840330021143600,1.9881435546875,-0.981109619140625,0.029998779296875,0.0033111572265625
1690840330031183600,1.99818359375,-0.9797821044921875,0.0298919677734375,0.0035400390625
1690840330041224700,2.008224609375,-0.9797210693359375,0.0302734375,0.003143310546875
1690840330051264800,2.0182646484375,-0.98065185546875,0.0308074951171875,0.003509521484375
1690840330061304600,2.0283046875,-0.9798126220703125,0.0299224853515625,0.00347900390625
1690840330071345700,2.038345703125,-0.9805755615234375,0.030303955078125,0.0023040771484375
1690840330081385700,2.0483857421875,-0.981781005859375,0.03045654296875,0.0029144287109375
1690840330091425500,2.058425537109375,-0.980865478515625,0.0304718017578125,0.0030517578125
1690840330101465600,2.068465576171875,-0.98040771484375,0.0301666259765625,0.003326416015625
1690840330111506700,2.078506591796875,-0.978546142578125,0.030853271484375,0.0029144287109375
1690840330121546800,2.088546630859375,-0.981292724609375,0.03021240234375,0.0028228759765625
1690840330131586600,2.098586669921875,-0.9801483154296875,0.02935791015625,0.002197265625
1690840330141626600,2.108626708984375,-0.980987548828125,0.0295562744140625,0.003021240234375
1690840330151667700,2.118667724609375,-0.9790191650390625,0.029296875,0.0045013427734375
1690840330161738800,2.12873876953125,-0.9822235107421875,0.0300750732421875,0.005218505859375
1690840330171778600,2.138778564453125,-0.9769744873046875,0.029876708984375,0.0048370361328125
1690840330181818600,2.148818603515625,-0.981353759765625,0.0300140380859375,0.0051116943359375
1690840330191858700,2.158858642578125,-0.982177734375,0.02978515625,0.004608154296875
1690840330201899800,2.168899658203125,-0.9791717529296875,0.0295562744140625,0.002227783203125
1690840330211939600,2.178939697265625,-0.98333740234375,0.0299530029296875,0.0012664794921875
1690840330221979600,2.188979736328125,-0.9781494140625,0.0300445556640625,0.000396728515625
1690840330232020700,2.199020751953125,-0.982330322265625,0.0297698974609375,0.0002288818359375
1690840330242060500,2.209060546875,-0.9778289794921875,0.029632568359375,0.00048828125
1690840330252100600,2.2191005859375,-0.98223876953125,0.0309295654296875,0.0024871826171875
1690840330262140700,2.229140625,-0.978240966796875,0.0302886962890625,0.004241943359375
1690840330272181800,2.239181640625,-0.9815826416015625,0.02996826171875,0.0057220458984375
1690840330282221600,2.2492216796875,-0.97918701171875,0.0300445556640625,0.0063629150390625
1690840330292261600,2.25926171875,-0.9798736572265625,0.0298919677734375,0.0067291259765625
1690840330302332700,2.269332763671875,-0.98394775390625,0.0304107666015625,0.00555419921875
1690840330312372700,2.279372802734375,-0.979522705078125,0.029998779296875,0.0038604736328125
1690840330322413600,2.28941357421875,-0.9789886474609375,0.0299072265625,0.00164794921875
1690840330332453600,2.29945361328125,-0.9824981689453125,0.030670166015625,-0.00030517578125
1690840330342493700,2.30949365234375,-0.9770660400390625,0.030029296875,-0.000335693359375
1690840330352533500,2.319533447265625,-0.98724365234375,0.03076171875,0.00164794921875
1690840330362574600,2.32957470703125,-0.97589111328125,0.030426025390625,0.00189208984375
1690840330372614700,2.33961474609375,-0.9823760986328125,0.0303955078125,0.003173828125
1690840330382644500,2.34964453125,-0.9814605712890625,0.029937744140625,0.005859375
1690840330392685300,2.359685302734375,-0.9795379638671875,0.02972412109375,0.0063629150390625
1690840330402725400,2.369725341796875,-0.983062744140625,0.03070068359375,0.006256103515625
1690840330412765400,2.379765380859375,-0.9793701171875,0.0298919677734375,0.0038909912109375
1690840330422805500,2.389805419921875,-0.98284912109375,0.030242919921875,0.0035247802734375
1690840330432846600,2.3998466796875,-0.9784698486328125,0.02984619140625,0.0020904541015625
1690840330442917400,2.40991748046875,-0.982666015625,0.03033447265625,0.000457763671875
1690840330452957400,2.41995751953125,-0.977935791015625,0.0301971435546875,0.00128173828125
1690840330462997500,2.42999755859375,-0.98236083984375,0.031005859375,0.002716064453125
1690840330473037600,2.44003759765625,-0.97955322265625,0.0303955078125,0.0034027099609375
1690840330483078400,2.450078369140625,-0.9833831787109375,0.0303802490234375,0.00439453125
1690840330493118500,2.460118408203125,-0.9806671142578125,0.0308380126953125,0.0049285888671875
1690840330503158500,2.470158447265625,-0.979736328125,0.0294647216796875,0.0048065185546875
1690840330513199600,2.48019970703125,-0.980743408203125,0.0299072265625,0.004791259765625
1690840330523239400,2.490239501953125,-0.9798736572265625,0.0296173095703125,0.0040283203125
1690840330533279500,2.500279541015625,-0.981048583984375,0.029876708984375,0.0033721923828125
1690840330543319600,2.510319580078125,-0.9808349609375,0.0297698974609375,0.0029296875
1690840330553360400,2.5203603515625,-0.98187255859375,0.02923583984375,0.0027008056640625
1690840330563400400,2.530400390625,-0.980377197265625,0.0302886962890625,0.0022125244140625
1690840330573440500,2.5404404296875,-0.98211669921875,0.030670166015625,0.0027313232421875
1690840330583481600,2.550481689453125,-0.9806365966796875,0.0303192138671875,0.003265380859375
1690840330593551400,2.56055126953125,-0.9818572998046875,0.030242919921875,0.00347900390625
1690840330603592400,2.570592529296875,-0.981475830078125,0.0303192138671875,0.0033416748046875
1690840330613632500,2.580632568359375,-0.9800262451171875,0.03033447265625,0.0032501220703125
1690840330623672600,2.590672607421875,-0.9817962646484375,0.0303497314453125,0.0042877197265625
1690840330633712600,2.600712646484375,-0.9801025390625,0.02960205078125,0.003692626953125
1690840330643753500,2.61075341796875,-0.981170654296875,0.0299224853515625,0.003814697265625
1690840330653793300,2.620793212890625,-0.980682373046875,0.0306243896484375,0.00390625
1690840330663833300,2.630833251953125,-0.9805450439453125,0.0305633544921875,0.00469970703125
1690840330673874400,2.64087451171875,-0.982025146484375,0.02996826171875,0.0040130615234375
1690840330683914500,2.65091455078125,-0.9825897216796875,0.030181884765625,0.00347900390625
1690840330693954600,2.66095458984375,-0.980743408203125,0.0301666259765625,0.0036468505859375
1690840330703994600,2.67099462890625,-0.9813079833984375,0.0290679931640625,0.0029754638671875
1690840330714035500,2.681035400390625,-0.980712890625,0.02935791015625,0.0022735595703125
1690840330724075500,2.691075439453125,-0.980621337890625,0.029937744140625,0.0021514892578125
1690840330734146300,2.701146240234375,-0.9811553955078125,0.02935791015625,0.00311279296875
1690840330744186400,2.711186279296875,-0.97991943359375,0.03033447265625,0.003509521484375
1690840330754226400,2.721226318359375,-0.980865478515625,0.0307769775390625,0.0041656494140625
1690840330764267500,2.731267578125,-0.9813690185546875,0.03045654296875,0.0050506591796875
1690840330774307600,2.7413076171875,-0.9812774658203125,0.030242919921875,0.004791259765625
1690840330784347600,2.75134765625,-0.98199462890625,0.02996826171875,0.00469970703125
1690840330794387500,2.761387451171875,-0.980987548828125,0.02984619140625,0.0035552978515625
1690840330804428300,2.77142822265625,-0.9801788330078125,0.030029296875,0.002227783203125
1690840330814468400,2.78146826171875,-0.9813232421875,0.030364990234375,0.0019683837890625
1690840330824508400,2.79150830078125,-0.980743408203125,0.029632568359375,0.0023040771484375
1690840330834549500,2.801549560546875,-0.9814453125,0.0298309326171875,0.00244140625
1690840330844589600,2.811589599609375,-0.9821624755859375,0.029937744140625,0.00396728515625
1690840330854629600,2.821629638671875,-0.981536865234375,0.02984619140625,0.004425048828125
1690840330864669400,2.83166943359375,-0.981353759765625,0.030548095703125,0.0051727294921875
1690840330874710500,2.84171044921875,-0.9807281494140625,0.03033447265625,0.0043487548828125
1690840330884781300,2.85178125,-0.9818115234375,0.0298614501953125,0.004058837890625
1690840330894821400,2.8618212890625,-0.9813995361328125,0.030548095703125,0.004058837890625
1690840330904861400,2.871861328125,-0.9811859130859375,0.0298919677734375,0.0034942626953125
1690840330914901500,2.881901611328125,-0.981689453125,0.0298309326171875,0.0031280517578125
1690840330924942600,2.891942626953125,-0.9810333251953125,0.0301055908203125,0.0026397705078125
1690840330934982700,2.901982666015625,-0.98046875,0.0294647216796875,0.0021514892578125
1690840330945022500,2.9120224609375,-0.9814453125,0.0298004150390625,0.001983642578125
1690840330955063300,2.922063232421875,-0.9808197021484375,0.0296783447265625,0.0031890869140625
1690840330965103400,2.932103271484375,-0.9809417724609375,0.0296478271484375,0.003326416015625
1690840330975143400,2.942143310546875,-0.9810333251953125,0.03021240234375,0.0037078857421875
1690840330985183500,2.95218359375,-0.98126220703125,0.0301513671875,0.00421142578125
1690840330995224600,2.962224609375,-0.98126220703125,0.030364990234375,0.0037384033203125
1690840331005264600,2.9722646484375,-0.9813232421875,0.030426025390625,0.0038299560546875
1690840331015304400,2.982304443359375,-0.982025146484375,0.0298919677734375,0.0039520263671875
1690840331025375500,2.99237548828125,-0.9819793701171875,0.0305938720703125,0.00360107421875
1690840331035415300,3.002415283203125,-0.9815216064453125,0.030120849609375,0.00299072265625
1690840331045456400,3.012456298828125,-0.98040771484375,0.029510498046875,0.00299072265625
1690840331055496400,3.022496337890625,-0.9810333251953125,0.0298614501953125,0.003173828125
1690840331065536500,3.03253662109375,-0.9813079833984375,0.030029296875,0.003997802734375
1690840331075576600,3.04257666015625,-0.98236083984375,0.0301971435546875,0.0033721923828125
1690840331085617700,3.05261767578125,-0.9806060791015625,0.0301666259765625,0.0042877197265625
1690840331095657500,3.062657470703125,-0.9807281494140625,0.0301055908203125,0.00482177734375
1690840331105697300,3.072697265625,-0.9808502197265625,0.030426025390625,0.0035552978515625
1690840331115738400,3.08273828125,-0.9812164306640625,0.03045654296875,0.0034332275390625
1690840331125778400,3.0927783203125,-0.98052978515625,0.02978515625,0.003936767578125
1690840331135818500,3.102818603515625,-0.98199462890625,0.030181884765625,0.003265380859375
1690840331145858600,3.112858642578125,-0.9816436767578125,0.029998779296875,0.003814697265625
1690840331155899600,3.122899658203125,-0.9818572998046875,0.0303497314453125,0.0036773681640625
1690840331165939500,3.132939453125,-0.9810943603515625,0.0302276611328125,0.003021240234375
1690840331176010500,3.143010498046875,-0.981292724609375,0.0301055908203125,0.0031585693359375
1690840331186050300,3.15305029296875,-0.9811553955078125,0.0302276611328125,0.003173828125
1690840331196090400,3.16309033203125,-0.98095703125,0.0298309326171875,0.0030059814453125
1690840331206131500,3.17313134765625,-0.9814300537109375,0.0300445556640625,0.0041046142578125
1690840331216171500,3.183171630859375,-0.980499267578125,0.0299530029296875,0.004669189453125
1690840331226211600,3.193211669921875,-0.9810028076171875,0.03076171875,0.003265380859375
1690840331236252700,3.203252685546875,-0.9811553955078125,0.02972412109375,0.00323486328125
1690840331246292500,3.21329248046875,-0.9812774658203125,0.029449462890625,0.003082275390625
1690840331256332300,3.223332275390625,-0.9810791015625,0.0301513671875,0.0029449462890625
1690840331266372400,3.233372314453125,-0.98101806640625,0.03033447265625,0.00347900390625
1690840331276413400,3.243413330078125,-0.9808502197265625,0.0307159423828125,0.0033111572265625
1690840331286453500,3.25345361328125,-0.9811553955078125,0.03045654296875,0.003997802734375
1690840331296493600,3.26349365234375,-0.981048583984375,0.0302276611328125,0.0037841796875
1690840331306533400,3.273533447265625,-0.9803619384765625,0.0305938720703125,0.002777099609375
1690840331316604400,3.2836044921875,-0.981536865234375,0.030548095703125,0.0042266845703125
1690840331326645200,3.293645263671875,-0.9813079833984375,0.0303192138671875,0.0038909912109375
1690840331336685300,3.303685302734375,-0.9808502197265625,0.030517578125,0.00311279296875
1690840331346725400,3.313725341796875,-0.98101806640625,0.02996826171875,0.003265380859375
1690840331356765400,3.323765380859375,-0.9809417724609375,0.0299835205078125,0.003204345703125
1690840331366806500,3.333806640625,-0.980621337890625,0.0306854248046875,0.003662109375
1690840331376846000,3.34384619140625,-0.9808807373046875,0.0303955078125,0.00360107421875
1690840331386886100,3.35388623046875,-0.981414794921875,0.0306243896484375,0.0042572021484375
1690840331396927200,3.36392724609375,-0.981170654296875,0.0299835205078125,0.0037384033203125
1690840331406967000,3.373967041015625,-0.9817047119140625,0.029876708984375,0.0037078857421875
1690840331417007000,3.384007080078125,-0.9810333251953125,0.02935791015625,0.003021240234375
1690840331427047200,3.394047119140625,-0.9814300537109375,0.0299530029296875,0.0030975341796875
1690840331437088300,3.404088134765625,-0.9815826416015625,0.02996826171875,0.0029449462890625
1690840331447128000,3.414128173828125,-0.9814453125,0.0299530029296875,0.0038604736328125
1690840331457168100,3.424168212890625,-0.9809722900390625,0.0297393798828125,0.0027313232421875
1690840331467239200,3.4342392578125,-0.9814300537109375,0.030487060546875,0.002777099609375
1690840331477279200,3.444279296875,-0.98126220703125,0.0301361083984375,0.003509521484375
1690840331487320000,3.454320068359375,-0.9810333251953125,0.0299224853515625,0.003204345703125
1690840331497360100,3.464360107421875,-0.9815216064453125,0.0304718017578125,0.003021240234375
1690840331507400200,3.474400146484375,-0.9812164306640625,0.0296630859375,0.00360107421875
1690840331517440000,3.48443994140625,-0.980377197265625,0.0305023193359375,0.00360107421875
1690840331527481000,3.494481201171875,-0.9815521240234375,0.03009033203125,0.0033111572265625
1690840331537521200,3.504521240234375,-0.981109619140625,0.0303802490234375,0.002105712890625
1690840331547561200,3.514561279296875,-0.980926513671875,0.0300750732421875,0.002960205078125
1690840331557602000,3.52460205078125,-0.9810791015625,0.0305633544921875,0.0035247802734375
1690840331567642000,3.53464208984375,-0.9810028076171875,0.0302886962890625,0.0035552978515625
1690840331577682200,3.54468212890625,-0.9808807373046875,0.0299530029296875,0.0030364990234375
1690840331587722000,3.554721923828125,-0.981201171875,0.0304718017578125,0.002838134765625
1690840331597763000,3.56476318359375,-0.981781005859375,0.030426025390625,0.0037841796875
1690840331607834000,3.574834228515625,-0.9817352294921875,0.030548095703125,0.0040283203125
1690840331617874200,3.584874267578125,-0.980804443359375,0.0310211181640625,0.003875732421875
1690840331627914200,3.594914306640625,-0.980987548828125,0.0310516357421875,0.003265380859375
1690840331637954300,3.604954345703125,-0.981292724609375,0.0305938720703125,0.003173828125
1690840331647995100,3.6149951171875,-0.9813079833984375,0.03021240234375,0.0031890869140625
1690840331658035200,3.62503515625,-0.9809417724609375,0.0296630859375,0.002899169921875
1690840331668075000,3.635074951171875,-0.9810791015625,0.030181884765625,0.0027008056640625
1690840331678116000,3.6451162109375,-0.9817657470703125,0.0296173095703125,0.0030670166015625
1690840331688156200,3.65515625,-0.9808349609375,0.029510498046875,0.0034942626953125
1690840331698196200,3.6651962890625,-0.98101806640625,0.0298919677734375,0.0033111572265625
1690840331708236300,3.675236328125,-0.9817352294921875,0.0306243896484375,0.0030975341796875
1690840331718277000,3.685277099609375,-0.9815521240234375,0.0305328369140625,0.0035858154296875
1690840331728317200,3.695317138671875,-0.9805908203125,0.0301513671875,0.00372314453125
1690840331738357000,3.70535693359375,-0.9816131591796875,0.0305633544921875,0.0027313232421875
1690840331748428000,3.715427978515625,-0.9811248779296875,0.0306549072265625,0.0031890869140625
1690840331758468000,3.725468017578125,-0.9812774658203125,0.02960205078125,0.00335693359375
1690840331768509200,3.73550927734375,-0.98199462890625,0.030120849609375,0.00335693359375
1690840331778549200,3.74554931640625,-0.9806365966796875,0.03045654296875,0.00390625
1690840331788589300,3.75558935546875,-0.98089599609375,0.0303955078125,0.0029296875
1690840331798629000,3.765629150390625,-0.9821624755859375,0.03021240234375,0.0029144287109375
1690840331808670000,3.775669921875,-0.980499267578125,0.03094482421875,0.0030975341796875
1690840331818710000,3.7857099609375,-0.981475830078125,0.0298004150390625,0.003509521484375
1690840331828750000,3.79575,-0.9815216064453125,0.0307159423828125,0.0037689208984375
1690840331838791200,3.805791259765625,-0.98101806640625,0.030487060546875,0.0041351318359375
1690840331848831200,3.815831298828125,-0.98150634765625,0.0304107666015625,0.002655029296875
1690840331858871300,3.825871337890625,-0.981048583984375,0.029998779296875,0.002716064453125
1690840331868911400,3.835911376953125,-0.98126220703125,0.02984619140625,0.002716064453125
1690840331878952200,3.8459521484375,-0.9808502197265625,0.0302734375,0.002197265625
1690840331888992000,3.855991943359375,-0.9804840087890625,0.0307769775390625,0.0029296875
1690840331899063000,3.86606298828125,-0.98101806640625,0.030517578125,0.0023651123046875
1690840331909103000,3.87610302734375,-0.9807891845703125,0.030120849609375,0.002777099609375
1690840331919143200,3.88614306640625,-0.9814605712890625,0.0301666259765625,0.0028839111328125
1690840331929184300,3.896184326171875,-0.9809112548828125,0.029449462890625,0.0035400390625
1690840331939224300,3.906224365234375,-0.9801177978515625,0.0296173095703125,0.003021240234375
1690840331949264100,3.91626416015625,-0.980743408203125,0.0301513671875,0.003570556640625
1690840331959304200,3.92630419921875,-0.9807281494140625,0.0303497314453125,0.0031585693359375
1690840331969345000,3.936344970703125,-0.9806060791015625,0.0301361083984375,0.0027923583984375
1690840331979385000,3.946385009765625,-0.9815521240234375,0.0301971435546875,0.0022430419921875
1690840331989425200,3.956425048828125,-0.9809722900390625,0.0293731689453125,0.00335693359375
1690840331999466200,3.96646630859375,-0.9810028076171875,0.0303192138671875,0.002685546875
1690840332009506300,3.97650634765625,-0.980743408203125,0.03033447265625,0.003509521484375
1690840332019546400,3.98654638671875,-0.9816131591796875,0.0291595458984375,0.003570556640625
1690840332029586200,3.996586181640625,-0.980560302734375,0.0303802490234375,0.0032196044921875
1690840332039657200,4.0066572265625,-0.980743408203125,0.0306549072265625,0.003387451171875
1690840332049698000,4.016697998046875,-0.9810638427734375,0.0305938720703125,0.0031585693359375
1690840332059738000,4.026738037109375,-0.980712890625,0.03076171875,0.003387451171875
1690840332069778200,4.036778076171875,-0.98101806640625,0.0299224853515625,0.003021240234375
1690840332079818200,4.046818359375,-0.9804534912109375,0.03057861328125,0.0030364990234375
1690840332089859300,4.056859375,-0.981048583984375,0.0302581787109375,0.0032196044921875
1690840332099899100,4.066899169921875,-0.9817047119140625,0.02996826171875,0.0030975341796875
1690840332109939200,4.076939208984375,-0.9814605712890625,0.0298614501953125,0.003265380859375
1690840332119980000,4.08697998046875,-0.98095703125,0.0306396484375,0.0032196044921875
1690840332130020000,4.09702001953125,-0.9808197021484375,0.0304718017578125,0.0030517578125
1690840332140060200,4.10706005859375,-0.980133056640625,0.03057861328125,0.003936767578125
1690840332150100200,4.117100341796875,-0.9816131591796875,0.0299835205078125,0.0034942626953125
1690840332160141300,4.127141357421875,-0.981353759765625,0.0297698974609375,0.003936767578125
1690840332170181400,4.137181396484375,-0.9806365966796875,0.030303955078125,0.0036468505859375
1690840332180221200,4.14722119140625,-0.9807586669921875,0.0297698974609375,0.0032196044921875
1690840332190292200,4.157292236328125,-0.9794464111328125,0.0305938720703125,0.0030364990234375
1690840332200332300,4.167332275390625,-0.98052978515625,0.0297698974609375,0.003173828125
1690840332210373000,4.177373046875,-0.980621337890625,0.0297088623046875,0.003753662109375
1690840332220413200,4.1874130859375,-0.982147216796875,0.0303955078125,0.0038604736328125
1690840332230453200,4.197453369140625,-0.981536865234375,0.0309295654296875,0.003509521484375
1690840332240493000,4.2074931640625,-0.98162841796875,0.029510498046875,0.0034942626953125
1690840332250534100,4.2175341796875,-0.9821014404296875,0.0297088623046875,0.0031585693359375
1690840332260574200,4.22757421875,-0.9806976318359375,0.030242919921875,0.0032501220703125
1690840332270614300,4.2376142578125,-0.9813690185546875,0.0306243896484375,0.00335693359375
1690840332280655000,4.247655029296875,-0.9815521240234375,0.0298004150390625,0.003570556640625
1690840332290695200,4.257695068359375,-0.9813690185546875,0.0306854248046875,0.003082275390625
1690840332300735200,4.2677353515625,-0.98175048828125,0.03070068359375,0.0033416748046875
1690840332310775000,4.277775146484375,-0.98095703125,0.03045654296875,0.0037994384765625
1690840332320816400,4.28781640625,-0.9809417724609375,0.0301513671875,0.0042877197265625
1690840332330887200,4.29788720703125,-0.981109619140625,0.03021240234375,0.0034942626953125
1690840332340927200,4.30792724609375,-0.981658935546875,0.0305328369140625,0.0039825439453125
1690840332350967300,4.31796728515625,-0.981170654296875,0.0298919677734375,0.00341796875
1690840332361007000,4.328007080078125,-0.981414794921875,0.0301666259765625,0.0032806396484375
1690840332371048200,4.338048095703125,-0.9805145263671875,0.0304412841796875,0.002716064453125
1690840332381090000,4.348090087890625,-0.98162841796875,0.0296783447265625,0.0029449462890625
1690840332391129900,4.3581298828125,-0.98114013671875,0.02947998046875,0.0032806396484375
1690840332401171000,4.3681708984375,-0.98065185546875,0.02996826171875,0.003204345703125
1690840332411211000,4.3782109375,-0.980377197265625,0.030792236328125,0.0031280517578125
1690840332421250800,4.388250732421875,-0.981048583984375,0.030487060546875,0.0027008056640625
1690840332431291000,4.398290771484375,-0.9820098876953125,0.0297088623046875,0.003814697265625
1690840332441332000,4.40833203125,-0.98101806640625,0.030364990234375,0.003204345703125
1690840332451372000,4.4183720703125,-0.9807891845703125,0.0304412841796875,0.003387451171875
1690840332461411800,4.428411865234375,-0.9810333251953125,0.0297393798828125,0.003204345703125
1690840332471483000,4.43848291015625,-0.9815673828125,0.0298919677734375,0.0037689208984375
1690840332481522700,4.448522705078125,-0.980712890625,0.030242919921875,0.00347900390625
1690840332491563800,4.458563720703125,-0.981201171875,0.0297698974609375,0.00262451171875
1690840332501603800,4.468603759765625,-0.98065185546875,0.0298004150390625,0.002716064453125
1690840332511644000,4.478643798828125,-0.9816741943359375,0.030517578125,0.0030059814453125
1690840332521684000,4.48868408203125,-0.9814453125,0.0305938720703125,0.002166748046875
1690840332531725000,4.49872509765625,-0.98138427734375,0.0286865234375,0.0033111572265625
1690840332541764900,4.508764892578125,-0.9816131591796875,0.029754638671875,0.0048980712890625
1690840332551805000,4.518804931640625,-0.981201171875,0.03070068359375,0.003173828125
1690840332561846000,4.528845947265625,-0.981353759765625,0.030364990234375,0.002593994140625
1690840332571885800,4.5388857421875,-0.9818878173828125,0.0302276611328125,0.002838134765625
1690840332581926000,4.54892578125,-0.981414794921875,0.02978515625,0.0029449462890625
1690840332591966000,4.558966064453125,-0.98077392578125,0.0298614501953125,0.0032806396484375
1690840332602007000,4.569007080078125,-0.9805755615234375,0.0301055908203125,0.0023651123046875
1690840332612046800,4.579046875,-0.980743408203125,0.0304412841796875,0.0033416748046875
1690840332622118000,4.589117919921875,-0.9808197021484375,0.0305938720703125,0.0040130615234375
1690840332632157700,4.59915771484375,-0.9818267822265625,0.030487060546875,0.003570556640625
1690840332642197800,4.60919775390625,-0.9820709228515625,0.030731201171875,0.0030670166015625
1690840332652238800,4.61923876953125,-0.9817657470703125,0.0307769775390625,0.0034637451171875
1690840332662279000,4.62927880859375,-0.9823455810546875,0.030242919921875,0.003082275390625
1690840332672319000,4.639319091796875,-0.9816131591796875,0.0311126708984375,0.0028228759765625
1690840332682359000,4.649359130859375,-0.980926513671875,0.0309295654296875,0.0027618408203125
1690840332692399900,4.65939990234375,-0.9814910888671875,0.03045654296875,0.002685546875
1690840332702440000,4.66943994140625,-0.9808349609375,0.030517578125,0.0029144287109375
1690840332712479700,4.679479736328125,-0.9798126220703125,0.0294189453125,0.0039215087890625
1690840332722520800,4.689520751953125,-0.98114013671875,0.03033447265625,0.003875732421875
1690840332732561000,4.699560791015625,-0.98095703125,0.0298614501953125,0.0036468505859375
1690840332742601000,4.70960107421875,-0.9810028076171875,0.029876708984375,0.0037078857421875
1690840332752641000,4.71964111328125,-0.9813690185546875,0.0299224853515625,0.0033111572265625
1690840332762712000,4.729712158203125,-0.9655609130859375,0.0260009765625,-0.0024566650390625
1690840332772753000,4.7397529296875,-0.99725341796875,-0.007110595703125,-0.0149993896484375
1690840332782792700,4.749792724609375,-1.0169677734375,0.05615234375,0.083282470703125
1690840332792832800,4.759832763671875,-0.960906982421875,0.019073486328125,-0.0362091064453125
1690840332802872800,4.769872802734375,-0.984466552734375,0.026611328125,0.000640869140625
1690840332812914000,4.779913818359375,-0.9721221923828125,0.044708251953125,-0.0182952880859375
1690840332822954000,4.7899541015625,-0.9735565185546875,0.051483154296875,-0.00787353515625
1690840332832994000,4.799994140625,-0.971405029296875,0.0420989990234375,-0.0027313232421875
1690840332843035000,4.810034912109375,-0.978057861328125,0.040496826171875,0.0047454833984375
1690840332853075000,4.820074951171875,-0.9825286865234375,0.0383453369140625,0.0115509033203125
1690840332863114800,4.83011474609375,-0.982818603515625,0.0355987548828125,0.0156097412109375
1690840332873154800,4.84015478515625,-0.9847412109375,0.032470703125,0.016693115234375
1690840332883196000,4.85019580078125,-0.9838104248046875,0.0290374755859375,0.0112762451171875
1690840332893236000,4.860236083984375,-0.986175537109375,0.0266571044921875,0.0045013427734375
1690840332903276000,4.870276123046875,-0.97625732421875,0.0237274169921875,-0.0027923583984375
1690840332913347000,4.88034716796875,-0.9826507568359375,0.0247650146484375,-0.0059661865234375
1690840332923387000,4.890386962890625,-0.9814605712890625,0.024078369140625,-0.0072174072265625
1690840332933427700,4.900427734375,-0.9805755615234375,0.0235443115234375,-0.0032806396484375
1690840332943467800,4.9104677734375,-0.983642578125,0.0238189697265625,0.0014190673828125
1690840332953507800,4.9205078125,-0.9864654541015625,0.0248565673828125,0.007293701171875
1690840332963548000,4.9305478515625,-0.9851531982421875,0.0259857177734375,0.010223388671875
1690840332973589000,4.940589111328125,-0.984649658203125,0.0273590087890625,0.0104522705078125
1690840332983629000,4.950629150390625,-0.983734130859375,0.02886962890625,0.00830078125
1690840332993668900,4.9606689453125,-0.982177734375,0.030792236328125,0.005523681640625
1690840333003709700,4.970709716796875,-0.9786834716796875,0.03277587890625,0.000579833984375
1690840333013749800,4.980749755859375,-0.97723388671875,0.0338134765625,-0.0017547607421875
1690840333023789800,4.990789794921875,-0.9799041748046875,0.03497314453125,-0.001129150390625
1690840333033830000,5.000829833984375,-0.9771728515625,0.0370025634765625,0.0006256103515625
1690840333043871000,5.01087109375,-0.977813720703125,0.03680419921875,0.002227783203125
1690840333053941000,5.02094091796875,-0.9817962646484375,0.03680419921875,0.0048675537109375
1690840333063982000,5.030982177734375,-0.9792327880859375,0.0363616943359375,0.0070037841796875
1690840333074022000,5.04102197265625,-0.980926513671875,0.0351409912109375,0.0076446533203125
1690840333084062000,5.05106201171875,-0.98211669921875,0.033447265625,0.006622314453125
1690840333094102800,5.061102783203125,-0.981201171875,0.03173828125,0.0054931640625
1690840333104142800,5.071142822265625,-0.9812469482421875,0.031158447265625,0.0033111572265625
1690840333114183000,5.081182861328125,-0.980621337890625,0.029876708984375,0.0013885498046875
1690840333124223000,5.091222900390625,-0.9804229736328125,0.028045654296875,0.0009918212890625
1690840333134264000,5.10126416015625,-0.9817962646484375,0.02703857421875,0.0013275146484375
1690840333144303900,5.111303955078125,-0.9811859130859375,0.026214599609375,0.0030364990234375
1690840333154344000,5.121343994140625,-0.983978271484375,0.0257568359375,0.0044403076171875
1690840333164384800,5.131384765625,-0.9835357666015625,0.0263671875,0.0052032470703125
1690840333174424800,5.1414248046875,-0.9825439453125,0.02716064453125,0.0046844482421875
1690840333184465000,5.15146484375,-0.98419189453125,0.0279541015625,0.0044708251953125
1690840333194505000,5.1615048828125,-0.9812774658203125,0.02740478515625,0.0048675537109375
1690840333204576000,5.171575927734375,-0.9796905517578125,0.0285186767578125,0.00244140625
1690840333214617000,5.1816171875,-0.9808502197265625,0.029998779296875,0.00213623046875
1690840333224657000,5.191656982421875,-0.97955322265625,0.0323486328125,0.0026702880859375
1690840333234697000,5.201697021484375,-0.98040771484375,0.0323028564453125,0.002777099609375
1690840333244737000,5.211737060546875,-0.980926513671875,0.0335845947265625,0.003662109375
1690840333254777900,5.22177783203125,-0.97906494140625,0.0339508056640625,0.004241943359375
1690840333264818000,5.23181787109375,-0.979278564453125,0.0343170166015625,0.0043487548828125
1690840333274858000,5.24185791015625,-0.9802398681640625,0.034515380859375,0.0049591064453125
1690840333284899000,5.251899169921875,-0.9813690185546875,0.0339813232421875,0.0046234130859375
1690840333294939000,5.26193896484375,-0.9807586669921875,0.033203125,0.004638671875
1690840333304979000,5.27197900390625,-0.9800872802734375,0.032806396484375,0.0034942626953125
1690840333315019000,5.28201904296875,-0.98150634765625,0.031494140625,0.0022125244140625
1690840333325059800,5.292059814453125,-0.9815216064453125,0.031219482421875,0.0025634765625
1690840333335100000,5.302099853515625,-0.981201171875,0.029388427734375,0.003570556640625
1690840333345171000,5.3121708984375,-0.982421875,0.028594970703125,0.0038604736328125
1690840333355211000,5.3222109375,-0.981719970703125,0.029296875,0.0035247802734375
1690840333365250800,5.332250732421875,-0.9820556640625,0.0289306640625,0.0045166015625
1690840333375292000,5.3422919921875,-0.9822235107421875,0.0280303955078125,0.004486083984375
1690840333385317600,5.352317626953125,-0.9818572998046875,0.0285491943359375,0.0036468505859375
1690840333395357700,5.362357666015625,-0.9818572998046875,0.02935791015625,0.0034332275390625
1690840333405397500,5.3723974609375,-0.9810333251953125,0.0287933349609375,0.0026397705078125
1690840333415438600,5.3824384765625,-0.980804443359375,0.0295257568359375,0.00311279296875
1690840333425478400,5.392478515625,-0.9825897216796875,0.0301513671875,0.00341796875
1690840333435518500,5.4025185546875,-0.980804443359375,0.03045654296875,0.00244140625
1690840333445559600,5.4125595703125,-0.98077392578125,0.0311737060546875,0.0037841796875
1690840333455599600,5.422599609375,-0.9803619384765625,0.032440185546875,0.0045928955078125
1690840333465639700,5.4326396484375,-0.98016357421875,0.0319671630859375,0.004119873046875
1690840333475679700,5.4426796875,-0.9804840087890625,0.032470703125,0.0041351318359375
1690840333485750500,5.45275048828125,-0.9800872802734375,0.032501220703125,0.004150390625
1690840333495791400,5.462791259765625,-0.98077392578125,0.0329742431640625,0.0040283203125
1690840333505831400,5.47283154296875,-0.9808807373046875,0.0321502685546875,0.003570556640625
1690840333515871500,5.48287158203125,-0.979736328125,0.0312957763671875,0.0032958984375
1690840333525911600,5.49291162109375,-0.9816131591796875,0.0318145751953125,0.0031585693359375
1690840333535952600,5.50295263671875,-0.981719970703125,0.031707763671875,0.00421142578125
1690840333545992700,5.51299267578125,-0.9812469482421875,0.0305633544921875,0.0029754638671875
1690840333556032500,5.523032470703125,-0.9821929931640625,0.029937744140625,0.00335693359375
1690840333566072600,5.533072509765625,-0.98138427734375,0.0298919677734375,0.003753662109375
1690840333576113400,5.543113525390625,-0.981414794921875,0.029510498046875,0.00384521484375
1690840333586153500,5.553153564453125,-0.9825897216796875,0.02935791015625,0.0031585693359375
1690840333596193500,5.563193603515625,-0.98138427734375,0.030059814453125,0.00341796875
1690840333606234600,5.573234619140625,-0.9817657470703125,0.0289154052734375,0.003021240234375
1690840333616274700,5.583274658203125,-0.981475830078125,0.02947998046875,0.003387451171875
1690840333626314800,5.593314697265625,-0.980438232421875,0.030303955078125,0.003570556640625
1690840333636385500,5.603385498046875,-0.981658935546875,0.03045654296875,0.003875732421875
1690840333646425600,5.613425537109375,-0.98095703125,0.0314178466796875,0.0031890869140625
1690840333656466400,5.623466552734375,-0.9796905517578125,0.0312347412109375,0.0034027099609375
1690840333666506500,5.633506591796875,-0.981231689453125,0.0308990478515625,0.004638671875
1690840333676546600,5.643546630859375,-0.9815826416015625,0.0317840576171875,0.0042724609375
1690840333686586600,5.653586669921875,-0.9811553955078125,0.0312042236328125,0.0035400390625
1690840333696627700,5.663627685546875,-0.980987548828125,0.03192138671875,0.0036163330078125
1690840333706667500,5.67366748046875,-0.981201171875,0.0324554443359375,0.00408935546875
1690840333716707600,5.68370751953125,-0.9816741943359375,0.0305023193359375,0.003875732421875
1690840333726748400,5.69374853515625,-0.9803466796875,0.0311431884765625,0.0031585693359375
1690840333736788500,5.70378857421875,-0.981292724609375,0.0321502685546875,0.002960205078125
1690840333746828500,5.71382861328125,-0.9812774658203125,0.031402587890625,0.0030364990234375
1690840333756868600,5.72386865234375,-0.98187255859375,0.030731201171875,0.002838134765625
1690840333766909700,5.73390966796875,-0.982635498046875,0.0311431884765625,0.0031585693359375
1690840333776979500,5.7439794921875,-0.9818572998046875,0.030242919921875,0.0037384033203125
1690840333787020500,5.7540205078125,-0.9820709228515625,0.0302276611328125,0.00372314453125
1690840333797060600,5.764060546875,-0.9813232421875,0.029998779296875,0.00372314453125
1690840333807100400,5.774100341796875,-0.9804229736328125,0.0302886962890625,0.0033721923828125
1690840333817141500,5.7841416015625,-0.9818267822265625,0.0297698974609375,0.00311279296875
1690840333827181600,5.794181640625,-0.98193359375,0.030426025390625,0.0030059814453125
1690840333837221600,5.8042216796875,-0.9815673828125,0.0308990478515625,0.0030975341796875
1690840333847261400,5.814261474609375,-0.9824066162109375,0.030029296875,0.003814697265625
1690840333857302500,5.824302490234375,-0.9817047119140625,0.030364990234375,0.0030364990234375
1690840333867342600,5.834342529296875,-0.982025146484375,0.03094482421875,0.0036163330078125
1690840333877382400,5.84438232421875,-0.9813690185546875,0.030517578125,0.0035552978515625
1690840333887423500,5.854423583984375,-0.980255126953125,0.0311431884765625,0.003662109375
1690840333897463600,5.864463623046875,-0.980438232421875,0.0320281982421875,0.0038604736328125
1690840333907503600,5.874503662109375,-0.980438232421875,0.031494140625,0.0038909912109375
1690840333917543700,5.884543701171875,-0.9823150634765625,0.0318756103515625,0.0041351318359375
1690840333927614500,5.894614501953125,-0.982025146484375,0.0318450927734375,0.0038299560546875
1690840333937655600,5.904655517578125,-0.9816131591796875,0.030609130859375,0.0032958984375
1690840333947695600,5.914695556640625,-0.981597900390625,0.031097412109375,0.00372314453125
1690840333957735400,5.9247353515625,-0.97998046875,0.0306854248046875,0.003387451171875
1690840333967775500,5.934775390625,-0.9806976318359375,0.030670166015625,0.002777099609375
1690840333977816600,5.944816650390625,-0.981048583984375,0.0302276611328125,0.004486083984375
1690840333987856600,5.954856689453125,-0.980743408203125,0.0295562744140625,0.003753662109375
1690840333997896400,5.964896484375,-0.981781005859375,0.02960205078125,0.0037689208984375
1690840334007937500,5.9749375,-0.982330322265625,0.02978515625,0.003997802734375
1690840334017977600,5.9849775390625,-0.9814910888671875,0.0299530029296875,0.0035552978515625
1690840334028017400,5.995017333984375,-0.981689453125,0.030059814453125,0.0039825439453125
1690840334038057500,6.005057373046875,-0.9809722900390625,0.030609130859375,0.0037689208984375
1690840334048098600,6.0150986328125,-0.982025146484375,0.0305023193359375,0.0033416748046875
1690840334058138600,6.025138671875,-0.982421875,0.0307159423828125,0.0040283203125
1690840334068209700,6.035209716796875,-0.9806976318359375,0.0313720703125,0.00384521484375
1690840334078249500,6.04524951171875,-0.980377197265625,0.0312652587890625,0.003936767578125
1690840334088289500,6.05528955078125,-0.981231689453125,0.030975341796875,0.0039520263671875
1690840334098330600,6.06533056640625,-0.980865478515625,0.0307464599609375,0.0037841796875
1690840334108370400,6.075370361328125,-0.981414794921875,0.03106689453125,0.00390625
1690840334118410500,6.085410400390625,-0.982147216796875,0.0306243896484375,0.0044708251953125
1690840334128450600,6.095450439453125,-0.9805908203125,0.0301361083984375,0.0037384033203125
1690840334138491600,6.10549169921875,-0.980743408203125,0.03106689453125,0.0034942626953125
1690840334148531500,6.115531494140625,-0.9809112548828125,0.0312347412109375,0.00384521484375
1690840334158571500,6.125571533203125,-0.981536865234375,0.0303802490234375,0.0036773681640625
1690840334168612600,6.135612548828125,-0.9816741943359375,0.030792236328125,0.0041046142578125
1690840334178652400,6.14565234375,-0.98175048828125,0.0311737060546875,0.00433349609375
1690840334188692500,6.1556923828125,-0.980712890625,0.030059814453125,0.003631591796875
1690840334198732500,6.165732666015625,-0.9811553955078125,0.029937744140625,0.00421142578125
1690840334208773600,6.175773681640625,-0.98052978515625,0.0305023193359375,0.0030364990234375
1690840334218843400,6.185843505859375,-0.9818878173828125,0.030914306640625,0.00396728515625
1690840334228884500,6.195884521484375,-0.9816436767578125,0.0302734375,0.0035247802734375
1690840334238924500,6.205924560546875,-0.9806976318359375,0.0303955078125,0.0034027099609375
1690840334248964600,6.215964599609375,-0.98126220703125,0.0306549072265625,0.0033416748046875
1690840334259005400,6.22600537109375,-0.98193359375,0.0306396484375,0.003173828125
1690840334269045500,6.23604541015625,-0.9816131591796875,0.030670166015625,0.0027313232421875
1690840334279085600,6.24608544921875,-0.9809722900390625,0.0302276611328125,0.00445556640625
1690840334289125400,6.25612548828125,-0.9806671142578125,0.0303192138671875,0.0040435791015625
1690840334299166500,6.26616650390625,-0.9814300537109375,0.0306396484375,0.002838134765625
1690840334309206500,6.27620654296875,-0.981964111328125,0.030303955078125,0.003143310546875
1690840334319246600,6.28624658203125,-0.980621337890625,0.030853271484375,0.0034027099609375
1690840334329287400,6.296287353515625,-0.9808502197265625,0.03131103515625,0.004364013671875
1690840334339327500,6.306327392578125,-0.9815521240234375,0.03033447265625,0.00384521484375
1690840334349367600,6.316367431640625,-0.9811553955078125,0.02972412109375,0.003387451171875
1690840334359438300,6.326438232421875,-0.9813079833984375,0.0312042236328125,0.0036468505859375
1690840334369478400,6.336478515625,-0.9809112548828125,0.03057861328125,0.00384521484375
1690840334379510000,6.346510009765625,-0.980682373046875,0.030548095703125,0.003173828125
1690840334389549800,6.3565498046875,-0.980438232421875,0.03094482421875,0.00299072265625
1690840334399590000,6.36658984375,-0.9814910888671875,0.0310821533203125,0.0034027099609375
1690840334409629700,6.376629638671875,-0.9804534912109375,0.0311431884765625,0.0035400390625
1690840334419670800,6.3866708984375,-0.980621337890625,0.0304107666015625,0.003814697265625
1690840334429710800,6.3967109375,-0.9816436767578125,0.0304718017578125,0.0041961669921875
1690840334439751000,6.4067509765625,-0.9815673828125,0.0302276611328125,0.0035552978515625
1690840334449792000,6.4167919921875,-0.98193359375,0.0306396484375,0.0028839111328125
1690840334459831800,6.426831787109375,-0.9811553955078125,0.0310821533203125,0.0029449462890625
1690840334469871900,6.436871826171875,-0.981353759765625,0.0305938720703125,0.00347900390625
1690840334479911700,6.44691162109375,-0.9817962646484375,0.0306243896484375,0.0031890869140625
1690840334489952800,6.456952880859375,-0.9813995361328125,0.0311431884765625,0.0030670166015625
1690840334500022800,6.467022705078125,-0.9808197021484375,0.0308380126953125,0.003204345703125
1690840334510063900,6.47706396484375,-0.9805450439453125,0.0313262939453125,0.0032501220703125
1690840334520104000,6.48710400390625,-0.9807891845703125,0.03131103515625,0.0032196044921875
1690840334530143700,6.497143798828125,-0.9806671142578125,0.0306396484375,0.0031280517578125
1690840334540184800,6.507184814453125,-0.981597900390625,0.0305633544921875,0.00299072265625
1690840334550225000,6.517224853515625,-0.9817657470703125,0.0303802490234375,0.0032806396484375
1690840334560264700,6.5272646484375,-0.9805450439453125,0.0312347412109375,0.0034332275390625
1690840334570304800,6.5373046875,-0.982025146484375,0.0308074951171875,0.00323486328125
1690840334580345900,6.547345947265625,-0.982574462890625,0.031280517578125,0.00335693359375
1690840334590386000,6.557385986328125,-0.981597900390625,0.031005859375,0.0034942626953125
1690840334600425700,6.56742578125,-0.9810943603515625,0.030029296875,0.004119873046875
1690840334610466800,6.577466796875,-0.9813385009765625,0.0309906005859375,0.00372314453125
1690840334620507000,6.5875068359375,-0.9814605712890625,0.0316619873046875,0.00323486328125
1690840334630546700,6.597546630859375,-0.981536865234375,0.0309600830078125,0.0036163330078125
1690840334640586800,6.607586669921875,-0.980987548828125,0.029449462890625,0.0041046142578125
1690840334650657800,6.61765771484375,-0.9820098876953125,0.030914306640625,0.0034332275390625
1690840334660699000,6.627698974609375,-0.981903076171875,0.031036376953125,0.00347900390625
1690840334670739000,6.637739013671875,-0.98040771484375,0.03106689453125,0.0036163330078125
1690840334680778800,6.64777880859375,-0.9808349609375,0.0303192138671875,0.0033416748046875
1690840334690818800,6.65781884765625,-0.980804443359375,0.030059814453125,0.004119873046875
1690840334700860000,6.66785986328125,-0.9816131591796875,0.030303955078125,0.0038604736328125
1690840334710899700,6.677899658203125,-0.9819793701171875,0.030120849609375,0.003662109375
1690840334720939800,6.687939697265625,-0.9810943603515625,0.0308074951171875,0.00360107421875
1690840334730979800,6.697979736328125,-0.981597900390625,0.0315093994140625,0.00323486328125
1690840334741021000,6.70802099609375,-0.9814453125,0.0314483642578125,0.0042877197265625
1690840334751060700,6.718060791015625,-0.9806365966796875,0.0305938720703125,0.003814697265625
1690840334761100800,6.728100830078125,-0.98040771484375,0.030853271484375,0.0029296875
1690840334771142000,6.738141845703125,-0.980865478515625,0.0307769775390625,0.0027008056640625
1690840334781181700,6.748181640625,-0.9818115234375,0.031005859375,0.0041046142578125
1690840334791252700,6.758252685546875,-0.9804534912109375,0.0303955078125,0.003936767578125
1690840334801292800,6.768292724609375,-0.9811553955078125,0.030792236328125,0.003326416015625
1690840334811332900,6.778332763671875,-0.9810333251953125,0.0311431884765625,0.0040435791015625
1690840334821374000,6.7883740234375,-0.981109619140625,0.0305328369140625,0.003814697265625
1690840334831413800,6.798413818359375,-0.981475830078125,0.030731201171875,0.00311279296875
1690840334841453800,6.808453857421875,-0.9815673828125,0.0303802490234375,0.0038299560546875
1690840334851494000,6.818493896484375,-0.9818572998046875,0.03057861328125,0.003875732421875
1690840334861534700,6.82853466796875,-0.981781005859375,0.030181884765625,0.0040435791015625
1690840334871574800,6.83857470703125,-0.9809112548828125,0.0308380126953125,0.00421142578125
1690840334881614800,6.84861474609375,-0.9809417724609375,0.03167724609375,0.00323486328125
1690840334891656000,6.858656005859375,-0.9800262451171875,0.0305328369140625,0.0035400390625
1690840334901695700,6.86869580078125,-0.981231689453125,0.03106689453125,0.0039520263671875
1690840334911735800,6.87873583984375,-0.98126220703125,0.030792236328125,0.004119873046875
1690840334921775900,6.88877587890625,-0.9808502197265625,0.03045654296875,0.0035552978515625
1690840334931816700,6.898816650390625,-0.9819488525390625,0.0307769775390625,0.0034332275390625
1690840334941887000,6.908886962890625,-0.9816131591796875,0.03125,0.0035858154296875
1690840334951927800,6.918927734375,-0.9804840087890625,0.0307769775390625,0.0042266845703125
1690840334961967900,6.9289677734375,-0.9811553955078125,0.031402587890625,0.0033416748046875
1690840334972007700,6.939007568359375,-0.981353759765625,0.03118896484375,0.003173828125
1690840334982048800,6.949048828125,-0.9815216064453125,0.031036376953125,0.0032958984375
1690840334992088800,6.9590888671875,-0.981842041015625,0.0306396484375,0.0032958984375
1690840335002129000,6.96912890625,-0.98193359375,0.0313568115234375,0.0037689208984375
1690840335012169000,6.9791689453125,-0.980865478515625,0.0309906005859375,0.003387451171875
1690840335022209800,6.989209716796875,-0.9818115234375,0.0308837890625,0.0027008056640625
1690840335032249900,6.999249755859375,-0.9812164306640625,0.030670166015625,0.00335693359375
1690840335042289700,7.00928955078125,-0.9808197021484375,0.03131103515625,0.00335693359375
1690840335052330800,7.019330810546875,-0.9807891845703125,0.0311431884765625,0.003662109375
1690840335062370800,7.029370849609375,-0.981719970703125,0.030517578125,0.0041656494140625
1690840335072411000,7.039410888671875,-0.9815521240234375,0.0308685302734375,0.0046234130859375
1690840335082482000,7.04948193359375,-0.97979736328125,0.030853271484375,0.0046844482421875
1690840335092522000,7.05952197265625,-0.98126220703125,0.030853271484375,0.00396728515625
1690840335102562800,7.069562744140625,-0.981536865234375,0.03070068359375,0.0039215087890625
1690840335112602600,7.0796025390625,-0.9813995361328125,0.0305633544921875,0.0043182373046875
1690840335122642700,7.089642578125,-0.980712890625,0.0306854248046875,0.0039520263671875
1690840335132682800,7.099682861328125,-0.981170654296875,0.03076171875,0.004119873046875
1690840335142723800,7.109723876953125,-0.9818267822265625,0.031097412109375,0.0027923583984375
1690840335152764000,7.119763916015625,-0.9821624755859375,0.031494140625,0.0037078857421875
1690840335162804000,7.129803955078125,-0.9817962646484375,0.031341552734375,0.0044708251953125
1690840335172844000,7.139843994140625,-0.9816131591796875,0.0309600830078125,0.00360107421875
1690840335182884900,7.149884765625,-0.9810333251953125,0.0312042236328125,0.003021240234375
1690840335192924700,7.159924560546875,-0.9813995361328125,0.031280517578125,0.00299072265625
1690840335202964700,7.16996484375,-0.9820709228515625,0.0309600830078125,0.0040130615234375
1690840335213005800,7.180005859375,-0.9825286865234375,0.03045654296875,0.0039520263671875
1690840335223046000,7.1900458984375,-0.9815216064453125,0.0305023193359375,0.0030517578125
1690840335233117000,7.200116943359375,-0.980712890625,0.0309295654296875,0.003662109375
1690840335243157000,7.210156982421875,-0.9812774658203125,0.0308837890625,0.0032196044921875
1690840335253196800,7.22019677734375,-0.9817352294921875,0.03070068359375,0.0027313232421875
1690840335263237600,7.230237548828125,-0.980987548828125,0.03057861328125,0.0042266845703125
1690840335273277700,7.240277587890625,-0.9808502197265625,0.030914306640625,0.0027313232421875
1690840335283317800,7.25031787109375,-0.9816131591796875,0.0307769775390625,0.0027618408203125
1690840335293357800,7.26035791015625,-0.981170654296875,0.030731201171875,0.00408935546875
1690840335303399000,7.27039892578125,-0.9812469482421875,0.03070068359375,0.00372314453125
1690840335313439000,7.28043896484375,-0.981353759765625,0.0311126708984375,0.00372314453125
1690840335323479000,7.29047900390625,-0.9813232421875,0.0311737060546875,0.0039215087890625
1690840335333520000,7.300519775390625,-0.980926513671875,0.02996826171875,0.00360107421875
1690840335343559700,7.3105595703125,-0.981048583984375,0.0296783447265625,0.0035858154296875
1690840335353599700,7.320599853515625,-0.9815216064453125,0.0309600830078125,0.0038299560546875
1690840335363639800,7.330639892578125,-0.9816741943359375,0.0312347412109375,0.0037994384765625
1690840335373710800,7.3407109375,-0.981353759765625,0.03082275390625,0.003997802734375
1690840335383750000,7.35075,-0.9810333251953125,0.03094482421875,0.0041961669921875
1690840335393791000,7.360791015625,-0.9808349609375,0.03125,0.0037384033203125
1690840335403831000,7.3708310546875,-0.9817962646484375,0.0302581787109375,0.00408935546875
1690840335413871000,7.38087109375,-0.98150634765625,0.0309600830078125,0.0041961669921875
1690840335423912000,7.390911865234375,-0.9812164306640625,0.030426025390625,0.0037841796875
1690840335433952000,7.400951904296875,-0.980194091796875,0.0307769775390625,0.004119873046875
1690840335443992000,7.410991943359375,-0.9811859130859375,0.03118896484375,0.00341796875
1690840335454032000,7.421031982421875,-0.9808807373046875,0.0305938720703125,0.0034942626953125
1690840335464073000,7.431072998046875,-0.981109619140625,0.030059814453125,0.0038299560546875
1690840335474113000,7.441113037109375,-0.980621337890625,0.0311431884765625,0.00335693359375
1690840335484153000,7.451153076171875,-0.9807281494140625,0.0310211181640625,0.00341796875
1690840335494194000,7.46119384765625,-0.981048583984375,0.0311126708984375,0.003021240234375
1690840335504234000,7.47123388671875,-0.9817047119140625,0.030426025390625,0.0030364990234375
1690840335514305000,7.481304931640625,-0.9820709228515625,0.0302734375,0.0024261474609375
1690840335524344800,7.4913447265625,-0.981781005859375,0.030914306640625,0.00360107421875
1690840335534385000,7.501385009765625,-0.980255126953125,0.03057861328125,0.0042572021484375
1690840335544426000,7.511426025390625,-0.98150634765625,0.0303497314453125,0.0038909912109375
1690840335554466000,7.521466064453125,-0.9812774658203125,0.0307769775390625,0.00244140625
1690840335564506000,7.531506103515625,-0.9821929931640625,0.030426025390625,0.0030059814453125
1690840335574546200,7.541546142578125,-0.98114013671875,0.031219482421875,0.0032501220703125
1690840335584587000,7.5515869140625,-0.9808349609375,0.0311279296875,0.003936767578125
1690840335594627000,7.561626953125,-0.9813385009765625,0.030242919921875,0.0035552978515625
1690840335604667000,7.5716669921875,-0.9804534912109375,0.0313720703125,0.0035400390625
1690840335614708000,7.5817080078125,-0.9802703857421875,0.0308380126953125,0.0032958984375
1690840335624748000,7.591748046875,-0.9809112548828125,0.0299835205078125,0.0043792724609375
1690840335634788000,7.6017880859375,-0.9812469482421875,0.0308074951171875,0.004119873046875
1690840335644828200,7.611828125,-0.9816741943359375,0.0309906005859375,0.003570556640625
1690840335654869000,7.621868896484375,-0.9814910888671875,0.0308074951171875,0.00360107421875
1690840335664939000,7.63193896484375,-0.9807281494140625,0.0308685302734375,0.0030670166015625
1690840335674979800,7.641979736328125,-0.9817962646484375,0.030517578125,0.003875732421875
1690840335685020000,7.65202001953125,-0.98126220703125,0.0312652587890625,0.0037841796875
1690840335695060000,7.66206005859375,-0.981048583984375,0.0313568115234375,0.003631591796875
1690840335705101000,7.67210107421875,-0.98126220703125,0.030792236328125,0.00341796875
1690840335715141000,7.68214111328125,-0.9812164306640625,0.03070068359375,0.0035858154296875
1690840335725181200,7.69218115234375,-0.9810333251953125,0.0301666259765625,0.0030975341796875
1690840335735221200,7.70222119140625,-0.9814453125,0.0299072265625,0.003875732421875
1690840335745262000,7.712261962890625,-0.982147216796875,0.0310211181640625,0.004119873046875
1690840335755302000,7.722302001953125,-0.9818878173828125,0.0306549072265625,0.0041046142578125
1690840335765342000,7.732342041015625,-0.9810333251953125,0.031158447265625,0.003814697265625
1690840335775383000,7.742383056640625,-0.981170654296875,0.0307769775390625,0.0031280517578125
1690840335785423000,7.752423095703125,-0.981536865234375,0.030517578125,0.0037689208984375
1690840335795463200,7.762463134765625,-0.98162841796875,0.030975341796875,0.00390625
1690840335805534200,7.7725341796875,-0.9817657470703125,0.0311737060546875,0.0038909912109375
1690840335815574000,7.782573974609375,-0.9803619384765625,0.03045654296875,0.003448486328125
1690840335825614000,7.792614013671875,-0.9815673828125,0.0301361083984375,0.0036468505859375
1690840335835655000,7.802655029296875,-0.9810333251953125,0.0304412841796875,0.0042724609375
1690840335845695000,7.812695068359375,-0.98101806640625,0.030303955078125,0.0037384033203125
1690840335855735000,7.822735107421875,-0.9814910888671875,0.03033447265625,0.00360107421875
1690840335865776000,7.832776123046875,-0.9802703857421875,0.030731201171875,0.003143310546875
1690840335875816200,7.842816162109375,-0.9809417724609375,0.03125,0.0032196044921875
1690840335885856300,7.852856201171875,-0.98150634765625,0.0308074951171875,0.0037689208984375
1690840335895896000,7.86289599609375,-0.9818878173828125,0.030853271484375,0.0044097900390625
1690840335905937000,7.87293701171875,-0.9817962646484375,0.0309906005859375,0.0039215087890625
1690840335915977000,7.88297705078125,-0.9813995361328125,0.031005859375,0.00384521484375
1690840335926017000,7.89301708984375,-0.980682373046875,0.0311126708984375,0.003753662109375
1690840335936058000,7.90305810546875,-0.98138427734375,0.0305938720703125,0.003204345703125
1690840335946098200,7.91309814453125,-0.980316162109375,0.0301055908203125,0.00360107421875
1690840335956169200,7.923169189453125,-0.98065185546875,0.0297393798828125,0.0042266845703125
1690840335966209000,7.933208984375,-0.98089599609375,0.0307769775390625,0.0031890869140625
1690840335976249000,7.9432490234375,-0.980987548828125,0.030975341796875,0.003509521484375
1690840335986290000,7.9532900390625,-0.98138427734375,0.031036376953125,0.00396728515625
1690840335996330000,7.963330078125,-0.98114013671875,0.0304718017578125,0.003814697265625
1690840336006370000,7.9733701171875,-0.98089599609375,0.0306549072265625,0.0035552978515625
1690840336016410000,7.98341015625,-0.98095703125,0.0308380126953125,0.0041351318359375
1690840336026451200,7.993451171875,-0.9810333251953125,0.0304107666015625,0.0037384033203125
1690840336036491000,8.003490966796875,-0.9818267822265625,0.03070068359375,0.003753662109375
1690840336046531000,8.013531005859376,-0.981842041015625,0.0305328369140625,0.0034942626953125
1690840336056572000,8.023572021484375,-0.981201171875,0.0301361083984375,0.0037384033203125
1690840336066612000,8.033612060546876,-0.9811248779296875,0.0301971435546875,0.00360107421875
1690840336076652000,8.043652099609375,-0.9805755615234375,0.0311431884765625,0.0039825439453125
1690840336086692000,8.053692138671876,-0.9806365966796875,0.0297088623046875,0.003631591796875
1690840336096763100,8.06376318359375,-0.981201171875,0.0309600830078125,0.0034332275390625
1690840336106803000,8.073802978515625,-0.9816741943359375,0.03106689453125,0.003326416015625
1690840336116844000,8.083843994140626,-0.980712890625,0.0322113037109375,0.0029449462890625
1690840336126884000,8.093884033203125,-0.98052978515625,0.03118896484375,0.0037841796875
1690840336136924000,8.103923828125,-0.9806671142578125,0.0307464599609375,0.00390625
1690840336146965000,8.113965087890625,-0.9814300537109375,0.030792236328125,0.0045623779296875
1690840336157005000,8.124005126953126,-0.9815826416015625,0.0303192138671875,0.0037689208984375
1690840336167045000,8.134045166015625,-0.9813995361328125,0.03076171875,0.0039520263671875
1690840336177085000,8.1440849609375,-0.9810791015625,0.0303192138671875,0.004150390625
1690840336187126000,8.1541259765625,-0.9814605712890625,0.030426025390625,0.00390625
1690840336197166000,8.164166015625,-0.9820556640625,0.0311737060546875,0.0039825439453125
1690840336207206000,8.174205810546875,-0.98126220703125,0.03118896484375,0.003570556640625
1690840336217247000,8.1842470703125,-0.98193359375,0.0300445556640625,0.0040435791015625
1690840336227287000,8.194287109375,-0.9816436767578125,0.0311737060546875,0.0039520263671875
1690840336237327000,8.2043271484375,-0.9808502197265625,0.0309295654296875,0.0032501220703125
1690840336247398100,8.214398193359376,-0.980621337890625,0.0307769775390625,0.0038604736328125
1690840336257438000,8.22443798828125,-0.9804534912109375,0.0312652587890625,0.0039825439453125
1690840336267479000,8.23447900390625,-0.981292724609375,0.030853271484375,0.003814697265625
1690840336277519000,8.24451904296875,-0.981109619140625,0.030517578125,0.0029754638671875
1690840336287559000,8.254558837890626,-0.9811859130859375,0.031341552734375,0.003265380859375
1690840336297599000,8.264598876953125,-0.981414794921875,0.0309295654296875,0.0021820068359375
1690840336307640000,8.27464013671875,-0.9808197021484375,0.0301666259765625,0.0032806396484375
1690840336317680000,8.28468017578125,-0.980316162109375,0.030609130859375,0.002960205078125
1690840336327720000,8.294719970703126,-0.9814605712890625,0.031097412109375,0.00408935546875
1690840336337760000,8.304760009765625,-0.9817962646484375,0.030853271484375,0.00347900390625
1690840336347801000,8.314801025390626,-0.9809112548828125,0.0303192138671875,0.003265380859375
1690840336357841000,8.3248408203125,-0.9808349609375,0.0301055908203125,0.0033721923828125
1690840336367881000,8.334880859375,-0.9805908203125,0.030303955078125,0.0031890869140625
1690840336377922000,8.344922119140625,-0.9818878173828125,0.029998779296875,0.0028228759765625
1690840336387998500,8.35499853515625,-0.981781005859375,0.0304412841796875,0.00341796875
1690840336398039300,8.365039306640625,-0.981536865234375,0.031097412109375,0.00372314453125
1690840336408079400,8.375079345703124,-0.9806365966796875,0.0307769775390625,0.00335693359375
1690840336418119400,8.385119384765625,-0.9813995361328125,0.031524658203125,0.004241943359375
1690840336428160500,8.395160400390624,-0.9812774658203125,0.03106689453125,0.003662109375
1690840336438200600,8.40520068359375,-0.9814605712890625,0.03009033203125,0.0037384033203125
1690840336448240600,8.41524072265625,-0.980682373046875,0.031219482421875,0.0040740966796875
1690840336458280400,8.425280517578125,-0.980743408203125,0.030853271484375,0.00372314453125
1690840336468321300,8.4353212890625,-0.9811248779296875,0.02978515625,0.00396728515625
1690840336478361300,8.445361328125,-0.981781005859375,0.0308685302734375,0.0040130615234375
1690840336488401400,8.4554013671875,-0.982177734375,0.0305023193359375,0.004241943359375
1690840336498442500,8.4654423828125,-0.9816436767578125,0.031097412109375,0.003448486328125
1690840336508482600,8.475482666015624,-0.9811248779296875,0.0305328369140625,0.0027313232421875
1690840336518522600,8.485522705078125,-0.98187255859375,0.0292510986328125,0.00299072265625
1690840336528562400,8.4955625,-0.9818115234375,0.03118896484375,0.0032196044921875
1690840336538633500,8.505633544921874,-0.9815216064453125,0.0316619873046875,0.0040283203125
1690840336548673300,8.51567333984375,-0.9818115234375,0.0308380126953125,0.0037384033203125
1690840336558714400,8.52571435546875,-0.9812164306640625,0.03082275390625,0.0030517578125
1690840336568754400,8.53575439453125,-0.9808502197265625,0.0320892333984375,0.002777099609375
1690840336578794500,8.54579443359375,-0.9813232421875,0.0309295654296875,0.0036468505859375
1690840336588835600,8.555835693359375,-0.9812774658203125,0.030548095703125,0.003662109375
1690840336598875600,8.565875732421874,-0.9811553955078125,0.0311279296875,0.003204345703125
1690840336608915500,8.57591552734375,-0.980743408203125,0.03082275390625,0.003692626953125
1690840336618955300,8.585955322265624,-0.9813079833984375,0.0308380126953125,0.0042572021484375
1690840336628996400,8.595996337890625,-0.981536865234375,0.030487060546875,0.00323486328125
1690840336639036400,8.606036376953124,-0.9813385009765625,0.030548095703125,0.0032501220703125
1690840336649076500,8.616076416015625,-0.9813079833984375,0.0306243896484375,0.0039825439453125
1690840336659117600,8.62611767578125,-0.9807281494140625,0.0306854248046875,0.004058837890625
1690840336669157600,8.63615771484375,-0.9815521240234375,0.0311431884765625,0.0036773681640625
1690840336679228400,8.646228515625,-0.982391357421875,0.0301361083984375,0.0026702880859375
1690840336689268200,8.656268310546874,-0.98162841796875,0.030303955078125,0.002777099609375
1690840336699308300,8.666308349609375,-0.98138427734375,0.0308074951171875,0.0031585693359375
1690840336709349400,8.676349365234374,-0.98162841796875,0.0314178466796875,0.0033721923828125
1690840336719389400,8.686389404296875,-0.981292724609375,0.0312957763671875,0.003692626953125
1690840336729429500,8.696429443359374,-0.9816436767578125,0.0302276611328125,0.0035552978515625
1690840336739469600,8.706469482421875,-0.980804443359375,0.031005859375,0.00311279296875
1690840336749510400,8.716510498046874,-0.9815826416015625,0.0312957763671875,0.00323486328125
1690840336759550200,8.72655029296875,-0.980865478515625,0.03082275390625,0.0033721923828125
1690840336769590300,8.73659033203125,-0.9810028076171875,0.0313568115234375,0.00335693359375
1690840336779631400,8.74663134765625,-0.981719970703125,0.03106689453125,0.003082275390625
1690840336789671400,8.75667138671875,-0.9821929931640625,0.0309906005859375,0.003021240234375
1690840336799711500,8.76671142578125,-0.9820556640625,0.030548095703125,0.0030364990234375
1690840336809751600,8.77675146484375,-0.9816436767578125,0.030487060546875,0.0044097900390625
1690840336819822300,8.786822265625,-0.9811553955078125,0.0302734375,0.0042266845703125
1690840336829862400,8.7968623046875,-0.98199462890625,0.030242919921875,0.003448486328125
1690840336839903200,8.8069033203125,-0.9817047119140625,0.0300140380859375,0.0035858154296875
1690840336849943300,8.816943359375,-0.9814300537109375,0.030548095703125,0.0033416748046875
1690840336859983400,8.8269833984375,-0.9811859130859375,0.0312347412109375,0.0024261474609375
1690840336870024400,8.8370244140625,-0.9806365966796875,0.031463623046875,0.00341796875
1690840336880064500,8.847064453125,-0.9821319580078125,0.03076171875,0.0040435791015625
1690840336890104300,8.857104248046875,-0.9816741943359375,0.031219482421875,0.003173828125
1690840336900144400,8.867144287109374,-0.981048583984375,0.0305633544921875,0.003997802734375
1690840336910185200,8.877185302734375,-0.9809722900390625,0.0305023193359375,0.0045928955078125
1690840336920225300,8.887225341796874,-0.98077392578125,0.031158447265625,0.00396728515625
1690840336930265300,8.897265380859375,-0.98101806640625,0.03106689453125,0.0033111572265625
1690840336940306400,8.907306396484374,-0.9808502197265625,0.0300140380859375,0.003265380859375
1690840336950346500,8.917346435546875,-0.9812774658203125,0.0308380126953125,0.0039825439453125
1690840336960386600,8.927386474609374,-0.9815521240234375,0.0302581787109375,0.0041656494140625
1690840336970457300,8.937457275390624,-0.9731292724609375,0.03143310546875,0.0030517578125
1690840336980497400,8.947497314453125,-0.9751739501953125,-0.029754638671875,-0.0456390380859375
1690840336990537500,8.957537353515624,-1.0316314697265625,0.06719970703125,0.02569580078125
1690840337000578300,8.967578369140625,-0.9329376220703125,0.01275634765625,0.0164794921875
1690840337010618400,8.977618408203124,-1.00079345703125,0.0609588623046875,0.0356903076171875
1690840337020658400,8.987658447265625,-0.971527099609375,0.0671234130859375,0.0199432373046875
1690840337030699500,8.997699462890624,-0.9827117919921875,0.0458221435546875,0.0126495361328125
1690840337040739300,9.0077392578125,-0.9709930419921875,0.0330352783203125,-0.010009765625
1690840337050779400,9.017779296875,-0.9752655029296875,0.0337677001953125,-0.0248260498046875
1690840337060819500,9.0278193359375,-0.97540283203125,0.030364990234375,-0.0139007568359375
1690840337070860300,9.0378603515625,-0.98199462890625,0.021514892578125,-0.01068115234375
1690840337080900400,9.047900390625,-0.9803619384765625,0.0257110595703125,-0.0027313232421875
1690840337090940400,9.0579404296875,-0.983184814453125,0.0225677490234375,0.006072998046875
1690840337100981500,9.0679814453125,-0.99365234375,0.02374267578125,0.0159454345703125
1690840337111051300,9.07805126953125,-0.9821929931640625,0.0143280029296875,0.0224456787109375
1690840337121092400,9.08809228515625,-0.995697021484375,0.0223388671875,0.0196990966796875
1690840337131132400,9.09813232421875,-0.988525390625,0.0193328857421875,0.0135040283203125
1690840337141172500,9.10817236328125,-0.98193359375,0.02569580078125,0.005706787109375
1690840337151213300,9.11821337890625,-0.980987548828125,0.02569580078125,-0.0028076171875
1690840337161253400,9.12825341796875,-0.9814605712890625,0.0286712646484375,-0.007110595703125
1690840337171293400,9.13829345703125,-0.9751739501953125,0.029144287109375,-0.00860595703125
1690840337181333200,9.148333251953124,-0.978485107421875,0.0312957763671875,-0.0067291259765625
1690840337191374300,9.158374267578125,-0.978302001953125,0.0335235595703125,-0.000091552734375
1690840337201414400,9.168414306640624,-0.98095703125,0.0350799560546875,0.006256103515625
1690840337211454500,9.178454345703125,-0.98095703125,0.03656005859375,0.0112762451171875
1690840337221495300,9.188495361328124,-0.9794158935546875,0.036102294921875,0.013824462890625
1690840337231535400,9.198535400390625,-0.9857940673828125,0.0376434326171875,0.0130615234375
1690840337241575400,9.208575439453124,-0.9765167236328125,0.0384674072265625,0.0090179443359375
1690840337251615500,9.218615478515625,-0.97930908203125,0.0376129150390625,0.0056915283203125
1690840337261686300,9.228686279296875,-0.9808502197265625,0.036376953125,0.001220703125
1690840337271726300,9.238726318359374,-0.97479248046875,0.0346221923828125,-0.0028076171875
1690840337281767400,9.248767333984375,-0.978546142578125,0.033782958984375,-0.003082275390625
1690840337291807500,9.258807373046874,-0.9805145263671875,0.0313262939453125,-0.0012969970703125
1690840337301847600,9.26884765625,-0.98040771484375,0.0296478271484375,0.002044677734375
1690840337311888400,9.278888427734374,-0.9826812744140625,0.0288848876953125,0.005706787109375
1690840337321928400,9.288928466796875,-0.98431396484375,0.0269927978515625,0.0078277587890625
1690840337331968300,9.29896826171875,-0.9844970703125,0.0250701904296875,0.0089263916015625
1690840337342008300,9.30900830078125,-0.9849853515625,0.0255126953125,0.0082550048828125
1690840337352049400,9.31904931640625,-0.9818878173828125,0.0251617431640625,0.006561279296875
1690840337362089500,9.32908935546875,-0.9853363037109375,0.02508544921875,0.0037689208984375
1690840337372129500,9.339129638671874,-0.9810943603515625,0.0260467529296875,0.001739501953125
1690840337382142200,9.34914208984375,-0.9796905517578125,0.0256195068359375,0.0002288818359375
1690840337392182300,9.359182373046876,-0.983795166015625,0.027496337890625,0.0010223388671875
1690840337402253300,9.36925341796875,-0.9808197021484375,0.0290069580078125,0.0019683837890625
1690840337412293400,9.37929345703125,-0.9806671142578125,0.0302886962890625,0.0035400390625
1690840337422333400,9.38933349609375,-0.982757568359375,0.03106689453125,0.0051116943359375
1690840337432374500,9.39937451171875,-0.9805908203125,0.0318145751953125,0.00604248046875
1690840337442414600,9.40941455078125,-0.98101806640625,0.0329437255859375,0.0067138671875
1690840337452454400,9.419454345703125,-0.9808197021484375,0.0340423583984375,0.0059661865234375
1690840337462494500,9.429494384765626,-0.9799957275390625,0.034698486328125,0.0047607421875
1690840337472535300,9.439535400390625,-0.9809722900390625,0.0343170166015625,0.0032501220703125
1690840337482575400,9.449575439453126,-0.9785919189453125,0.0337677001953125,0.003143310546875
1690840337492615400,9.459615478515625,-0.9814300537109375,0.034149169921875,0.002166748046875
1690840337502655500,9.469655517578126,-0.981414794921875,0.032806396484375,0.0028839111328125
1690840337512696600,9.479696533203125,-0.979278564453125,0.0323028564453125,0.0040130615234375
1690840337522736400,9.489736328125,-0.9822540283203125,0.0314483642578125,0.0046539306640625
1690840337532776400,9.4997763671875,-0.9817657470703125,0.0305938720703125,0.0055084228515625
1690840337542817300,9.5098173828125,-0.9813995361328125,0.02947998046875,0.0053253173828125
1690840337552887600,9.519887451171876,-0.9829254150390625,0.0283355712890625,0.0049591064453125
1690840337562928400,9.529928466796875,-0.9823455810546875,0.028106689453125,0.004241943359375
1690840337572968400,9.539968505859376,-0.9818267822265625,0.0283050537109375,0.0032958984375
1690840337583008500,9.550008544921875,-0.9823455810546875,0.0283203125,0.003082275390625
1690840337593049600,9.560049560546876,-0.9816131591796875,0.0272064208984375,0.002593994140625
1690840337603089400,9.57008935546875,-0.982025146484375,0.027679443359375,0.00311279296875
1690840337613129500,9.58012939453125,-0.980865478515625,0.0278778076171875,0.0037078857421875
1690840337623169500,9.59016943359375,-0.9815216064453125,0.029052734375,0.004852294921875
1690840337633210400,9.60021044921875,-0.9820404052734375,0.0287628173828125,0.0046234130859375
1690840337643250400,9.61025048828125,-0.9816741943359375,0.029510498046875,0.0040130615234375
1690840337653290500,9.62029052734375,-0.9825439453125,0.03033447265625,0.0047454833984375
1690840337663331600,9.63033154296875,-0.9812774658203125,0.0309295654296875,0.0047607421875
1690840337673371400,9.640371337890626,-0.9803619384765625,0.0316314697265625,0.0040740966796875
1690840337683411500,9.650411376953125,-0.9805145263671875,0.0319976806640625,0.0038909912109375
1690840337693482500,9.660482421875,-0.9805145263671875,0.0330352783203125,0.00384521484375
1690840337703522600,9.6705224609375,-0.9799041748046875,0.032196044921875,0.00445556640625
1690840337713562400,9.680562255859375,-0.9808502197265625,0.0319366455078125,0.00445556640625
1690840337723603500,9.690603515625,-0.9805908203125,0.0328521728515625,0.0047454833984375
1690840337733643300,9.700643310546875,-0.9815521240234375,0.0324859619140625,0.0044708251953125
1690840337743683300,9.710683349609376,-0.9815826416015625,0.03179931640625,0.004730224609375
1690840337753724400,9.720724365234375,-0.980316162109375,0.031005859375,0.00518798828125
1690840337763764500,9.730764404296876,-0.9815521240234375,0.0311126708984375,0.0048370361328125
1690840337773804500,9.740804443359375,-0.9806671142578125,0.0307159423828125,0.004302978515625
1690840337783844400,9.75084423828125,-0.9806060791015625,0.029205322265625,0.00445556640625
1690840337793885400,9.760885498046875,-0.981201171875,0.0291748046875,0.0037078857421875
1690840337803925500,9.770925537109376,-0.981048583984375,0.02899169921875,0.003692626953125
1690840337813965300,9.78096533203125,-0.9821319580078125,0.0287628173828125,0.003814697265625
1690840337824006400,9.79100634765625,-0.9815673828125,0.028839111328125,0.00439453125
1690840337834046500,9.80104638671875,-0.9812774658203125,0.028717041015625,0.0038299560546875
1690840337844117500,9.811117431640625,-0.9826812744140625,0.02886962890625,0.0043182373046875
1690840337854157600,9.821157470703126,-0.982177734375,0.0290679931640625,0.00445556640625
1690840337864197400,9.831197265625,-0.9814910888671875,0.0297393798828125,0.0041046142578125
1690840337874238500,9.841238525390626,-0.981353759765625,0.0304718017578125,0.004058837890625
1690840337884278300,9.8512783203125,-0.98040771484375,0.0311126708984375,0.0042724609375
1690840337894318300,9.861318359375,-0.9809417724609375,0.0303192138671875,0.00439453125
1690840337904358400,9.8713583984375,-0.9810791015625,0.0306396484375,0.004241943359375
1690840337914399500,9.8813994140625,-0.98138427734375,0.03125,0.0034637451171875
1690840337924439600,9.891439453125,-0.9810638427734375,0.0312347412109375,0.003753662109375
1690840337934479400,9.901479248046876,-0.9806365966796875,0.0318603515625,0.0038604736328125
1690840337944519400,9.91151953125,-0.9798583984375,0.032073974609375,0.003570556640625
1690840337954560500,9.921560546875,-0.9805755615234375,0.031890869140625,0.0044097900390625
1690840337964600300,9.931600341796875,-0.982086181640625,0.031341552734375,0.0048675537109375
1690840337974640400,9.941640380859376,-0.98199462890625,0.0310821533203125,0.004119873046875
1690840337984711400,9.95171142578125,-0.9808502197265625,0.0312042236328125,0.0044708251953125
1690840337994751500,9.96175146484375,-0.981597900390625,0.0309906005859375,0.0038299560546875
1690840338004792600,9.97179248046875,-0.98150634765625,0.0299530029296875,0.0036163330078125
1690840338014832400,9.981832275390625,-0.981048583984375,0.0303497314453125,0.003662109375
1690840338024872200,9.9918720703125,-0.9810791015625,0.0302734375,0.003204345703125
1690840338034913300,10.001913330078125,-0.98199462890625,0.02947998046875,0.0036163330078125
1690840338044953300,10.011953369140626,-0.9808349609375,0.028900146484375,0.0034637451171875
1690840338054993400,10.021993408203125,-0.9810638427734375,0.0291595458984375,0.004150390625
1690840338065033500,10.032033447265626,-0.980926513671875,0.02978515625,0.00531005859375
1690840338075074600,10.042074462890625,-0.9812164306640625,0.0294952392578125,0.0050811767578125
1690840338085114400,10.0521142578125,-0.981964111328125,0.030059814453125,0.004150390625
1690840338095154400,10.062154541015625,-0.9819183349609375,0.02978515625,0.0038299560546875
1690840338105195500,10.072195556640626,-0.9825439453125,0.02984619140625,0.0041351318359375
1690840338115235300,10.0822353515625,-0.9812469482421875,0.0302734375,0.004241943359375
1690840338125306400,10.092306396484375,-0.9810028076171875,0.030181884765625,0.0040130615234375
1690840338135346400,10.102346435546876,-0.9810791015625,0.0307464599609375,0.003875732421875
1690840338145386500,10.112386474609375,-0.9811859130859375,0.031524658203125,0.0043182373046875
1690840338155426600,10.122426513671876,-0.9808502197265625,0.0313873291015625,0.0043182373046875
1690840338165467400,10.13246728515625,-0.9802703857421875,0.0304412841796875,0.0045318603515625
1690840338175507200,10.142507080078126,-0.980560302734375,0.0308380126953125,0.0048065185546875
1690840338185547300,10.15254736328125,-0.981353759765625,0.03125,0.0049285888671875
1690840338195588400,10.16258837890625,-0.9805450439453125,0.03106689453125,0.004486083984375
1690840338205628400,10.17262841796875,-0.9797210693359375,0.031646728515625,0.0038604736328125
1690840338215668500,10.18266845703125,-0.9805755615234375,0.0305328369140625,0.0041961669921875
1690840338225708500,10.19270849609375,-0.9811553955078125,0.0309295654296875,0.0042572021484375
1690840338235749400,10.202749267578126,-0.981201171875,0.0303497314453125,0.0045166015625
1690840338245789400,10.21278955078125,-0.9817047119140625,0.0301361083984375,0.0039520263671875
1690840338255829200,10.222829345703126,-0.9812774658203125,0.0306854248046875,0.004486083984375
1690840338265870300,10.232870361328125,-0.981536865234375,0.0304412841796875,0.003814697265625
1690840338275940400,10.2429404296875,-0.981719970703125,0.0291290283203125,0.004547119140625
1690840338285981400,10.2529814453125,-0.98150634765625,0.0294342041015625,0.0043487548828125
1690840338296021500,10.263021484375,-0.9815673828125,0.0309295654296875,0.0043487548828125
1690840338306061600,10.2730615234375,-0.982025146484375,0.031005859375,0.0048675537109375
1690840338316102400,10.283102294921875,-0.9807586669921875,0.0303497314453125,0.0037994384765625
1690840338326142200,10.29314208984375,-0.9816131591796875,0.0305938720703125,0.0043487548828125
1690840338336182300,10.303182373046875,-0.9818572998046875,0.03094482421875,0.0055999755859375
1690840338346222300,10.313222412109376,-0.9808349609375,0.03131103515625,0.0046539306640625
1690840338356263400,10.323263427734375,-0.98077392578125,0.0308380126953125,0.0047454833984375
1690840338366303500,10.333303466796876,-0.9790802001953125,0.0303955078125,0.0039825439453125
1690840338376343600,10.343343505859375,-0.9814910888671875,0.0307464599609375,0.0045166015625
1690840338386381600,10.353381591796875,-0.98095703125,0.0304718017578125,0.004302978515625
1690840338396421600,10.363421630859374,-0.980499267578125,0.030303955078125,0.004486083984375
1690840338406461700,10.373461669921875,-0.9807281494140625,0.031005859375,0.0044708251953125
1690840338416532700,10.38353271484375,-0.9807891845703125,0.031524658203125,0.004119873046875
1690840338426572800,10.39357275390625,-0.9806671142578125,0.029998779296875,0.0040740966796875
1690840338436612600,10.403612548828125,-0.9805908203125,0.0295867919921875,0.0050201416015625
1690840338446653700,10.41365380859375,-0.9808197021484375,0.0302886962890625,0.0048828125
1690840338456693800,10.42369384765625,-0.9822235107421875,0.03131103515625,0.0047454833984375
1690840338466733600,10.433733642578124,-0.981597900390625,0.031005859375,0.004180908203125
1690840338476774700,10.443774658203125,-0.981719970703125,0.0303802490234375,0.00396728515625
1690840338486814700,10.453814697265624,-0.98193359375,0.0300445556640625,0.0032958984375
1690840338496854800,10.463854736328125,-0.9802703857421875,0.0301055908203125,0.002593994140625
1690840338506894600,10.47389453125,-0.981048583984375,0.030853271484375,0.0035858154296875
1690840338516935700,10.483935791015625,-0.981689453125,0.0301666259765625,0.0044403076171875
1690840338526975700,10.493975830078124,-0.9808502197265625,0.0311126708984375,0.0052032470703125
1690840338537015600,10.504015625,-0.98126220703125,0.03106689453125,0.0053558349609375
1690840338547056600,10.514056640625,-0.9813690185546875,0.0310211181640625,0.005706787109375
1690840338557096700,10.5240966796875,-0.98101806640625,0.030792236328125,0.005767822265625
1690840338567167700,10.534167724609375,-0.9806976318359375,0.0298614501953125,0.0042266845703125
1690840338577207800,10.544207763671874,-0.980560302734375,0.0303192138671875,0.00469970703125
1690840338587247600,10.55424755859375,-0.9798583984375,0.0309295654296875,0.003753662109375
1690840338597287700,10.56428759765625,-0.9803924560546875,0.0307769775390625,0.00311279296875
1690840338607328800,10.574328857421875,-0.98046875,0.030792236328125,0.0028839111328125
1690840338617368600,10.58436865234375,-0.980743408203125,0.03094482421875,0.0027313232421875
1690840338627408600,10.59440869140625,-0.9803466796875,0.0312652587890625,0.00396728515625
1690840338637449700,10.60444970703125,-0.98077392578125,0.03076171875,0.0044403076171875
1690840338647489800,10.61448974609375,-0.981842041015625,0.0301361083984375,0.0052490234375
1690840338657529600,10.624529541015624,-0.9806365966796875,0.030609130859375,0.0050201416015625
1690840338667569700,10.634569580078125,-0.980255126953125,0.0307464599609375,0.00543212890625
1690840338677610800,10.64461083984375,-0.981201171875,0.0309600830078125,0.005096435546875
1690840338687650600,10.654650634765625,-0.9813232421875,0.031036376953125,0.003814697265625
1690840338697690600,10.664690673828124,-0.9811859130859375,0.029510498046875,0.0028533935546875
1690840338707761700,10.67476171875,-0.980255126953125,0.0299530029296875,0.0032196044921875
1690840338717801700,10.6848017578125,-0.980316162109375,0.0302276611328125,0.0029144287109375
1690840338727842800,10.6948427734375,-0.9805450439453125,0.03070068359375,0.0037994384765625
1690840338737882600,10.704882568359375,-0.98077392578125,0.030914306640625,0.004150390625
1690840338747922700,10.714922607421874,-0.980621337890625,0.0307769775390625,0.00518798828125
1690840338757963800,10.7249638671875,-0.9810943603515625,0.0309906005859375,0.0050048828125
1690840338768003600,10.735003662109374,-0.9807891845703125,0.030853271484375,0.0045928955078125
1690840338778043600,10.745043701171875,-0.9808502197265625,0.030731201171875,0.0033721923828125
1690840338788083700,10.755083740234374,-0.9810333251953125,0.0298004150390625,0.003082275390625
1690840338798124800,10.765124755859375,-0.980010986328125,0.029815673828125,0.0031585693359375
1690840338808164600,10.77516455078125,-0.9812469482421875,0.0302581787109375,0.0039825439453125
1690840338818204700,10.78520458984375,-0.9807281494140625,0.0310211181640625,0.0037078857421875
1690840338828245800,10.795245849609374,-0.980224609375,0.03033447265625,0.004150390625
1690840338838285600,10.80528564453125,-0.981201171875,0.0305023193359375,0.004974365234375
1690840338848325600,10.81532568359375,-0.981414794921875,0.030517578125,0.0048065185546875
1690840338858396700,10.825396728515624,-0.9817962646484375,0.0299835205078125,0.004547119140625
1690840338868436700,10.835436767578125,-0.98126220703125,0.029541015625,0.003997802734375
1690840338878476500,10.8454765625,-0.9808807373046875,0.0300445556640625,0.00457763671875
1690840338888517600,10.855517578125,-0.9816436767578125,0.0303802490234375,0.004638671875
1690840338898557700,10.8655576171875,-0.980865478515625,0.03021240234375,0.0032958984375
1690840338908597800,10.87559765625,-0.9813385009765625,0.0302276611328125,0.0044708251953125
1690840338918638600,10.885638671875,-0.9804840087890625,0.029815673828125,0.004302978515625
1690840338928678700,10.8956787109375,-0.9810791015625,0.03009033203125,0.003875732421875
1690840338938718700,10.90571875,-0.98211669921875,0.03076171875,0.00421142578125
1690840338948758500,10.915758544921875,-0.9807586669921875,0.0307159423828125,0.00531005859375
1690840338958799600,10.925799560546874,-0.980804443359375,0.03045654296875,0.0047607421875
1690840338968839700,10.935839599609375,-0.9809722900390625,0.0304718017578125,0.0035247802734375
1690840338978879700,10.945879638671874,-0.981658935546875,0.0307769775390625,0.0048370361328125
1690840338988920600,10.955920654296875,-0.98114013671875,0.030517578125,0.00537109375
1690840338998990800,10.965990966796875,-0.9818878173828125,0.030609130859375,0.004180908203125
1690840339009031700,10.97603173828125,-0.9813079833984375,0.030364990234375,0.00408935546875
1690840339019071700,10.98607177734375,-0.98016357421875,0.030426025390625,0.0041046142578125
1690840339029111600,10.996111572265624,-0.9814910888671875,0.031005859375,0.003631591796875
1690840339039152600,11.006152587890625,-0.981597900390625,0.030181884765625,0.004364013671875
1690840339049192700,11.016192626953124,-0.981597900390625,0.0299224853515625,0.004547119140625
1690840339059232800,11.026232666015625,-0.9809722900390625,0.0311737060546875,0.004791259765625
1690840339069272800,11.03627294921875,-0.980987548828125,0.03082275390625,0.0035552978515625
1690840339079313700,11.046313720703125,-0.981353759765625,0.0310821533203125,0.0035247802734375
1690840339089353700,11.056353759765624,-0.98089599609375,0.0307769775390625,0.0038604736328125
1690840339099393500,11.0663935546875,-0.9798736572265625,0.0302734375,0.0040130615234375
1690840339109433600,11.07643359375,-0.981109619140625,0.0298919677734375,0.0034637451171875
1690840339119474700,11.086474609375,-0.9811248779296875,0.030364990234375,0.004302978515625
1690840339129514800,11.0965146484375,-0.980438232421875,0.0302581787109375,0.0042572021484375
1690840339139554800,11.106554931640625,-0.981201171875,0.030029296875,0.0045623779296875
1690840339149625900,11.1166259765625,-0.9821624755859375,0.0301666259765625,0.0048065185546875
1690840339159665700,11.126665771484374,-0.9817962646484375,0.03076171875,0.0038604736328125
1690840339169706500,11.13670654296875,-0.9802398681640625,0.0306396484375,0.0043182373046875
1690840339179746600,11.14674658203125,-0.980377197265625,0.0302734375,0.004058837890625
1690840339189786600,11.15678662109375,-0.980499267578125,0.0298309326171875,0.0041351318359375
1690840339199827700,11.16682763671875,-0.981475830078125,0.030242919921875,0.003509521484375
1690840339209867800,11.17686767578125,-0.9817352294921875,0.0298614501953125,0.0039520263671875
1690840339219907800,11.186907958984374,-0.98028564453125,0.030914306640625,0.003692626953125
1690840339229948000,11.196947998046875,-0.98089599609375,0.0304412841796875,0.0041046142578125
1690840339239988700,11.20698876953125,-0.9815521240234375,0.0305023193359375,0.00469970703125
1690840339250028500,11.217028564453125,-0.980865478515625,0.029571533203125,0.0046539306640625
1690840339260068600,11.227068603515624,-0.98089599609375,0.0301971435546875,0.0045013427734375
1690840339270109700,11.237109619140625,-0.980804443359375,0.030181884765625,0.0041656494140625
1690840339280149800,11.247149658203124,-0.980224609375,0.0305328369140625,0.004425048828125
1690840339290220800,11.257220703125,-0.9806671142578125,0.0304107666015625,0.004486083984375
1690840339300260900,11.2672607421875,-0.98052978515625,0.0299530029296875,0.003631591796875
1690840339310300700,11.27730078125,-0.9813690185546875,0.0303955078125,0.0041351318359375
1690840339320340700,11.2873408203125,-0.9814605712890625,0.0309600830078125,0.0035552978515625
1690840339330381600,11.297381591796874,-0.981781005859375,0.0318603515625,0.0036468505859375
1690840339340421600,11.307421630859375,-0.98175048828125,0.0308074951171875,0.004486083984375
1690840339350461700,11.317461669921874,-0.9815826416015625,0.030792236328125,0.004730224609375
1690840339360502800,11.327502685546875,-0.980926513671875,0.031402587890625,0.0042572021484375
1690840339370542800,11.33754296875,-0.98065185546875,0.030792236328125,0.00469970703125
1690840339380583000,11.3475830078125,-0.980865478515625,0.0309295654296875,0.0041656494140625
1690840339390620200,11.3576201171875,-0.9808197021484375,0.031097412109375,0.005035400390625
1690840339400661200,11.3676611328125,-0.9803924560546875,0.030181884765625,0.0044097900390625
1690840339410701300,11.377701416015626,-0.98065185546875,0.0298309326171875,0.0024261474609375
1690840339420741000,11.3877412109375,-0.9818267822265625,0.031158447265625,0.0037689208984375
1690840339430782000,11.397781982421876,-0.9809417724609375,0.031219482421875,0.004119873046875
1690840339440852200,11.407852294921875,-0.981781005859375,0.0303802490234375,0.00457763671875
1690840339450893000,11.41789306640625,-0.9821014404296875,0.030242919921875,0.0050506591796875
1690840339460933000,11.42793310546875,-0.981170654296875,0.0303192138671875,0.0044097900390625
1690840339470973200,11.43797314453125,-0.9813232421875,0.029998779296875,0.004608154296875
1690840339481014300,11.44801416015625,-0.979583740234375,0.0309906005859375,0.0043792724609375
1690840339491054000,11.45805419921875,-0.9811248779296875,0.0305328369140625,0.004241943359375
1690840339501094100,11.46809423828125,-0.9813079833984375,0.0307159423828125,0.003997802734375
1690840339511134200,11.47813427734375,-0.9815826416015625,0.03057861328125,0.0039215087890625
1690840339521175000,11.488175048828126,-0.9806976318359375,0.03131103515625,0.0040435791015625
1690840339531215000,11.498215087890625,-0.980987548828125,0.0300750732421875,0.0039520263671875
1690840339541255200,11.508255126953125,-0.980743408203125,0.03033447265625,0.00372314453125
1690840339551296300,11.518296142578125,-0.9811553955078125,0.030731201171875,0.004730224609375
1690840339561336000,11.528336181640626,-0.9811859130859375,0.0299072265625,0.005126953125
1690840339571376000,11.538376220703125,-0.979461669921875,0.029693603515625,0.00469970703125
1690840339581447200,11.548447265625,-0.98065185546875,0.0301513671875,0.005126953125
1690840339591487200,11.5584873046875,-0.9811248779296875,0.0310211181640625,0.0045623779296875
1690840339601527300,11.56852734375,-0.9807586669921875,0.0300750732421875,0.00439453125
1690840339611568000,11.578568115234376,-0.9808807373046875,0.030609130859375,0.004669189453125
1690840339621608200,11.588608154296875,-0.9802703857421875,0.0312652587890625,0.004150390625
1690840339631648000,11.59864794921875,-0.9803619384765625,0.0305023193359375,0.003753662109375
1690840339641689000,11.608689208984375,-0.9799346923828125,0.03070068359375,0.0044097900390625
1690840339651729200,11.618729248046876,-0.9796600341796875,0.0312042236328125,0.0042724609375
1690840339661769200,11.628769287109375,-0.9816131591796875,0.0309295654296875,0.0039215087890625
1690840339671809300,11.638809326171875,-0.9805908203125,0.03021240234375,0.004058837890625
1690840339681850000,11.64885009765625,-0.980377197265625,0.0304107666015625,0.0046234130859375
1690840339691890200,11.65889013671875,-0.9815673828125,0.0301513671875,0.0037994384765625
1690840339701930000,11.668929931640625,-0.981109619140625,0.03082275390625,0.00384521484375
1690840339711971000,11.67897119140625,-0.9804840087890625,0.0304412841796875,0.003936767578125
1690840339722041000,11.689041015625,-0.9797821044921875,0.0301513671875,0.004180908203125
1690840339732082200,11.699082275390625,-0.9806060791015625,0.03057861328125,0.0040130615234375
1690840339742122200,11.709122314453126,-0.9808349609375,0.03021240234375,0.003936767578125
1690840339752162300,11.719162353515625,-0.9803314208984375,0.0305633544921875,0.0049285888671875
1690840339762202400,11.729202392578125,-0.980743408203125,0.0313262939453125,0.004730224609375
1690840339772243200,11.7392431640625,-0.9805908203125,0.030303955078125,0.00433349609375
1690840339782283000,11.749282958984375,-0.9806976318359375,0.0305938720703125,0.0042877197265625
1690840339792323000,11.759322998046875,-0.98077392578125,0.030792236328125,0.003662109375
1690840339802364200,11.7693642578125,-0.981292724609375,0.030120849609375,0.004486083984375
1690840339812404200,11.779404296875,-0.97998046875,0.0301513671875,0.0041046142578125
1690840339822444300,11.7894443359375,-0.9811248779296875,0.0308074951171875,0.0035858154296875
1690840339832484400,11.799484375,-0.9814300537109375,0.0302734375,0.0034637451171875
1690840339842525200,11.809525146484376,-0.981781005859375,0.030914306640625,0.00360107421875
1690840339852565000,11.81956494140625,-0.9817047119140625,0.0313568115234375,0.00433349609375
1690840339862605000,11.82960498046875,-0.980987548828125,0.0305328369140625,0.00518798828125
1690840339872676000,11.839676025390625,-0.9810638427734375,0.030731201171875,0.0039825439453125
1690840339882716200,11.849716064453125,-0.9806976318359375,0.030426025390625,0.0032958984375
1690840339892757200,11.85975732421875,-0.9819183349609375,0.030487060546875,0.003631591796875
1690840339902797300,11.86979736328125,-0.9813079833984375,0.0306854248046875,0.0031890869140625
1690840339912837400,11.87983740234375,-0.9811248779296875,0.0304718017578125,0.00390625
1690840339922878200,11.889878173828125,-0.9803924560546875,0.029937744140625,0.0032196044921875
1690840339932918000,11.89991796875,-0.9813232421875,0.0301055908203125,0.0037384033203125
1690840339942958000,11.9099580078125,-0.9812774658203125,0.030487060546875,0.00408935546875
1690840339952998100,11.919998046875,-0.980377197265625,0.03118896484375,0.0039825439453125
1690840339963039200,11.930039306640625,-0.9804840087890625,0.0306549072265625,0.0045166015625
1690840339973079300,11.940079345703126,-0.9811553955078125,0.03076171875,0.004669189453125
1690840339983119400,11.950119384765625,-0.98126220703125,0.0306854248046875,0.0045928955078125
1690840339993160200,11.96016015625,-0.9808197021484375,0.0303192138671875,0.0040740966796875
1690840340003200000,11.970199951171875,-0.980926513671875,0.0304412841796875,0.0042572021484375
1690840340013271000,11.98027099609375,-0.980743408203125,0.0302276611328125,0.0032501220703125
1690840340023311000,11.99031103515625,-0.9810943603515625,0.030853271484375,0.0037994384765625
1690840340033351200,12.00035107421875,-0.980712890625,0.0305938720703125,0.0040740966796875
1690840340043391200,12.01039111328125,-0.9815826416015625,0.0308074951171875,0.0041961669921875
1690840340053432300,12.020432373046875,-0.9805908203125,0.030792236328125,0.0044097900390625
1690840340063472400,12.030472412109376,-0.9821624755859375,0.03057861328125,0.0041656494140625
1690840340073512200,12.04051220703125,-0.98052978515625,0.030975341796875,0.004058837890625
1690840340083553000,12.050552978515626,-0.981353759765625,0.0306549072265625,0.0040740966796875
1690840340093593000,12.060593017578125,-0.9810638427734375,0.0303192138671875,0.0044708251953125
1690840340103633200,12.070633056640625,-0.981201171875,0.0302886962890625,0.0039520263671875
1690840340113673200,12.080673095703125,-0.98028564453125,0.030303955078125,0.0038299560546875
1690840340123714300,12.09071435546875,-0.9808197021484375,0.029815673828125,0.0033111572265625
1690840340133754400,12.10075439453125,-0.980499267578125,0.0303497314453125,0.0040740966796875
1690840340143794200,12.110794189453125,-0.9817962646484375,0.0304412841796875,0.004669189453125
1690840340153835000,12.1208349609375,-0.9820404052734375,0.0304107666015625,0.0036468505859375
1690840340163905000,12.130905029296875,-0.9808807373046875,0.0308380126953125,0.004180908203125
1690840340173946000,12.140946044921876,-0.9806976318359375,0.0303192138671875,0.0042572021484375
1690840340183986200,12.150986083984375,-0.9811248779296875,0.031280517578125,0.00469970703125
1690840340194026200,12.161026123046875,-0.981719970703125,0.03033447265625,0.00531005859375
1690840340204066300,12.17106640625,-0.97991943359375,0.0299530029296875,0.0045318603515625
1690840340214107400,12.181107421875,-0.9801483154296875,0.0310211181640625,0.0038299560546875
1690840340224147200,12.191147216796875,-0.9806060791015625,0.03009033203125,0.00421142578125
1690840340234187000,12.20118701171875,-0.9812164306640625,0.0300140380859375,0.0037078857421875
1690840340244228000,12.21122802734375,-0.981170654296875,0.0305938720703125,0.004058837890625
1690840340254268200,12.22126806640625,-0.982086181640625,0.0302886962890625,0.0036773681640625
1690840340264308200,12.23130810546875,-0.98046875,0.03167724609375,0.0034942626953125
1690840340274348300,12.241348388671875,-0.980560302734375,0.030792236328125,0.0040283203125
1690840340284389400,12.251389404296875,-0.9804534912109375,0.03057861328125,0.0049285888671875
1690840340294429200,12.26142919921875,-0.9813690185546875,0.03033447265625,0.004608154296875
1690840340304500200,12.271500244140626,-0.98095703125,0.0303497314453125,0.00445556640625
1690840340314540000,12.2815400390625,-0.9805908203125,0.0312042236328125,0.0047454833984375
1690840340324580000,12.291580078125,-0.981903076171875,0.0308380126953125,0.0046234130859375
1690840340334621200,12.30162109375,-0.9813690185546875,0.0304107666015625,0.004241943359375
1690840340344661200,12.3116611328125,-0.9817047119140625,0.0304107666015625,0.0039825439453125
1690840340354701000,12.321701171875,-0.9815216064453125,0.0301971435546875,0.0037689208984375
1690840340364742100,12.3317421875,-0.9806365966796875,0.0303497314453125,0.003814697265625
1690840340374782200,12.3417822265625,-0.9804534912109375,0.0306549072265625,0.00482177734375
1690840340384804600,12.3518046875,-0.9808197021484375,0.0305023193359375,0.0041351318359375
1690840340394844400,12.361844482421875,-0.9803619384765625,0.0300445556640625,0.0043792724609375
1690840340404885500,12.371885498046876,-0.981536865234375,0.0306396484375,0.0049285888671875
1690840340414925600,12.381925537109375,-0.981201171875,0.030120849609375,0.00390625
1690840340424965600,12.391965576171875,-0.9810028076171875,0.0298309326171875,0.004180908203125
1690840340435006700,12.4020068359375,-0.9805755615234375,0.0304107666015625,0.0041656494140625
1690840340445046800,12.412046875,-0.98077392578125,0.030609130859375,0.0045318603515625
1690840340455117600,12.42211767578125,-0.9814300537109375,0.030364990234375,0.0037841796875
1690840340465157600,12.43215771484375,-0.980499267578125,0.030364990234375,0.0032501220703125
1690840340475197400,12.442197509765625,-0.9803619384765625,0.030120849609375,0.0041961669921875
1690840340485237500,12.452237548828125,-0.980804443359375,0.0298919677734375,0.004119873046875
1690840340495278600,12.462278564453126,-0.9818267822265625,0.030120849609375,0.0036773681640625
1690840340505318700,12.472318603515625,-0.9814300537109375,0.0301971435546875,0.0038909912109375
1690840340515358700,12.482358642578125,-0.9812774658203125,0.0308990478515625,0.0040283203125
1690840340525399800,12.49239990234375,-0.9807586669921875,0.0299224853515625,0.0037689208984375
1690840340535439600,12.502439697265626,-0.979522705078125,0.030181884765625,0.004425048828125
1690840340545479400,12.5124794921875,-0.9807281494140625,0.030242919921875,0.004302978515625
1690840340555519500,12.52251953125,-0.98065185546875,0.0306396484375,0.004180908203125
1690840340565560600,12.532560546875,-0.9806976318359375,0.0306549072265625,0.0038909912109375
1690840340575600600,12.5426005859375,-0.9803314208984375,0.0296478271484375,0.0046844482421875
1690840340585640700,12.552640625,-0.980712890625,0.0307464599609375,0.004119873046875
1690840340595711500,12.56271142578125,-0.9813690185546875,0.03045654296875,0.0037841796875
1690840340605751600,12.57275146484375,-0.9807891845703125,0.030548095703125,0.0046234130859375
1690840340615792600,12.582792724609375,-0.9810638427734375,0.0305023193359375,0.00390625
1690840340625832400,12.59283251953125,-0.98052978515625,0.0302886962890625,0.0035858154296875
1690840340635872500,12.60287255859375,-0.9809417724609375,0.0309600830078125,0.0040283203125
1690840340645913600,12.61291357421875,-0.98150634765625,0.030731201171875,0.0033721923828125
1690840340655953700,12.62295361328125,-0.981475830078125,0.0305633544921875,0.003753662109375
1690840340665993700,12.63299365234375,-0.980804443359375,0.0300445556640625,0.004302978515625
1690840340676033500,12.643033447265625,-0.981048583984375,0.0301055908203125,0.0036773681640625
1690840340686074400,12.653074462890626,-0.980804443359375,0.0306854248046875,0.0036163330078125
1690840340696114400,12.663114501953125,-0.9814300537109375,0.0302581787109375,0.0036468505859375
1690840340706154500,12.673154541015625,-0.981353759765625,0.031219482421875,0.00421142578125
1690840340716194600,12.683194580078125,-0.98101806640625,0.0306854248046875,0.003448486328125
1690840340726235600,12.693235595703126,-0.9807586669921875,0.030029296875,0.00372314453125
1690840340736306700,12.703306640625,-0.9799652099609375,0.030609130859375,0.004852294921875
1690840340746346500,12.713346435546875,-0.9803619384765625,0.0304412841796875,0.004791259765625
1690840340756386600,12.723386474609375,-0.9810791015625,0.0306549072265625,0.003692626953125
1690840340766426600,12.733426513671875,-0.9804534912109375,0.0305633544921875,0.0044097900390625
1690840340776467500,12.743467529296876,-0.9810943603515625,0.0306243896484375,0.00396728515625
1690840340786507500,12.753507568359375,-0.980316162109375,0.0304718017578125,0.0043792724609375
1690840340796547600,12.763547607421875,-0.9805450439453125,0.0308074951171875,0.0046539306640625
1690840340806588700,12.773588623046875,-0.9813690185546875,0.02996826171875,0.0046539306640625
1690840340816628700,12.783628662109376,-0.9816741943359375,0.0297088623046875,0.004608154296875
1690840340826668500,12.79366845703125,-0.9818267822265625,0.030975341796875,0.0051422119140625
1690840340836708600,12.80370849609375,-0.982147216796875,0.0311737060546875,0.004241943359375
1690840340846749400,12.81374951171875,-0.980712890625,0.0304107666015625,0.00445556640625
1690840340856789500,12.82378955078125,-0.9798736572265625,0.03094482421875,0.0037994384765625
1690840340866829600,12.83382958984375,-0.9803619384765625,0.031005859375,0.004180908203125
1690840340876870700,12.84387060546875,-0.9806060791015625,0.0306243896484375,0.0042572021484375
1690840340886940400,12.8539404296875,-0.98052978515625,0.030364990234375,0.004241943359375
1690840340896981500,12.8639814453125,-0.9806671142578125,0.0304107666015625,0.003997802734375
1690840340907021600,12.874021484375,-0.9810028076171875,0.030426025390625,0.0039215087890625
1690840340917061600,12.8840615234375,-0.9815216064453125,0.0302886962890625,0.003692626953125
1690840340927101700,12.894101806640625,-0.9797821044921875,0.030120849609375,0.0042572021484375
1690840340937142500,12.904142578125,-0.9806060791015625,0.0310516357421875,0.0041961669921875
1690840340947182600,12.9141826171875,-0.9818267822265625,0.0301055908203125,0.004302978515625
1690840340957222400,12.924222412109375,-0.9818115234375,0.0306854248046875,0.00372314453125
1690840340967263500,12.934263427734376,-0.9807586669921875,0.031005859375,0.0045013427734375
1690840340977303600,12.944303466796875,-0.9807891845703125,0.030609130859375,0.004547119140625
1690840340987343600,12.954343505859375,-0.9817352294921875,0.029571533203125,0.004058837890625
1690840340997383700,12.9643837890625,-0.980926513671875,0.0295562744140625,0.004180908203125
1690840341007424500,12.974424560546876,-0.9809722900390625,0.030364990234375,0.0043792724609375
1690840341017464600,12.984464599609375,-0.9813690185546875,0.030609130859375,0.0045166015625
1690840341027535600,12.99453564453125,-0.980712890625,0.030517578125,0.0043792724609375
1690840341037575400,13.004575439453125,-0.9810333251953125,0.0306396484375,0.0042724609375
1690840341047615500,13.014615478515625,-0.9810943603515625,0.0304718017578125,0.0042877197265625
1690840341057656600,13.024656494140626,-0.981231689453125,0.0310821533203125,0.0045318603515625
1690840341067696600,13.034696533203125,-0.98089599609375,0.030181884765625,0.00323486328125
1690840341077736700,13.04473681640625,-0.98095703125,0.0299072265625,0.0033111572265625
1690840341087777500,13.054777587890625,-0.9808807373046875,0.02996826171875,0.0049285888671875
1690840341097817600,13.064817626953126,-0.97869873046875,0.0303192138671875,0.004730224609375
