time,seconds_elapsed,z,y,x
1690840328145265400,0.112265380859375,-0.004364654887467623,-0.01483700331300497,0.01570679061114788
1690840328155305500,0.122305419921875,-0.006173207424581051,-0.011834555305540562,-0.017764883115887642
1690840328165345300,0.13234521484375,-0.004977980628609657,-0.0037529265973716974,-0.051119111478328705
1690840328175385300,0.14238525390625,-0.004207794554531574,0.0017438378417864442,-0.07874248176813126
1690840328185426200,0.15242626953125,-0.0035262915771454573,0.008641690947115421,-0.10392133891582489
1690840328195466200,0.16246630859375,-0.004446413833647966,0.0075729647651314735,-0.1218622550368309
1690840328205506300,0.17250634765625,-0.004887699615210295,0.009471265599131584,-0.13016359508037567
1690840328215547400,0.18254736328125,-0.004327903036028147,0.004476773552596569,-0.13231755793094635
1690840328225587500,0.19258740234375,-0.005702094174921513,-0.002204298507422209,-0.12627990543842316
1690840328235627300,0.202627197265625,-0.0035079156514257193,-0.006355633959174156,-0.11573538929224014
1690840328245667300,0.212667236328125,-0.004323375876992941,-0.009259544312953949,-0.09648073464632034
1690840328255708200,0.222708251953125,-0.004011519718915224,-0.011396731249988079,-0.0720592811703682
1690840328265748200,0.232748291015625,-0.005557218100875616,-0.007558317389339209,-0.0488482341170311
1690840328275788300,0.242788330078125,-0.00586721021682024,-0.006413158029317856,-0.024220384657382965
1690840328285829400,0.252829345703125,-0.005357214715331793,-0.0007781756576150656,0.0003616572648752481
1690840328295899400,0.2628994140625,-0.004779841285198927,0.00446798512712121,0.02171275205910206
1690840328305940500,0.2729404296875,-0.004177168011665344,0.005852030124515295,0.04055781289935112
1690840328315980300,0.282980224609375,-0.005989449098706245,0.0035859462805092335,0.05495326220989227
1690840328326020400,0.293020263671875,-0.003314570290967822,0.0030927290208637714,0.0635685920715332
1690840328336060200,0.30306005859375,-0.004453604109585285,0.000040480048483004794,0.06247642636299133
1690840328346101200,0.313101318359375,-0.005103149451315403,-0.0035089810844510794,0.06043138727545738
1690840328356141300,0.323141357421875,-0.004018976353108883,-0.006580404471606016,0.05101924017071724
1690840328366181400,0.333181396484375,-0.0028599686920642853,-0.00839987676590681,0.036003272980451584
1690840328376196600,0.343196533203125,-0.004505003336817026,-0.007588677573949099,0.017896708101034164
1690840328386236700,0.353236572265625,-0.004785700235515833,-0.0040735709480941296,0.0013321131700649858
1690840328396276500,0.3632763671875,-0.004025101661682129,-0.001330249011516571,-0.022069083526730537
1690840328406316500,0.373316650390625,-0.005057875532656908,0.00230816169641912,-0.040709879249334335
1690840328416357600,0.383357666015625,-0.005452289711683989,0.004525509662926197,-0.057907506823539734
1690840328426397400,0.3933974609375,-0.0046847667545080185,0.0014455638593062758,-0.07113462686538696
1690840328436437500,0.4034375,-0.006189452484250069,0.0030924626626074314,-0.08031588047742844
1690840328446508500,0.413508544921875,-0.0038549257442355156,-0.00007723167072981596,-0.08260086923837662
1690840328456548600,0.423548583984375,-0.005105812568217516,-0.004514324478805065,-0.0831175222992897
1690840328466589700,0.433589599609375,-0.004767058417201042,-0.002290318487212062,-0.07929934561252594
1690840328476629500,0.44362939453125,-0.0051867724396288395,-0.004517520312219858,-0.07040651887655258
1690840328486669600,0.453669677734375,-0.003096457337960601,-0.002907106652855873,-0.060322195291519165
1690840328496710700,0.463710693359375,-0.0051630702801048756,-0.003482881933450699,-0.04422951117157936
1690840328506750500,0.47375048828125,-0.0030450583435595036,-0.002775812754407525,-0.02779834158718586
1690840328516790500,0.48379052734375,-0.004706338047981262,-0.0024503744207322598,-0.014216486364603043
1690840328526830600,0.49383056640625,-0.00452843913808465,-0.0021283982787281275,-0.002425074577331543
1690840328536871700,0.50387158203125,-0.004209392238408327,0.0003563309437595308,0.011856126599013805
1690840328546911500,0.513911376953125,-0.004582501482218504,0.0003174488083459437,0.01907169446349144
1690840328556951600,0.52395166015625,-0.005834186915308237,0.00006657902849838138,0.025908829644322395
1690840328566992600,0.53399267578125,-0.005364139098674059,-0.0015851134667173028,0.026919765397906303
1690840328577032400,0.544032470703125,-0.0056861150078475475,-0.0017840516520664096,0.025480592623353004
1690840328587103500,0.554103515625,-0.005938583053648472,-0.0018823222490027547,0.021981464698910713
1690840328597143600,0.5641435546875,-0.004822452086955309,-0.004379035905003548,0.01233549602329731
1690840328607183600,0.57418359375,-0.004181695636361837,-0.004464257042855024,0.0013739247806370258
1690840328617223400,0.584223388671875,-0.00555109279230237,-0.0032719597220420837,-0.009020659141242504
1690840328627264500,0.594264404296875,-0.0043870252557098866,-0.007784952409565449,-0.0214775949716568
1690840328637304600,0.6043046875,-0.0037380128633230925,-0.0008588694618083537,-0.03181332349777222
1690840328647344600,0.6143447265625,-0.005239769350737333,0.000940095866099,-0.0406627394258976
1690840328657385500,0.624385498046875,-0.0054544201120734215,-0.00047351003740914166,-0.04909564182162285
1690840328667425500,0.634425537109375,-0.0043321643024683,0.0000780306218075566,-0.0541394017636776
1690840328677465600,0.644465576171875,-0.005509813781827688,-0.0009560748003423214,-0.05613544210791588
1690840328687505400,0.65450537109375,-0.005568936001509428,-0.0004338289436418563,-0.055385228246450424
1690840328697546500,0.66454638671875,-0.00469541922211647,-0.0013432984706014395,-0.05384272709488869
1690840328707586600,0.674586669921875,-0.00367170013487339,-0.004333495628088713,-0.04953799024224281
1690840328717626600,0.684626708984375,-0.0035691685043275356,-0.001734783174470067,-0.040344491600990295
1690840328727697700,0.69469775390625,-0.005294364411383867,-0.002171541564166546,-0.032993901520967484
1690840328737737700,0.70473779296875,-0.002802444389089942,-0.0022240057587623596,-0.02369840443134308
1690840328747778600,0.714778564453125,-0.002856240142136812,-0.0027718180790543556,-0.017533453181385994
1690840328757818400,0.724818359375,-0.005222458858042955,-0.0008988168556243181,-0.008579373359680176
1690840328767858400,0.7348583984375,-0.005391835700720549,-0.000883636821527034,-0.0021936458069831133
1690840328777898500,0.7448984375,-0.005856557283550501,-0.0012958941515535116,0.004125769250094891
1690840328787939600,0.754939697265625,-0.004768656101077795,-0.00213612150400877,0.00609224708750844
1690840328797979600,0.764979736328125,-0.002814961364492774,-0.0011462245602160692,0.006849650293588638
1690840328808019700,0.775019775390625,-0.0029321403708308935,-0.00210709311068058,0.0034820830915123224
1690840328818060500,0.785060546875,-0.0044054011814296246,-0.002767557045444846,-0.0012333098566159606
1690840328828100600,0.7951005859375,-0.0038211036007851362,-0.0016626114957034588,-0.005309011787176132
1690840328838140400,0.805140380859375,-0.0041220407001674175,-0.0024058998096734285,-0.01206864695996046
1690840328848180500,0.815180419921875,-0.005318332463502884,-0.00020213393145240843,-0.019540945068001747
1690840328858221600,0.8252216796875,-0.005609150044620037,-0.0004338289436418563,-0.02309999242424965
1690840328868261600,0.83526171875,-0.004758269991725683,-0.0008378304773941636,-0.030250048264861107
1690840328878332700,0.845332763671875,-0.0032565132714807987,-0.00040959418402053416,-0.03424212709069252
1690840328888372700,0.855372802734375,-0.004477838985621929,-0.0017273263074457645,-0.037217143923044205
1690840328898412500,0.86541259765625,-0.003859186777845025,-0.0018785938154906034,-0.039086949080228806
1690840328908453400,0.875453369140625,-0.0029166939202696085,-0.0027925907634198666,-0.038005437701940536
1690840328918493400,0.885493408203125,-0.005179049447178841,-0.002567287301644683,-0.039447009563446045
1690840328928533500,0.895533447265625,-0.004095941781997681,0.00009960222087102011,-0.0374312624335289
1690840328938574600,0.90557470703125,-0.00401631323620677,-0.0024644893128424883,-0.03285808116197586
1690840328948614700,0.91561474609375,-0.004670385736972094,-0.00544403400272131,-0.02768329344689846
1690840328958654700,0.92565478515625,-0.003063966752961278,-0.002871420234441757,-0.022649385035037994
1690840328968694800,0.93569482421875,-0.003823766717687249,-0.003185939509421587,-0.019816847518086433
1690840328978735600,0.945735595703125,-0.004801413044333458,-0.0009619337506592274,-0.011571435257792473
1690840328988775400,0.955775390625,-0.005200620740652084,-0.0037377465050667524,-0.010461695492267609
1690840328998815500,0.9658154296875,-0.0044203149154782295,-0.002778209513053298,-0.0068901302292943
1690840329008856600,0.975856689453125,-0.00443922309204936,-0.002287389012053609,-0.006047239992767572
1690840329018926600,0.985926513671875,-0.004290086217224598,-0.0019417107105255127,-0.0065377941355109215
1690840329028967700,0.9959677734375,-0.005721268709748983,-0.0026378610637038946,-0.0072746905498206615
1690840329039007700,1.0060078125,-0.0038338867016136646,-0.0035635759122669697,-0.00902625173330307
1690840329049047600,1.016047607421875,-0.004500475712120533,-0.002775546396151185,-0.010358365252614021
1690840329059087600,1.026087646484375,-0.005264803301542997,-0.0019140138756483793,-0.015867913141846657
1690840329069128400,1.03612841796875,-0.003397128311917186,-0.001285241567529738,-0.019146529957652092
1690840329079168500,1.04616845703125,-0.005646434146910906,-0.0008729841792955995,-0.02195722982287407
1690840329089208600,1.05620849609375,-0.00498170917853713,-0.0006801713607273996,-0.02701004594564438
1690840329099249700,1.066249755859375,-0.004917793441563845,0.004318049177527428,-0.02690831385552883
1690840329109289700,1.076289794921875,-0.004553472623229027,-0.0015534218400716782,-0.03136324882507324
1690840329119329800,1.086329833984375,-0.0029467877466231585,-0.0001054611784638837,-0.03347433730959892
1690840329129369600,1.09636962890625,-0.0038687740452587605,-0.0014173343079164624,-0.030834611505270004
1690840329139410400,1.106410400390625,-0.0046549392864108086,-0.003620567498728633,-0.03171638399362564
1690840329149450500,1.116450439453125,-0.0038394792936742306,-0.0012681973166763783,-0.029951507225632668
1690840329159490600,1.126490478515625,-0.004496214911341667,-0.0013369068037718534,-0.025553563609719276
1690840329169561600,1.1365615234375,-0.006518353242427111,-0.000925448490306735,-0.023857928812503815
1690840329179601700,1.1466015625,-0.0033598439767956734,-0.0014732606941834092,-0.022099975496530533
1690840329189642800,1.156642822265625,-0.004349208436906338,-0.0036309538409113884,-0.01908154971897602
1690840329199682600,1.1666826171875,-0.005780124571174383,-0.0035896748304367065,-0.015739282593131065
1690840329209722600,1.17672265625,-0.004204598721116781,-0.0012114719720557332,-0.01408465951681137
1690840329219762700,1.1867626953125,-0.0038480013608932495,-0.00008229167724493891,-0.012738964520394802
1690840329229803500,1.196803466796875,-0.004819788970053196,-0.0019046928500756621,-0.01133947353810072
1690840329239843600,1.206843505859375,-0.005116731394082308,-0.0011683288030326366,-0.012414591386914253
1690840329249883600,1.216883544921875,-0.00481366366147995,-0.0026162895374000072,-0.014148043468594551
1690840329259924700,1.2269248046875,-0.0041223070584237576,-0.000949150591623038,-0.015151255764067173
1690840329269964800,1.23696484375,-0.004420847166329622,-0.0026993800420314074,-0.01654275692999363
1690840329280004600,1.247004638671875,-0.00415346585214138,0.00026738137239590287,-0.01907169446349144
1690840329290044700,1.257044677734375,-0.0038634478114545345,-0.0007105313707143068,-0.020869862288236618
1690840329300085500,1.26708544921875,-0.003919107839465141,-0.0015281217638403177,-0.022713301703333855
1690840329310156500,1.277156494140625,-0.0036432044580578804,-0.001784850494004786,-0.024205470457673073
1690840329320196600,1.287196533203125,-0.005075186025351286,-0.0015632755821570754,-0.026203906163573265
1690840329330236700,1.297236572265625,-0.004024036228656769,-0.0022426480427384377,-0.026735207065939903
1690840329340276500,1.3072763671875,-0.0039020637050271034,-0.0015696671325713396,-0.02828170545399189
1690840329350317600,1.317317626953125,-0.005400890484452248,-0.0023723437916487455,-0.02574664168059826
1690840329360357600,1.327357666015625,-0.0046754456125199795,-0.0024567660875618458,-0.025786057114601135
1690840329370397400,1.3373974609375,-0.0038578552193939686,-0.0012327772565186024,-0.02346058562397957
1690840329380427500,1.347427490234375,-0.0036008600145578384,-0.0006892260862514377,-0.02382277511060238
1690840329390467600,1.357467529296875,-0.0055803875438869,-0.002584864152595401,-0.020085027441382408
1690840329400507600,1.367507568359375,-0.005780124571174383,-0.0016825852217152715,-0.01998036541044712
1690840329410547700,1.377547607421875,-0.003855458227917552,-0.002159290947020054,-0.01805410161614418
1690840329420588800,1.3875888671875,-0.003683950752019882,-0.002969158347696066,-0.01588788628578186
1690840329430628900,1.39762890625,-0.0038775624707341194,-0.0013371731620281935,-0.016103869304060936
1690840329440668700,1.407668701171875,-0.005307413637638092,-0.0021965752821415663,-0.015059909783303738
1690840329450709500,1.41770947265625,-0.004627508576959372,-0.002915628720074892,-0.014997591264545918
1690840329460779800,1.42777978515625,-0.0032405343372374773,-0.0032144354190677404,-0.017001086845993996
1690840329470820600,1.437820556640625,-0.0063124909065663815,-0.004884503781795502,-0.017129717394709587
1690840329480860700,1.447860595703125,-0.003919640555977821,0.000316916179144755,-0.015918245539069176
1690840329490900700,1.457900634765625,-0.00564164062961936,-0.0007699198904447258,-0.018123343586921692
1690840329500940500,1.4679404296875,-0.003968908917158842,-0.002406965009868145,-0.019779829308390617
1690840329510981600,1.477981689453125,-0.005507150664925575,-0.002008556155487895,-0.021456290036439896
1690840329521021700,1.488021728515625,-0.005619536153972149,-0.0023153522051870823,-0.024751685559749603
1690840329531061800,1.498061767578125,-0.005764145869761705,-0.0031792817171663046,-0.02491120807826519
1690840329541102600,1.5081025390625,-0.0038306908681988716,-0.0032322786282747984,-0.025082184001803398
1690840329551142700,1.518142578125,-0.002680737990885973,-0.0012580773327499628,-0.02309945970773697
1690840329561182700,1.5281826171875,-0.005129780620336533,-0.000830107310321182,-0.025644376873970032
1690840329571222500,1.538222412109375,-0.0046850331127643585,-0.002251702593639493,-0.022997727617621422
1690840329581263600,1.548263671875,-0.0046211169101297855,-0.003620833856984973,-0.02346164919435978
1690840329591303700,1.5583037109375,-0.005215800832957029,-0.002388589084148407,-0.02261662855744362
1690840329601374700,1.568374755859375,-0.005648298189043999,-0.0028961875941604376,-0.021626997739076614
1690840329611414800,1.578414794921875,-0.005197957623749971,-0.0011134676169604063,-0.02016066201031208
1690840329621454600,1.58845458984375,-0.0057191383093595505,-0.0028506475500762463,-0.017670607194304466
1690840329631495700,1.59849560546875,-0.005505286622792482,-0.0011518171522766352,-0.019346533343195915
1690840329641535700,1.60853564453125,-0.005230448208749294,-0.0014820491196587682,-0.018159829080104828
1690840329651575600,1.618575439453125,-0.004403803031891584,-0.002269279444590211,-0.017584320157766342
1690840329661616600,1.62861669921875,-0.005056810099631548,-0.0011150655336678028,-0.018277807161211967
1690840329671656700,1.63865673828125,-0.005674663465470076,-0.002975017298012972,-0.01667964458465576
1690840329681696800,1.64869677734375,-0.0041465419344604015,-0.0005925533478148282,-0.0195502657443285
1690840329691736600,1.658736572265625,-0.004588892683386803,-0.0018527611391618848,-0.0191918034106493
1690840329701777700,1.668777587890625,-0.004966262727975845,-0.00177925790194422,-0.02004561387002468
1690840329711817700,1.678817626953125,-0.004568119999021292,0.000245543458731845,-0.020258933305740356
1690840329721857500,1.688857421875,-0.0049098036251962185,-0.00021731393644586205,-0.02149357460439205
1690840329731897600,1.698897705078125,-0.005554554983973503,-0.0019984361715614796,-0.02268507145345211
1690840329741938700,1.708938720703125,-0.003916977439075708,-0.0026075011119246483,-0.022773755714297295
1690840329752009700,1.719009765625,-0.004246676806360483,-0.0025829998776316643,-0.02473570592701435
1690840329762049800,1.7290498046875,-0.005765477195382118,-0.003847202518954873,-0.0236978717148304
1690840329772089600,1.739089599609375,-0.004393949639052153,0.0004990763845853508,-0.021995846182107925
1690840329782129700,1.749129638671875,-0.004267449490725994,-0.0017451694002375007,-0.022893864661455154
1690840329792170800,1.759170654296875,-0.0049215215258300304,0.0022477079182863235,-0.022179070860147476
1690840329802210600,1.76921044921875,-0.005054413340985775,0.000022636868379777297,-0.022831812500953674
1690840329812250600,1.779250732421875,-0.004346545320004225,-0.0018817896489053965,-0.02172899805009365
1690840329822291700,1.789291748046875,-0.005549228750169277,-0.0036586506757885218,-0.019218169152736664
1690840329832331800,1.799331787109375,-0.004453870467841625,-0.00381391285918653,-0.018874088302254677
1690840329842371600,1.80937158203125,-0.005849367007613182,-0.002304965863004327,-0.01948395185172558
1690840329852411600,1.81941162109375,-0.004555070772767067,-0.001609081868082285,-0.019167834892868996
1690840329862452700,1.82945263671875,-0.0027017768006771803,0.0007001450285315514,-0.019991017878055573
1690840329872492500,1.839492431640625,-0.004447212442755699,-0.003852795111015439,-0.019111109897494316
1690840329882532600,1.84953271484375,-0.0037862160243093967,0.0011888351291418076,-0.02076333574950695
1690840329892603600,1.859603759765625,-0.0036613137926906347,-0.0022831279784440994,-0.020795825868844986
1690840329902643700,1.869643798828125,-0.0067511131055653095,-0.004332962911576033,-0.018912971019744873
1690840329912684800,1.879684814453125,-0.004969724919646978,-0.004003263544291258,-0.02039075829088688
1690840329922724600,1.889724609375,-0.003693005535751581,-0.0018924422329291701,-0.020110327750444412
1690840329932764700,1.8997646484375,-0.0027348001021891832,-0.0023377228062599897,-0.019596870988607407
1690840329942804500,1.909804443359375,-0.004867193289101124,-0.0024778051301836967,-0.02106400579214096
1690840329952845600,1.919845458984375,-0.004129231441766024,0.0005597964627668262,-0.022280005738139153
1690840329962885600,1.9298857421875,-0.005834453273564577,0.0002980077115353197,-0.021888254210352898
1690840329972925700,1.93992578125,-0.004674912896007299,0.00020399813365656883,-0.022756710648536682
1690840329982966800,1.949966796875,-0.005124454386532307,-0.0012458267156034708,-0.023972710594534874
1690840329993006600,1.960006591796875,-0.005254683084785938,-0.003266367129981518,-0.02328774519264698
1690840330003046700,1.970046630859375,-0.0026501116808503866,-0.00010120012302650139,-0.020229637622833252
1690840330013086500,1.98008642578125,-0.005038434639573097,-0.003487143199890852,-0.020728448405861855
1690840330023127600,1.99012744140625,-0.005303152836859226,-0.004217914305627346,-0.020199811086058617
1690840330033167600,2.000167724609375,-0.0038575888611376286,-0.0009954896522685885,-0.02069276198744774
1690840330043238700,2.01023876953125,-0.003707919269800186,-0.0032032502349466085,-0.017715081572532654
1690840330053278700,2.02027880859375,-0.004944158717989922,-0.0024319987278431654,-0.020126840099692345
1690840330063318800,2.03031884765625,-0.00500940578058362,-0.0011182613670825958,-0.01859152689576149
1690840330073359600,2.040359619140625,-0.004541488364338875,-0.0024857944808900356,-0.0191997941583395
1690840330083399700,2.050399658203125,-0.004209392238408327,-0.004339887294918299,-0.021892249584197998
1690840330093439500,2.060439453125,-0.00475374236702919,-0.002412024885416031,-0.020925521850585938
1690840330103480600,2.07048046875,-0.00461685610935092,-0.0031824775505810976,-0.01895345188677311
1690840330113520600,2.080520751953125,-0.005377721041440964,-0.0026197514962404966,-0.021589182317256927
1690840330123560700,2.090560791015625,-0.005727127660065889,-0.0012120045721530914,-0.02112099714577198
1690840330133600800,2.100600830078125,-0.003020024625584483,-0.00043356261448934674,-0.021033912897109985
1690840330143641600,2.1106416015625,-0.003299123840406537,0,-0.020120181143283844
1690840330153681700,2.120681640625,-0.004285026341676712,0.00022796659322921187,-0.020168650895357132
1690840330163721500,2.130721435546875,-0.0029356025625020266,-0.0002205097407568246,-0.020732175558805466
1690840330173762600,2.140762451171875,-0.004790227860212326,-0.0008908273885026574,-0.020110327750444412
1690840330183832600,2.15083251953125,-0.005422462243586779,-0.007484015077352524,-0.021041369065642357
1690840330193873700,2.160873779296875,-0.00407516909763217,-0.006150304339826107,-0.021881330758333206
1690840330203913700,2.170913818359375,-0.006701312027871609,-0.010067281313240528,-0.02028662897646427
1690840330213953800,2.180953857421875,-0.004969458561390638,-0.00708667142316699,-0.0202243123203516
1690840330223993900,2.190993896484375,-0.0032898029312491417,0.0009933591354638338,-0.01998436078429222
1690840330234034700,2.20103466796875,-0.0046701193787157536,0.00344506511464715,-0.022366026416420937
1690840330244074500,2.211074462890625,-0.005549495108425617,0.001743305241689086,-0.01986158825457096
1690840330254114600,2.221114501953125,-0.005920473486185074,0.005021656397730112,-0.021803831681609154
1690840330264155600,2.23115576171875,-0.004296211525797844,0.003203782718628645,-0.021640580147504807
1690840330274195700,2.24119580078125,-0.004963066894561052,-0.002281796419993043,-0.022272814065217972
1690840330284235800,2.25123583984375,-0.0029848709236830473,-0.0028631645254790783,-0.021944180130958557
1690840330294275800,2.26127587890625,-0.005119927227497101,-0.0062712118960917,-0.02545555867254734
1690840330304316700,2.271316650390625,-0.003528422210365534,-0.006245112512260675,-0.02051353082060814
1690840330314356500,2.2813564453125,-0.005218730308115482,-0.0036602485924959183,-0.02365499548614025
1690840330324396500,2.291396484375,-0.004068511072546244,-0.0046631949953734875,-0.022939138114452362
1690840330334467600,2.301467529296875,-0.004532966297119856,0.0012178635224699974,-0.023661652579903603
1690840330344507600,2.311507568359375,-0.00415453128516674,0.0024343954864889383,-0.02291996218264103
1690840330354548700,2.321548828125,-0.004581968765705824,0.007217432837933302,-0.02286163903772831
1690840330364588800,2.3315888671875,-0.004752677399665117,0.005178516730666161,-0.01871403306722641
1690840330374618600,2.34161865234375,-0.004415520932525396,0.005152950529009104,-0.02244565449655056
1690840330384658400,2.351658447265625,-0.005318066570907831,-0.0005451490869745612,-0.020481573417782784
1690840330394699300,2.36169921875,-0.004462658893316984,-0.0047090016305446625,-0.020376645028591156
1690840330404739300,2.3717392578125,-0.005576393101364374,-0.008423312567174435,-0.019588615745306015
1690840330414779400,2.381779296875,-0.005508482456207275,-0.005118062719702721,-0.01859285868704319
1690840330424820500,2.391820556640625,-0.00526799913495779,-0.006085855886340141,-0.01979181356728077
1690840330434860500,2.401860595703125,-0.004988633096218109,-0.003980094101279974,-0.0170905701816082
1690840330444900600,2.411900634765625,-0.004682635888457298,0.0012269183062016964,-0.020425645634531975
1690840330454940700,2.421940673828125,-0.0046605318784713745,0.003222425002604723,-0.02069755457341671
1690840330464981500,2.4319814453125,-0.0057473680935800076,0.0018959043081849813,-0.023746075108647346
1690840330475052300,2.44205224609375,-0.004480768460780382,0.005585181526839733,-0.021616078913211823
1690840330485092400,2.45209228515625,-0.0032109732273966074,-0.0026788737159222364,-0.023569507524371147
1690840330495132400,2.46213232421875,-0.005874134600162506,-0.00427304208278656,-0.022776952013373375
1690840330505172500,2.47217236328125,-0.004063451196998358,-0.00517691858112812,-0.019449064508080482
1690840330515213600,2.482213623046875,-0.0049558766186237335,-0.004436826333403587,-0.020262127742171288
1690840330525253600,2.492253662109375,-0.005532983224838972,-0.0036799560766667128,-0.01836196333169937
1690840330535293400,2.50229345703125,-0.00373002327978611,-0.0022913836874067783,-0.015989085659384727
1690840330545334300,2.512334228515625,-0.0049401638098061085,-0.0008748483960516751,-0.01913907378911972
1690840330555374300,2.522374267578125,-0.005354018881917,-0.00407490273937583,-0.01979341171681881
1690840330565414400,2.532414306640625,-0.002910568844527006,-0.0003312972257845104,-0.021094899624586105
1690840330575454500,2.542454345703125,-0.004028563853353262,-0.0013454289874061942,-0.022819029167294502
1690840330585495600,2.55249560546875,-0.0054488275200128555,-0.0023467775899916887,-0.022960176691412926
1690840330595535600,2.56253564453125,-0.005033640656620264,-0.003823766717687249,-0.022967100143432617
1690840330605575700,2.57257568359375,-0.003689809702336788,-0.0024615598376840353,-0.021643510088324547
1690840330615616500,2.582616455078125,-0.005294364411383867,-0.0020775320008397102,-0.019522834569215775
1690840330625686500,2.5926865234375,-0.004172907210886478,-0.0009267800487577915,-0.01889379695057869
1690840330635727400,2.602727294921875,-0.003982224967330694,-0.000041278995922766626,-0.017851168289780617
1690840330645767400,2.612767333984375,-0.004714061506092548,-0.0015542207984253764,-0.019516443833708763
1690840330655807500,2.622807373046875,-0.004372910596430302,-0.0024764735717326403,-0.021088240668177605
1690840330665847600,2.63284765625,-0.0045572011731565,-0.0022418489679694176,-0.020834442228078842
1690840330675888600,2.642888671875,-0.005594768561422825,-0.002529204124584794,-0.02184830792248249
1690840330685928400,2.652928466796875,-0.003850398352369666,-0.0033859428949654102,-0.02371784672141075
1690840330695968500,2.662968505859375,-0.005063468124717474,-0.003450924064964056,-0.022054169327020645
1690840330706009300,2.67300927734375,-0.004338555503636599,-0.0012769857421517372,-0.020723920315504074
1690840330716049400,2.68304931640625,-0.0057377805933356285,-0.001657018787227571,-0.019342537969350815
1690840330726089500,2.69308935546875,-0.005107143893837929,0.0009984191274270415,-0.01775715872645378
1690840330736129500,2.703129638671875,-0.005270928610116243,-0.001261539408005774,-0.01974307745695114
1690840330746170600,2.713170654296875,-0.005018993280827999,-0.00026312030968256295,-0.019955331459641457
1690840330756210700,2.723210693359375,-0.004476773552596569,-0.00038163099088706076,-0.018911372870206833
1690840330766281500,2.733281494140625,-0.005233910400420427,-0.0025571673177182674,-0.019880497828125954
1690840330776321500,2.743321533203125,-0.004650411661714315,-0.0027917916886508465,-0.02040487341582775
1690840330786361300,2.753361328125,-0.004120176658034325,-0.001781921018846333,-0.021462414413690567
1690840330796402400,2.76340234375,-0.006609433330595493,-0.003590740030631423,-0.022164691239595413
1690840330806442500,2.7734423828125,-0.004446147475391626,-0.0046996804885566235,-0.0221516415476799
1690840330816482600,2.783482666015625,-0.0029846045654267073,-0.0021821942646056414,-0.02063710056245327
1690840330826523600,2.793523681640625,-0.0046538738533854485,-0.0012341088149696589,-0.017767012119293213
1690840330836563500,2.8035634765625,-0.00433163158595562,0.001175519311800599,-0.01998702436685562
1690840330846603500,2.813603515625,-0.005548163317143917,-0.0011587414192035794,-0.02020833268761635
1690840330856643300,2.823643310546875,-0.005657885689288378,-0.002222674200311303,-0.020858144387602806
1690840330866684400,2.833684326171875,-0.003698065411299467,-0.002487126039341092,-0.02009062096476555
1690840330876724500,2.843724365234375,-0.0046269758604466915,-0.0010042780777439475,-0.021251225844025612
1690840330886764500,2.8537646484375,-0.004774781409651041,-0.005396363325417042,-0.022942600771784782
1690840330896804400,2.863804443359375,-0.004542287439107895,-0.005824865773320198,-0.02286883071064949
1690840330906875400,2.87387548828125,-0.004985703621059656,-0.003707919269800186,-0.020204070955514908
1690840330916916500,2.88391650390625,-0.004086886998265982,-0.0016173376934602857,-0.020673053339123726
1690840330926956300,2.893956298828125,-0.0036706349346786737,-0.00077631144085899,-0.020731376484036446
1690840330936996400,2.903996337890625,-0.004523112904280424,-0.0014980280539020896,-0.019566243514418602
1690840330947036400,2.914036376953125,-0.0038948729634284973,-0.0030072415247559547,-0.021258151158690453
1690840330957077500,2.924077392578125,-0.003154514357447624,0.0002777676854748279,-0.017241038382053375
1690840330967117600,2.93411767578125,-0.005738845560699701,-0.0018367822049185634,-0.020195549353957176
1690840330977157400,2.944157470703125,-0.005197159014642239,-0.0012857741676270962,-0.02004161849617958
1690840330987198500,2.954198486328125,-0.0038163098506629467,-0.0027206854429095984,-0.021950040012598038
1690840330997238300,2.96423828125,-0.005328719038516283,-0.0027944548055529594,-0.022545522078871727
1690840331007278300,2.9742783203125,-0.005599562544375658,-0.002285258611664176,-0.021982263773679733
1690840331017318400,2.984318359375,-0.0037705034483224154,-0.002775812754407525,-0.021331652998924255
1690840331027359500,2.994359375,-0.005109274294227362,-0.002889796160161495,-0.020795825868844986
1690840331037399600,3.004399658203125,-0.0037523938808590174,0.00034408041392453015,-0.02052604779601097
1690840331047439400,3.014439453125,-0.0057284594513475895,-0.0021888520568609238,-0.018803514540195465
1690840331057510400,3.024510498046875,-0.0046269758604466915,-0.0011925635626539588,-0.019168101251125336
1690840331067550500,3.034550537109375,-0.004977980628609657,-0.001487109111621976,-0.020791297778487206
1690840331077591300,3.04459130859375,-0.005046956706792116,-0.001989913871511817,-0.020838968455791473
1690840331087631400,3.05463134765625,-0.0030860709957778454,-0.0033454629592597485,-0.01890365034341812
1690840331097671400,3.06467138671875,-0.004071174189448357,-0.002061286708340049,-0.021918881684541702
1690840331107711500,3.07471142578125,-0.004988100845366716,-0.0022069616243243217,-0.02107066474854946
1690840331117752600,3.084752685546875,-0.00637906976044178,-0.0020873856265097857,-0.02161288447678089
1690840331127792400,3.09479248046875,-0.003979295492172241,-0.00401578051969409,-0.020383568480610847
1690840331137832400,3.10483251953125,-0.004833370912820101,-0.001454618526622653,-0.02045867033302784
1690840331147873300,3.114873291015625,-0.004869856406003237,-0.0026932547334581614,-0.020506873726844788
1690840331157913300,3.124913330078125,-0.0054094125516712666,-0.0011717908782884479,-0.018616560846567154
1690840331167953400,3.134953369140625,-0.006621151231229305,-0.001427987008355558,-0.02082538604736328
1690840331177993500,3.144993408203125,-0.004865062423050404,-0.002796585438773036,-0.01968049444258213
1690840331188034600,3.15503466796875,-0.00447011599317193,-0.0012748552253469825,-0.021978801116347313
1690840331198105300,3.165105224609375,-0.004069576505571604,-0.002400306984782219,-0.021210746839642525
1690840331208145400,3.1751455078125,-0.0035899411886930466,-0.0020325244404375553,-0.021392906084656715
1690840331218185500,3.185185546875,-0.0054914383217692375,-0.0020389161072671413,-0.021496236324310303
1690840331228225500,3.1952255859375,-0.0049492185935378075,-0.0021915151737630367,-0.021626198664307594
1690840331238266400,3.205266357421875,-0.0049433596432209015,-0.0021640846971422434,-0.01925518736243248
1690840331248306400,3.215306396484375,-0.0055092815309762955,-0.002350505907088518,-0.01956491358578205
1690840331258346500,3.225346435546875,-0.0029672940727323294,-0.0020623519085347652,-0.019628828391432762
1690840331268387600,3.2353876953125,-0.004518318921327591,-0.003707919269800186,-0.020710337907075882
1690840331278427400,3.245427490234375,-0.0037923413328826427,0.000049801110435510054,-0.02100381813943386
1690840331288467500,3.255467529296875,-0.005151885095983744,-0.0023614249657839537,-0.020229371264576912
1690840331298507500,3.265507568359375,-0.0056919739581644535,-0.0021877868566662073,-0.02015666663646698
1690840331308548400,3.27554833984375,-0.004785700235515833,-0.003662645351141691,-0.022303974255919456
1690840331318588400,3.28558837890625,-0.005264803301542997,-0.0015566176734864712,-0.022827550768852234
1690840331328628500,3.29562841796875,-0.006493052933365107,-0.00236275652423501,-0.020804347470402718
1690840331338669600,3.305669677734375,-0.005057875532656908,-0.0020389161072671413,-0.020838435739278793
1690840331348739300,3.3157392578125,-0.0038242992013692856,-0.00370072852820158,-0.021856829524040222
1690840331358780400,3.325780517578125,-0.005093295592814684,-0.002621349412947893,-0.020788369700312614
1690840331368820500,3.335820556640625,-0.003736947663128376,-0.0030714236199855804,-0.020799554884433746
1690840331378860300,3.3458603515625,-0.003988349810242653,-0.002235191175714135,-0.018870094791054726
1690840331388900000,3.355900146484375,-0.00512685114517808,-0.0032916669733822346,-0.017775801941752434
1690840331398941200,3.365941162109375,-0.0049217878840863705,-0.0025867284275591373,-0.02069648914039135
1690840331408981000,3.37598095703125,-0.0046906257048249245,-0.002517219865694642,-0.02135349251329899
1690840331419021000,3.38602099609375,-0.005253351293504238,-0.0027955202385783195,-0.020505541935563087
1690840331429062100,3.396062255859375,-0.00498064374551177,-0.001973402453586459,-0.021930066868662834
1690840331439102200,3.406102294921875,-0.004033091012388468,-0.0016951019642874599,-0.021494906395673752
1690840331449142300,3.416142333984375,-0.004738296382129192,0.00011691277177305892,-0.021520737558603287
1690840331459182300,3.426182373046875,-0.003765709698200226,-0.0011757856700569391,-0.02159184403717518
1690840331469223200,3.43622314453125,-0.005093295592814684,-0.0028125643730163574,-0.019758524373173714
1690840331479263000,3.446262939453125,-0.004945756401866674,-0.0030538467690348625,-0.019514845684170723
1690840331489334000,3.456333984375,-0.004478371702134609,-0.001942776027135551,-0.022481074556708336
1690840331499374000,3.4663740234375,-0.005599562544375658,-0.003579288488253951,-0.021693844348192215
1690840331509414100,3.4764140625,-0.004191016778349876,-0.0020271982066333294,-0.021885590627789497
1690840331519455200,3.486455322265625,-0.004779309034347534,-0.0037585191894322634,-0.020663199946284294
1690840331529495300,3.496495361328125,-0.0038035267498344183,-0.0025446503423154354,-0.0200397539883852
1690840331539535000,3.50653515625,-0.004340952727943659,0.00016777914424892515,-0.021618476137518883
1690840331549575200,3.5165751953125,-0.0038573225028812885,-0.0016146745765581727,-0.019576365128159523
1690840331559616000,3.526615966796875,-0.002822950715199113,-0.0007941546500660479,-0.021081849932670593
1690840331569656000,3.536656005859375,-0.003913781605660915,-0.0016916398890316486,-0.020536167547106743
1690840331579696000,3.546696044921875,-0.0052296495996415615,-0.001073786523193121,-0.019845344126224518
1690840331589737200,3.5567373046875,-0.004759334959089756,-0.002299106912687421,-0.01871749572455883
1690840331599777300,3.56677734375,-0.005766808986663818,-0.002679672557860613,-0.019356120377779007
1690840331609817300,3.5768173828125,-0.005645635072141886,-0.0017749968683347106,-0.019828565418720245
1690840331619857200,3.586857177734375,-0.0065465825609862804,-0.0013227921444922686,-0.021940452978014946
1690840331629898000,3.59689794921875,-0.005110339727252722,-0.0012993563432246447,-0.020434968173503876
1690840331639969000,3.606968994140625,-0.004060521721839905,-0.0037526602391153574,-0.022822491824626923
1690840331650009000,3.617009033203125,-0.0035156388767063618,0.000012250540748937055,-0.020488496869802475
1690840331660049200,3.627049072265625,-0.005567071959376335,-0.0009483516332693398,-0.020864268764853477
1690840331670089200,3.637089111328125,-0.005307946354150772,-0.0025446503423154354,-0.020830979570746422
1690840331680130300,3.64713037109375,-0.0057287258096039295,-0.0006628608098253608,-0.019887421280145645
1690840331690170000,3.657170166015625,-0.004385161213576794,-0.0019353191601112485,-0.021328192204236984
1690840331700210200,3.667210205078125,-0.004923652391880751,-0.0025811356026679277,-0.021746041253209114
1690840331710251000,3.6772509765625,-0.005397961009293795,-0.003835218260064721,-0.019902335479855537
1690840331720291000,3.687291015625,-0.004905809182673693,-0.0019323896849527955,-0.020419254899024963
1690840331730331100,3.6973310546875,-0.004220577888190746,-0.0009859022684395313,-0.020854948088526726
1690840331740371200,3.70737109375,-0.004208327271044254,-0.002338788006454706,-0.02214604802429676
1690840331750412300,3.717412353515625,-0.004452272783964872,-0.0025869945529848337,-0.02010713331401348
1690840331760452400,3.727452392578125,-0.006758303847163916,-0.0016559535870328546,-0.021261079236865044
1690840331770492200,3.7374921875,-0.0054480284452438354,-0.0006852313526906073,-0.021323930472135544
1690840331780563200,3.747563232421875,-0.004313255660235882,-0.001614940818399191,-0.017856761813163757
1690840331790603300,3.757603271484375,-0.004715659189969301,0.00007829693640815094,-0.019089005887508392
1690840331800644000,3.76764404296875,-0.00449994346126914,-0.001788312685675919,-0.02093990333378315
1690840331810684200,3.77768408203125,-0.005280782002955675,0.00022690132027491927,-0.020070647820830345
1690840331820724200,3.78772412109375,-0.002888730727136135,-0.001582716591656208,-0.020179037004709244
1690840331830764000,3.797763916015625,-0.0041036647744476795,-0.001404284848831594,-0.020419787615537643
1690840331840805000,3.80780517578125,-0.003704723436385393,-0.0029406624380499125,-0.019823772832751274
1690840331850845200,3.81784521484375,-0.004259726032614708,-0.0018724685069173574,-0.020728182047605515
1690840331860885200,3.82788525390625,-0.004261057823896408,-0.0020511667244136333,-0.022131135687232018
1690840331870926000,3.837926025390625,-0.00464694993570447,-0.0011377023765817285,-0.018997659906744957
1690840331880966100,3.847966064453125,-0.004023237619549036,-0.002243979601189494,-0.020553478971123695
1690840331891006200,3.858006103515625,-0.004132959526032209,-0.0010420948965474963,-0.01960592530667782
1690840331901046300,3.86804638671875,-0.004484497010707855,0.00015419702685903758,-0.020311396569013596
1690840331911087400,3.87808740234375,-0.004102067090570927,-0.0023869911674410105,-0.019349729642271996
1690840331921158100,3.888158203125,-0.005397694651037455,-0.0028104339726269245,-0.020978517830371857
1690840331931198200,3.8981982421875,-0.003459978848695755,-0.0038368161767721176,-0.023964988067746162
1690840331941238300,3.90823828125,-0.0029917950741946697,-0.0004767058417201042,-0.02034708298742771
1690840331951278300,3.9182783203125,-0.004945490043610334,-0.00023196132679004222,-0.020534569397568703
1690840331961319200,3.928319091796875,-0.0049343048594892025,-0.0021339908707886934,-0.01961205154657364
1690840331971359200,3.938359130859375,-0.004555869847536087,-0.0025039040483534336,-0.0208115391433239
1690840331981399000,3.94839892578125,-0.005768939387053251,-0.002261822810396552,-0.02009967528283596
1690840331991439000,3.958439208984375,-0.005036303773522377,-0.0017600831342861056,-0.020715665072202682
1690840332001480200,3.968480224609375,-0.004160390235483646,-0.0008668589289300144,-0.01973615400493145
1690840332011520300,3.978520263671875,-0.004888498689979315,-0.002124669961631298,-0.02039182372391224
1690840332021560300,3.988560302734375,-0.004935636185109615,-0.0037374801468104124,-0.02021152898669243
1690840332031601200,3.99860107421875,-0.0057529606856405735,-0.0027656927704811096,-0.020922325551509857
1690840332041641200,4.00864111328125,-0.003762780223041773,-0.0019315907265990973,-0.02256975695490837
1690840332051681000,4.018680908203125,-0.0040946099907159805,-0.0010404969798400998,-0.020556939765810966
1690840332061721000,4.02872119140625,-0.005656553898006678,-0.0020996362436562777,-0.021614747121930122
1690840332071792000,4.038792236328125,-0.004723649006336927,-0.0031704932916909456,-0.02003788948059082
1690840332081833200,4.048833251953125,-0.006500243674963713,-0.0023853934835642576,-0.018688200041651726
1690840332091873300,4.058873291015625,-0.005556419026106596,-0.0038450718857347965,-0.020146280527114868
1690840332101913000,4.0689130859375,-0.004649080336093903,-0.0037180392537266016,-0.021153755486011505
1690840332111953200,4.078953125,-0.0034882084000855684,-0.00140987744089216,-0.020013920962810516
1690840332121994200,4.088994140625,-0.003922836389392614,-0.0015664712991565466,-0.020558804273605347
1690840332132034000,4.099033935546875,-0.004083691164851189,-0.001915878034196794,-0.019809924066066742
1690840332142074000,4.10907421875,-0.0036754286848008633,-0.0012298477813601494,-0.023008646443486214
1690840332152115200,4.119115234375,-0.003254915354773402,-0.002728142309933901,-0.020083164796233177
1690840332162155300,4.1291552734375,-0.004063451196998358,-0.002935868687927723,-0.021855231374502182
1690840332172195000,4.139195068359375,-0.006506102625280619,-0.0008040083339437842,-0.02052258513867855
1690840332182235100,4.149235107421875,-0.00555322365835309,-0.0019121496006846428,-0.021751634776592255
1690840332192276200,4.159276123046875,-0.004808071069419384,-0.001184574095532298,-0.020672786980867386
1690840332202316000,4.16931591796875,-0.005148422904312611,-0.0029949909076094627,-0.019147595390677452
1690840332212387000,4.179386962890625,-0.005931392312049866,-0.0015129417879506946,-0.019689548760652542
1690840332222427100,4.18942724609375,-0.0033457293175160885,0.00007110639853635803,-0.02003762312233448
1690840332232467200,4.19946728515625,-0.0039036613889038563,-0.003064233111217618,-0.020682375878095627
1690840332242508300,4.20950830078125,-0.004236290231347084,-0.00279019377194345,-0.02262009121477604
1690840332252548000,4.219548095703125,-0.0044165863655507565,-0.0034293525386601686,-0.020112192258238792
1690840332262588200,4.229588134765625,-0.004881041590124369,-0.0035214978270232677,-0.022190257906913757
1690840332272628000,4.2396279296875,-0.004241084214299917,-0.0021403825376182795,-0.02237934060394764
1690840332282669000,4.2496689453125,-0.003707386553287506,-0.0008396946941502392,-0.01962376944720745
1690840332292709000,4.259709228515625,-0.005646966863423586,-0.001588841900229454,-0.021028585731983185
1690840332302749200,4.269749267578125,-0.005282912403345108,-0.0010197244118899107,-0.019636020064353943
1690840332312790300,4.279790283203125,-0.004053863696753979,-0.0015209312550723553,-0.020170249044895172
1690840332322830000,4.289830078125,-0.006119677796959877,-0.000988032785244286,-0.020539363846182823
1690840332332870100,4.2998701171875,-0.003968109842389822,-0.0015880429418757558,-0.0214749313890934
1690840332342910000,4.309909912109375,-0.004861600697040558,-0.0025385250337421894,-0.02136813849210739
1690840332352951000,4.319950927734375,-0.005369731690734625,0.00006844323797849938,-0.02147466503083706
1690840332363022000,4.33002197265625,-0.005221393425017595,-0.0020130835473537445,-0.020428575575351715
1690840332373062100,4.340062255859375,-0.0041731735691428185,-0.0017694041598588228,-0.021692512556910515
1690840332383103700,4.350103759765625,-0.0051596080884337425,-0.003540938952937722,-0.020958278328180313
1690840332393143800,4.360143798828125,-0.0037920749746263027,-0.0013712616637349129,-0.02070794068276882
1690840332403185000,4.370184814453125,-0.0032977922819554806,-0.0035273567773401737,-0.018124941736459732
1690840332413225000,4.380224853515625,-0.005085306242108345,-0.0032109732273966074,-0.02039448730647564
1690840332423265000,4.39026513671875,-0.0049103363417088985,-0.0015355786308646202,-0.021767878904938698
1690840332433305900,4.400305908203125,-0.00364719913341105,-0.00256355875171721,-0.02040460705757141
1690840332443346000,4.410345947265625,-0.004319114610552788,0.0003502056933939457,-0.0184708870947361
1690840332453385700,4.4203857421875,-0.0049185920506715775,-0.0036703685764223337,-0.020233899354934692
1690840332463425800,4.43042578125,-0.0032107068691402674,-0.0027569043450057507,-0.020712468773126602
1690840332473467000,4.440466796875,-0.0017888452857732773,-0.0012117383303120732,-0.021196365356445312
1690840332483507000,4.4505068359375,-0.0035625104792416096,-0.0005547364708036184,-0.021680528298020363
1690840332493547000,4.460547119140625,-0.00384453940205276,-0.0025515747256577015,-0.01936757192015648
1690840332503618000,4.4706181640625,-0.005185707006603479,-0.001794171635992825,-0.02058383822441101
1690840332513657900,4.480657958984375,-0.004983306862413883,-0.0012221246724948287,-0.020786238834261894
1690840332523698700,4.49069873046875,-0.004553472623229027,-0.0007355650886893272,-0.019193135201931
1690840332533738800,4.50073876953125,-0.0038037928752601147,-0.001969141187146306,-0.02190343476831913
1690840332543778800,4.51077880859375,-0.005280249286442995,-0.002428004052489996,-0.021398499608039856
1690840332553819000,4.52081884765625,-0.004192614462226629,-0.0033750240691006184,-0.020602213218808174
1690840332563860000,4.53085986328125,-0.005489041097462177,-0.001990712946280837,-0.019715914502739906
1690840332573900000,4.540900146484375,-0.004246676806360483,-0.0007917577750049531,-0.020563066005706787
1690840332583939800,4.55093994140625,-0.005406483076512814,-0.0007518103811889887,-0.02153938077390194
1690840332593981000,4.56098095703125,-0.005327653605490923,-0.0014258564915508032,-0.020195282995700836
1690840332604020700,4.571020751953125,-0.005191300064325333,-0.0014173343079164624,-0.020719127729535103
1690840332614060800,4.581060791015625,-0.004866660572588444,-0.004752411041408777,-0.01931031420826912
1690840332624100900,4.591100830078125,-0.005446164403110743,-0.0016935041639953852,-0.02173032984137535
1690840332634142000,4.601141845703125,-0.0043835630640387535,-0.004821120295673609,-0.02015320584177971
1690840332644182000,4.61118212890625,-0.004522047471255064,-0.0012668657582253218,-0.019205918535590172
1690840332654253000,4.621253173828125,-0.005471730604767799,-0.0020530307665467262,-0.020678913220763206
1690840332664292900,4.63129296875,-0.0036999296862632036,-0.0015779229579493403,-0.020550016313791275
1690840332674333000,4.6413330078125,-0.00520727876573801,-0.0018852517241612077,-0.02196788229048252
1690840332684373800,4.651373779296875,-0.005160939879715443,-0.0017986990278586745,-0.020068516954779625
1690840332694413800,4.661413818359375,-0.0028988507110625505,-0.0022093583829700947,-0.02160462737083435
1690840332704454000,4.671453857421875,-0.005316202063113451,0.00025273399660363793,-0.019233349710702896
1690840332714494000,4.681493896484375,-0.005377987399697304,-0.0017414409667253494,-0.021453892812132835
1690840332724535000,4.69153515625,-0.0029550434555858374,-0.002313754288479686,-0.020549217239022255
1690840332734574800,4.701574951171875,-0.004808071069419384,-0.001799764228053391,-0.020684238523244858
1690840332744615000,4.711614990234375,-0.003870904678478837,-0.003341201925650239,-0.020015785470604897
1690840332754655700,4.72165576171875,-0.005909021943807602,-0.001973136095330119,-0.018458103761076927
1690840332764695800,4.73169580078125,-0.029798375442624092,0.08474738150835037,-0.10612590610980988
1690840332774736000,4.74173583984375,-0.040039826184511185,-0.026729881763458252,-0.10534746199846268
1690840332784776000,4.75177587890625,-0.020013654604554176,-0.051948416978120804,-0.09093896299600601
1690840332794847000,4.761846923828125,-0.002778475871309638,-0.039921581745147705,-0.08236118406057358
1690840332804888000,4.77188818359375,0.023504793643951416,-0.0975518599152565,-0.0327206626534462
1690840332814928000,4.781927978515625,0.013456153683364391,0.02375885844230652,-0.02371172048151493
1690840332824968000,4.791968017578125,0.011891813017427921,0.03632205352187157,0.0029619678389281034
1690840332835008000,4.802008056640625,0.005527390632778406,0.040835313498973846,0.016754478216171265
1690840332845048800,4.812048828125,-0.004892759490758181,0.0329265259206295,0.025041703134775162
1690840332855089000,4.8220888671875,-0.014817029237747192,0.011788216419517994,0.03154647350311279
1690840332865129000,4.83212890625,-0.01925385557115078,-0.010751713998615742,0.03308418393135071
1690840332875170000,4.842170166015625,-0.015784289687871933,-0.031022097915410995,0.030477480962872505
1690840332885209900,4.8522099609375,-0.010511497035622597,-0.03844752535223961,0.02461985871195793
1690840332895250000,4.86225,-0.0036048549227416515,-0.03184607997536659,0.017696438357234
1690840332905290000,4.8722900390625,0.0025094966404139996,-0.012623650021851063,0.007397462613880634
1690840332915330800,4.882330810546875,0.0007022755453363061,0.0031257520895451307,-0.006178267300128937
1690840332925371000,4.892370849609375,0.0010969560826197267,0.01985812745988369,-0.017251690849661827
1690840332935442000,4.90244189453125,-0.0020578245166689157,0.026464363560080528,-0.030366428196430206
1690840332945482000,4.91248193359375,-0.007123955991119146,0.018985942006111145,-0.04012132063508034
1690840332955521800,4.922521728515625,-0.01016981340944767,0.009078715927898884,-0.04969858005642891
1690840332965563000,4.93256298828125,-0.00881905760616064,-0.003132676472887397,-0.05790351331233978
1690840332975603000,4.94260302734375,-0.0059937103651463985,-0.01661652699112892,-0.059725914150476456
1690840332985643000,4.95264306640625,-0.002555036684498191,-0.02062911167740822,-0.059125371277332306
1690840332995683000,4.96268310546875,-0.004019509069621563,-0.014789332635700703,-0.057193513959646225
1690840333005724000,4.972723876953125,-0.0023374564480036497,-0.010401774197816849,-0.051956940442323685
1690840333015764000,4.982763916015625,-0.003227751236408949,0.0003989415417890996,-0.045948583632707596
1690840333025803800,4.9928037109375,-0.002764893928542733,0.007555920630693436,-0.033845849335193634
1690840333035844900,5.002844970703125,-0.005898102652281523,0.011727762408554554,-0.02630137838423252
1690840333045885000,5.012885009765625,-0.0070738885551691055,0.010122941806912422,-0.015382418408989906
1690840333055925000,5.022925048828125,-0.0065292720682919025,0.004713795147836208,-0.0073388731107115746
1690840333065965000,5.032965087890625,-0.004825647920370102,-0.0035209653433412313,-0.0003062635369133204
1690840333076006000,5.043005859375,-0.002734267385676503,-0.008537827990949154,0.005065864883363247
1690840333086077000,5.053076904296875,-0.0035513252951204777,-0.011536813341081142,0.009236641228199005
1690840333096117000,5.063116943359375,-0.004202201962471008,-0.012592490762472153,0.00845660176128149
1690840333106156800,5.07315673828125,-0.005299690645188093,-0.006359894759953022,0.007604389917105436
1690840333116196900,5.08319677734375,-0.00643712654709816,-0.0001203748834086582,0.005117796827107668
1690840333126238000,5.093238037109375,-0.003825897118076682,0.003355050226673484,-0.0012591425329446793
1690840333136278000,5.103278076171875,-0.006237922236323357,0.004975051153451204,-0.007708253338932991
1690840333146318000,5.113318115234375,-0.003489539958536625,0.0028911277186125517,-0.014622618444263935
1690840333156358000,5.12335791015625,-0.0021675468888133764,0.001600826159119606,-0.02321477420628071
1690840333166399000,5.13339892578125,-0.0020666129421442747,-0.0016879114555194974,-0.03147004172205925
1690840333176438800,5.143438720703125,-0.002716158051043749,-0.006596117280423641,-0.03476943075656891
1690840333186478800,5.153478759765625,-0.005620335228741169,-0.007110373582690954,-0.040536507964134216
1690840333196520000,5.16352001953125,-0.005374791566282511,-0.004169178660959005,-0.04255012422800064
1690840333206560000,5.17356005859375,-0.005155880004167557,-0.0008759136544540524,-0.04234639182686806
1690840333216600000,5.18360009765625,-0.005131112411618233,0.0005403553950600326,-0.04198899492621422
1690840333226671000,5.193671142578125,-0.003972104750573635,0.0016871124971657991,-0.037036050111055374
1690840333236711000,5.2037109375,-0.005001682788133621,0.002948119305074215,-0.03411003202199936
1690840333246752000,5.213751953125,-0.00447038235142827,0.001517735538072884,-0.030127542093396187
1690840333256791800,5.223791748046875,-0.003279150230810046,-0.0016554208705201745,-0.02159211039543152
1690840333266832000,5.233831787109375,-0.00520647969096899,-0.005404885392636061,-0.019159313291311264
1690840333276872000,5.243871826171875,-0.006529804784804583,-0.004248274490237236,-0.012913933955132961
1690840333286913000,5.2539130859375,-0.006272010505199432,-0.0038922098465263844,-0.01101483404636383
1690840333296953000,5.263953125,-0.004249606281518936,-0.002017344580963254,-0.005970274563878775
1690840333306993000,5.273992919921875,-0.003841609926894307,-0.001294029993005097,-0.004476241301745176
1690840333317034000,5.284033935546875,-0.004315119702368975,-0.0005179848521947861,-0.004033623728901148
1690840333327073800,5.29407373046875,-0.0036754286848008633,-0.001591505017131567,-0.006713296286761761
1690840333337113900,5.30411376953125,-0.004348942078649998,0.00022210762836039066,-0.006460828706622124
1690840333347154000,5.31415380859375,-0.004769455175846815,0.00037630466977134347,-0.01098474022001028
1690840333357195000,5.324195068359375,-0.003713511861860752,-0.002067944500595331,-0.0135067543014884
1690840333367235000,5.334235107421875,-0.00481366366147995,-0.000556600687559694,-0.018263159319758415
1690840333377291500,5.34429150390625,-0.004681038204580545,-0.0029617014806717634,-0.022761238738894463
1690840333387331600,5.35433154296875,-0.0037089844699949026,-0.004415520932525396,-0.026509903371334076
1690840333397371600,5.36437158203125,-0.004065048880875111,-0.0033182986080646515,-0.030399451032280922
1690840333407412500,5.37441259765625,-0.004591555800288916,-0.001413339632563293,-0.0325414314866066
1690840333417452500,5.38445263671875,-0.0035052525345236063,0.0003581951605156064,-0.032996565103530884
1690840333427492600,5.39449267578125,-0.004478904418647289,0.0005190501105971634,-0.03189002349972725
1690840333437532400,5.404532470703125,-0.00504083139821887,-0.0007699198904447258,-0.032225847244262695
1690840333447573500,5.414573486328125,-0.003732952754944563,0.0013635384384542704,-0.030774690210819244
1690840333457613600,5.424613525390625,-0.004831506870687008,-0.0028900622855871916,-0.026885943487286568
1690840333467653600,5.434653564453125,-0.006527673918753862,-0.001820803270675242,-0.024231569841504097
1690840333477694500,5.444694580078125,-0.004393416922539473,-0.0030953921377658844,-0.021495439112186432
1690840333487734500,5.454734619140625,-0.0030216225422918797,-0.003710316028445959,-0.019473299384117126
1690840333497774600,5.464774658203125,-0.0037702370900660753,-0.0030658310279250145,-0.016459133476018906
1690840333507814700,5.474814697265625,-0.005544967483729124,-0.0025361282750964165,-0.014633537270128727
1690840333517885400,5.484885498046875,-0.004658934194594622,-0.001511343871243298,-0.011630024760961533
1690840333527926500,5.494926513671875,-0.00481233187019825,-0.0011544802691787481,-0.010945059359073639
1690840333537966600,5.504966552734375,-0.004174238536506891,-0.0011688614031299949,-0.010548514313995838
1690840333548006700,5.515006591796875,-0.002692722249776125,-0.0018482337472960353,-0.012591958045959473
1690840333558046500,5.52504638671875,-0.003989681601524353,-0.0009685916593298316,-0.014216752722859383
1690840333568087600,5.535087646484375,-0.0054970309138298035,-0.0008367652189917862,-0.016173111274838448
1690840333578127600,5.545127685546875,-0.00535481795668602,-0.003811249742284417,-0.018071146681904793
1690840333588167400,5.55516748046875,-0.005137237720191479,-0.0023760723415762186,-0.02178199402987957
1690840333598208500,5.56520849609375,-0.004933239426463842,-0.002575543010607362,-0.022975357249379158
1690840333608248600,5.57524853515625,-0.004698082339018583,-0.0012428972404450178,-0.025668611750006676
1690840333618288600,5.58528857421875,-0.004279966000467539,-0.0036759611684828997,-0.02599058859050274
1690840333628328400,5.595328369140625,-0.0037201696541160345,-0.0014889733865857124,-0.028240958228707314
1690840333638369500,5.60536962890625,-0.005604622419923544,-0.002192314248532057,-0.027513382956385612
1690840333648409600,5.61540966796875,-0.0046160570345819,-0.0008902947301976383,-0.028418058529496193
1690840333658449700,5.62544970703125,-0.004788097459822893,-0.002960103563964367,-0.02635197900235653
1690840333668520400,5.6355205078125,-0.00532499048858881,-0.00006950850365683436,-0.025715483352541924
1690840333678560500,5.645560546875,-0.00532499048858881,-0.0034173682797700167,-0.02352503314614296
1690840333688601600,5.6556015625,-0.005287706386297941,-0.001323857344686985,-0.021436583250761032
1690840333698641700,5.6656416015625,-0.00538437906652689,-0.003477822057902813,-0.020186228677630424
1690840333708681500,5.675681396484375,-0.004569718148559332,-0.0023012375459074974,-0.020442424342036247
1690840333718721500,5.685721435546875,-0.005290103144943714,-0.00224903947673738,-0.017709221690893173
1690840333728762600,5.6957626953125,-0.004911934491246939,-0.0017012272728607059,-0.016212791204452515
1690840333738802400,5.705802490234375,-0.004497013986110687,-0.0024474449455738068,-0.01552436500787735
1690840333748842500,5.715842529296875,-0.0037553233560174704,-0.0010905644157901406,-0.015253521502017975
1690840333758883600,5.725883544921875,-0.0054626758210361,-0.0000045273736759554595,-0.01613529399037361
1690840333768923600,5.735923583984375,-0.004393683280795813,-0.0015387744642794132,-0.014901185408234596
1690840333778963500,5.74596337890625,-0.0050687943585217,-0.0017797905020415783,-0.01775316521525383
1690840333789003500,5.75600341796875,-0.005043760873377323,0.00036272252327762544,-0.0187851395457983
1690840333799044600,5.766044677734375,-0.003897269954904914,-0.0007065366371534765,-0.018559303134679794
1690840333809114400,5.7761142578125,-0.003817108692601323,-0.0031372036319226027,-0.02220730111002922
1690840333819155500,5.786155517578125,-0.005023254547268152,-0.0011230550007894635,-0.02238786406815052
1690840333829195500,5.796195556640625,-0.005579588934779167,-0.001955559244379401,-0.02472185716032982
1690840333839235600,5.806235595703125,-0.004424842074513435,-0.000969656917732209,-0.025439579039812088
1690840333849276400,5.8162763671875,-0.005362274590879679,-0.0007906925166025758,-0.024633441120386124
1690840333859316500,5.82631640625,-0.005244562868028879,-0.0030333404429256916,-0.02461612969636917
1690840333869356500,5.8363564453125,-0.0038274950347840786,-0.002522812457755208,-0.025044366717338562
1690840333879396400,5.846396240234375,-0.0044115264900028706,-0.0025712819769978523,-0.023507190868258476
1690840333889437400,5.8564375,-0.005399825517088175,-0.0010213222121819854,-0.02237508073449135
1690840333899477500,5.8664775390625,-0.005391303449869156,-0.001210406655445695,-0.019954532384872437
1690840333909517600,5.876517578125,-0.004551608581095934,-0.0013853764394298196,-0.019833892583847046
1690840333919558400,5.886558349609375,-0.005109008401632309,-0.001698564155958593,-0.02040354162454605
1690840333929598500,5.896598388671875,-0.0057798586785793304,-0.00010093380114994943,-0.017843445762991905
1690840333939638500,5.906638427734375,-0.0033401367254555225,-0.0022037657909095287,-0.017764084041118622
1690840333949709300,5.916709228515625,-0.0041609229519963264,0.00011158645065734163,-0.01715794764459133
1690840333959749400,5.926749267578125,-0.003305249148979783,-0.00035446672700345516,-0.017732657492160797
1690840333969790500,5.93679052734375,-0.003811782458797097,0.0003296993381809443,-0.019580092281103134
1690840333979830500,5.94683056640625,-0.003971838392317295,-0.0009888317435979843,-0.018013620749115944
1690840333989870600,5.95687060546875,-0.004807804711163044,-0.0006354302167892456,-0.01860031671822071
1690840333999910700,5.96691064453125,-0.004217914305627346,-0.00044794369023293257,-0.02045680582523346
1690840334009951500,5.976951416015625,-0.005363606382161379,-0.0015512913232669234,-0.019883161410689354
1690840334019991600,5.986991455078125,-0.004114849958568811,-0.003191798459738493,-0.02064455859363079
1690840334030031400,5.99703125,-0.0032320122700184584,-0.0001691107318038121,-0.023321833461523056
1690840334040072400,6.007072509765625,-0.0038511971943080425,-0.0005874933558516204,-0.02293567545711994
1690840334050112500,6.017112548828125,-0.005633917171508074,-0.0026996464002877474,-0.023130353540182114
1690840334060152600,6.027152587890625,-0.003695668652653694,-0.002116147894412279,-0.022827817127108574
1690840334070192600,6.037192626953125,-0.0046331011690199375,-0.0012903015594929457,-0.024880049750208855
1690840334080233500,6.0472333984375,-0.005682120565325022,-0.0016916398890316486,-0.024744760245084763
1690840334090273500,6.0572734375,-0.005113269202411175,0.000005592638444795739,-0.02093164622783661
1690840334100344300,6.06734423828125,-0.0041071269661188126,-0.002996056107804179,-0.021019531413912773
1690840334110384400,6.07738427734375,-0.004259193316102028,-0.0026075011119246483,-0.02046958915889263
1690840334120424400,6.087424560546875,-0.005776662845164537,-0.002526008291170001,-0.020564131438732147
1690840334130465500,6.097465576171875,-0.006324474699795246,-0.002213619416579604,-0.020303141325712204
1690840334140505600,6.107505615234375,-0.004341219086199999,-0.00033209618413820863,-0.019591543823480606
1690840334150545700,6.117545654296875,-0.00458836043253541,-0.001802693703211844,-0.019833093509078026
1690840334160585700,6.127585693359375,-0.004604072775691748,-0.0023214775137603283,-0.01703783869743347
1690840334170626600,6.13762646484375,-0.005091165192425251,-0.0010098706698045135,-0.018367022275924683
1690840334180666400,6.147666259765625,-0.005781190004199743,-0.00282082031480968,-0.020295683294534683
1690840334190706400,6.15770654296875,-0.006134325172752142,-0.0008711199625395238,-0.01961205154657364
1690840334200747500,6.16774755859375,-0.00361790438182652,-0.0018013621447607875,-0.020262127742171288
1690840334210787600,6.17778759765625,-0.004957474302500486,0.00012383698776829988,-0.02033643051981926
1690840334220827600,6.18782763671875,-0.002682868391275406,-0.0021726067643612623,-0.019159313291311264
1690840334230867700,6.19786767578125,-0.0057401773519814014,-0.0019236012594774365,-0.021258683875203133
1690840334240938500,6.2079384765625,-0.005640575196594,-0.0032778186723589897,-0.022101040929555893
1690840334250978600,6.217978515625,-0.005260009318590164,-0.0012221246724948287,-0.022425414994359016
1690840334261019400,6.228019287109375,-0.003724963404238224,-0.00316010694950819,-0.023911457508802414
1690840334271059500,6.2380595703125,-0.005846437532454729,-0.0007251787465065718,-0.023323431611061096
1690840334281099500,6.248099609375,-0.002974750939756632,-0.002764893928542733,-0.022275744006037712
1690840334291140600,6.258140625,-0.00424348097294569,-0.00006072007090551779,-0.021338045597076416
1690840334301180700,6.2681806640625,-0.004011253360658884,-0.0008639294537715614,-0.02167094126343727
1690840334311220700,6.278220703125,-0.002585130510851741,-0.001193096162751317,-0.020494356751441956
1690840334321260500,6.288260498046875,-0.004222175572067499,-0.0010490191634744406,-0.02237508073449135
1690840334331301400,6.29830126953125,-0.0028639633674174547,-0.00014327807002700865,-0.020132698118686676
1690840334341341400,6.308341552734375,-0.004853344522416592,-0.00115421402733773,-0.020067984238266945
1690840334351381500,6.318381591796875,-0.0036698358599096537,-0.001764077926054597,-0.020564664155244827
1690840334361422600,6.328422607421875,-0.004827778320759535,-0.00042876892257481813,-0.01973935030400753
1690840334371462700,6.338462646484375,-0.006768424063920975,-0.002281530061736703,-0.021464278921484947
1690840334381492700,6.34849267578125,-0.004888232331722975,-0.0007701861904934049,-0.02069063112139702
1690840334391563800,6.358563720703125,-0.005260542035102844,-0.001814411603845656,-0.019144132733345032
1690840334401603800,6.368603759765625,-0.004944957327097654,-0.003013899317011237,-0.02021978422999382
1690840334411645000,6.37864501953125,-0.004368915688246489,-0.0013885721564292908,-0.019176091998815536
1690840334421684700,6.388684814453125,-0.0022836606949567795,-0.002796585438773036,-0.021397966891527176
1690840334431724800,6.398724853515625,-0.0057196710258722305,-0.0027979169972240925,-0.020736437290906906
1690840334441764900,6.408764892578125,-0.004698082339018583,-0.0020093549974262714,-0.022467225790023804
1690840334451806000,6.418805908203125,-0.0041529336012899876,-0.0016389093361794949,-0.02063577063381672
1690840334461845800,6.428845703125,-0.0046149916015565395,-0.0019342538435012102,-0.022070148959755898
1690840334471885800,6.4388857421875,-0.005094361025840044,-0.0025190841406583786,-0.02075854130089283
1690840334481927000,6.448927001953125,-0.004248807206749916,-0.0022240057587623596,-0.021451229229569435
1690840334491966700,6.458966796875,-0.005029113497585058,-0.0005869606975466013,-0.02016305923461914
1690840334502006800,6.4690068359375,-0.003921770956367254,-0.0032855418976396322,-0.02184857428073883
1690840334512046800,6.479046875,-0.004466653801500797,0.0011166634503751993,-0.021562816575169563
1690840334522088000,6.489087890625,-0.004150802735239267,-0.00138084904756397,-0.022429674863815308
1690840334532158000,6.499157958984375,-0.005627791862934828,-0.00261841993778944,-0.019930565729737282
1690840334542198800,6.50919873046875,-0.005078914575278759,-0.0022863238118588924,-0.018759306520223618
1690840334552238800,6.51923876953125,-0.003861317178234458,-0.003965180367231369,-0.018910840153694153
1690840334562278700,6.529278564453125,-0.0032959282398223877,-0.0027443873696029186,-0.017855163663625717
1690840334572319700,6.53931982421875,-0.003790477057918906,-0.0010311759542673826,-0.020613133907318115
1690840334582359800,6.54935986328125,-0.002770752878859639,-0.0016823188634589314,-0.021075190976262093
1690840334592400000,6.55939990234375,-0.00433163158595562,-0.0021254688035696745,-0.01998835615813732
1690840334602440000,6.56943994140625,-0.003938282374292612,-0.0030250847339630127,-0.017725467681884766
1690840334612480800,6.579480712890625,-0.005091165192425251,-0.002314287004992366,-0.02111620455980301
1690840334622520800,6.589520751953125,-0.005664543714374304,-0.002226136391982436,-0.01936624012887478
1690840334632560600,6.599560546875,-0.004346811678260565,-0.002121740486472845,-0.020433636382222176
1690840334642601700,6.609601806640625,-0.004566788673400879,-0.001478587044402957,-0.018977418541908264
1690840334652641800,6.619641845703125,-0.004262389149516821,-0.0024197481106966734,-0.021691447123885155
1690840334662681900,6.629681884765625,-0.0027891285717487335,-0.0024138891603797674,-0.021359883248806
1690840334672722000,6.639721923828125,-0.0055090151727199554,-0.0009358347742818296,-0.022714899852871895
1690840334682793000,6.64979296875,-0.004593686666339636,-0.0023276028223335743,-0.020069049671292305
1690840334692833800,6.659833740234375,-0.004126301966607571,-0.0028221518732607365,-0.022071747109293938
1690840334702873600,6.66987353515625,-0.005072522908449173,-0.0010815097484737635,-0.021258683875203133
1690840334712913700,6.67991357421875,-0.0051894355565309525,-0.0016221314435824752,-0.020329507067799568
1690840334722953700,6.68995361328125,-0.004917260725051165,-0.001047421246767044,-0.021859759464859962
1690840334732994800,6.699994873046875,-0.0054272557608783245,-0.0016476977616548538,-0.021105552092194557
1690840334743035000,6.710034912109375,-0.005216067191213369,-0.0018514295807108283,-0.02219611592590809
1690840334753075000,6.720074951171875,-0.00484322477132082,-0.0009137305896729231,-0.019930830225348473
1690840334763115000,6.730114990234375,-0.003996073268353939,-0.002416019793599844,-0.020539097487926483
1690840334773155800,6.74015576171875,-0.005428054835647345,-0.0036671727430075407,-0.018996594473719597
1690840334783195600,6.750195556640625,-0.00384374032728374,-0.003335609333589673,-0.019147062674164772
1690840334793235700,6.760235595703125,-0.005650429055094719,-0.004217382054775953,-0.022914370521903038
1690840334803276800,6.77027685546875,-0.003656520042568445,-0.002380599733442068,-0.020987041294574738
1690840334813316900,6.78031689453125,-0.005422994960099459,-0.0010615360224619508,-0.021754298359155655
1690840334823388000,6.790387939453125,-0.004294879734516144,-0.00004207794336252846,-0.020904483273625374
1690840334833428000,6.800427978515625,-0.0038155107758939266,-0.002793389605358243,-0.019049856811761856
1690840334843467800,6.8104677734375,-0.0049345712177455425,-0.002285258611664176,-0.021625135093927383
1690840334853508600,6.820508544921875,-0.0048887645825743675,-0.002115615177899599,-0.020482638850808144
1690840334863548700,6.830548583984375,-0.0036674391012638807,-0.002353968098759651,-0.021344169974327087
1690840334873588700,6.840588623046875,-0.003884752979502082,-0.0021521004382520914,-0.019233349710702896
1690840334883628800,6.85062890625,-0.004488491453230381,-0.002983539365231991,-0.021828599274158478
1690840334893670000,6.860669921875,-0.005310343112796545,-0.003296993440017104,-0.020077304914593697
1690840334903710000,6.8707099609375,-0.004526575095951557,-0.0029254823457449675,-0.022427810356020927
1690840334913750000,6.88075,-0.003659449517726898,-0.0012604740913957357,-0.019847741350531578
1690840334923790800,6.890790771484375,-0.004246410448104143,-0.0038045919500291348,-0.02502306178212166
1690840334933830700,6.90083056640625,-0.004195011220872402,-0.0018253305461257696,-0.021764151751995087
1690840334943870700,6.91087060546875,-0.004736964590847492,-0.002766757970675826,-0.02178758755326271
1690840334953910800,6.920910888671875,-0.005000350996851921,-0.0020631509833037853,-0.020721256732940674
1690840334963981800,6.93098193359375,-0.003856257302686572,-0.002243446884676814,-0.021151890978217125
1690840334974022000,6.94102197265625,-0.004156928043812513,-0.0020567593164741993,-0.02214232087135315
1690840334984063000,6.95106298828125,-0.006705839652568102,-0.0003890878288075328,-0.020127372816205025
1690840334994102800,6.961102783203125,-0.00515907583758235,0.0001882854849100113,-0.021024059504270554
1690840335004142800,6.971142822265625,-0.004119910299777985,-0.0023241406306624413,-0.02052018791437149
1690840335014183700,6.98118359375,-0.005429652985185385,-0.003410177771002054,-0.020434968173503876
1690840335024223700,6.9912236328125,-0.0031374699901789427,-0.0038125813007354736,-0.019662916660308838
1690840335034263800,7.001263916015625,-0.005221659783273935,-0.0038567897863686085,-0.01955958642065525
1690840335044304000,7.011303955078125,-0.004864263813942671,-0.0010881676571443677,-0.020186228677630424
1690840335054345000,7.021344970703125,-0.005307147279381752,-0.0008239820599555969,-0.022011293098330498
1690840335064385000,7.031385009765625,-0.005516205448657274,-0.002103098202496767,-0.02118171751499176
1690840335074424800,7.0414248046875,-0.005642971955239773,-0.0010985539993271232,-0.021876003593206406
1690840335084465700,7.051465576171875,-0.004852812271565199,-0.00011211907985853031,-0.022399049252271652
1690840335094505700,7.061505615234375,-0.0032871398143470287,-0.0005645901546813548,-0.02045014686882496
1690840335104545800,7.0715458984375,-0.005744704511016607,0.001133441342972219,-0.020927386358380318
1690840335114616800,7.081616943359375,-0.004744687583297491,-0.002793123247101903,-0.021015269681811333
1690840335124657000,7.091656982421875,-0.005124188028275967,-0.0001805623178370297,-0.018753714859485626
1690840335134698000,7.101697998046875,-0.006362824235111475,-0.0022359900176525116,-0.022887738421559334
1690840335144737800,7.11173779296875,-0.005278917960822582,-0.001686846255324781,-0.022348714992403984
1690840335154777900,7.12177783203125,-0.005814479663968086,-0.0019302591681480408,-0.020308466628193855
1690840335164818000,7.13181787109375,-0.003991013392806053,-0.0011318434262648225,-0.02021552249789238
1690840335174858800,7.141858642578125,-0.005083441734313965,-0.0018072210950776935,-0.021695975214242935
1690840335184898800,7.15189892578125,-0.004175303969532251,-0.0031489215325564146,-0.019466375932097435
1690840335194939000,7.16193896484375,-0.0035260252188891172,-0.004490622319281101,-0.020616861060261726
1690840335204980000,7.17197998046875,-0.004174771253019571,-0.0013198626693338156,-0.021030183881521225
1690840335215020000,7.18202001953125,-0.004508199170231819,-0.002772616920992732,-0.020490361377596855
1690840335225059800,7.192059814453125,-0.0052237906493246555,-0.0034530546981841326,-0.01998063176870346
1690840335235100000,7.202099853515625,-0.0037230991292744875,-0.0001715075777610764,-0.020306071266531944
1690840335245140700,7.212140625,-0.004578772932291031,-0.00020160128769930452,-0.02117532677948475
1690840335255210800,7.222210693359375,-0.004347610287368298,-0.0022160164080560207,-0.02166348323225975
1690840335265251800,7.232251953125,-0.004510595928877592,0.00008149272616719827,-0.01991298794746399
1690840335275292000,7.2422919921875,-0.004677842371165752,-0.0005571332876570523,-0.019992349669337273
1690840335285331700,7.252331787109375,-0.005364938173443079,-0.0018373148050159216,-0.021437913179397583
1690840335295372800,7.262372802734375,-0.003787281457334757,-0.002566488226875663,-0.019842147827148438
1690840335305412900,7.272412841796875,-0.005590241402387619,-0.0024975123815238476,-0.020719127729535103
1690840335315453000,7.282452880859375,-0.005164668429642916,-0.002175003755837679,-0.02094070240855217
1690840335325492700,7.29249267578125,-0.005148689262568951,-0.003162503708153963,-0.02183419279754162
1690840335335533800,7.302533935546875,-0.005632852204144001,-0.000916393706575036,-0.021036576479673386
1690840335345574000,7.312573974609375,-0.004535629414021969,-0.00205276464112103,-0.020112991333007812
1690840335355613700,7.32261376953125,-0.004356665071099997,-0.0024671524297446012,-0.02117506042122841
1690840335365654800,7.33265478515625,-0.004821386653929949,-0.002029328839853406,-0.020928984507918358
1690840335375694800,7.34269482421875,-0.005291168577969074,-0.0009616674506105483,-0.019715648144483566
1690840335385734100,7.352734130859375,-0.005216067191213369,0.0009534116834402084,-0.021944180130958557
1690840335395774200,7.362774169921875,-0.0037015276029706,-0.00336197461001575,-0.020965736359357834
1690840335405845000,7.372844970703125,-0.004262655507773161,-0.0021523667965084314,-0.020289026200771332
1690840335415885000,7.382885009765625,-0.004123372491449118,-0.0012370382901281118,-0.02129676565527916
1690840335425926000,7.39292578125,-0.004040015395730734,-0.001689775730483234,-0.020665863528847694
1690840335435966000,7.402966064453125,-0.005768406670540571,-0.002064748667180538,-0.02196442149579525
1690840335446006000,7.413006103515625,-0.0059846555814146996,-0.0033688987605273724,-0.020253073424100876
1690840335456047000,7.423047119140625,-0.005228051450103521,-0.0015576828736811876,-0.021274928003549576
1690840335466087200,7.433087158203125,-0.005751895252615213,-0.0011286477092653513,-0.01961285062134266
1690840335476127200,7.443127197265625,-0.005141232628375292,0.00040772996726445854,-0.02099875919520855
1690840335486167000,7.4531669921875,-0.005596100352704525,-0.002129996195435524,-0.020953752100467682
1690840335496208000,7.463207763671875,-0.00407516909763217,-0.001853560097515583,-0.02082911506295204
1690840335506248000,7.473248046875,-0.005095425993204117,-0.0017984326696023345,-0.02111034467816353
1690840335516288000,7.4832880859375,-0.003973436541855335,-0.002487658755853772,-0.021372932940721512
1690840335526329000,7.4933291015625,-0.005567871034145355,-0.0010008158860728145,-0.01948448456823826
1690840335536369200,7.503369140625,-0.004580636974424124,-0.0005555353709496558,-0.02299080230295658
1690840335546440200,7.513440185546875,-0.0049734534695744514,-0.001961418194696307,-0.020445620641112328
1690840335556480000,7.52347998046875,-0.006580670829862356,-0.004857339430600405,-0.020479708909988403
1690840335566520000,7.53352001953125,-0.00418435875326395,-0.002523345174267888,-0.02233140543103218
1690840335576561000,7.543560791015625,-0.004150802735239267,-0.0019630161114037037,-0.02147999219596386
1690840335586601000,7.55360107421875,-0.00538544449955225,-0.0011377023765817285,-0.02117772400379181
1690840335596641000,7.56364111328125,-0.004729773849248886,-0.0020386497490108013,-0.019401926547288895
1690840335606681000,7.57368115234375,-0.005391303449869156,-0.0023728765081614256,-0.021939387544989586
1690840335616722200,7.58372216796875,-0.005046956706792116,-0.0024290692526847124,-0.020729513838887215
1690840335626762200,7.59376220703125,-0.0038067223504185677,-0.0011281149927526712,-0.021403824910521507
1690840335636802000,7.603802001953125,-0.0057444386184215546,-0.0017534252256155014,-0.020862404257059097
1690840335646843000,7.6138427734375,-0.0027177559677511454,-0.002423742786049843,-0.021337246522307396
1690840335656883000,7.623883056640625,-0.0037151097785681486,-0.003376089269295335,-0.021798240020871162
1690840335666923000,7.633923095703125,-0.00475427508354187,-0.001794171635992825,-0.02159504033625126
1690840335676963000,7.643963134765625,-0.004025101661682129,-0.002435460686683655,-0.020371584221720695
1690840335687004200,7.654004150390625,-0.003826163476333022,-0.002745985286310315,-0.021195033565163612
1690840335697074000,7.664073974609375,-0.004758269991725683,-0.0009784454014152288,-0.02033589780330658
1690840335707115000,7.674114990234375,-0.0027393274940550327,-0.0027225494850426912,-0.019364643841981888
1690840335717155000,7.684155029296875,-0.004034689161926508,-0.002110022585839033,-0.02171994186937809
1690840335727195100,7.694195068359375,-0.005574262235313654,-0.002956641372293234,-0.0210120752453804
1690840335737236000,7.704236083984375,-0.004978246986865997,-0.0009427590412087739,-0.019285812973976135
1690840335747276000,7.714276123046875,-0.004569451790302992,-0.0034855452831834555,-0.02070794068276882
1690840335757316000,7.724316162109375,-0.0037742317654192448,-0.0014024205738678575,-0.02130608819425106
1690840335767356000,7.73435595703125,-0.005573996342718601,-0.0020580908749252558,-0.021919148042798042
1690840335777397000,7.74439697265625,-0.0026059031952172518,-0.0001227717293659225,-0.02069542557001114
1690840335787437000,7.75443701171875,-0.005275988485664129,-0.0012516856659203768,-0.021162543445825577
1690840335797477000,7.76447705078125,-0.003335076617076993,-0.0006948187365196645,-0.020268520340323448
1690840335807518000,7.77451806640625,-0.005564941558986902,-0.0024620923213660717,-0.021287178620696068
1690840335817558000,7.78455810546875,-0.005083974450826645,-0.0012234562309458852,-0.020487165078520775
1690840335827598000,7.79459814453125,-0.004090615548193455,-0.0036189695820212364,-0.020071446895599365
1690840335837669000,7.804669189453125,-0.003165965899825096,-0.0019030949333682656,-0.0202765092253685
1690840335847709000,7.814708984375,-0.0036693033762276173,-0.0025806031189858913,-0.019645873457193375
1690840335857750000,7.82475,-0.005006209947168827,-0.0008948221220634878,-0.02052817866206169
1690840335867790000,7.8347900390625,-0.004853610880672932,-0.0014088122406974435,-0.021571870893239975
1690840335877830100,7.844830078125,-0.0037052559200674295,-0.003742273896932602,-0.02070447988808155
1690840335887870000,7.854869873046875,-0.005398760084062815,-0.0020218719728291035,-0.018737468868494034
1690840335897911000,7.8649111328125,-0.004196609370410442,-0.0027718180790543556,-0.02075215056538582
1690840335907951000,7.874951171875,-0.006012618541717529,-0.0002002697146963328,-0.019057314842939377
1690840335917991000,7.884990966796875,-0.0033358754590153694,-0.003768372815102339,-0.019120963290333748
1690840335928031000,7.895031005859375,-0.005034173373132944,-0.0019411781104281545,-0.02159211039543152
1690840335938072000,7.905072021484375,-0.004335360135883093,-0.0028213527984917164,-0.021749503910541534
1690840335948112100,7.915112060546875,-0.005114867351949215,-0.00239258399233222,-0.021621938794851303
1690840335958152000,7.92515185546875,-0.004065048880875111,-0.002424808219075203,-0.021138574928045273
1690840335968193000,7.935193115234375,-0.0041215079836547375,-0.002129463478922844,-0.02016252651810646
1690840335978263000,7.945262939453125,-0.005646434146910906,-0.0023222763556987047,-0.021393438801169395
1690840335988304100,7.95530419921875,-0.003954794257879257,-0.0020602215081453323,-0.021079186350107193
1690840335998344000,7.965343994140625,-0.004454403184354305,-0.002816559048369527,-0.022655777633190155
1690840336008384000,7.975384033203125,-0.00503976596519351,-0.00222001108340919,-0.020719658583402634
1690840336018425000,7.985425048828125,-0.0028823392931371927,-0.0019747340120375156,-0.02040008082985878
1690840336028465200,7.995465087890625,-0.006850715726613998,-0.0025811356026679277,-0.01974600739777088
1690840336038505000,8.0055048828125,-0.004987834487110376,-0.00199390877969563,-0.02070234902203083
1690840336048545000,8.015544921875,-0.004054396413266659,-0.0028511802665889263,-0.02154550515115261
1690840336058586000,8.025586181640625,-0.005377721041440964,-0.0013243899447843432,-0.020739633589982986
1690840336068626000,8.0356259765625,-0.006178800016641617,-0.0034416031558066607,-0.01931644044816494
1690840336078666000,8.045666015625,-0.005389438942074776,-0.001091896090656519,-0.021164940670132637
1690840336088707000,8.05570703125,-0.0057257963344454765,-0.0020516992080956697,-0.020563598722219467
1690840336098747100,8.0657470703125,-0.0054967645555734634,-0.0028551749419420958,-0.02020966447889805
1690840336108787000,8.075786865234376,-0.00321896281093359,-0.000020772657080669887,-0.022427011281251907
1690840336118827000,8.085826904296875,-0.005600361619144678,-0.004255198873579502,-0.019032280892133713
1690840336128898000,8.09589794921875,-0.0041675809770822525,-0.0017933726776391268,-0.02184511162340641
1690840336138937900,8.105937744140626,-0.0057036918587982655,-0.003166232258081436,-0.02214951068162918
1690840336148979000,8.11597900390625,-0.005772135220468044,-0.0012655340833589435,-0.021378524601459503
1690840336159019000,8.12601904296875,-0.005331914871931076,-0.0016666061710566282,-0.021323664113879204
1690840336169059000,8.13605908203125,-0.005282912403345108,-0.002491120947524905,-0.020451745018363
1690840336179100200,8.14610009765625,-0.004197940696030855,-0.0030716899782419205,-0.019889818504452705
1690840336189140000,8.156139892578125,-0.004168645944446325,0.0002921487612184137,-0.019832560792565346
1690840336199180000,8.166179931640626,-0.004406466148793697,-0.0008476841612718999,-0.02081446722149849
1690840336209219800,8.1762197265625,-0.0031971249263733625,-0.0008247809601016343,-0.020475180819630623
1690840336219261000,8.186260986328126,-0.004265584982931614,-0.0026173547375947237,-0.021132182329893112
1690840336229301000,8.196301025390625,-0.005151352379471064,-0.002701244316995144,-0.018761171028017998
1690840336239341000,8.206341064453126,-0.0041095237247645855,-0.003715375903993845,-0.019327359274029732
1690840336249382100,8.216382080078125,-0.005120193585753441,-0.002293514320626855,-0.021346300840377808
1690840336259422000,8.226421875,-0.005260275676846504,-0.0026967169251292944,-0.022343387827277184
1690840336269493000,8.236492919921876,-0.005527923349291086,-0.0014354437589645386,-0.020350545644760132
1690840336279533000,8.246532958984375,-0.004292749334126711,-0.0030778152868151665,-0.02177560329437256
1690840336289572900,8.25657275390625,-0.0057074204087257385,-0.0012460930738598108,-0.021809957921504974
1690840336299614000,8.266614013671875,-0.005368133541196585,-0.002326537622138858,-0.02093244530260563
1690840336309654000,8.276654052734376,-0.004341484978795052,-0.0025798040442168713,-0.019235214218497276
1690840336319694000,8.286694091796875,-0.0051870387978851795,-0.0017632789677008986,-0.020120447501540184
1690840336329734100,8.296734130859376,-0.0026794064324349165,-0.000945954816415906,-0.020261328667402267
1690840336339775000,8.30677490234375,-0.004065581597387791,-0.0008868326549418271,-0.02070501260459423
1690840336349815000,8.31681494140625,-0.0046996804885566235,-0.0009020126308314502,-0.02117825485765934
1690840336359854800,8.326854736328125,-0.003635214874520898,-0.002507898723706603,-0.020850153639912605
1690840336369896000,8.33689599609375,-0.0037864823825657368,-0.004457066301256418,-0.017967281863093376
1690840336379942400,8.3469423828125,-0.0041340249590575695,-0.002294047037139535,-0.021134579554200172
1690840336389982500,8.356982421875,-0.004351338837295771,-0.0020905814599245787,-0.019992882385849953
1690840336400022500,8.3670224609375,-0.004739627707749605,-0.001980859087780118,-0.02082272432744503
1690840336410063600,8.377063720703125,-0.0036820864770561457,-0.0011832424206659198,-0.02015933021903038
1690840336420133400,8.38713330078125,-0.004462925251573324,-0.0008287757518701255,-0.02189917303621769
1690840336430174500,8.397174560546874,-0.003937217406928539,-0.0023608922492712736,-0.02034681662917137
1690840336440214300,8.40721435546875,-0.005575860384851694,-0.001558748190291226,-0.021524732932448387
1690840336450254300,8.41725439453125,-0.004627508576959372,-0.0027651600539684296,-0.02129649929702282
1690840336460295400,8.42729541015625,-0.005150021053850651,-0.004135622642934322,-0.019844545051455498
1690840336470335500,8.43733544921875,-0.006471747532486916,-0.002356364857405424,-0.020420586690306664
1690840336480375600,8.44737548828125,-0.0035659726709127426,-0.0033603766933083534,-0.021405423060059547
1690840336490415400,8.457415283203124,-0.004634699318557978,-0.002359560690820217,-0.01954999938607216
1690840336500456400,8.46745654296875,-0.004425374791026115,-0.002897785510867834,-0.021078120917081833
1690840336510496300,8.477496337890624,-0.0033910030033439398,-0.002275937469676137,-0.019159313291311264
1690840336520536300,8.487536376953125,-0.0026557042729109526,-0.0006918892613612115,-0.020599817857146263
1690840336530577400,8.497577392578124,-0.004848284646868706,-0.0017963021527975798,-0.021277857944369316
1690840336540617500,8.507617431640625,-0.004540423396974802,-0.002159290947020054,-0.021451229229569435
1690840336550657500,8.517657470703124,-0.00392842898145318,-0.002520682057365775,-0.019173961132764816
1690840336560728300,8.527728271484374,-0.0029257487040013075,-0.00017949705943465233,-0.01913747563958168
1690840336570768400,8.537768310546875,-0.0041547976434230804,-0.0027023095171898603,-0.020566793158650398
1690840336580808400,8.547808349609374,-0.005721268709748983,-0.004033890087157488,-0.02148851379752159
1690840336590849300,8.557849365234375,-0.003968908917158842,-0.004547347314655781,-0.020859209820628166
1690840336600889300,8.567889404296874,-0.005250421818345785,-0.004710599314421415,-0.019106848165392876
1690840336610929400,8.577929443359375,-0.004991030320525169,-0.002139317337423563,-0.021732991561293602
1690840336620970500,8.587970458984374,-0.003500725142657757,-0.0012152004055678844,-0.020433103665709496
1690840336631010300,8.59801025390625,-0.004036819562315941,-0.0012253203894942999,-0.021739916875958443
1690840336641050400,8.60805029296875,-0.00621155695989728,-0.0025869945529848337,-0.021562283858656883
1690840336651090400,8.61809033203125,-0.004027498420327902,-0.003757720347493887,-0.019600067287683487
1690840336661131300,8.62813134765625,-0.0037358824629336596,-0.0008234494016505778,-0.02239239029586315
1690840336671171300,8.63817138671875,-0.005294098053127527,-0.0019622170366346836,-0.02107039839029312
1690840336681211400,8.64821142578125,-0.0038685076870024204,-0.0018969696247950196,-0.020441092550754547
1690840336691252500,8.65825244140625,-0.0036658411845564842,-0.0013480921043083072,-0.019896209239959717
1690840336701292500,8.66829248046875,-0.004730306565761566,-0.00279125920496881,-0.020013121888041496
1690840336711363300,8.67836328125,-0.004741758108139038,-0.0025718146935105324,-0.02105814777314663
1690840336721403400,8.6884033203125,-0.004236290231347084,-0.0021228056866675615,-0.02076892741024494
1690840336731443500,8.698443359375,-0.003888481529429555,-0.0007510114228352904,-0.019039204344153404
1690840336741484300,8.708484375,-0.003942809998989105,-0.001606685109436512,-0.019881829619407654
1690840336751524400,8.7185244140625,-0.005005411338061094,-0.002663161139935255,-0.019235214218497276
1690840336761564400,8.728564453125,-0.00444002216681838,-0.0016892430139705539,-0.02178039588034153
1690840336771604200,8.738604248046874,-0.004611263517290354,-0.0024951156228780746,-0.0215993020683527
1690840336781645300,8.748645263671875,-0.002801911672577262,-0.0027925907634198666,-0.021023526787757874
1690840336791685400,8.758685302734374,-0.004493818152695894,-0.0030866037122905254,-0.021344702690839767
1690840336801725400,8.768725341796875,-0.005365470424294472,-0.0023936491925269365,-0.021289043128490448
1690840336811766300,8.778766357421874,-0.0037864823825657368,-0.0028493159916251898,-0.020135894417762756
1690840336821806300,8.788806396484375,-0.004670385736972094,-0.00010865696822293103,-0.01948634907603264
1690840336831846400,8.798846435546874,-0.004138552118092775,-0.000711064029019326,-0.022367622703313828
1690840336841886500,8.808886474609375,-0.0040852888487279415,-0.0011579424608498812,-0.020782509818673134
1690840336851957200,8.818957275390625,-0.00376011710613966,-0.0021736719645559788,-0.021566279232501984
1690840336861997300,8.828997314453124,-0.005287972744554281,-0.0007368966471403837,-0.02028503082692623
1690840336872038400,8.839038330078125,-0.005545766558498144,-0.0021584921050816774,-0.019827233627438545
1690840336882078500,8.849078369140624,-0.004375040996819735,-0.0024056334514170885,-0.019811255857348442
1690840336892118500,8.859118408203125,-0.004698082339018583,-0.002642122097313404,-0.02087438851594925
1690840336902159400,8.869159423828124,-0.004819256253540516,-0.0009704558760859072,-0.021013405174016953
1690840336912199400,8.879199462890625,-0.0037643781397491693,-0.0014234596164897084,-0.019391007721424103
1690840336922239200,8.8892392578125,-0.004038417246192694,-0.001812014845199883,-0.018188856542110443
1690840336932279300,8.899279296875,-0.004168645944446325,-0.002299639629200101,-0.022282402962446213
1690840336942320400,8.9093203125,-0.005605155136436224,-0.0019057580502703786,-0.021497035399079323
1690840336952360400,8.9193603515625,-0.003254116512835026,-0.0016285229939967394,-0.021769743412733078
1690840336962400500,8.929400390625,-0.004310858901590109,-0.0007696535321883857,-0.021372932940721512
1690840336972441300,8.93944140625,-0.030218888074159622,-0.048286039382219315,0.00501153664663434
1690840336982481400,8.9494814453125,-0.05515912547707558,0.16388213634490967,-0.13204191625118256
1690840336992521500,8.959521484375,-0.0109842075034976,0.04809269309043884,-0.11334546655416489
1690840337002592300,8.96959228515625,0.00390339526347816,-0.02521108090877533,-0.052144162356853485
1690840337012632300,8.97963232421875,0.0073263561353087425,-0.10514053702354431,-0.016642360016703606
1690840337022672400,8.98967236328125,0.009442769922316074,-0.05491464585065842,0.04060255363583565
1690840337032713500,8.99971337890625,0.007708253338932991,-0.10084459185600281,0.05041736736893654
1690840337042753500,9.00975341796875,0.0051862397231161594,-0.027124827727675438,0.04650465026497841
1690840337052793600,9.019793701171874,0.000693220819812268,0.01643037237226963,0.05324963852763176
1690840337062834400,9.02983447265625,-0.009406550787389278,0.04862985387444496,0.03478328138589859
1690840337072874200,9.039874267578124,-0.014466291293501854,0.06584586203098297,0.023928236216306686
1690840337082914300,9.049914306640625,-0.018559569492936134,0.06803950667381287,0.009647566825151443
1690840337092954400,9.059954345703124,-0.014038586989045143,0.04754994064569473,0.005215002223849297
1690840337102995500,9.069995361328125,-0.003959321416914463,0.004218447022140026,-0.016025837510824203
1690840337113035500,9.080035400390624,0.0018716695485636592,-0.02967081032693386,-0.027843082323670387
1690840337123075600,9.09007568359375,0.004282096866518259,-0.0499582402408123,-0.04486813768744469
1690840337133116400,9.100116455078124,0.0017776599852368236,-0.05431756749749184,-0.05275056138634682
1690840337143186400,9.1101865234375,-0.003910852130502462,-0.042214300483465195,-0.06325007230043411
1690840337153227300,9.120227294921875,-0.010541857220232487,-0.01757233589887619,-0.06792259216308594
1690840337163267300,9.130267333984374,-0.011780759319663048,0.010519219562411308,-0.06843738257884979
1690840337173307400,9.140307373046875,-0.009531719610095024,0.028138693422079086,-0.06812366098165512
1690840337183348500,9.150348388671874,-0.0073071811348199844,0.03699503466486931,-0.06364475935697556
1690840337193388500,9.160388427734375,-0.0023369237314909697,0.03277658671140671,-0.05705529823899269
1690840337203428600,9.1704287109375,0.00027324032271280885,0.017234114930033684,-0.04875901713967323
1690840337213468400,9.180468505859375,0.0008751147543080151,-0.00007430219557136297,-0.037876542657613754
1690840337223509200,9.19050927734375,-0.001466869143769145,-0.017290307208895683,-0.02798902429640293
1690840337233549300,9.20054931640625,-0.004139351192861795,-0.025358086451888084,-0.016531305387616158
1690840337243589400,9.21058935546875,-0.008214253932237625,-0.028783977031707764,-0.005847502965480089
1690840337253630500,9.22063037109375,-0.01053306832909584,-0.023728765547275543,0.0031646343413740396
1690840337263670500,9.23067041015625,-0.008286159485578537,-0.011048655956983566,0.007228351663798094
1690840337273710600,9.240710693359375,-0.00506932707503438,0.0015568839153274894,0.014130200259387493
1690840337283781600,9.25078173828125,-0.0025486452504992485,0.010597250424325466,0.017293503507971764
1690840337293821400,9.260821533203124,-0.0009217200567945838,0.014273744076490402,0.017110809683799744
1690840337303861500,9.270861572265625,-0.0026282735634595156,0.013144830241799355,0.013882259838283062
1690840337313902300,9.28090234375,-0.0028399948496371508,0.008045143447816372,0.00854448601603508
1690840337323942400,9.2909423828125,-0.005283445119857788,-0.00173717993311584,0.0014096111990511417
1690840337333982500,9.300982421875,-0.005061071366071701,-0.010615093633532524,-0.008782572112977505
1690840337344023600,9.3110234375,-0.007769505959004164,-0.014199175871908665,-0.016020512208342552
1690840337354063600,9.321063720703124,-0.006833937484771013,-0.014207432046532631,-0.024233434349298477
1690840337364103400,9.331103515625,-0.0041057956404984,-0.009273659437894821,-0.03206365928053856
1690840337374143500,9.3411435546875,-0.004460262134671211,-0.00353428116068244,-0.03850318491458893
1690840337384156400,9.351156494140625,-0.00458809407427907,0.002660498023033142,-0.04230617731809616
1690840337394196500,9.361196533203126,-0.003822967642918229,0.008754342794418335,-0.04511501267552376
1690840337404236300,9.371236328125,-0.003480218816548586,0.00805925764143467,-0.047872185707092285
1690840337414277400,9.38127734375,-0.0054368432611227036,0.0041404166258871555,-0.045999448746442795
1690840337424317400,9.3913173828125,-0.006502374075353146,0.0021941782906651497,-0.04466520622372627
1690840337434388500,9.401388427734375,-0.004047472029924393,-0.0036732980515807867,-0.0380144938826561
1690840337444428500,9.411428466796876,-0.005601426586508751,-0.00541394017636776,-0.03503947705030441
1690840337454468600,9.421468505859375,-0.004768656101077795,-0.008412392809987068,-0.03117815963923931
1690840337464509400,9.431509521484376,-0.0041132522746920586,-0.006113019771873951,-0.021757226437330246
1690840337474549200,9.44154931640625,-0.004406466148793697,-0.004824582487344742,-0.016322247684001923
1690840337484589300,9.45158935546875,-0.005789978429675102,0.00027084347675554454,-0.011736550368368626
1690840337494629400,9.46162939453125,-0.003890611929818988,0.000182959163794294,-0.005857090000063181
1690840337504670500,9.47167041015625,-0.00404667342081666,0.0027081684675067663,-0.002910568844527006
1690840337514710500,9.48171044921875,-0.005732454359531403,0.0005579322460107505,-0.002252501668408513
1690840337524750600,9.49175048828125,-0.005720470100641251,0.00028628981090150774,0.000838895735796541
1690840337534790400,9.501790283203125,-0.00376011710613966,-0.0025012409314513206,-0.00035420042695477605
1690840337544831500,9.51183154296875,-0.0046661244705319405,-0.00472551304847002,-0.0023438481148332357
1690840337554871300,9.521871337890625,-0.005781190004199743,-0.005231780000030994,-0.008402273058891296
1690840337564911400,9.531911376953126,-0.004185690078884363,-0.0051657333970069885,-0.013371199369430542
1690840337574982400,9.541982421875,-0.0055002267472445965,-0.0028474517166614532,-0.017674867063760757
1690840337585022500,9.5520224609375,-0.005350823048502207,-0.0022945795208215714,-0.020544422790408134
1690840337595063600,9.5620634765625,-0.004509796854108572,0.002338788006454706,-0.02484835870563984
1690840337605103600,9.572103515625,-0.0048424256965518,0.0008378304773941636,-0.029450567439198494
1690840337615143400,9.582143310546876,-0.003725229762494564,0.0010809770319610834,-0.03349963575601578
1690840337625184300,9.592184326171875,-0.0043747746385633945,0.0009187905816361308,-0.034015756100416183
1690840337635224300,9.602224365234376,-0.004062652122229338,-0.0028810077346861362,-0.035100728273391724
1690840337645264400,9.612264404296875,-0.004034422803670168,-0.0034469293896108866,-0.036018189042806625
1690840337655304400,9.622304443359376,-0.005034439731389284,-0.0012841762509196997,-0.0350932739675045
1690840337665345500,9.632345458984375,-0.005453355144709349,-0.003849599277600646,-0.03302612528204918
1690840337675385600,9.642385498046876,-0.005318332463502884,-0.0022897860035300255,-0.03027508221566677
1690840337685425400,9.65242529296875,-0.004123106133192778,-0.0007004113867878914,-0.026696326211094856
1690840337695466500,9.662466552734376,-0.005302620120346546,-0.0010479538468644023,-0.021166536957025528
1690840337705506300,9.67250634765625,-0.002796319080516696,0.0001651159836910665,-0.01714303344488144
1690840337715546400,9.68254638671875,-0.005693305749446154,-0.001702026231214404,-0.015402126125991344
1690840337725617400,9.692617431640626,-0.00509835546836257,-0.002148105762898922,-0.011683288030326366
1690840337735657500,9.702657470703125,-0.003981159534305334,-0.0023331954143941402,-0.008334362879395485
1690840337745697500,9.712697509765626,-0.00418329332023859,-0.0032434638123959303,-0.010427340865135193
1690840337755738600,9.722738525390625,-0.005732720717787743,-0.0033593112602829933,-0.008053931407630444
1690840337765778200,9.732778076171876,-0.0068206219002604485,-0.0028245486319065094,-0.01122442539781332
1690840337775818200,9.742818359375,-0.003976631909608841,-0.002292981604114175,-0.012291287072002888
1690840337785859300,9.752859375,-0.004276237916201353,-0.0023044333793222904,-0.01429158728569746
1690840337795899400,9.7628994140625,-0.005356681998819113,-0.000010386328540334944,-0.016041018068790436
1690840337805939500,9.772939453125,-0.0038693067617714405,-0.003864779369905591,-0.018219750374555588
1690840337815979500,9.7829794921875,-0.0038157771341502666,-0.001213868847116828,-0.02124243788421154
1690840337826020400,9.793020263671876,-0.0057044909335672855,-0.0029443909879773855,-0.024179106578230858
1690840337836060400,9.803060302734375,-0.006447246763855219,-0.0034179009962826967,-0.024833710864186287
1690840337846100200,9.813100341796876,-0.005154015496373177,-0.0019057580502703786,-0.02786385454237461
1690840337856141300,9.823141357421875,-0.004376106429845095,-0.0017986990278586745,-0.028422053903341293
1690840337866211300,9.83321142578125,-0.005016862880438566,-0.0021462414879351854,-0.030242856591939926
1690840337876252400,9.84325244140625,-0.004027764778584242,-0.0031305458396673203,-0.030181603506207466
1690840337886292500,9.85329248046875,-0.0037491980474442244,-0.002582201035693288,-0.027532558888196945
1690840337896332500,9.86333251953125,-0.006484264507889748,-0.0013965616235509515,-0.02636422961950302
1690840337906373400,9.873373291015625,-0.00509968725964427,-0.0008101335843093693,-0.026824157685041428
1690840337916413200,9.8834130859375,-0.005437908694148064,-0.0011954930378124118,-0.022889602929353714
1690840337926453200,9.893453369140625,-0.004596349783241749,0.0003507383225951344,-0.02070501260459423
1690840337936493300,9.903493408203126,-0.004674113821238279,-0.0027353328187018633,-0.018274078145623207
1690840337946534400,9.913534423828125,-0.005680522415786982,-0.0017949705943465233,-0.01745861954987049
1690840337956574500,9.923574462890626,-0.0029084382113069296,-0.001686846255324781,-0.01702132821083069
1690840337966614500,9.933614501953125,-0.005045891273766756,-0.002600576728582382,-0.01660560816526413
1690840337976655400,9.9436552734375,-0.005206213798373938,-0.0020743361674249172,-0.013873737305402756
1690840337986695400,9.9536953125,-0.005141232628375292,-0.003912449814379215,-0.01392753329128027
1690840337996735200,9.9637353515625,-0.004879177547991276,-0.0026756778825074434,-0.014392521232366562
1690840338006775300,9.973775390625,-0.004352670628577471,-0.0009318400407209992,-0.016894560307264328
1690840338016846300,9.983846435546875,-0.004741491749882698,-0.0001954760227818042,-0.017306020483374596
1690840338026886400,9.993886474609376,-0.004990763962268829,0.0013957626651972532,-0.01955585740506649
1690840338036927500,10.003927490234375,-0.0035867453552782536,-0.00006391586794052273,-0.018629610538482666
1690840338046967600,10.013967529296876,-0.0041699777357280254,-0.00006870955257909372,-0.0224432572722435
1690840338057007400,10.02400732421875,-0.005320196971297264,-0.0009603358921594918,-0.022714100778102875
1690840338067048200,10.034048095703126,-0.005564142484217882,-0.0032493227627128363,-0.025134380906820297
1690840338077088300,10.044088134765625,-0.004768656101077795,-0.0024549018125981092,-0.024815866723656654
1690840338087128300,10.05412841796875,-0.005387574899941683,-0.0036996633280068636,-0.024762604385614395
1690840338097168400,10.06416845703125,-0.0037531929556280375,-0.0008072041091509163,-0.027172498404979706
1690840338107209500,10.07420947265625,-0.005360144190490246,-0.0020623519085347652,-0.0254566241055727
1690840338117249500,10.08424951171875,-0.0037768951151520014,-0.0022562299855053425,-0.025890985503792763
1690840338127289300,10.094289306640626,-0.0041057956404984,-0.0021880532149225473,-0.02467951364815235
1690840338137330200,10.104330078125,-0.006711165886372328,-0.0021321268286556005,-0.022593725472688675
1690840338147370200,10.114370361328126,-0.005359877832233906,-0.001882854849100113,-0.019346799701452255
1690840338157441300,10.124441162109376,-0.0037470676470547915,-0.001201618229970336,-0.01944267377257347
1690840338167481300,10.1344814453125,-0.005203550215810537,-0.0007305050967261195,-0.019943347200751305
1690840338177521400,10.144521484375,-0.004688761197030544,-0.00048416267964057624,-0.01637577824294567
1690840338187561500,10.1545615234375,-0.004217382054775953,-0.00042743736412376165,-0.016705743968486786
1690840338197602600,10.1646025390625,-0.005612878128886223,-0.0008801747462712228,-0.015929166227579117
1690840338207642400,10.174642333984375,-0.003038134193047881,-0.0037590519059449434,-0.017661817371845245
1690840338217682400,10.184682373046876,-0.0037982002831995487,-0.0032810145057737827,-0.015866847708821297
1690840338227723300,10.19472314453125,-0.005416869651526213,-0.0008167914929799736,-0.017492974177002907
1690840338237763300,10.204763427734376,-0.0026607641484588385,-0.002950782421976328,-0.01561384741216898
1690840338247803400,10.214803466796875,-0.005286640953272581,-0.003201652318239212,-0.019648535177111626
1690840338257843500,10.224843505859376,-0.0037984666414558887,-0.001377919572405517,-0.018743326887488365
1690840338267884500,10.234884521484375,-0.004250138532370329,-0.001966478070244193,-0.021521802991628647
1690840338277924400,10.24492431640625,-0.00515801040455699,-0.0019025622168555856,-0.021931929513812065
1690840338287964400,10.25496435546875,-0.004201669245958328,-0.0011821772204712033,-0.023141805082559586
1690840338298005200,10.265005126953126,-0.0018064221367239952,-0.0005834985640831292,-0.023258984088897705
1690840338308075500,10.275075439453126,-0.005539108533412218,-0.003787281457334757,-0.023789752274751663
1690840338318116400,10.285116455078125,-0.004259193316102028,-0.0027257453184574842,-0.023858994245529175
1690840338328156400,10.295156494140626,-0.006045109126716852,-0.002986468840390444,-0.024672856554389
1690840338338196500,10.305196533203125,-0.00370126124471426,-0.003798999357968569,-0.02195643074810505
1690840338348237600,10.315237548828126,-0.003963582683354616,-0.003856257302686572,-0.023681094869971275
1690840338358277400,10.32527734375,-0.0029321403708308935,-0.0011062771081924438,-0.020299412310123444
1690840338368317400,10.3353173828125,-0.0038661109283566475,-0.0014048174489289522,-0.019279422238469124
1690840338378357500,10.345357421875,-0.004434429574757814,-0.0026644926983863115,-0.018744925037026405
1690840338388395800,10.355395751953125,-0.005067196674644947,-0.0020386497490108013,-0.01871669664978981
1690840338398435600,10.365435546875,-0.005262406077235937,-0.005949501879513264,-0.019391806796193123
1690840338408475600,10.3754755859375,-0.0025957829784601927,-0.0033372072502970695,-0.019571304321289062
1690840338418516700,10.385516845703124,-0.004429901950061321,0.00001304948909819359,-0.01666339859366417
1690840338428556800,10.395556884765625,-0.0037462685722857714,-0.00024181502521969378,-0.019631491973996162
1690840338438596600,10.4055966796875,-0.006841660942882299,0.0007534082396887243,-0.018680743873119354
1690840338448667600,10.415667724609374,-0.005094094667583704,-0.0007097324123606086,-0.019598469138145447
1690840338458707700,10.425707763671875,-0.005706355441361666,-0.0029702235478907824,-0.0190740916877985
1690840338468747500,10.43574755859375,-0.0027747475542128086,-0.005653092171996832,-0.018732408061623573
1690840338478788600,10.44578857421875,-0.005783586762845516,-0.00729333283379674,-0.020621389150619507
1690840338488828700,10.45582861328125,-0.005495699122548103,-0.0041542649269104,-0.02112659066915512
1690840338498868700,10.46586865234375,-0.0027539748698472977,-0.0012769857421517372,-0.02353541925549507
1690840338508909800,10.475909912109374,-0.003910585772246122,-0.0006487460341304541,-0.021805962547659874
1690840338518949600,10.48594970703125,-0.0038189729675650597,0.0018341189716011286,-0.022232335060834885
1690840338528989700,10.49598974609375,-0.004060521721839905,-0.001446096459403634,-0.02359187789261341
1690840338539029500,10.506029541015625,-0.00566853815689683,-0.0024703482631593943,-0.023624902591109276
1690840338549070600,10.516070556640624,-0.005380916874855757,-0.003622964257374406,-0.023563649505376816
1690840338559110700,10.526110595703125,-0.00412363838404417,-0.007237406447529793,-0.021327659487724304
1690840338569150700,10.536150634765624,-0.0035894084721803665,-0.005036037415266037,-0.021335914731025696
1690840338579191800,10.54619189453125,-0.0038133803755044937,-0.0028820729348808527,-0.020804081112146378
1690840338589261800,10.55626171875,-0.00538437906652689,-0.0022506373934447765,-0.018065819516777992
1690840338599302700,10.566302734375,-0.004538558889180422,-0.0025837989524006844,-0.019112708047032356
1690840338609342700,10.5763427734375,-0.004327370319515467,0.00012596751912496984,-0.01920112408697605
1690840338619382500,10.586382568359374,-0.004326571244746447,0.0014271880500018597,-0.020744958892464638
1690840338629423600,10.596423583984375,-0.004363855812698603,0.0009576727170497179,-0.021760689094662666
1690840338639463700,10.606463623046874,-0.0026999127585440874,-0.0008641957538202405,-0.021466409787535667
1690840338649503700,10.616503662109375,-0.0018916432745754719,0.0002591255761217326,-0.02165442891418934
1690840338659543800,10.626543701171874,-0.004011253360658884,-0.003054911969229579,-0.020485833287239075
1690840338669584600,10.636584716796875,-0.0055028898641467094,-0.004319647327065468,-0.019723104313015938
1690840338679624700,10.646624755859374,-0.004807804711163044,-0.005839513149112463,-0.017891116440296173
1690840338689664500,10.65666455078125,-0.006702643819153309,-0.003674363251775503,-0.020497551187872887
1690840338699704600,10.66670458984375,-0.004135889001190662,-0.0005930859479121864,-0.02346617728471756
1690840338709745700,10.67674560546875,-0.004159857518970966,-0.0011036139912903309,-0.020478377118706703
1690840338719785700,10.68678564453125,-0.0028551749419420958,-0.000517718493938446,-0.019644008949398994
1690840338729825800,10.69682568359375,-0.0035712989047169685,0.001686579897068441,-0.02226748876273632
1690840338739896800,10.706896728515625,-0.004246144089847803,-0.0004799016169272363,-0.021808359771966934
1690840338749937000,10.71693701171875,-0.0059716058894991875,-0.0011014834744855762,-0.021801169961690903
1690840338759977700,10.726977783203125,-0.005164135713130236,-0.003572630463168025,-0.021443773061037064
1690840338770017500,10.737017578125,-0.004803543444722891,-0.004523112904280424,-0.02166534774005413
1690840338780057600,10.7470576171875,-0.004629106726497412,-0.004833104554563761,-0.020430440083146095
1690840338790098700,10.7570986328125,-0.00304638990201056,-0.003969441633671522,-0.019507387652993202
1690840338800138800,10.767138671875,-0.0034887411165982485,0.0003307645965833217,-0.020620057359337807
1690840338810178800,10.7771787109375,-0.004309527110308409,0.00019121496006846428,-0.020445886999368668
1690840338820219000,10.787218994140625,-0.005291434936225414,-0.0006713828770443797,-0.018931346014142036
1690840338830259700,10.797259765625,-0.007153250742703676,-0.0001901497016660869,-0.020445087924599648
1690840338840299500,10.807299560546875,-0.005110606085509062,-0.0008876316132955253,-0.021577730774879456
1690840338850339600,10.817339599609374,-0.0032229574862867594,-0.00373055599629879,-0.021924206987023354
1690840338860380700,10.827380615234375,-0.0038304245099425316,-0.003197923768311739,-0.0210040844976902
1690840338870420700,10.837420654296874,-0.0046149916015565395,-0.0033875408116728067,-0.020422451198101044
1690840338880491800,10.84749169921875,-0.004051999654620886,-0.0023515713401138783,-0.01998276263475418
1690840338890531800,10.85753173828125,-0.005532717332243919,-0.0015824503498151898,-0.020269053056836128
1690840338900571600,10.867571533203124,-0.006652842741459608,-0.0011062771081924438,-0.020378774031996727
1690840338910611700,10.87761181640625,-0.00571860559284687,-0.00148125016130507,-0.019301526248455048
1690840338920652500,10.887652587890624,-0.004006193019449711,-0.0024881914723664522,-0.01924826204776764
1690840338930692600,10.897692626953125,-0.00675217853859067,-0.0019742012955248356,-0.022710904479026794
1690840338940732700,10.907732666015624,-0.004156928043812513,-0.002372077666223049,-0.020562799647450447
1690840338950773800,10.917773681640625,-0.003005110891535878,-0.0005507417372427881,-0.022642994299530983
1690840338960813800,10.927813720703124,-0.0041252365335822105,-0.0016900419723242521,-0.01908234879374504
1690840338970854000,10.93785400390625,-0.004688494838774204,0.0002767024270724505,-0.021041901782155037
1690840338980893700,10.947893798828124,-0.004807005636394024,-0.0034381409641355276,-0.01907648891210556
1690840338990934500,10.9579345703125,-0.005626460537314415,-0.004210191313177347,-0.020120447501540184
1690840339000974600,10.967974609375,-0.004752144683152437,-0.0007560714147984982,-0.0203995481133461
1690840339011014700,10.9780146484375,-0.004580903332680464,-0.0020125508308410645,-0.019237076863646507
1690840339021055700,10.9880556640625,-0.0038429414853453636,-0.0012652678415179253,-0.019448531791567802
1690840339031125800,10.998125732421874,-0.0033987262286245823,-0.0000327568814100232,-0.020203005522489548
1690840339041166800,11.008166748046875,-0.003394731320440769,-0.00045140579459257424,-0.02215084247291088
1690840339051206700,11.01820654296875,-0.0041340249590575695,-0.00088976213010028,-0.021494640037417412
1690840339061246700,11.028246826171875,-0.006427805405110121,-0.0015757924411445856,-0.020651748403906822
1690840339071287600,11.03828759765625,-0.004736964590847492,-0.0031414648983627558,-0.019934825599193573
1690840339081327600,11.04832763671875,-0.005393700208514929,-0.0035228293854743242,-0.019411515444517136
1690840339091367700,11.05836767578125,-0.003005377249792218,-0.004562261048704386,-0.019046928733587265
1690840339101407700,11.06840771484375,-0.00424374733120203,-0.001353684812784195,-0.020603278651833534
1690840339111448800,11.07844873046875,-0.005726329050958157,0.0005467469454742968,-0.021090637892484665
1690840339121489000,11.088489013671875,-0.005913549102842808,-0.0009004147723317146,-0.02022058330476284
1690840339131528700,11.09852880859375,-0.004652009811252356,0.00008841694943839684,-0.020775053650140762
1690840339141568800,11.10856884765625,-0.006677609868347645,-0.0005273058777675033,-0.022459236904978752
1690840339151609600,11.118609619140624,-0.0038131140172481537,-0.0001448759576305747,-0.022550050169229507
1690840339161649700,11.128649658203125,-0.005559614859521389,-0.003421895671635866,-0.021498100832104683
1690840339171720700,11.138720703125,-0.0046882289461791515,-0.003692206460982561,-0.021506624296307564
1690840339181760800,11.1487607421875,-0.0031899344176054,-0.0016929714474827051,-0.022102639079093933
1690840339191800600,11.158800537109375,-0.0046421559527516365,-0.0028447885997593403,-0.02009914256632328
1690840339201841700,11.168841552734374,-0.004132693167775869,-0.00307568465359509,-0.019937489181756973
1690840339211881700,11.1788818359375,-0.0055034225806593895,-0.003858920419588685,-0.017670074477791786
1690840339221921800,11.188921875,-0.0052147358655929565,0.00042504051816649735,-0.019950006157159805
1690840339231962600,11.198962646484375,-0.005508216097950935,-0.0016530241118744016,-0.021438712254166603
1690840339242002700,11.209002685546874,-0.0037649108562618494,-0.0037001960445195436,-0.01998036541044712
1690840339252042800,11.219042724609375,-0.005770537536591291,-0.0006737797521054745,-0.020721256732940674
1690840339262082800,11.229082763671874,-0.004157727118581533,-0.0036008600145578384,-0.021460019052028656
1690840339272124000,11.2391240234375,-0.003816842334344983,-0.002831206424161792,-0.020891699939966202
1690840339282163700,11.249163818359374,-0.004210457671433687,-0.004795287735760212,-0.019449597224593163
1690840339292203800,11.259203857421875,-0.002695385366678238,-0.003888481529429555,-0.018257834017276764
1690840339302244600,11.26924462890625,-0.005632053129374981,-0.0018317222129553556,-0.02207414247095585
1690840339312284700,11.27928466796875,-0.003891677362844348,-0.002019741339609027,-0.01890231855213642
1690840339322355700,11.289355712890625,-0.00421205535531044,-0.0010695254895836115,-0.02009062096476555
1690840339332395800,11.299395751953124,-0.002912965603172779,0.0004982774262316525,-0.02207307703793049
1690840339342435600,11.309435546875,-0.0031137678306549788,-0.002496979897841811,-0.02081446722149849
1690840339352475600,11.3194755859375,-0.006359362509101629,-0.0033097765408456326,-0.019753998145461082
1690840339362516700,11.329516845703125,-0.004606203176081181,-0.0014351775171235204,-0.021853899583220482
1690840339372556800,11.339556884765624,-0.006708236411213875,-0.0008892294717952609,-0.01997264288365841
1690840339382594000,11.349593994140625,-0.0052083441987633705,-0.0026261431630700827,-0.02045201137661934
1690840339392635100,11.35963525390625,-0.0057529606856405735,-0.002889796160161495,-0.02047092095017433
1690840339402675200,11.36967529296875,-0.004280765075236559,-0.004107926040887833,-0.020205136388540268
1690840339412715300,11.37971533203125,-0.005671467632055283,-0.002305764937773347,-0.020050406455993652
1690840339422755300,11.38975537109375,-0.0016077503096312284,-0.0009483516332693398,-0.020442957058548927
1690840339432796200,11.399796142578126,-0.003971572034060955,-0.0023422501981258392,-0.020078903064131737
1690840339442836000,11.4098359375,-0.004888498689979315,-0.0007057376787997782,-0.02028396539390087
1690840339452876000,11.4198759765625,-0.0037891454994678497,-0.003228283952921629,-0.022612901404500008
1690840339462947000,11.429947021484375,-0.004859469830989838,-0.0022008363157510757,-0.02004348300397396
1690840339472987100,11.439987060546875,-0.004856806714087725,-0.002430667169392109,-0.022587601095438004
1690840339483028200,11.4500283203125,-0.003712712787091732,-0.0008364989189431071,-0.02034122496843338
1690840339493068300,11.460068359375,-0.004334827419370413,-0.0032197616528719664,-0.020066386088728905
1690840339503108400,11.4701083984375,-0.004415254574269056,-0.0021848573815077543,-0.020658940076828003
1690840339513149200,11.480149169921875,-0.005003280472010374,-0.00041731735109351575,-0.020618991926312447
1690840339523189000,11.49018896484375,-0.004710066597908735,-0.0010671286145225167,-0.018819760531187057
1690840339533229000,11.50022900390625,-0.005461877211928368,-0.0023315974976867437,-0.019644541665911674
1690840339543269000,11.51026904296875,-0.004775314126163721,-0.0011297129094600677,-0.021471470594406128
1690840339553310200,11.520310302734375,-0.004490089602768421,-0.0017310547409579158,-0.018746256828308105
1690840339563350300,11.530350341796876,-0.004159857518970966,-0.003531351685523987,-0.021382519975304604
1690840339573390300,11.540390380859375,-0.004711398389190435,-0.0012887036427855492,-0.020192619413137436
1690840339583431200,11.55043115234375,-0.004800880327820778,-0.0023238742724061012,-0.021583855152130127
1690840339593471000,11.560470947265625,-0.005135640036314726,-0.0009835053933784366,-0.02046985551714897
1690840339603511000,11.570510986328125,-0.006715160794556141,-0.0014543522847816348,-0.020329240709543228
1690840339613582000,11.58058203125,-0.004009655211120844,-0.0038221688009798527,-0.020478110760450363
1690840339623622100,11.5906220703125,-0.003212304785847664,-0.003888481529429555,-0.021768944337964058
1690840339633662200,11.600662109375,-0.0025928535033017397,-0.0043801008723676205,-0.02221342734992504
1690840339643703300,11.610703369140625,-0.0028490496333688498,-0.0011760519118979573,-0.020670924335718155
1690840339653743400,11.620743408203126,-0.002606169320642948,-0.0005467469454742968,-0.021703431382775307
1690840339663783200,11.630783203125,-0.006679740734398365,-0.0030274814926087856,-0.022349780425429344
1690840339673824000,11.640823974609376,-0.005058940965682268,0.00019707392493728548,-0.021083980798721313
1690840339683864000,11.650864013671875,-0.003787281457334757,-0.00336090917699039,-0.02172233909368515
1690840339693904100,11.660904052734375,-0.003929493948817253,-0.0014213290996849537,-0.02123870886862278
1690840339703944200,11.670944091796875,-0.004600876942276955,-0.0035124430432915688,-0.020356403663754463
1690840339713985300,11.6809853515625,-0.004756671842187643,-0.003725229762494564,-0.020065054297447205
1690840339724025300,11.691025390625,-0.004018177278339863,-0.002377137541770935,-0.019416574388742447
1690840339734065200,11.701065185546875,-0.003918308764696121,-0.0001478054327890277,-0.020359333604574203
1690840339744106000,11.71110595703125,-0.004611263517290354,0.00012676646292675287,-0.01926157809793949
1690840339754176300,11.72117626953125,-0.0035209653433412313,-0.002531334524974227,-0.019057314842939377
1690840339764217000,11.731217041015626,-0.00469462014734745,-0.0023212111555039883,-0.020503411069512367
1690840339774257200,11.741257080078125,-0.003397927153855562,0.00016192019393201917,-0.02184058353304863
1690840339784297200,11.751297119140625,-0.004418184049427509,-0.0006964165950194001,-0.02002883516252041
