time,seconds_elapsed,z,y,x
1690839811535364400,0.0293642578125,-0.9755401611328125,0.0382080078125,-0.0008544921875
1690839811545344300,0.03934423828125,-0.9797821044921875,0.0319366455078125,-0.0028533935546875
1690839811555384300,0.04938427734375,-0.9799957275390625,0.0254058837890625,-0.0034332275390625
1690839811565424400,0.05942431640625,-0.9813232421875,0.01611328125,-0.00506591796875
1690839811575465500,0.069465576171875,-0.984344482421875,0.0082855224609375,-0.004180908203125
1690839811585505500,0.079505615234375,-0.9849853515625,0.001617431640625,-0.0023193359375
1690839811595545600,0.089545654296875,-0.986114501953125,-0.00274658203125,0.0001220703125
1690839811605585700,0.099585693359375,-0.9854278564453125,-0.0027313232421875,0.00347900390625
1690839811615626500,0.10962646484375,-0.98358154296875,-0.0007171630859375,0.0044708251953125
1690839811625666300,0.119666259765625,-0.982269287109375,0.0029296875,0.003509521484375
1690839811635706400,0.129706298828125,-0.9789276123046875,0.0089569091796875,0.0010528564453125
1690839811645777400,0.13977734375,-0.9745635986328125,0.015167236328125,-0.0018157958984375
1690839811655817500,0.1498173828125,-0.9742279052734375,0.0225067138671875,-0.0027618408203125
1690839811665858600,0.159858642578125,-0.97174072265625,0.0278778076171875,-0.0030059814453125
1690839811675898600,0.169898681640625,-0.9703216552734375,0.032684326171875,-0.0035400390625
1690839811685938400,0.1799384765625,-0.970428466796875,0.0366363525390625,-0.0023193359375
1690839811695978500,0.189978515625,-0.9677276611328125,0.0401153564453125,-0.0016632080078125
1690839811706019300,0.200019287109375,-0.96881103515625,0.041900634765625,-0.0009002685546875
1690839811716059400,0.210059326171875,-0.96746826171875,0.040985107421875,-0.00042724609375
1690839811726099500,0.220099365234375,-0.965850830078125,0.0405120849609375,-0.0011138916015625
1690839811736140500,0.230140625,-0.9684600830078125,0.037933349609375,-0.0009765625
1690839811746180600,0.2401806640625,-0.969573974609375,0.0346221923828125,-0.0011749267578125
1690839811756220700,0.250220703125,-0.9716644287109375,0.0316162109375,-0.0011138916015625
1690839811766260500,0.260260498046875,-0.974853515625,0.028533935546875,-0.001007080078125
1690839811776301300,0.27030126953125,-0.9762115478515625,0.022491455078125,-0.0013427734375
1690839811786341400,0.28034130859375,-0.977508544921875,0.0181732177734375,-0.001434326171875
1690839811796412400,0.290412353515625,-0.97979736328125,0.0156097412109375,-0.0018310546875
1690839811806452500,0.300452392578125,-0.97930908203125,0.0122833251953125,-0.001739501953125
1690839811816492500,0.310492431640625,-0.98138427734375,0.0092926025390625,-0.0006256103515625
1690839811826533600,0.32053369140625,-0.98101806640625,0.009368896484375,0.00030517578125
1690839811836573400,0.330573486328125,-0.9792633056640625,0.010772705078125,0.0012664794921875
1690839811846613500,0.340613525390625,-0.9802093505859375,0.0136260986328125,0.0008087158203125
1690839811856653600,0.350653564453125,-0.9788665771484375,0.0163116455078125,-0.0003509521484375
1690839811866694400,0.3606943359375,-0.9775848388671875,0.0192108154296875,-0.0011749267578125
1690839811876734500,0.370734375,-0.9748687744140625,0.0234222412109375,-0.00225830078125
1690839811886765600,0.380765625,-0.9747161865234375,0.02740478515625,-0.0023651123046875
1690839811896806400,0.390806396484375,-0.974273681640625,0.03021240234375,-0.0019073486328125
1690839811906846500,0.400846435546875,-0.9728546142578125,0.031890869140625,-0.001953125
1690839811916886500,0.410886474609375,-0.972503662109375,0.0335845947265625,-0.00189208984375
1690839811926926600,0.420926513671875,-0.9722442626953125,0.0338287353515625,-0.0025177001953125
1690839811936967700,0.4309677734375,-0.971649169921875,0.033477783203125,-0.00152587890625
1690839811947038700,0.441038818359375,-0.97235107421875,0.0316619873046875,-0.0017242431640625
1690839811957078500,0.45107861328125,-0.9724273681640625,0.0310211181640625,-0.000823974609375
1690839811967118600,0.46111865234375,-0.974822998046875,0.028594970703125,-0.0009613037109375
1690839811977158700,0.47115869140625,-0.97576904296875,0.02618408203125,-0.0001678466796875
1690839811987199500,0.481199462890625,-0.975189208984375,0.024383544921875,0.0005645751953125
1690839811997239600,0.491239501953125,-0.9783935546875,0.021484375,0.0005035400390625
1690839812007279600,0.501279541015625,-0.9793853759765625,0.0202178955078125,-0.0010528564453125
1690839812017320700,0.51132080078125,-0.978759765625,0.01849365234375,-0.002044677734375
1690839812027360500,0.521360595703125,-0.9794158935546875,0.0164642333984375,-0.002349853515625
1690839812037400600,0.531400634765625,-0.9793243408203125,0.0153656005859375,-0.002685546875
1690839812047440600,0.541440673828125,-0.9784698486328125,0.0152435302734375,-0.00274658203125
1690839812057481500,0.5514814453125,-0.9781341552734375,0.0178375244140625,-0.001708984375
1690839812067521500,0.561521484375,-0.9775848388671875,0.0192718505859375,0.000274658203125
1690839812077561600,0.5715615234375,-0.97686767578125,0.0208892822265625,0.0008544921875
1690839812087602700,0.581602783203125,-0.977325439453125,0.0243072509765625,0.0003509521484375
1690839812097672400,0.59167236328125,-0.9765472412109375,0.025634765625,-0.000213623046875
1690839812107713500,0.601713623046875,-0.9764404296875,0.02685546875,-0.00091552734375
1690839812117753600,0.611753662109375,-0.975982666015625,0.0288238525390625,-0.001434326171875
1690839812127793700,0.621793701171875,-0.9756011962890625,0.0288848876953125,-0.0027313232421875
1690839812137833500,0.63183349609375,-0.9745330810546875,0.0290374755859375,-0.003448486328125
1690839812147874600,0.64187451171875,-0.9742584228515625,0.0297393798828125,-0.0031890869140625
1690839812157914600,0.65191455078125,-0.97503662109375,0.0287017822265625,-0.003173828125
1690839812167954400,0.661954345703125,-0.974761962890625,0.027618408203125,-0.0016632080078125
1690839812177995500,0.67199560546875,-0.9770050048828125,0.026458740234375,-0.0011138916015625
1690839812188035600,0.68203564453125,-0.9774017333984375,0.0252685546875,-0.000091552734375
1690839812198075600,0.69207568359375,-0.9776611328125,0.0230865478515625,0.00018310546875
1690839812208115500,0.702115478515625,-0.978240966796875,0.0223388671875,0.00091552734375
1690839812218156500,0.712156494140625,-0.9790191650390625,0.0216064453125,0.000335693359375
1690839812228196600,0.722196533203125,-0.9793548583984375,0.020538330078125,-0.0015716552734375
1690839812238236400,0.732236328125,-0.979827880859375,0.01953125,-0.0020751953125
1690839812248307500,0.742307373046875,-0.978790283203125,0.0189208984375,-0.0033111572265625
1690839812258347500,0.752347412109375,-0.9793548583984375,0.0195465087890625,-0.0035400390625
1690839812268388600,0.762388671875,-0.9785003662109375,0.02099609375,-0.0028533935546875
1690839812278428700,0.7724287109375,-0.9777984619140625,0.021759033203125,-0.001617431640625
1690839812288468500,0.782468505859375,-0.97784423828125,0.02227783203125,-0.0010528564453125
1690839812298508500,0.792508544921875,-0.977508544921875,0.024871826171875,-0.0012969970703125
1690839812308549600,0.802549560546875,-0.9778594970703125,0.025634765625,-0.000152587890625
1690839812318589400,0.81258935546875,-0.9774932861328125,0.0263671875,-0.0007781982421875
1690839812328629500,0.82262939453125,-0.9767913818359375,0.02691650390625,-0.0008087158203125
1690839812338670600,0.832670654296875,-0.9764404296875,0.0275115966796875,-0.0014495849609375
1690839812348710700,0.842710693359375,-0.9762725830078125,0.0274658203125,-0.0021209716796875
1690839812358750500,0.85275048828125,-0.976470947265625,0.0266265869140625,-0.0012969970703125
1690839812368790500,0.86279052734375,-0.9769744873046875,0.0258331298828125,-0.0025482177734375
1690839812378831600,0.87283154296875,-0.9771728515625,0.025177001953125,-0.0028076171875
1690839812388871400,0.882871337890625,-0.977691650390625,0.0246124267578125,-0.0014801025390625
1690839812398942500,0.8929423828125,-0.9779510498046875,0.0240020751953125,-0.001129150390625
1690839812408982500,0.902982421875,-0.978240966796875,0.0225830078125,-0.0020751953125
1690839812419022600,0.913022705078125,-0.9791259765625,0.0219268798828125,-0.0010833740234375
1690839812429063700,0.923063720703125,-0.97869873046875,0.0211639404296875,-0.001007080078125
1690839812439103500,0.933103515625,-0.9787750244140625,0.0210418701171875,0.0003509521484375
1690839812449143600,0.9431435546875,-0.979034423828125,0.0216217041015625,-0.000732421875
1690839812459184600,0.9531845703125,-0.97845458984375,0.02178955078125,-0.0015869140625
1690839812469224400,0.963224365234375,-0.9785308837890625,0.022186279296875,-0.0020751953125
1690839812479264500,0.973264404296875,-0.97760009765625,0.022674560546875,-0.00103759765625
1690839812489304600,0.9833046875,-0.976348876953125,0.0225372314453125,-0.0016937255859375
1690839812499345700,0.993345703125,-0.977630615234375,0.0231781005859375,-0.002044677734375
1690839812509385500,1.003385498046875,-0.97918701171875,0.0246429443359375,-0.00238037109375
1690839812519425500,1.013425537109375,-0.9781951904296875,0.025390625,-0.000946044921875
1690839812529466600,1.023466552734375,-0.977508544921875,0.0257568359375,-0.0018768310546875
1690839812539506400,1.03350634765625,-0.978607177734375,0.0257568359375,-0.0006561279296875
1690839812549577500,1.043577392578125,-0.9778594970703125,0.0257568359375,-0.000457763671875
1690839812559617500,1.053617431640625,-0.977874755859375,0.0261383056640625,-0.00091552734375
1690839812569657600,1.06365771484375,-0.978302001953125,0.024627685546875,-0.001220703125
1690839812579697700,1.07369775390625,-0.977996826171875,0.02459716796875,-0.0008392333984375
1690839812589738500,1.083738525390625,-0.978424072265625,0.0239410400390625,-0.001190185546875
1690839812599778600,1.093778564453125,-0.9788665771484375,0.0240631103515625,-0.0019378662109375
1690839812609818400,1.103818359375,-0.9789886474609375,0.0238800048828125,-0.00189208984375
1690839812619859500,1.113859375,-0.9786224365234375,0.022918701171875,-0.0009307861328125
1690839812629899500,1.1238994140625,-0.9789276123046875,0.0223846435546875,-0.00006103515625
1690839812639939600,1.133939697265625,-0.9798431396484375,0.0225982666015625,-0.0009307861328125
1690839812649979600,1.143979736328125,-0.979461669921875,0.0225982666015625,-0.0001678466796875
1690839812660020500,1.1540205078125,-0.97991943359375,0.0223388671875,-0.000030517578125
1690839812670060500,1.164060546875,-0.9809417724609375,0.0233001708984375,-0.0002593994140625
1690839812680100400,1.174100341796875,-0.9801177978515625,0.023223876953125,-0.000701904296875
1690839812690141400,1.184141357421875,-0.979034423828125,0.0236358642578125,-0.001953125
1690839812700211500,1.19421142578125,-0.978729248046875,0.0240631103515625,-0.001983642578125
1690839812710252500,1.20425244140625,-0.9780426025390625,0.0241546630859375,-0.0016021728515625
1690839812720292600,1.214292724609375,-0.978485107421875,0.0253753662109375,-0.0021209716796875
1690839812730332700,1.224332763671875,-0.9779205322265625,0.025177001953125,-0.0018768310546875
1690839812740373500,1.23437353515625,-0.978485107421875,0.024810791015625,-0.0010223388671875
1690839812750413600,1.24441357421875,-0.9788055419921875,0.024566650390625,-0.0000152587890625
1690839812760453400,1.254453369140625,-0.9785308837890625,0.0243377685546875,0.0008392333984375
1690839812770493400,1.264493408203125,-0.978851318359375,0.0246124267578125,-0.0003509521484375
1690839812780534500,1.274534423828125,-0.9786834716796875,0.0246429443359375,0.0000457763671875
1690839812790574600,1.28457470703125,-0.97930908203125,0.0233612060546875,-0.000640869140625
1690839812800614700,1.29461474609375,-0.9798126220703125,0.0233612060546875,-0.00177001953125
1690839812810654700,1.30465478515625,-0.9787750244140625,0.0232696533203125,-0.0030975341796875
1690839812820695600,1.314695556640625,-0.97930908203125,0.0225677490234375,-0.003997802734375
1690839812830735400,1.3247353515625,-0.97869873046875,0.0221405029296875,-0.0042572021484375
1690839812840775400,1.334775390625,-0.97857666015625,0.0220794677734375,-0.00299072265625
1690839812850846500,1.344846435546875,-0.97900390625,0.0222930908203125,-0.0015106201171875
1690839812860886500,1.354886474609375,-0.9800872802734375,0.0230560302734375,-0.000030517578125
1690839812870927600,1.364927734375,-0.980377197265625,0.0235748291015625,0.00067138671875
1690839812880967700,1.3749677734375,-0.980133056640625,0.023162841796875,0.001922607421875
1690839812890987000,1.384987060546875,-0.980194091796875,0.0240020751953125,0.0008087158203125
1690839812901027800,1.39502783203125,-0.9800567626953125,0.0244293212890625,-0.0010528564453125
1690839812911067600,1.405067626953125,-0.97955322265625,0.024810791015625,-0.002716064453125
1690839812921107700,1.415107666015625,-0.9790496826171875,0.0244903564453125,-0.00457763671875
1690839812931147800,1.425147705078125,-0.978057861328125,0.0249481201171875,-0.0048828125
1690839812941188900,1.43518896484375,-0.9777679443359375,0.024658203125,-0.0044708251953125
1690839812951229000,1.44522900390625,-0.978973388671875,0.0246734619140625,-0.00335693359375
1690839812961269000,1.45526904296875,-0.9795074462890625,0.0235748291015625,-0.0015411376953125
1690839812971309800,1.465309814453125,-0.9800567626953125,0.0239715576171875,0.0008544921875
1690839812981350000,1.475349853515625,-0.979339599609375,0.024627685546875,0.002410888671875
1690839812991389700,1.4853896484375,-0.980499267578125,0.0246124267578125,0.002471923828125
1690839813001460700,1.495460693359375,-0.98095703125,0.0243072509765625,0.0023956298828125
1690839813011500800,1.505500732421875,-0.9801177978515625,0.0241851806640625,-0.0000762939453125
1690839813021540900,1.515540771484375,-0.9800567626953125,0.0231475830078125,-0.001739501953125
1690839813031582000,1.52558203125,-0.9805908203125,0.022705078125,-0.002960205078125
1690839813041622000,1.5356220703125,-0.9792938232421875,0.0228729248046875,-0.0049896240234375
1690839813051661800,1.545661865234375,-0.979217529296875,0.022674560546875,-0.0041351318359375
1690839813061702700,1.55570263671875,-0.9796905517578125,0.023101806640625,-0.0025787353515625
1690839813071742700,1.56574267578125,-0.9799652099609375,0.0240936279296875,-0.0001983642578125
1690839813081782800,1.57578271484375,-0.980316162109375,0.024566650390625,0.001190185546875
1690839813091822800,1.58582275390625,-0.980377197265625,0.0244293212890625,0.001922607421875
1690839813101864000,1.595864013671875,-0.9796600341796875,0.0249176025390625,0.0027618408203125
1690839813111904000,1.605904052734375,-0.979034423828125,0.0249481201171875,0.00079345703125
1690839813121944000,1.615944091796875,-0.97955322265625,0.02435302734375,-0.00067138671875
1690839813131985000,1.62598486328125,-0.9791412353515625,0.0237579345703125,-0.0026092529296875
1690839813142024700,1.636024658203125,-0.979522705078125,0.02325439453125,-0.00494384765625
1690839813152095700,1.646095703125,-0.979156494140625,0.02325439453125,-0.0044097900390625
1690839813162135800,1.6561357421875,-0.978668212890625,0.02349853515625,-0.0036468505859375
1690839813172176000,1.66617578125,-0.980316162109375,0.0236663818359375,-0.0037689208984375
1690839813182217000,1.676217041015625,-0.9804534912109375,0.0242767333984375,-0.0016937255859375
1690839813192257000,1.686257080078125,-0.980255126953125,0.0233306884765625,0.0005035400390625
1690839813202296800,1.696296875,-0.980255126953125,0.0223541259765625,0.000244140625
1690839813212337000,1.7063369140625,-0.9802703857421875,0.0234832763671875,0.0005950927734375
1690839813222377700,1.716377685546875,-0.9811248779296875,0.0231781005859375,0.000091552734375
1690839813232417800,1.726417724609375,-0.9808502197265625,0.02349853515625,-0.000091552734375
1690839813242457900,1.736457763671875,-0.9789886474609375,0.0239715576171875,-0.0005340576171875
1690839813252499000,1.7464990234375,-0.9785308837890625,0.0238800048828125,-0.0029449462890625
1690839813262539000,1.7565390625,-0.9791107177734375,0.025634765625,-0.0026702880859375
1690839813272579000,1.7665791015625,-0.9806060791015625,0.0255126953125,-0.0020904541015625
1690839813282619000,1.776618896484375,-0.979644775390625,0.025665283203125,-0.0011444091796875
1690839813292659700,1.78665966796875,-0.9798583984375,0.0252685546875,-0.00042724609375
1690839813302729700,1.796729736328125,-0.9794769287109375,0.024932861328125,-0.001739501953125
1690839813312770800,1.806770751953125,-0.97991943359375,0.0236968994140625,-0.0010528564453125
1690839813322811000,1.816810791015625,-0.9797210693359375,0.0240478515625,-0.0017242431640625
1690839813332851000,1.826850830078125,-0.9807891845703125,0.02325439453125,-0.0019073486328125
1690839813342892000,1.83689208984375,-0.9803466796875,0.02288818359375,-0.0010833740234375
1690839813352931800,1.846931884765625,-0.9813232421875,0.0220947265625,-0.0004119873046875
1690839813362972000,1.856971923828125,-0.981353759765625,0.02191162109375,-0.0010223388671875
1690839813373011700,1.86701171875,-0.97998046875,0.022735595703125,-0.0009613037109375
1690839813383052800,1.877052734375,-0.9820404052734375,0.0215301513671875,-0.0013580322265625
1690839813393092900,1.8870927734375,-0.9812469482421875,0.0218963623046875,-0.0011444091796875
1690839813403133000,1.8971328125,-0.98114013671875,0.022979736328125,-0.0013580322265625
1690839813413174000,1.907174072265625,-0.9808807373046875,0.0226898193359375,-0.001220703125
1690839813423213800,1.9172138671875,-0.97979736328125,0.02337646484375,-0.00146484375
1690839813433254000,1.92725390625,-0.980743408203125,0.024261474609375,-0.0005645751953125
1690839813443293700,1.937293701171875,-0.9811248779296875,0.0238189697265625,-0.0008544921875
1690839813453364700,1.94736474609375,-0.9790802001953125,0.024017333984375,-0.000762939453125
1690839813463404800,1.95740478515625,-0.97869873046875,0.0255584716796875,-0.0008392333984375
1690839813473446000,1.96744580078125,-0.9791717529296875,0.026153564453125,-0.00048828125
1690839813483486000,1.97748583984375,-0.97955322265625,0.025848388671875,-0.0003814697265625
1690839813493525800,1.98752587890625,-0.9796600341796875,0.02630615234375,-0.0018157958984375
1690839813503566800,1.99756689453125,-0.9802093505859375,0.0257568359375,-0.0013275146484375
1690839813513607000,2.00760693359375,-0.9795989990234375,0.0247344970703125,-0.001739501953125
1690839813523646700,2.017646728515625,-0.980316162109375,0.023345947265625,-0.0015411376953125
1690839813533686800,2.027686767578125,-0.9809112548828125,0.0232391357421875,-0.0021209716796875
1690839813543727900,2.037727783203125,-0.980804443359375,0.0229949951171875,-0.001617431640625
1690839813553768000,2.047767822265625,-0.9811248779296875,0.0224151611328125,-0.001556396484375
1690839813563807700,2.057807861328125,-0.9803619384765625,0.022613525390625,-0.0006561279296875
1690839813573848800,2.067848876953125,-0.980926513671875,0.022430419921875,-0.0000762939453125
1690839813583889000,2.077888916015625,-0.9814300537109375,0.0228424072265625,-0.0004425048828125
1690839813593928700,2.0879287109375,-0.982086181640625,0.02264404296875,-0.0004730224609375
1690839813603999700,2.097999755859375,-0.981658935546875,0.0235595703125,-0.000518798828125
1690839813614039800,2.108039794921875,-0.980194091796875,0.023681640625,-0.0010528564453125
1690839813624081000,2.118080810546875,-0.9800872802734375,0.0242156982421875,-0.0019073486328125
1690839813634121000,2.128120849609375,-0.9808502197265625,0.0248260498046875,-0.0017242431640625
1690839813644160800,2.138160888671875,-0.979095458984375,0.024200439453125,-0.0028228759765625
1690839813654200800,2.148200927734375,-0.9802703857421875,0.02410888671875,-0.003448486328125
1690839813664241700,2.15824169921875,-0.9796905517578125,0.0244293212890625,-0.001861572265625
1690839813674281700,2.16828173828125,-0.9799957275390625,0.02490234375,-0.000244140625
1690839813684321800,2.17832177734375,-0.9805755615234375,0.02520751953125,0.0009613037109375
1690839813694363000,2.18836279296875,-0.98065185546875,0.0247650146484375,0.0023193359375
1690839813704403000,2.19840283203125,-0.981475830078125,0.0236663818359375,0.0009002685546875
1690839813714442800,2.20844287109375,-0.98187255859375,0.0238189697265625,-0.000732421875
1690839813724482800,2.21848291015625,-0.981109619140625,0.023162841796875,-0.0026397705078125
1690839813734523600,2.228523681640625,-0.9804534912109375,0.022369384765625,-0.00347900390625
1690839813744594000,2.238593994140625,-0.9802703857421875,0.0218048095703125,-0.003692626953125
1690839813754634800,2.248634765625,-0.9797210693359375,0.0221099853515625,-0.003082275390625
1690839813764674800,2.2586748046875,-0.9807586669921875,0.022308349609375,-0.002471923828125
1690839813774715000,2.26871484375,-0.9810791015625,0.0229644775390625,0.0004119873046875
1690839813784756000,2.278755859375,-0.98211669921875,0.023284912109375,0.0006866455078125
1690839813794795800,2.288795654296875,-0.9813995361328125,0.023712158203125,0.0001068115234375
1690839813804835800,2.2988359375,-0.9805450439453125,0.0247802734375,-0.001251220703125
1690839813814876000,2.3088759765625,-0.980743408203125,0.024505615234375,-0.00164794921875
1690839813824916700,2.318916748046875,-0.9801177978515625,0.024169921875,-0.0023651123046875
1690839813834956800,2.328956787109375,-0.98028564453125,0.0240631103515625,-0.0020294189453125
1690839813844996900,2.338996826171875,-0.980010986328125,0.0239410400390625,-0.0017242431640625
1690839813855038000,2.349037841796875,-0.97991943359375,0.024017333984375,-0.001495361328125
1690839813865077800,2.359077880859375,-0.98040771484375,0.02447509765625,-0.0013580322265625
1690839813875117800,2.369117919921875,-0.980316162109375,0.0237884521484375,-0.0026092529296875
1690839813885154300,2.379154296875,-0.980712890625,0.023712158203125,-0.001983642578125
1690839813895225300,2.389225341796875,-0.9801788330078125,0.0235748291015625,-0.0006561279296875
1690839813905265400,2.399265380859375,-0.979827880859375,0.0233306884765625,-0.00067138671875
1690839813915306200,2.40930615234375,-0.98065185546875,0.02349853515625,0.0004119873046875
1690839813925346300,2.41934619140625,-0.981475830078125,0.023834228515625,0.001068115234375
1690839813935386400,2.429386474609375,-0.9820556640625,0.022613525390625,-0.0005035400390625
1690839813945427500,2.439427490234375,-0.9812469482421875,0.0232391357421875,-0.001312255859375
1690839813955467300,2.44946728515625,-0.98040771484375,0.022857666015625,-0.0027923583984375
1690839813965507300,2.45950732421875,-0.9810333251953125,0.02362060546875,-0.002532958984375
1690839813975547400,2.46954736328125,-0.980743408203125,0.0233001708984375,-0.0028228759765625
1690839813985588200,2.479588134765625,-0.98065185546875,0.0238037109375,-0.001434326171875
1690839813995628300,2.489628173828125,-0.98187255859375,0.0248870849609375,-0.0001068115234375
1690839814005668400,2.49966845703125,-0.98199462890625,0.0238494873046875,-0.000152587890625
1690839814015709400,2.50970947265625,-0.9817962646484375,0.0245819091796875,-0.0002288818359375
1690839814025749500,2.51974951171875,-0.981292724609375,0.0247955322265625,-0.0001983642578125
1690839814035789300,2.529789306640625,-0.9813385009765625,0.0239410400390625,-0.001556396484375
1690839814045860400,2.5398603515625,-0.9800872802734375,0.0236663818359375,-0.0028228759765625
1690839814055900400,2.549900390625,-0.9803466796875,0.023468017578125,-0.0024871826171875
1690839814065941200,2.559941162109375,-0.9798431396484375,0.0239410400390625,-0.0015106201171875
1690839814075981300,2.569981201171875,-0.9820556640625,0.0243377685546875,-0.0009002685546875
1690839814086021400,2.580021484375,-0.98126220703125,0.0245819091796875,-0.00030517578125
1690839814096061200,2.590061279296875,-0.9821929931640625,0.024078369140625,-0.0013427734375
1690839814106102300,2.600102294921875,-0.9810028076171875,0.0241241455078125,-0.0013885498046875
1690839814116142300,2.610142333984375,-0.9808807373046875,0.0234375,-0.0018310546875
1690839814126182400,2.620182373046875,-0.980682373046875,0.02386474609375,-0.0016937255859375
1690839814136223200,2.63022314453125,-0.98028564453125,0.02337646484375,-0.001556396484375
1690839814146263300,2.64026318359375,-0.98089599609375,0.0232086181640625,-0.0006256103515625
1690839814156303400,2.650303466796875,-0.9811553955078125,0.02392578125,0.0003204345703125
1690839814166343400,2.660343505859375,-0.9813232421875,0.0230712890625,0
1690839814176384500,2.670384521484375,-0.98199462890625,0.023895263671875,-0.000701904296875
1690839814186424300,2.68042431640625,-0.9817962646484375,0.024169921875,-0.001190185546875
1690839814196495400,2.690495361328125,-0.9803924560546875,0.0240936279296875,-0.002044677734375
1690839814206535400,2.700535400390625,-0.980377197265625,0.0243682861328125,-0.0014801025390625
1690839814216575500,2.710575439453125,-0.980010986328125,0.0244598388671875,-0.0018768310546875
1690839814226616300,2.7206162109375,-0.9803466796875,0.0248565673828125,-0.0016632080078125
1690839814236656400,2.730656494140625,-0.9809417724609375,0.02435302734375,-0.0013275146484375
1690839814246696200,2.7406962890625,-0.980010986328125,0.024688720703125,-0.0009613037109375
1690839814256736300,2.750736328125,-0.9806976318359375,0.024261474609375,-0.001495361328125
1690839814266777300,2.76077734375,-0.9805450439453125,0.023284912109375,-0.000823974609375
1690839814276817400,2.7708173828125,-0.98046875,0.0239410400390625,-0.0008697509765625
1690839814286857500,2.780857421875,-0.9816436767578125,0.0238037109375,-0.0009002685546875
1690839814296898300,2.790898193359375,-0.98046875,0.023956298828125,-0.0007476806640625
1690839814306938400,2.8009384765625,-0.980743408203125,0.024261474609375,-0.0001220703125
1690839814316978400,2.810978515625,-0.9814453125,0.0243072509765625,-0.001556396484375
1690839814327018200,2.821018310546875,-0.98150634765625,0.023712158203125,-0.0015869140625
1690839814337059300,2.831059326171875,-0.9814910888671875,0.0228118896484375,-0.0017547607421875
1690839814347130400,2.84113037109375,-0.9807586669921875,0.022735595703125,-0.0009613037109375
1690839814357170400,2.85117041015625,-0.979736328125,0.0233306884765625,-0.0016937255859375
1690839814367210500,2.86121044921875,-0.9810791015625,0.0236663818359375,-0.002197265625
1690839814377250600,2.87125048828125,-0.98065185546875,0.0237884521484375,-0.001068115234375
1690839814387291400,2.88129150390625,-0.9810943603515625,0.024566650390625,-0.0016937255859375
1690839814397331200,2.891331298828125,-0.98150634765625,0.0243682861328125,-0.00152587890625
1690839814407371300,2.901371337890625,-0.9811248779296875,0.0231781005859375,-0.001983642578125
1690839814417411300,2.911411376953125,-0.980377197265625,0.02349853515625,-0.0016937255859375
1690839814427452400,2.921452392578125,-0.9802093505859375,0.0245361328125,-0.0009307861328125
1690839814437492500,2.931492431640625,-0.98046875,0.0245208740234375,-0.0013275146484375
1690839814447532300,2.9415322265625,-0.979522705078125,0.0242767333984375,-0.0011444091796875
1690839814457573400,2.951573486328125,-0.9810028076171875,0.0239105224609375,-0.0016937255859375
1690839814467613200,2.96161328125,-0.9808349609375,0.024444580078125,-0.0018463134765625
1690839814477653200,2.9716533203125,-0.97991943359375,0.0233001708984375,-0.001251220703125
1690839814487693300,2.981693359375,-0.9813385009765625,0.0234832763671875,-0.000732421875
1690839814497764400,2.991764404296875,-0.981658935546875,0.0231475830078125,-0.000457763671875
1690839814507805400,3.001805419921875,-0.9807281494140625,0.0237274169921875,-0.00054931640625
1690839814517845500,3.011845458984375,-0.9806976318359375,0.0244293212890625,-0.001220703125
1690839814527885300,3.02188525390625,-0.980499267578125,0.0238494873046875,-0.0005950927734375
1690839814537925000,3.031925048828125,-0.981292724609375,0.023040771484375,-0.0006256103515625
1690839814547966200,3.04196630859375,-0.981658935546875,0.0240325927734375,-0.00146484375
1690839814558006300,3.05200634765625,-0.9810791015625,0.0240020751953125,-0.00189208984375
1690839814568046300,3.06204638671875,-0.9801025390625,0.023712158203125,-0.001983642578125
1690839814578087400,3.07208740234375,-0.9810791015625,0.023651123046875,-0.001678466796875
1690839814588127500,3.08212744140625,-0.981353759765625,0.0241851806640625,-0.0018310546875
1690839814598167300,3.092167236328125,-0.981719970703125,0.0235595703125,-0.000946044921875
1690839814608207000,3.10220703125,-0.9813232421875,0.0240936279296875,-0.00146484375
1690839814618248200,3.112248291015625,-0.9809722900390625,0.0237579345703125,-0.0018157958984375
1690839814628288300,3.122288330078125,-0.9810791015625,0.0236663818359375,-0.001007080078125
1690839814638328300,3.132328369140625,-0.9813232421875,0.0239715576171875,-0.000701904296875
1690839814648399400,3.1423994140625,-0.981597900390625,0.0236968994140625,-0.001251220703125
1690839814658439400,3.152439453125,-0.9802093505859375,0.023590087890625,-0.0012969970703125
1690839814668480500,3.16248046875,-0.980682373046875,0.023712158203125,-0.001556396484375
1690839814678520300,3.172520263671875,-0.98077392578125,0.0240325927734375,-0.001983642578125
1690839814688560000,3.18256005859375,-0.980499267578125,0.024200439453125,-0.0019683837890625
1690839814698600200,3.19260009765625,-0.981170654296875,0.0243377685546875,-0.001617431640625
1690839814708641300,3.202641357421875,-0.9813995361328125,0.023681640625,-0.0014190673828125
1690839814718681300,3.212681396484375,-0.9817657470703125,0.0233154296875,-0.0017242431640625
1690839814728721400,3.222721435546875,-0.9813385009765625,0.0238494873046875,-0.00079345703125
1690839814738762500,3.232762451171875,-0.9814300537109375,0.0233917236328125,-0.0011138916015625
1690839814748802300,3.24280224609375,-0.9813995361328125,0.0243988037109375,-0.0010833740234375
1690839814758842000,3.252842041015625,-0.9811553955078125,0.0240478515625,-0.0011749267578125
1690839814768882200,3.262882080078125,-0.9810638427734375,0.0237274169921875,-0.0016326904296875
1690839814778923300,3.27292333984375,-0.9817047119140625,0.024078369140625,-0.00152587890625
1690839814788994300,3.282994384765625,-0.9814910888671875,0.0240478515625,-0.00225830078125
1690839814799034400,3.293034423828125,-0.9809417724609375,0.023406982421875,-0.00189208984375
1690839814809074400,3.303074462890625,-0.98016357421875,0.022796630859375,-0.0013885498046875
1690839814819114500,3.313114501953125,-0.9806060791015625,0.0233612060546875,-0.0012969970703125
1690839814829155300,3.3231552734375,-0.9826507568359375,0.0240936279296875,-0.0013275146484375
1690839814839195100,3.333195068359375,-0.9818115234375,0.024169921875,-0.0004730224609375
1690839814849235200,3.343235107421875,-0.981781005859375,0.0238037109375,-0.00115966796875
1690839814859276300,3.3532763671875,-0.982177734375,0.02398681640625,-0.001251220703125
1690839814869316400,3.36331640625,-0.981292724609375,0.023773193359375,-0.002532958984375
1690839814879356400,3.3733564453125,-0.98114013671875,0.0236053466796875,-0.0018310546875
1690839814889378800,3.38337890625,-0.9816131591796875,0.0243682861328125,-0.0007171630859375
1690839814899420000,3.393419921875,-0.9808807373046875,0.024139404296875,-0.0016326904296875
1690839814909459700,3.403459716796875,-0.9812469482421875,0.0236663818359375,-0.0017242431640625
1690839814919499800,3.413499755859375,-0.9810028076171875,0.02288818359375,-0.00115966796875
1690839814929539800,3.423539794921875,-0.980560302734375,0.0240325927734375,-0.0016021728515625
1690839814939610600,3.433610595703125,-0.981689453125,0.0240020751953125,-0.00201416015625
1690839814949652000,3.44365185546875,-0.980987548828125,0.0235443115234375,-0.00164794921875
1690839814959691800,3.45369189453125,-0.9801483154296875,0.023773193359375,-0.001312255859375
1690839814969731800,3.46373193359375,-0.9811248779296875,0.0240936279296875,-0.0005340576171875
1690839814979772000,3.47377197265625,-0.9812164306640625,0.0238800048828125,-0.000335693359375
1690839814989812700,3.483812744140625,-0.9817657470703125,0.024261474609375,-0.0009613037109375
1690839814999852800,3.493852783203125,-0.98162841796875,0.024200439453125,-0.001800537109375
1690839815009892900,3.503892822265625,-0.9808197021484375,0.0237884521484375,-0.0018157958984375
1690839815019934000,3.513933837890625,-0.9808197021484375,0.0241851806640625,-0.0019073486328125
1690839815029973800,3.523973876953125,-0.9805755615234375,0.0231170654296875,-0.0016326904296875
1690839815040013800,3.534013916015625,-0.9814300537109375,0.0234527587890625,-0.001678466796875
1690839815050054000,3.544053955078125,-0.9818115234375,0.0240478515625,-0.00164794921875
1690839815060094700,3.5540947265625,-0.9813995361328125,0.0237274169921875,-0.00164794921875
1690839815070134800,3.564134765625,-0.9817962646484375,0.0237274169921875,-0.0010986328125
1690839815080174800,3.5741748046875,-0.981903076171875,0.023406982421875,-0.0008087158203125
1690839815090245600,3.58424560546875,-0.9807891845703125,0.023834228515625,-0.0008697509765625
1690839815100285700,3.59428564453125,-0.9803314208984375,0.0236968994140625,-0.0020294189453125
1690839815110326800,3.604326904296875,-0.9813995361328125,0.0236358642578125,-0.0022125244140625
1690839815120366800,3.614366943359375,-0.980621337890625,0.023956298828125,-0.0011444091796875
1690839815130407000,3.624406982421875,-0.9813690185546875,0.0244903564453125,-0.0013885498046875
1690839815140447000,3.634447021484375,-0.9822845458984375,0.0235137939453125,-0.0015716552734375
1690839815150487800,3.64448779296875,-0.981536865234375,0.0237579345703125,-0.0008087158203125
1690839815160528000,3.65452783203125,-0.98052978515625,0.023651123046875,-0.0017852783203125
1690839815170567700,3.664567626953125,-0.9813079833984375,0.0230712890625,-0.001953125
1690839815180608800,3.67460888671875,-0.9809112548828125,0.0231475830078125,-0.0016021728515625
1690839815190648800,3.68464892578125,-0.9808349609375,0.023468017578125,-0.0014495849609375
1690839815200689000,3.69468896484375,-0.9814910888671875,0.0244903564453125,-0.0013885498046875
1690839815210729000,3.70472900390625,-0.981201171875,0.024017333984375,-0.0013275146484375
1690839815220769800,3.714769775390625,-0.9815673828125,0.023834228515625,-0.0002593994140625
1690839815230809900,3.724809814453125,-0.9814453125,0.02325439453125,-0.001129150390625
1690839815240880600,3.734880615234375,-0.981201171875,0.0235137939453125,-0.00115966796875
1690839815250920700,3.744920654296875,-0.9821624755859375,0.023345947265625,-0.0009307861328125
1690839815260960800,3.754960693359375,-0.981414794921875,0.0236663818359375,-0.001251220703125
1690839815271001900,3.765001953125,-0.9814300537109375,0.0230560302734375,-0.002044677734375
1690839815281042000,3.7750419921875,-0.981597900390625,0.022674560546875,-0.001068115234375
1690839815291082000,3.78508203125,-0.9813079833984375,0.023773193359375,-0.000762939453125
1690839815301122800,3.795122802734375,-0.98175048828125,0.02386474609375,-0.0012054443359375
1690839815311163000,3.805162841796875,-0.981475830078125,0.02423095703125,-0.001434326171875
1690839815321202700,3.81520263671875,-0.9814605712890625,0.0240478515625,-0.001678466796875
1690839815331242800,3.82524267578125,-0.9813232421875,0.0235443115234375,-0.000823974609375
1690839815341283800,3.835283935546875,-0.9802093505859375,0.0236053466796875,-0.0006866455078125
1690839815351324000,3.845323974609375,-0.9808502197265625,0.02423095703125,-0.0017242431640625
1690839815361364000,3.855364013671875,-0.9814300537109375,0.0237579345703125,-0.0008392333984375
1690839815371404800,3.86540478515625,-0.981109619140625,0.0238037109375,-0.0008392333984375
1690839815381444900,3.87544482421875,-0.9814300537109375,0.0230712890625,-0.0010223388671875
1690839815391515600,3.885515625,-0.981170654296875,0.023406982421875,-0.0014801025390625
1690839815401555700,3.8955556640625,-0.9811248779296875,0.0240631103515625,-0.0012664794921875
1690839815411595800,3.905595703125,-0.9819488525390625,0.0246429443359375,-0.0019683837890625
1690839815421635800,3.9156357421875,-0.9816741943359375,0.0237274169921875,-0.0013275146484375
1690839815431677000,3.925677001953125,-0.9816131591796875,0.0236663818359375,-0.001068115234375
1690839815441717000,3.935717041015625,-0.9818572998046875,0.02301025390625,-0.0004730224609375
1690839815451757000,3.945757080078125,-0.98065185546875,0.0222930908203125,-0.001373291015625
1690839815461798000,3.9557978515625,-0.98162841796875,0.0229644775390625,-0.00189208984375
1690839815471837700,3.965837646484375,-0.9816741943359375,0.0235443115234375,-0.001708984375
1690839815481877800,3.975877685546875,-0.9817352294921875,0.0245513916015625,-0.00201416015625
1690839815491917800,3.985917724609375,-0.981689453125,0.023773193359375,-0.0020751953125
1690839815501959000,3.995958984375,-0.9805145263671875,0.0234527587890625,-0.0015869140625
1690839815511999000,4.0059990234375,-0.9813690185546875,0.02398681640625,-0.0015106201171875
1690839815522039000,4.0160390625,-0.981964111328125,0.0232086181640625,-0.001708984375
1690839815532079900,4.026079833984375,-0.9815216064453125,0.023040771484375,-0.0020294189453125
1690839815542150000,4.03614990234375,-0.9822540283203125,0.0233612060546875,-0.0018310546875
1690839815552190700,4.046190673828125,-0.9813690185546875,0.0239410400390625,-0.0009613037109375
1690839815562230800,4.056230712890625,-0.9818267822265625,0.02362060546875,-0.0022735595703125
1690839815572270800,4.066270751953125,-0.9812164306640625,0.024017333984375,-0.0009765625
1690839815582311000,4.076310791015625,-0.9813079833984375,0.0240936279296875,-0.0008392333984375
1690839815592352000,4.08635205078125,-0.9817962646484375,0.0239105224609375,-0.0006866455078125
1690839815602391800,4.096391845703125,-0.9804229736328125,0.0245513916015625,-0.0009002685546875
1690839815612432000,4.106431884765625,-0.9813385009765625,0.023956298828125,-0.0011749267578125
1690839815622472700,4.11647265625,-0.9818572998046875,0.0233001708984375,-0.0003662109375
1690839815632512800,4.1265126953125,-0.9810791015625,0.024017333984375,-0.0017852783203125
1690839815642552800,4.136552734375,-0.98052978515625,0.0242462158203125,-0.001983642578125
1690839815652593000,4.146593017578125,-0.981689453125,0.02410888671875,-0.0012969970703125
1690839815662634000,4.156634033203125,-0.9812774658203125,0.023895263671875,-0.0015106201171875
1690839815672674000,4.166674072265625,-0.9815216064453125,0.0236968994140625,-0.00164794921875
1690839815682744800,4.176744873046875,-0.9819183349609375,0.024383544921875,-0.0012969970703125
1690839815692785000,4.186784912109375,-0.9676055908203125,0.0115814208984375,-0.0246429443359375
1690839815702824700,4.19682470703125,-1.00701904296875,0.0292205810546875,-0.0011138916015625
1690839815712865800,4.20686572265625,-0.9903717041015625,0.0103302001953125,0.0399627685546875
1690839815722905900,4.21690576171875,-0.9764556884765625,0.0261077880859375,-0.0084075927734375
1690839815732946000,4.22694580078125,-0.979339599609375,0.02203369140625,0.007537841796875
1690839815742987000,4.236987060546875,-0.998138427734375,0.0126953125,0.0113983154296875
1690839815753026800,4.24702685546875,-0.9778289794921875,0.02398681640625,-0.007965087890625
1690839815763067000,4.25706689453125,-0.97930908203125,0.0262298583984375,-0.0093536376953125
1690839815773106700,4.267106689453125,-0.975860595703125,0.0324249267578125,-0.0111083984375
1690839815783147800,4.277147705078125,-0.9744720458984375,0.0369720458984375,-0.0139312744140625
1690839815793187800,4.287187744140625,-0.973236083984375,0.0384674072265625,-0.0106658935546875
1690839815803228000,4.297227783203125,-0.974212646484375,0.040802001953125,-0.00531005859375
1690839815813269000,4.30726904296875,-0.975250244140625,0.041839599609375,-0.000244140625
1690839815823309000,4.31730908203125,-0.9801788330078125,0.04193115234375,0.004852294921875
1690839815833379800,4.3273798828125,-0.9762725830078125,0.039947509765625,0.009368896484375
1690839815843420000,4.337419921875,-0.9841461181640625,0.0374755859375,0.0088653564453125
1690839815853459700,4.347459716796875,-0.9806671142578125,0.034027099609375,0.0055999755859375
1690839815863499800,4.357499755859375,-0.979461669921875,0.0301971435546875,0.001129150390625
1690839815873540900,4.367540771484375,-0.9810638427734375,0.0267791748046875,-0.0048980712890625
1690839815883581000,4.377580810546875,-0.9815521240234375,0.023468017578125,-0.0082550048828125
1690839815893624800,4.387624755859375,-0.9808807373046875,0.020355224609375,-0.009674072265625
1690839815903665700,4.397665771484375,-0.98223876953125,0.018951416015625,-0.0070953369140625
1690839815913705700,4.407705810546875,-0.9836883544921875,0.0167999267578125,-0.00299072265625
1690839815923745800,4.417745849609375,-0.987335205078125,0.0166778564453125,0.0021209716796875
1690839815933785600,4.42778564453125,-0.9855499267578125,0.0157928466796875,0.0057830810546875
1690839815943827000,4.437826904296875,-0.987823486328125,0.0161895751953125,0.006927490234375
1690839815953866800,4.44786669921875,-0.986572265625,0.0183563232421875,0.005218505859375
1690839815963906800,4.45790673828125,-0.98431396484375,0.0208892822265625,0.0009918212890625
1690839815973947600,4.46794775390625,-0.981536865234375,0.022857666015625,-0.0026092529296875
1690839815984018000,4.478017822265625,-0.98101806640625,0.025604248046875,-0.00567626953125
1690839815994058800,4.488058837890625,-0.97900390625,0.02813720703125,-0.0069732666015625
1690839816004098800,4.498098876953125,-0.9806671142578125,0.03155517578125,-0.0050506591796875
1690839816014138600,4.508138671875,-0.978546142578125,0.0329437255859375,-0.0032806396484375
1690839816024178700,4.5181787109375,-0.978240966796875,0.0335540771484375,-0.0020294189453125
1690839816034219800,4.5282197265625,-0.9786376953125,0.0351409912109375,0.000274658203125
1690839816044259800,4.538259765625,-0.9788818359375,0.0358734130859375,0.0019073486328125
1690839816054300000,4.5482998046875,-0.978240966796875,0.0345458984375,0.00225830078125
1690839816064340700,4.5583408203125,-0.978912353515625,0.034088134765625,0.000640869140625
1690839816074380800,4.568380859375,-0.97894287109375,0.03216552734375,-0.000457763671875
1690839816084420600,4.578420654296875,-0.980316162109375,0.0304412841796875,-0.00213623046875
1690839816094460700,4.588460693359375,-0.9800262451171875,0.029388427734375,-0.0039215087890625
1690839816104501800,4.598501708984375,-0.9797210693359375,0.0267181396484375,-0.0032958984375
1690839816114541800,4.608541748046875,-0.9825286865234375,0.0257568359375,-0.00311279296875
1690839816124582000,4.618581787109375,-0.9827423095703125,0.024444580078125,-0.001739501953125
1690839816134653000,4.62865283203125,-0.982818603515625,0.022613525390625,-0.0011749267578125
1690839816144693000,4.63869287109375,-0.984710693359375,0.0217437744140625,-0.0005035400390625
1690839816154733800,4.64873388671875,-0.9837799072265625,0.0210113525390625,-0.0004119873046875
1690839816164773600,4.658773681640625,-0.9837493896484375,0.0202789306640625,0.000396728515625
1690839816174813700,4.668813720703125,-0.9835968017578125,0.020751953125,0.000213623046875
1690839816184854800,4.678854736328125,-0.9834747314453125,0.0220947265625,-0.0001983642578125
1690839816194894800,4.688894775390625,-0.98187255859375,0.023681640625,-0.0004730224609375
1690839816204935000,4.698934814453125,-0.9810028076171875,0.025421142578125,-0.0017852783203125
1690839816214975000,4.70897509765625,-0.98150634765625,0.0270538330078125,-0.001983642578125
1690839816225015800,4.719015869140625,-0.9808502197265625,0.02813720703125,-0.00164794921875
1690839816235055600,4.7290556640625,-0.9803009033203125,0.0291748046875,-0.001739501953125
1690839816245095700,4.739095703125,-0.9802703857421875,0.0303497314453125,-0.0019073486328125
1690839816255136800,4.74913671875,-0.979888916015625,0.0316925048828125,-0.0011138916015625
1690839816265176800,4.7591767578125,-0.979217529296875,0.0319061279296875,-0.000396728515625
1690839816275217000,4.769216796875,-0.9798736572265625,0.0320892333984375,-0.00067138671875
1690839816285288000,4.779287841796875,-0.9799346923828125,0.0320587158203125,-0.0007171630859375
1690839816295328000,4.789327880859375,-0.97998046875,0.0321197509765625,-0.0009307861328125
1690839816305367800,4.799367919921875,-0.980438232421875,0.0307464599609375,0.000030517578125
1690839816315408600,4.80940869140625,-0.9805908203125,0.0289306640625,0.000030517578125
1690839816325448700,4.81944873046875,-0.9801483154296875,0.0282440185546875,-0.0017547607421875
1690839816335488800,4.82948876953125,-0.98077392578125,0.0271453857421875,-0.001129150390625
1690839816345529900,4.83952978515625,-0.981048583984375,0.0265960693359375,-0.0008392333984375
1690839816355570000,4.84956982421875,-0.982208251953125,0.0254974365234375,-0.0022430419921875
1690839816365610000,4.85960986328125,-0.9821929931640625,0.0244598388671875,-0.0015411376953125
1690839816375649800,4.86964990234375,-0.9830474853515625,0.023406982421875,-0.001800537109375
1690839816385690600,4.879690673828125,-0.98211669921875,0.023101806640625,-0.002716064453125
1690839816395730700,4.889730712890625,-0.9818572998046875,0.0232391357421875,-0.0018768310546875
1690839816405770800,4.899770751953125,-0.982452392578125,0.0233306884765625,-0.00091552734375
1690839816415811800,4.909811767578125,-0.98248291015625,0.0248870849609375,-0.0001678466796875
1690839816425881900,4.9198818359375,-0.9821014404296875,0.0262451171875,0.000091552734375
1690839816435923000,4.9299228515625,-0.98223876953125,0.0267181396484375,0.0002288818359375
1690839816445963000,4.939962890625,-0.981597900390625,0.026947021484375,-0.0006103515625
1690839816456002800,4.9500029296875,-0.98126220703125,0.0278778076171875,-0.0014801025390625
1690839816466043600,4.960043701171875,-0.97991943359375,0.028900146484375,-0.0010528564453125
1690839816476083700,4.970083740234375,-0.9805755615234375,0.0302734375,-0.001861572265625
1690839816486123800,4.980123779296875,-0.9796295166015625,0.029449462890625,-0.0009307861328125
1690839816496163800,4.990163818359375,-0.979766845703125,0.0295562744140625,-0.0011444091796875
1690839816506205000,5.000204833984375,-0.979949951171875,0.029815673828125,-0.0015869140625
1690839816516245000,5.010244873046875,-0.9793701171875,0.03118896484375,-0.0012969970703125
1690839816526284800,5.020284912109375,-0.9803466796875,0.0305633544921875,-0.0006256103515625
1690839816536324900,5.030324951171875,-0.981170654296875,0.0289154052734375,-0.0000762939453125
1690839816546365700,5.04036572265625,-0.9822845458984375,0.0284271240234375,-0.0005645751953125
1690839816556405800,5.05040576171875,-0.9815673828125,0.0284423828125,-0.0014801025390625
1690839816566445800,5.06044580078125,-0.981781005859375,0.028289794921875,-0.001434326171875
1690839816576516900,5.070516845703125,-0.98175048828125,0.026580810546875,-0.0012054443359375
1690839816586557000,5.080556884765625,-0.981231689453125,0.0261993408203125,-0.0012664794921875
1690839816596598000,5.090597900390625,-0.9817962646484375,0.025848388671875,-0.00225830078125
1690839816606637800,5.100637939453125,-0.981781005859375,0.0247802734375,-0.002349853515625
1690839816616678000,5.110677978515625,-0.9817352294921875,0.0250091552734375,-0.0017852783203125
1690839816626718700,5.12071875,-0.982025146484375,0.0248260498046875,-0.001007080078125
1690839816636758800,5.1307587890625,-0.98138427734375,0.024871826171875,-0.00006103515625
1690839816646798800,5.140798828125,-0.9817657470703125,0.027008056640625,0.0002288818359375
1690839816656839000,5.1508388671875,-0.9814910888671875,0.02703857421875,-0.0005035400390625
1690839816666880000,5.1608798828125,-0.9821929931640625,0.026641845703125,-0.00115966796875
1690839816676919800,5.170919921875,-0.9809112548828125,0.02777099609375,-0.00140380859375
1690839816686959600,5.180959716796875,-0.98046875,0.028228759765625,-0.00164794921875
1690839816697000700,5.191000732421875,-0.980316162109375,0.0282440185546875,-0.00140380859375
1690839816707040800,5.201040771484375,-0.98065185546875,0.0283660888671875,-0.002471923828125
1690839816717080800,5.211080810546875,-0.9807281494140625,0.02825927734375,-0.0032806396484375
1690839816727151900,5.22115185546875,-0.9808197021484375,0.028472900390625,-0.002197265625
1690839816737191700,5.231191650390625,-0.98065185546875,0.0293121337890625,-0.000640869140625
1690839816747231700,5.241231689453125,-0.98162841796875,0.0288543701171875,0.00042724609375
1690839816757272800,5.25127294921875,-0.98077392578125,0.0283966064453125,0.00006103515625
1690839816767312600,5.261312744140625,-0.9826507568359375,0.0284881591796875,-0.000091552734375
1690839816777352700,5.271352783203125,-0.9823150634765625,0.0272216796875,-0.0007171630859375
1690839816787393800,5.281393798828125,-0.981658935546875,0.0268096923828125,-0.0012054443359375
1690839816797433900,5.291433837890625,-0.981842041015625,0.0273590087890625,-0.0010528564453125
1690839816807474000,5.301473876953125,-0.9816741943359375,0.0260009765625,-0.0013885498046875
1690839816817513700,5.311513671875,-0.9820404052734375,0.02618408203125,-0.0023040771484375
1690839816827554800,5.321554931640625,-0.9810791015625,0.0272369384765625,-0.0016021728515625
1690839816837594600,5.3315947265625,-0.9812774658203125,0.0252532958984375,-0.000213623046875
1690839816847634700,5.341634765625,-0.981536865234375,0.0252685546875,-0.0003814697265625
1690839816857675800,5.35167578125,-0.9818115234375,0.0260009765625,-0.00079345703125
1690839816867715800,5.3617158203125,-0.981903076171875,0.0266265869140625,-0.0005645751953125
1690839816877787000,5.371786865234375,-0.9815216064453125,0.026885986328125,-0.0002593994140625
1690839816887816400,5.38181640625,-0.9813385009765625,0.0268096923828125,-0.0004730224609375
1690839816897856500,5.3918564453125,-0.98187255859375,0.0276947021484375,-0.00164794921875
1690839816907897600,5.401897705078125,-0.981170654296875,0.02801513671875,-0.001495361328125
1690839816917937400,5.4119375,-0.9801788330078125,0.028289794921875,-0.0015869140625
1690839816927977200,5.421977294921875,-0.9804840087890625,0.027862548828125,-0.001922607421875
1690839816938017300,5.432017333984375,-0.9813079833984375,0.0277099609375,-0.0021514892578125
1690839816948058400,5.442058349609375,-0.98095703125,0.0284271240234375,-0.0016326904296875
1690839816958098400,5.452098388671875,-0.980926513671875,0.028106689453125,-0.0011444091796875
1690839816968138500,5.462138427734375,-0.98162841796875,0.027008056640625,-0.00042724609375
1690839816978179300,5.472179443359375,-0.9817962646484375,0.028045654296875,-0.0008544921875
1690839816988219400,5.482219482421875,-0.98150634765625,0.0280914306640625,-0.000946044921875
1690839816998259200,5.49225927734375,-0.9803924560546875,0.02825927734375,-0.002227783203125
1690839817008299300,5.50229931640625,-0.981170654296875,0.027130126953125,-0.0023651123046875
1690839817018340400,5.51234033203125,-0.9815826416015625,0.02783203125,-0.0014801025390625
1690839817028410400,5.522410400390625,-0.9814453125,0.0267486572265625,-0.0010223388671875
1690839817038451500,5.532451416015625,-0.9812774658203125,0.02581787109375,-0.000640869140625
1690839817048491500,5.542491455078125,-0.9810333251953125,0.02642822265625,-0.00091552734375
1690839817058531600,5.552531494140625,-0.9812164306640625,0.02630615234375,-0.0009765625
1690839817068572400,5.562572509765625,-0.9822845458984375,0.02728271484375,-0.0006866455078125
1690839817078612200,5.5726123046875,-0.9815216064453125,0.027587890625,-0.0008544921875
1690839817088652300,5.58265234375,-0.9820556640625,0.026641845703125,-0.0012359619140625
1690839817098692400,5.5926923828125,-0.9821319580078125,0.026519775390625,-0.0011138916015625
1690839817108733400,5.6027333984375,-0.9810028076171875,0.0278472900390625,-0.0012359619140625
1690839817118773500,5.6127734375,-0.9814300537109375,0.0282440185546875,-0.0008392333984375
1690839817128813600,5.6228134765625,-0.981414794921875,0.027679443359375,-0.0011138916015625
1690839817138854400,5.6328544921875,-0.980621337890625,0.027801513671875,-0.00140380859375
1690839817148894200,5.642894287109375,-0.9817047119140625,0.02813720703125,-0.000823974609375
1690839817158934300,5.652934326171875,-0.98052978515625,0.028717041015625,-0.0015411376953125
1690839817168974300,5.662974365234375,-0.9808807373046875,0.0285797119140625,-0.00042724609375
1690839817179045400,5.67304541015625,-0.9803619384765625,0.02813720703125,-0.0010986328125
1690839817189085400,5.68308544921875,-0.9807281494140625,0.0285797119140625,-0.001495361328125
1690839817199126500,5.69312646484375,-0.9810943603515625,0.0279693603515625,-0.0007171630859375
1690839817209166600,5.70316650390625,-0.980712890625,0.0279693603515625,-0.0009002685546875
1690839817219206400,5.713206298828125,-0.981781005859375,0.0281219482421875,-0.0014190673828125
1690839817229247200,5.723247314453125,-0.9820709228515625,0.02789306640625,-0.0012359619140625
1690839817239287300,5.733287353515625,-0.9802703857421875,0.0270843505859375,-0.000518798828125
1690839817249327400,5.743327392578125,-0.9818572998046875,0.0272369384765625,-0.0005950927734375
1690839817259367400,5.753367431640625,-0.9809112548828125,0.02703857421875,-0.000274658203125
1690839817269408500,5.763408447265625,-0.9819183349609375,0.0264129638671875,-0.0013885498046875
1690839817279448600,5.773448486328125,-0.98193359375,0.0271759033203125,-0.0018463134765625
1690839817289488400,5.78348828125,-0.981201171875,0.0269317626953125,-0.0012664794921875
1690839817299529200,5.793529296875,-0.981689453125,0.0272064208984375,-0.0009765625
1690839817309569300,5.8035693359375,-0.98187255859375,0.0270233154296875,-0.0010223388671875
1690839817319640300,5.813640380859375,-0.980621337890625,0.0278472900390625,-0.0014801025390625
1690839817329680400,5.823680419921875,-0.981536865234375,0.0282440185546875,-0.001495361328125
1690839817339720400,5.833720458984375,-0.980682373046875,0.028076171875,-0.00091552734375
1690839817349761500,5.843761474609375,-0.9812774658203125,0.0272216796875,-0.0003509521484375
1690839817359801600,5.853801513671875,-0.9805145263671875,0.028076171875,-0.0005340576171875
1690839817369841400,5.86384130859375,-0.9807891845703125,0.0271148681640625,-0.00067138671875
1690839817379881500,5.873881591796875,-0.980224609375,0.027008056640625,-0.000823974609375
1690839817389922300,5.88392236328125,-0.981475830078125,0.0273590087890625,-0.0023193359375
1690839817399962400,5.89396240234375,-0.9806671142578125,0.0276336669921875,-0.0024261474609375
1690839817410002400,5.90400244140625,-0.981231689453125,0.0272216796875,-0.0015106201171875
1690839817420043500,5.91404345703125,-0.9809722900390625,0.0271453857421875,-0.001800537109375
1690839817430083600,5.92408349609375,-0.98199462890625,0.02691650390625,-0.0013580322265625
1690839817440123400,5.934123291015625,-0.9805145263671875,0.027740478515625,-0.0014495849609375
1690839817450163500,5.94416357421875,-0.98101806640625,0.02789306640625,-0.000579833984375
1690839817460204300,5.954204345703125,-0.9812469482421875,0.02679443359375,-0.000244140625
1690839817470274600,5.964274658203125,-0.9815826416015625,0.0268096923828125,-0.0001373291015625
1690839817480315400,5.9743154296875,-0.98065185546875,0.026031494140625,-0.001983642578125
1690839817490355500,5.98435546875,-0.9809722900390625,0.026885986328125,-0.0013885498046875
1690839817500395500,5.9943955078125,-0.981292724609375,0.0275726318359375,-0.001007080078125
1690839817510436600,6.0044365234375,-0.980926513671875,0.0278472900390625,-0.001434326171875
1690839817520476400,6.014476318359375,-0.98138427734375,0.0274658203125,-0.002197265625
1690839817530516500,6.0245166015625,-0.9813385009765625,0.0277099609375,-0.0011749267578125
1690839817540556500,6.034556640625,-0.9818267822265625,0.0279083251953125,-0.0014801025390625
1690839817550597400,6.044597412109375,-0.9820709228515625,0.02813720703125,-0.00067138671875
1690839817560637400,6.054637451171875,-0.981353759765625,0.026641845703125,-0.0001373291015625
1690839817570677500,6.064677490234375,-0.980743408203125,0.0270843505859375,-0.0010986328125
1690839817580718600,6.074718505859375,-0.9804229736328125,0.028106689453125,-0.0001220703125
1690839817590758400,6.08475830078125,-0.98095703125,0.027801513671875,-0.0004425048828125
1690839817600798500,6.094798583984375,-0.981842041015625,0.0279083251953125,-0.00091552734375
1690839817610838500,6.104838623046875,-0.981689453125,0.027618408203125,-0.0009765625
1690839817620909600,6.11490966796875,-0.9812469482421875,0.0275115966796875,-0.00146484375
1690839817630950400,6.124950439453125,-0.9813079833984375,0.0275421142578125,-0.0021820068359375
1690839817640990500,6.134990478515625,-0.9819793701171875,0.02740478515625,-0.0023193359375
1690839817651030300,6.1450302734375,-0.9807281494140625,0.027374267578125,-0.001220703125
1690839817661070300,6.1550703125,-0.98089599609375,0.0274810791015625,-0.0010528564453125
1690839817671111400,6.165111328125,-0.9805755615234375,0.027191162109375,-0.00115966796875
1690839817681151500,6.1751513671875,-0.9813385009765625,0.0276947021484375,-0.0006103515625
1690839817691191600,6.185191650390625,-0.9804229736328125,0.0280303955078125,0.0003814697265625
1690839817701231400,6.1952314453125,-0.981781005859375,0.0271759033203125,0.000244140625
1690839817711272400,6.2052724609375,-0.9812164306640625,0.027557373046875,0.0002288818359375
1690839817721312500,6.2153125,-0.9845733642578125,0.0283660888671875,0.00042724609375
1690839817731352300,6.225352294921875,-0.9759674072265625,0.027740478515625,-0.00128173828125
1690839817741393400,6.235393310546875,-0.982696533203125,0.0279388427734375,-0.0012969970703125
1690839817751433500,6.24543359375,-0.980316162109375,0.02716064453125,-0.003387451171875
1690839817761473500,6.2554736328125,-0.98150634765625,0.0272674560546875,-0.004119873046875
1690839817771544600,6.265544677734375,-0.97967529296875,0.0264129638671875,-0.00384521484375
1690839817781584400,6.27558447265625,-0.98114013671875,0.02740478515625,-0.002838134765625
1690839817791625500,6.28562548828125,-0.981201171875,0.02764892578125,-0.002197265625
1690839817801665300,6.295665283203125,-0.981231689453125,0.028228759765625,-0.000518798828125
1690839817811705300,6.305705322265625,-0.9814605712890625,0.0280609130859375,0.0008544921875
1690839817821745400,6.315745361328125,-0.9828338623046875,0.02777099609375,0.0018310546875
1690839817831786500,6.325786376953125,-0.982635498046875,0.0289154052734375,0.0023193359375
1690839817841826600,6.33582666015625,-0.979278564453125,0.0278472900390625,0.00048828125
1690839817851866400,6.345866455078125,-0.982940673828125,0.027618408203125,-0.0007781982421875
1690839817861907500,6.355907470703125,-0.981353759765625,0.027374267578125,-0.002777099609375
1690839817871947500,6.365947509765625,-0.97930908203125,0.0274505615234375,-0.004302978515625
1690839817881987300,6.3759873046875,-0.9815826416015625,0.027679443359375,-0.0045623779296875
1690839817892033300,6.386033203125,-0.9810638427734375,0.0284881591796875,-0.0035858154296875
1690839817902074400,6.396074462890625,-0.9817657470703125,0.0274810791015625,-0.0017547607421875
1690839817912114400,6.406114501953125,-0.983245849609375,0.027862548828125,-0.0008392333984375
1690839817922185200,6.416185302734375,-0.981689453125,0.02734375,0.000762939453125
1690839817932225300,6.426225341796875,-0.9828948974609375,0.0277862548828125,0.0016632080078125
1690839817942265300,6.436265380859375,-0.9809722900390625,0.02685546875,0.0006561279296875
1690839817952306200,6.44630615234375,-0.9835357666015625,0.026458740234375,-0.0010986328125
1690839817962346200,6.45634619140625,-0.9810028076171875,0.0266265869140625,-0.0018463134765625
1690839817972386300,6.46638623046875,-0.980224609375,0.0273590087890625,-0.0030364990234375
1690839817982426400,6.47642626953125,-0.97979736328125,0.026519775390625,-0.004425048828125
1690839817992467500,6.486467529296875,-0.9826202392578125,0.0269622802734375,-0.0034942626953125
1690839818002507300,6.49650732421875,-0.9803314208984375,0.0276031494140625,-0.0027923583984375
1690839818012547300,6.50654736328125,-0.981903076171875,0.0279998779296875,-0.0006866455078125
1690839818022588200,6.516588134765625,-0.9810333251953125,0.0285186767578125,0.0001373291015625
1690839818032628200,6.526628173828125,-0.9815216064453125,0.0283966064453125,0.001220703125
1690839818042668300,6.536668212890625,-0.9810943603515625,0.0279693603515625,0.001312255859375
1690839818052708400,6.546708251953125,-0.9812164306640625,0.0279541015625,0.00067138671875
1690839818062749400,6.55674951171875,-0.980194091796875,0.02813720703125,-0.0012054443359375
1690839818072820200,6.5668203125,-0.980560302734375,0.0266571044921875,-0.00140380859375
1690839818082860300,6.5768603515625,-0.980133056640625,0.0272674560546875,-0.00262451171875
1690839818092900400,6.586900390625,-0.981170654296875,0.0280303955078125,-0.002593994140625
1690839818102940400,6.5969404296875,-0.9815826416015625,0.0279388427734375,-0.0029144287109375
1690839818112981200,6.606981201171875,-0.982177734375,0.0274810791015625,-0.0016021728515625
1690839818123021300,6.617021240234375,-0.9828338623046875,0.02740478515625,-0.0004425048828125
1690839818133061400,6.627061279296875,-0.982513427734375,0.0278167724609375,-0.000213623046875
1690839818143102500,6.6371025390625,-0.98193359375,0.02728271484375,0.0000152587890625
1690839818153142300,6.647142333984375,-0.982391357421875,0.0263671875,-0.0006103515625
1690839818163182300,6.657182373046875,-0.9810333251953125,0.02667236328125,-0.001861572265625
1690839818173222400,6.667222412109375,-0.9808197021484375,0.0264892578125,-0.001800537109375
1690839818183263200,6.67726318359375,-0.9804534912109375,0.0266876220703125,-0.001861572265625
1690839818193303300,6.68730322265625,-0.9801025390625,0.0271148681640625,-0.0020751953125
1690839818203343400,6.69734326171875,-0.981109619140625,0.0281829833984375,-0.0019683837890625
1690839818213414100,6.7074140625,-0.9796905517578125,0.0290679931640625,-0.0014190673828125
1690839818223454200,6.7174541015625,-0.9806365966796875,0.0282745361328125,-0.0017547607421875
1690839818233495300,6.727495361328125,-0.99163818359375,0.028350830078125,-0.0002899169921875
1690839818243535400,6.737535400390625,-0.9774169921875,0.027984619140625,-0.0001983642578125
1690839818253575400,6.747575439453125,-0.9784393310546875,0.028106689453125,-0.0005340576171875
1690839818263615500,6.757615478515625,-0.98223876953125,0.0277099609375,0.00048828125
1690839818273656300,6.76765625,-0.9814910888671875,0.028411865234375,0.000518798828125
1690839818283696400,6.7776962890625,-0.9807281494140625,0.027557373046875,-0.000823974609375
1690839818293736200,6.787736083984375,-0.9806671142578125,0.027099609375,-0.001007080078125
1690839818303777300,6.79777734375,-0.9815673828125,0.027008056640625,-0.001861572265625
1690839818313817300,6.8078173828125,-0.982452392578125,0.0263824462890625,-0.0029754638671875
1690839818323857400,6.817857421875,-0.9797515869140625,0.02642822265625,-0.0034332275390625
1690839818333897500,6.8278974609375,-0.9818267822265625,0.0272216796875,-0.003448486328125
1690839818343938300,6.837938232421875,-0.982147216796875,0.02783203125,-0.0026702880859375
1690839818353978400,6.847978271484375,-0.9805755615234375,0.0279998779296875,-0.0011749267578125
1690839818364049200,6.858049072265625,-0.9813232421875,0.0280914306640625,0.0008697509765625
1690839818374089200,6.868089111328125,-0.98486328125,0.0277252197265625,0.0012664794921875
1690839818384129300,6.87812939453125,-0.9781646728515625,0.0273590087890625,0.002288818359375
1690839818394170400,6.88817041015625,-0.9829864501953125,0.0268096923828125,0.000518798828125
1690839818404210400,6.89821044921875,-0.981475830078125,0.027099609375,-0.0002899169921875
1690839818414250500,6.90825048828125,-0.9804229736328125,0.0273590087890625,-0.002197265625
1690839818424290300,6.918290283203125,-0.980499267578125,0.02764892578125,-0.0042266845703125
1690839818434331100,6.9283310546875,-0.9789276123046875,0.0281982421875,-0.005401611328125
1690839818444371200,6.93837109375,-0.9823760986328125,0.0283203125,-0.00439453125
1690839818454411300,6.948411376953125,-0.980072021484375,0.0279693603515625,-0.0026397705078125
1690839818464452400,6.958452392578125,-0.9808807373046875,0.028076171875,-0.0009613037109375
1690839818474492400,6.968492431640625,-0.9834747314453125,0.028350830078125,0.00079345703125
1690839818484532500,6.978532470703125,-0.98101806640625,0.0275726318359375,0.0028839111328125
1690839818494572300,6.988572265625,-0.980865478515625,0.027618408203125,0.00244140625
1690839818504613400,6.99861328125,-0.982208251953125,0.0271453857421875,0.0005645751953125
1690839818514684200,7.00868408203125,-0.9812164306640625,0.02825927734375,-0.002105712890625
1690839818524724200,7.01872412109375,-0.980560302734375,0.0277099609375,-0.0033721923828125
1690839818534764300,7.028764404296875,-0.9812774658203125,0.027099609375,-0.0042572021484375
1690839818544804400,7.038804443359375,-0.9794921875,0.0269622802734375,-0.0050201416015625
1690839818554845400,7.048845458984375,-0.982025146484375,0.027252197265625,-0.0037078857421875
1690839818564885500,7.058885498046875,-0.9813232421875,0.0271148681640625,-0.0019378662109375
1690839818574925300,7.06892529296875,-0.981414794921875,0.027618408203125,0.0009002685546875
1690839818584966100,7.078966064453125,-0.9828948974609375,0.0277862548828125,0.0012359619140625
1690839818595006200,7.089006103515625,-0.9810791015625,0.02728271484375,0.0025177001953125
1690839818605046300,7.09904638671875,-0.9828643798828125,0.0268096923828125,0.00140380859375
1690839818615086300,7.10908642578125,-0.9805908203125,0.027069091796875,-0.000335693359375
1690839818625127400,7.11912744140625,-0.97955322265625,0.02752685546875,-0.0015869140625
1690839818635167500,7.12916748046875,-0.9810333251953125,0.0272674560546875,-0.0032196044921875
1690839818645207300,7.139207275390625,-0.9805755615234375,0.028045654296875,-0.003814697265625
1690839818655247000,7.1492470703125,-0.9793243408203125,0.0274505615234375,-0.0039215087890625
1690839818665318100,7.159318115234375,-0.9809112548828125,0.027801513671875,-0.0022125244140625
1690839818675359200,7.169359130859375,-0.9807586669921875,0.028350830078125,-0.00079345703125
1690839818685399300,7.1793994140625,-0.9814910888671875,0.028045654296875,0.0009307861328125
1690839818695439400,7.189439453125,-0.9815216064453125,0.028076171875,0.0008392333984375
1690839818705479400,7.1994794921875,-0.981109619140625,0.0262908935546875,0.0005340576171875
1690839818715520300,7.209520263671875,-0.982086181640625,0.027069091796875,0.000518798828125
1690839818725560000,7.21956005859375,-0.9808197021484375,0.027191162109375,-0.000823974609375
1690839818735600000,7.22960009765625,-0.9820709228515625,0.0277862548828125,-0.001708984375
1690839818745641200,7.23964111328125,-0.981781005859375,0.0284271240234375,-0.002471923828125
1690839818755681300,7.249681396484375,-0.979949951171875,0.02734375,-0.00140380859375
1690839818765721300,7.259721435546875,-0.9810028076171875,0.0274505615234375,-0.00225830078125
1690839818775761400,7.269761474609375,-0.9806671142578125,0.026702880859375,-0.0010986328125
1690839818785802200,7.27980224609375,-0.9814300537109375,0.027618408203125,-0.0008087158203125
1690839818795842300,7.28984228515625,-0.9811859130859375,0.02734375,-0.0006256103515625
1690839818805882000,7.299882080078125,-0.981781005859375,0.02752685546875,0.0001068115234375
1690839818815953200,7.309953125,-0.9812164306640625,0.027191162109375,-0.0008392333984375
1690839818825993200,7.3199931640625,-0.9812774658203125,0.0274658203125,-0.000823974609375
1690839818836034300,7.330034423828125,-0.9795989990234375,0.0274200439453125,-0.0005645751953125
1690839818846074400,7.340074462890625,-0.98089599609375,0.02850341796875,-0.0018310546875
1690839818856114400,7.350114501953125,-0.9810333251953125,0.02825927734375,-0.001220703125
1690839818866154200,7.360154296875,-0.9811859130859375,0.027130126953125,-0.0001983642578125
1690839818876195000,7.370195068359375,-0.9817962646484375,0.0281524658203125,-0.0014495849609375
1690839818886235100,7.380235107421875,-0.9806976318359375,0.0287017822265625,-0.000946044921875
1690839818896253400,7.39025341796875,-0.9804840087890625,0.027923583984375,-0.0010223388671875
1690839818906294300,7.400294189453125,-0.9808349609375,0.027435302734375,-0.001312255859375
1690839818916334300,7.410334228515625,-0.9812469482421875,0.0272216796875,-0.0007781982421875
1690839818926374400,7.42037451171875,-0.9815216064453125,0.0271148681640625,-0.0014495849609375
1690839818936414500,7.43041455078125,-0.9813690185546875,0.0271148681640625,-0.001922607421875
1690839818946455600,7.44045556640625,-0.9812774658203125,0.0267486572265625,-0.000732421875
1690839818956495600,7.45049560546875,-0.9807281494140625,0.0274658203125,0.0000457763671875
1690839818966566700,7.460566650390625,-0.981964111328125,0.027374267578125,-0.00018310546875
1690839818976606500,7.4706064453125,-0.981781005859375,0.027374267578125,0.0000152587890625
1690839818986646500,7.480646484375,-0.9816131591796875,0.0272369384765625,-0.0005950927734375
1690839818996687400,7.490687255859375,-0.9807891845703125,0.02783203125,-0.0017547607421875
1690839819006727400,7.5007275390625,-0.9808349609375,0.0276336669921875,-0.001708984375
1690839819016767500,7.510767578125,-0.980133056640625,0.027618408203125,-0.001190185546875
1690839819026808600,7.52080859375,-0.98162841796875,0.0269317626953125,-0.0008697509765625
1690839819036848600,7.5308486328125,-0.981719970703125,0.0270843505859375,-0.0009765625
1690839819046888400,7.540888427734375,-0.981903076171875,0.0281829833984375,-0.0004119873046875
1690839819056928500,7.550928466796875,-0.9817047119140625,0.02685546875,-0.00018310546875
1690839819066969300,7.56096923828125,-0.9806365966796875,0.0272369384765625,-0.0006256103515625
1690839819077009400,7.571009521484375,-0.980743408203125,0.0281524658203125,-0.000274658203125
1690839819087049500,7.581049560546875,-0.9812469482421875,0.02734375,-0.00103759765625
1690839819097090600,7.591090576171875,-0.9804534912109375,0.0280914306640625,-0.000640869140625
1690839819107160600,7.60116064453125,-0.9804229736328125,0.0283966064453125,-0.001373291015625
1690839819117201700,7.61120166015625,-0.9803466796875,0.0275421142578125,-0.0018157958984375
1690839819127241500,7.621241455078125,-0.9801788330078125,0.0277862548828125,-0.001922607421875
1690839819137281500,7.631281494140625,-0.9816741943359375,0.0278167724609375,-0.002227783203125
1690839819147321300,7.6413212890625,-0.9809722900390625,0.0277862548828125,-0.00146484375
1690839819157362400,7.651362548828125,-0.9813079833984375,0.028106689453125,-0.000946044921875
1690839819167402500,7.661402587890625,-0.98175048828125,0.028106689453125,-0.0004119873046875
1690839819177442600,7.671442626953125,-0.98101806640625,0.02734375,-0.000732421875
1690839819187483600,7.681483642578125,-0.98187255859375,0.0277099609375,-0.000823974609375
1690839819197523500,7.6915234375,-0.98187255859375,0.027496337890625,-0.0003814697265625
1690839819207563500,7.7015634765625,-0.9812774658203125,0.027557373046875,-0.0009918212890625
1690839819217603300,7.711603271484375,-0.980987548828125,0.0277557373046875,-0.001373291015625
1690839819227644400,7.72164453125,-0.9810791015625,0.028076171875,-0.0018463134765625
1690839819237684500,7.7316845703125,-0.982513427734375,0.0283660888671875,-0.000823974609375
1690839819247724500,7.741724609375,-0.9810791015625,0.0283203125,-0.0011138916015625
1690839819257795600,7.751795654296875,-0.9805450439453125,0.0285186767578125,-0.0013427734375
1690839819267835400,7.76183544921875,-0.9808502197265625,0.029144287109375,-0.000518798828125
1690839819277876500,7.77187646484375,-0.9810943603515625,0.0278472900390625,-0.0006561279296875
1690839819287916500,7.78191650390625,-0.980743408203125,0.028350830078125,-0.0010528564453125
1690839819297956400,7.791956298828125,-0.9818572998046875,0.028533935546875,-0.0003662109375
1690839819307996400,7.801996337890625,-0.980804443359375,0.0281829833984375,-0.0008544921875
1690839819318037500,7.81203759765625,-0.9807586669921875,0.02734375,-0.00067138671875
1690839819328077600,7.82207763671875,-0.9813079833984375,0.02801513671875,-0.0014801025390625
1690839819338117400,7.832117431640625,-0.9816131591796875,0.028411865234375,-0.001220703125
1690839819348158500,7.842158447265625,-0.9811248779296875,0.0281219482421875,-0.0009613037109375
1690839819358198500,7.852198486328125,-0.9810638427734375,0.0275726318359375,-0.0012969970703125
1690839819368238300,7.86223828125,-0.9816436767578125,0.02734375,-0.0014190673828125
1690839819378278400,7.8722783203125,-0.981658935546875,0.0267791748046875,-0.0011138916015625
1690839819388319500,7.882319580078125,-0.981231689453125,0.0268402099609375,-0.0012664794921875
1690839819398359600,7.892359619140625,-0.98175048828125,0.02685546875,-0.0014495849609375
1690839819408430600,7.9024306640625,-0.9818572998046875,0.0275726318359375,-0.001983642578125
1690839819418470400,7.912470458984375,-0.9816741943359375,0.0269317626953125,-0.001556396484375
1690839819428510500,7.922510498046875,-0.981903076171875,0.0274810791015625,-0.0008697509765625
1690839819438551600,7.932551513671875,-0.982330322265625,0.02813720703125,-0.0009613037109375
1690839819448591400,7.94259130859375,-0.9805755615234375,0.028900146484375,-0.0010223388671875
1690839819458631400,7.95263134765625,-0.9803314208984375,0.0281524658203125,-0.0010833740234375
1690839819468672500,7.962672607421875,-0.981170654296875,0.0271759033203125,-0.000518798828125
1690839819478712600,7.972712646484375,-0.98040771484375,0.0282745361328125,-0.0013580322265625
1690839819488752400,7.98275244140625,-0.980316162109375,0.02801513671875,-0.001068115234375
1690839819498792400,7.99279248046875,-0.9803466796875,0.0268096923828125,-0.0008087158203125
1690839819508833500,8.00283349609375,-0.9805450439453125,0.027679443359375,-0.001312255859375
1690839819518873300,8.012873291015625,-0.98162841796875,0.0279541015625,-0.000823974609375
1690839819528913400,8.022913330078126,-0.9808502197265625,0.0281982421875,-0.0006561279296875
1690839819538954500,8.03295458984375,-0.981536865234375,0.02740478515625,-0.0011444091796875
1690839819548994600,8.04299462890625,-0.9805450439453125,0.027435302734375,-0.001129150390625
1690839819559065600,8.053065673828126,-0.9803619384765625,0.0279998779296875,-0.000335693359375
1690839819569105400,8.06310546875,-0.9821014404296875,0.0277252197265625,-0.0007171630859375
1690839819579145500,8.0731455078125,-0.98187255859375,0.028656005859375,-0.000579833984375
1690839819589185500,8.083185546875,-0.981231689453125,0.0268096923828125,-0.0011138916015625
1690839819599226400,8.093226318359376,-0.9810943603515625,0.02703857421875,-0.001220703125
1690839819609266400,8.103266357421875,-0.9812469482421875,0.0281982421875,-0.0014495849609375
1690839819619306500,8.113306396484376,-0.9814910888671875,0.0274200439453125,-0.0016937255859375
1690839819629347600,8.12334765625,-0.981292724609375,0.0271148681640625,-0.0022125244140625
1690839819639387400,8.133387451171876,-0.9813079833984375,0.027374267578125,-0.0009002685546875
1690839819649427500,8.143427490234375,-0.981475830078125,0.0279388427734375,-0.0012054443359375
1690839819659467500,8.153467529296876,-0.9650421142578125,0.026611328125,-0.004119873046875
1690839819669508400,8.16350830078125,-1.0243072509765625,-0.0650634765625,-0.0255889892578125
1690839819679548400,8.17354833984375,-1.025665283203125,0.00408935546875,0.072845458984375
1690839819689588500,8.18358837890625,-0.946014404296875,0.0594940185546875,-0.0404815673828125
1690839819699629600,8.193629638671876,-0.9843597412109375,0.0373382568359375,-0.0062713623046875
1690839819709699300,8.20369921875,-0.9775543212890625,0.036895751953125,0.0066070556640625
1690839819719740400,8.213740478515625,-0.972198486328125,0.0720977783203125,0.0089263916015625
1690839819729780500,8.223780517578126,-0.960662841796875,0.0572967529296875,-0.0205535888671875
1690839819739820500,8.233820556640625,-0.9791412353515625,0.0419464111328125,0.000244140625
1690839819749861400,8.243861328125,-0.968536376953125,0.0666656494140625,-0.0031890869140625
1690839819759901400,8.2539013671875,-0.9764251708984375,0.048858642578125,-0.0045318603515625
1690839819769941500,8.26394140625,-0.9690704345703125,0.0518341064453125,-0.0093994140625
1690839819779981300,8.273981201171875,-0.9758453369140625,0.0489959716796875,-0.013824462890625
1690839819790022400,8.2840224609375,-0.97314453125,0.0477294921875,-0.009765625
1690839819800062500,8.2940625,-0.9742584228515625,0.046051025390625,-0.0079193115234375
1690839819810102500,8.3041025390625,-0.9748077392578125,0.0452728271484375,-0.0039215087890625
1690839819820142600,8.314142578125,-0.9832763671875,0.0424957275390625,-0.0003509521484375
1690839819830183400,8.324183349609376,-0.975494384765625,0.037322998046875,0.0035858154296875
1690839819840223500,8.334223388671875,-0.9889678955078125,0.0342864990234375,0.0082855224609375
1690839819850294300,8.344294189453125,-0.9821014404296875,0.0298919677734375,0.0087890625
1690839819860334300,8.354334228515626,-0.9896392822265625,0.0254974365234375,0.0095672607421875
1690839819870374400,8.36437451171875,-0.9852447509765625,0.02166748046875,0.00531005859375
1690839819880415500,8.37441552734375,-0.98779296875,0.0194549560546875,0.0008697509765625
1690839819890442500,8.3844423828125,-0.987152099609375,0.018035888671875,-0.003692626953125
1690839819900482300,8.394482421875,-0.9825592041015625,0.01605224609375,-0.00848388671875
1690839819910523400,8.4045234375,-0.9842987060546875,0.015533447265625,-0.0100860595703125
1690839819920563200,8.414563232421875,-0.98583984375,0.0161895751953125,-0.0089569091796875
1690839819930603300,8.424603271484376,-0.983673095703125,0.0178985595703125,-0.00616455078125
1690839819940643300,8.434643310546875,-0.9860076904296875,0.0206756591796875,-0.0022125244140625
1690839819950684400,8.444684326171876,-0.986907958984375,0.0232696533203125,0.0011749267578125
1690839819960724500,8.454724365234375,-0.98541259765625,0.0250244140625,0.003753662109375
1690839819970764300,8.464764404296876,-0.9828643798828125,0.02813720703125,0.0044403076171875
1690839819980805400,8.474805419921875,-0.98419189453125,0.03173828125,0.0046539306640625
1690839819990845200,8.48484521484375,-0.9806365966796875,0.0343017578125,0.002960205078125
1690839820000916200,8.494916259765626,-0.98052978515625,0.0373687744140625,0.0001220703125
1690839820010956300,8.504956298828125,-0.9761962890625,0.039642333984375,-0.001678466796875
1690839820020996400,8.514996337890626,-0.978179931640625,0.0411529541015625,-0.003753662109375
1690839820031036400,8.525036376953125,-0.9756011962890625,0.0424652099609375,-0.0046539306640625
1690839820041077200,8.5350771484375,-0.975311279296875,0.0431671142578125,-0.005462646484375
1690839820051117000,8.545116943359375,-0.9774017333984375,0.04412841796875,-0.0053253173828125
1690839820061157000,8.5551572265625,-0.9753265380859375,0.0440673828125,-0.0044403076171875
1690839820071198200,8.5651982421875,-0.9766082763671875,0.043365478515625,-0.0034332275390625
1690839820081238300,8.57523828125,-0.977081298828125,0.042877197265625,-0.00238037109375
1690839820091278300,8.5852783203125,-0.97821044921875,0.042236328125,-0.001922607421875
1690839820101318400,8.595318359375,-0.9789581298828125,0.0395050048828125,-0.00103759765625
1690839820111359200,8.605359130859375,-0.9801025390625,0.038543701171875,0.0002593994140625
1690839820121399300,8.6153994140625,-0.980987548828125,0.0362701416015625,0.0019378662109375
1690839820131439000,8.625439208984375,-0.9827880859375,0.0340423583984375,0.001953125
1690839820141480200,8.635480224609376,-0.9820098876953125,0.0321044921875,0.0002899169921875
1690839820151550200,8.64555029296875,-0.982269287109375,0.0302581787109375,-0.0004119873046875
1690839820161591300,8.65559130859375,-0.9831085205078125,0.02825927734375,-0.00177001953125
1690839820171631400,8.66563134765625,-0.982635498046875,0.027008056640625,-0.003692626953125
1690839820181671400,8.67567138671875,-0.9839019775390625,0.025146484375,-0.0042266845703125
1690839820191712300,8.685712158203126,-0.984100341796875,0.0239410400390625,-0.0040740966796875
1690839820201752000,8.695751953125,-0.9838104248046875,0.0238189697265625,-0.0032958984375
1690839820211792100,8.705792236328126,-0.98431396484375,0.0240936279296875,-0.0013427734375
1690839820221832200,8.715832275390625,-0.983734130859375,0.0251922607421875,-0.0002899169921875
1690839820231873300,8.725873291015626,-0.983642578125,0.026336669921875,0.00091552734375
1690839820241913300,8.735913330078125,-0.983795166015625,0.0280303955078125,0.0013275146484375
1690839820251953400,8.745953369140626,-0.983673095703125,0.0293731689453125,0.0012054443359375
1690839820261994200,8.755994140625,-0.9834136962890625,0.0308837890625,0.000732421875
1690839820272034300,8.766034423828126,-0.981781005859375,0.03265380859375,-0.000732421875
1690839820282074000,8.77607421875,-0.9803466796875,0.034149169921875,-0.0016937255859375
1690839820292114200,8.7861142578125,-0.9806060791015625,0.035400390625,-0.0019683837890625
1690839820302185200,8.796185302734376,-0.9795074462890625,0.036346435546875,-0.0030670166015625
1690839820312225300,8.806225341796875,-0.9790496826171875,0.0374908447265625,-0.002960205078125
1690839820322266400,8.816266357421876,-0.978668212890625,0.037841796875,-0.0023956298828125
1690839820332306400,8.826306396484375,-0.9785614013671875,0.0378265380859375,-0.0021209716796875
1690839820342346200,8.83634619140625,-0.97918701171875,0.038330078125,-0.001953125
1690839820352387000,8.846386962890625,-0.979339599609375,0.0394287109375,-0.00146484375
1690839820362427100,8.85642724609375,-0.9793548583984375,0.0386962890625,-0.0010833740234375
1690839820372467200,8.86646728515625,-0.979644775390625,0.0376434326171875,-0.0000762939453125
1690839820382507300,8.87650732421875,-0.9799652099609375,0.0365447998046875,-0.0000762939453125
1690839820392548400,8.88654833984375,-0.9808197021484375,0.0356292724609375,-0.0002899169921875
1690839820402588400,8.89658837890625,-0.980712890625,0.0347442626953125,-0.001007080078125
1690839820412628500,8.90662841796875,-0.98126220703125,0.0340423583984375,-0.001983642578125
1690839820422669300,8.91666943359375,-0.9815673828125,0.032196044921875,-0.0021820068359375
1690839820432709000,8.926709228515625,-0.98114013671875,0.0308380126953125,-0.001220703125
1690839820442749200,8.936749267578126,-0.9815826416015625,0.0301361083984375,-0.0019378662109375
1690839820452820200,8.9468203125,-0.9824066162109375,0.0295867919921875,-0.0027923583984375
1690839820462860300,8.9568603515625,-0.9819183349609375,0.028961181640625,-0.0015106201171875
1690839820472900400,8.966900390625,-0.9828948974609375,0.0285186767578125,0.0004425048828125
1690839820482941400,8.97694140625,-0.9840087890625,0.029205322265625,-0.00042724609375
1690839820492981200,8.986981201171876,-0.9824676513671875,0.028839111328125,-0.000152587890625
1690839820503021300,8.997021240234375,-0.9829864501953125,0.0290069580078125,0.00006103515625
1690839820513062100,9.007062255859376,-0.9827728271484375,0.029510498046875,-0.000152587890625
1690839820523102200,9.017102294921875,-0.981964111328125,0.0316925048828125,-0.000701904296875
1690839820533142300,9.027142333984376,-0.9814605712890625,0.032257080078125,-0.001556396484375
1690839820543182300,9.037182373046875,-0.981597900390625,0.03228759765625,-0.0021209716796875
1690839820553223400,9.047223388671876,-0.9808502197265625,0.0330657958984375,-0.001861572265625
1690839820563263200,9.05726318359375,-0.980743408203125,0.0334625244140625,-0.001800537109375
1690839820573303300,9.06730322265625,-0.9803314208984375,0.03448486328125,-0.0016326904296875
1690839820583344000,9.07734423828125,-0.979705810546875,0.0350799560546875,-0.0010986328125
1690839820593384200,9.08738427734375,-0.9800872802734375,0.03509521484375,-0.00152587890625
1690839820603455200,9.097455322265626,-0.98089599609375,0.03558349609375,-0.001922607421875
1690839820613495300,9.107495361328125,-0.98046875,0.03594970703125,-0.0006256103515625
1690839820623535400,9.117535400390626,-0.9799957275390625,0.03631591796875,-0.0001983642578125
1690839820633576400,9.127576416015625,-0.980377197265625,0.036529541015625,-0.0009002685546875
1690839820643616300,9.1376162109375,-0.98016357421875,0.0351715087890625,-0.0009765625
1690839820653656300,9.14765625,-0.9808807373046875,0.035308837890625,-0.0011138916015625
1690839820663696400,9.1576962890625,-0.98089599609375,0.0348968505859375,-0.0012359619140625
1690839820673737200,9.1677373046875,-0.9803924560546875,0.034271240234375,-0.0017242431640625
1690839820683777300,9.17777734375,-0.98175048828125,0.0337371826171875,-0.001617431640625
1690839820693817300,9.1878173828125,-0.9815521240234375,0.033111572265625,-0.0014495849609375
1690839820703858400,9.1978583984375,-0.98175048828125,0.0318756103515625,-0.0008087158203125
1690839820713898200,9.207898193359375,-0.9822845458984375,0.031982421875,-0.0013580322265625
1690839820723938300,9.217938232421876,-0.9816436767578125,0.0315399169921875,-0.0025787353515625
1690839820733978400,9.227978271484375,-0.982330322265625,0.03125,-0.001434326171875
1690839820744049400,9.23804931640625,-0.98162841796875,0.031158447265625,-0.000457763671875
1690839820754089500,9.24808935546875,-0.980804443359375,0.0316619873046875,-0.00067138671875
1690839820764130300,9.25813037109375,-0.981597900390625,0.0308380126953125,-0.00091552734375
1690839820774170400,9.26817041015625,-0.982666015625,0.0303955078125,-0.0014190673828125
1690839820784210200,9.278210205078125,-0.9815216064453125,0.0311431884765625,-0.0022430419921875
1690839820794251300,9.288251220703126,-0.9820556640625,0.0321807861328125,-0.00213623046875
1690839820804291300,9.298291259765625,-0.9822235107421875,0.0320281982421875,-0.0027008056640625
1690839820814331400,9.308331298828126,-0.9817657470703125,0.0324859619140625,-0.0017242431640625
1690839820824371500,9.318371337890625,-0.9814453125,0.0330047607421875,-0.00152587890625
1690839820834412300,9.328412353515626,-0.9810028076171875,0.0330963134765625,-0.001739501953125
1690839820844452400,9.338452392578125,-0.9808807373046875,0.0339202880859375,-0.0014190673828125
1690839820854492200,9.3484921875,-0.981414794921875,0.03436279296875,-0.00091552734375
1690839820864533200,9.358533203125,-0.98040771484375,0.0345916748046875,-0.00115966796875
1690839820874573300,9.3685732421875,-0.9809417724609375,0.034942626953125,-0.0006561279296875
1690839820884613400,9.37861328125,-0.9805755615234375,0.0355072021484375,-0.001312255859375
1690839820894681300,9.388681396484374,-0.98101806640625,0.03460693359375,-0.0016632080078125
1690839820904721200,9.39872119140625,-0.9808807373046875,0.0352630615234375,-0.001800537109375
1690839820914761200,9.40876123046875,-0.9806976318359375,0.0347442626953125,-0.0014190673828125
1690839820924802300,9.41880224609375,-0.9807891845703125,0.0353546142578125,-0.001373291015625
1690839820934842400,9.42884228515625,-0.9803466796875,0.033843994140625,-0.0022430419921875
1690839820944882400,9.43888232421875,-0.9808807373046875,0.03387451171875,-0.001556396484375
1690839820954923300,9.44892333984375,-0.9820709228515625,0.0331878662109375,-0.0014495849609375
1690839820964963300,9.45896337890625,-0.9812164306640625,0.0329437255859375,-0.00079345703125
1690839820975003100,9.469003173828124,-0.9809722900390625,0.0323944091796875,-0.000152587890625
1690839820985043200,9.479043212890625,-0.9821014404296875,0.0323333740234375,-0.0012359619140625
1690839820995084300,9.489084228515624,-0.9817657470703125,0.0324859619140625,-0.00189208984375
1690839821005124400,9.499124267578125,-0.9817962646484375,0.0321197509765625,-0.001617431640625
1690839821015164400,9.509164306640624,-0.9810943603515625,0.0321807861328125,-0.0017852783203125
1690839821025205200,9.519205322265625,-0.98114013671875,0.0319976806640625,-0.0016632080078125
1690839821035245300,9.529245361328124,-0.981719970703125,0.0317230224609375,-0.0023345947265625
1690839821045316000,9.539316162109374,-0.981781005859375,0.0324859619140625,-0.0014801025390625
1690839821055356200,9.549356201171875,-0.9813079833984375,0.0325775146484375,-0.0018463134765625
1690839821065396200,9.559396240234374,-0.981597900390625,0.03302001953125,-0.0014801025390625
1690839821075437300,9.569437255859375,-0.9809112548828125,0.0326995849609375,-0.0011749267578125
1690839821085477400,9.579477294921874,-0.9808807373046875,0.0332489013671875,-0.0009307861328125
1690839821095517400,9.589517333984375,-0.98077392578125,0.032958984375,-0.0007171630859375
1690839821105557500,9.5995576171875,-0.981658935546875,0.0330657958984375,-0.000885009765625
1690839821115598300,9.609598388671875,-0.9811859130859375,0.0345001220703125,-0.001007080078125
1690839821125638100,9.61963818359375,-0.9806365966796875,0.0335845947265625,-0.0018463134765625
1690839821135678200,9.62967822265625,-0.9813385009765625,0.0340118408203125,-0.0022430419921875
1690839821145719300,9.63971923828125,-0.9808502197265625,0.034454345703125,-0.0017852783203125
1690839821155759400,9.64975927734375,-0.9800872802734375,0.03436279296875,-0.002288818359375
1690839821165799400,9.65979931640625,-0.980804443359375,0.034698486328125,-0.0018463134765625
1690839821175839500,9.669839599609375,-0.97979736328125,0.0341033935546875,-0.0010986328125
1690839821185880300,9.67988037109375,-0.980194091796875,0.0339508056640625,-0.00048828125
1690839821195950300,9.689950439453124,-0.98138427734375,0.0333404541015625,-0.0010986328125
1690839821205991200,9.6999912109375,-0.9817047119140625,0.033294677734375,-0.0016326904296875
1690839821216031200,9.71003125,-0.9821929931640625,0.033966064453125,-0.0019073486328125
1690839821226071300,9.7200712890625,-0.9813690185546875,0.033782958984375,-0.0008697509765625
1690839821236112400,9.7301123046875,-0.981170654296875,0.0329742431640625,-0.0008392333984375
1690839821246152400,9.74015234375,-0.980743408203125,0.0333099365234375,-0.0014190673828125
1690839821256192500,9.750192626953124,-0.981109619140625,0.0322723388671875,-0.001953125
1690839821266232300,9.760232421875,-0.9818572998046875,0.0321044921875,-0.00177001953125
1690839821276273200,9.770273193359374,-0.9823150634765625,0.032745361328125,-0.0018463134765625
1690839821286313200,9.780313232421875,-0.9816131591796875,0.0324554443359375,-0.0017852783203125
1690839821296353300,9.790353271484374,-0.9806365966796875,0.0328369140625,-0.001556396484375
1690839821306394400,9.800394287109375,-0.9806365966796875,0.033233642578125,-0.001373291015625
1690839821316434400,9.810434326171874,-0.98126220703125,0.0323486328125,-0.001312255859375
1690839821326474500,9.820474609375,-0.9806671142578125,0.033050537109375,-0.0018157958984375
1690839821336514300,9.830514404296874,-0.981201171875,0.0330657958984375,-0.0010528564453125
1690839821346585300,9.84058544921875,-0.981658935546875,0.033538818359375,-0.0009918212890625
1690839821356626200,9.850626220703125,-0.980926513671875,0.0343780517578125,-0.0001983642578125
1690839821366666200,9.860666259765624,-0.979766845703125,0.0342254638671875,-0.000518798828125
1690839821376706300,9.870706298828125,-0.9810638427734375,0.0335693359375,-0.001617431640625
1690839821386746400,9.880746337890624,-0.9815521240234375,0.033935546875,-0.0012054443359375
1690839821396787500,9.890787353515625,-0.9810638427734375,0.0338592529296875,-0.0018157958984375
1690839821406827500,9.90082763671875,-0.980926513671875,0.0335540771484375,-0.0024261474609375
1690839821416867300,9.910867431640625,-0.9818115234375,0.0337066650390625,-0.002166748046875
1690839821426907400,9.920907470703124,-0.9815216064453125,0.0340576171875,-0.0010223388671875
1690839821436948200,9.9309482421875,-0.981170654296875,0.0338592529296875,-0.002349853515625
1690839821446988300,9.94098828125,-0.98089599609375,0.0340576171875,-0.0014495849609375
1690839821457028400,9.9510283203125,-0.9814453125,0.0338287353515625,-0.001129150390625
1690839821467069400,9.9610693359375,-0.9808807373046875,0.0334930419921875,-0.00177001953125
1690839821477109500,9.971109619140625,-0.979949951171875,0.0334014892578125,-0.0012054443359375
1690839821487149300,9.9811494140625,-0.979705810546875,0.033355712890625,-0.0014801025390625
1690839821497220400,9.991220458984374,-0.9807891845703125,0.0333404541015625,-0.00140380859375
1690839821507260400,10.001260498046875,-0.98040771484375,0.0331573486328125,-0.0009918212890625
1690839821517301200,10.01130126953125,-0.9809112548828125,0.032958984375,-0.0012359619140625
1690839821527341300,10.02134130859375,-0.9801177978515625,0.033233642578125,-0.0013275146484375
1690839821537381400,10.03138134765625,-0.981658935546875,0.03216552734375,-0.00152587890625
1690839821547421400,10.04142138671875,-0.981231689453125,0.0330047607421875,-0.0016326904296875
1690839821557462500,10.051462646484374,-0.9811553955078125,0.032958984375,-0.001129150390625
1690839821567502300,10.06150244140625,-0.982147216796875,0.0333709716796875,-0.001007080078125
1690839821577542400,10.07154248046875,-0.9820098876953125,0.0334930419921875,-0.001220703125
1690839821587583200,10.081583251953125,-0.9808197021484375,0.032745361328125,-0.00079345703125
1690839821597623300,10.091623291015624,-0.979644775390625,0.0326690673828125,-0.0005645751953125
1690839821607663400,10.101663330078125,-0.980133056640625,0.033477783203125,-0.0016632080078125
1690839821617703400,10.111703369140624,-0.980255126953125,0.0337066650390625,-0.001495361328125
1690839821627744500,10.12174462890625,-0.981903076171875,0.0335540771484375,-0.0018157958984375
1690839821637814300,10.131814208984375,-0.9811553955078125,0.03277587890625,-0.0022430419921875
1690839821647855400,10.14185546875,-0.981170654296875,0.0335693359375,-0.001708984375
1690839821657895400,10.1518955078125,-0.9806976318359375,0.034149169921875,-0.0015869140625
1690839821667935500,10.161935546875,-0.9813690185546875,0.034088134765625,-0.0014495849609375
1690839821677976300,10.171976318359375,-0.9810028076171875,0.0333099365234375,-0.0010528564453125
1690839821688016400,10.182016357421874,-0.9818115234375,0.0334625244140625,-0.0009002685546875
1690839821698056200,10.19205615234375,-0.9810791015625,0.033355712890625,-0.000823974609375
1690839821708096300,10.20209619140625,-0.9803466796875,0.03302001953125,-0.0001220703125
1690839821718137300,10.212137451171875,-0.9805450439453125,0.0334320068359375,-0.0005950927734375
1690839821728177400,10.222177490234374,-0.9816131591796875,0.03302001953125,-0.000701904296875
1690839821738217500,10.232217529296875,-0.981842041015625,0.0334930419921875,-0.0016326904296875
1690839821748258300,10.24225830078125,-0.9813995361328125,0.0337066650390625,-0.0016021728515625
1690839821758298400,10.25229833984375,-0.9817962646484375,0.033050537109375,-0.0017242431640625
1690839821768338400,10.26233837890625,-0.981201171875,0.0333404541015625,-0.001220703125
1690839821778378200,10.272378173828125,-0.9810943603515625,0.0332183837890625,-0.0008697509765625
1690839821788449300,10.28244921875,-0.9806060791015625,0.0332794189453125,-0.0011138916015625
1690839821798490400,10.292490478515624,-0.9817352294921875,0.033660888671875,-0.001617431640625
1690839821808530400,10.302530517578125,-0.982391357421875,0.033447265625,-0.0007476806640625
1690839821818570500,10.312570556640624,-0.9815521240234375,0.0333404541015625,-0.0003204345703125
1690839821828610300,10.3226103515625,-0.981964111328125,0.03436279296875,-0.000640869140625
1690839821838651400,10.3326513671875,-0.9809417724609375,0.034027099609375,-0.0013427734375
1690839821848691200,10.342691162109375,-0.980499267578125,0.0335235595703125,-0.0016937255859375
1690839821858731300,10.352731201171874,-0.980865478515625,0.03302001953125,-0.0012054443359375
1690839821868772400,10.3627724609375,-0.9817657470703125,0.03369140625,-0.001495361328125
1690839821878812400,10.3728125,-0.981201171875,0.03338623046875,-0.0018310546875
1690839821888852500,10.3828525390625,-0.9812164306640625,0.033966064453125,-0.001800537109375
1690839821898880500,10.392880615234375,-0.9813232421875,0.0334930419921875,-0.001434326171875
1690839821908921600,10.402921630859375,-0.980987548828125,0.0335540771484375,-0.001190185546875
1690839821918961400,10.41296142578125,-0.98095703125,0.03411865234375,-0.00042724609375
1690839821929001500,10.42300146484375,-0.9814910888671875,0.034027099609375,-0.0003204345703125
1690839821939072500,10.433072509765625,-0.9819793701171875,0.0337371826171875,-0.0011749267578125
1690839821949112600,10.443112548828125,-0.9814453125,0.0333099365234375,-0.001434326171875
1690839821959153700,10.453153564453125,-0.9813995361328125,0.0336456298828125,-0.0009613037109375
1690839821969193500,10.463193359375,-0.981536865234375,0.03411865234375,-0.0016937255859375
1690839821979233500,10.473233642578125,-0.98175048828125,0.0341339111328125,-0.00128173828125
1690839821989273600,10.483273681640625,-0.9815521240234375,0.0340118408203125,-0.00146484375
1690839821999314400,10.493314453125,-0.98193359375,0.0333709716796875,-0.002105712890625
1690839822009354500,10.5033544921875,-0.98065185546875,0.03326416015625,-0.001617431640625
1690839822019394600,10.51339453125,-0.980987548828125,0.0329437255859375,-0.001068115234375
1690839822029435600,10.523435546875,-0.9816741943359375,0.03338623046875,-0.00146484375
1690839822039475500,10.533475341796875,-0.9803466796875,0.033966064453125,-0.00128173828125
1690839822049515500,10.543515625,-0.98101806640625,0.0334014892578125,-0.00042724609375
1690839822059555600,10.5535556640625,-0.9808197021484375,0.0333404541015625,-0.001312255859375
1690839822069596400,10.563596435546875,-0.9817047119140625,0.0336151123046875,-0.00140380859375
1690839822079636500,10.573636474609375,-0.981781005859375,0.032989501953125,-0.0012664794921875
1690839822089707500,10.58370751953125,-0.9812469482421875,0.0328826904296875,-0.0010986328125
1690839822099747600,10.59374755859375,-0.98126220703125,0.03271484375,-0.0013427734375
1690839822109787400,10.603787353515624,-0.980865478515625,0.0323486328125,-0.0011444091796875
1690839822119828500,10.613828369140625,-0.9815673828125,0.0336761474609375,-0.0008087158203125
1690839822129868500,10.62386865234375,-0.9815521240234375,0.0330047607421875,-0.0009307861328125
1690839822139908600,10.63390869140625,-0.9810028076171875,0.03277587890625,-0.000823974609375
1690839822149948700,10.64394873046875,-0.9810028076171875,0.0329437255859375,-0.000885009765625
1690839822159989500,10.653989501953125,-0.98126220703125,0.033721923828125,-0.000885009765625
1690839822170029600,10.664029541015625,-0.982025146484375,0.0334320068359375,-0.0012969970703125
1690839822180069400,10.6740693359375,-0.981719970703125,0.0340728759765625,-0.0010986328125
1690839822190110500,10.6841103515625,-0.980560302734375,0.0332794189453125,-0.0016632080078125
1690839822200150500,10.694150634765625,-0.9819793701171875,0.032989501953125,-0.0013580322265625
1690839822210190600,10.704190673828125,-0.9812774658203125,0.0330657958984375,-0.0010833740234375
1690839822220230700,10.714230712890625,-0.9809112548828125,0.0335693359375,-0.0009002685546875
1690839822230271500,10.724271484375,-0.9816131591796875,0.03369140625,-0.0013427734375
1690839822240342500,10.734342529296875,-0.981109619140625,0.0330352783203125,-0.0014190673828125
1690839822250382600,10.744382568359375,-0.9810333251953125,0.0338134765625,-0.0018463134765625
1690839822260422400,10.75442236328125,-0.9802703857421875,0.0336151123046875,-0.0016632080078125
1690839822270462500,10.76446240234375,-0.98095703125,0.03369140625,-0.001861572265625
1690839822280503600,10.774503662109375,-0.9814453125,0.0335235595703125,-0.002197265625
1690839822290543600,10.784543701171875,-0.9814300537109375,0.0330657958984375,-0.00115966796875
1690839822300583700,10.794583740234375,-0.98138427734375,0.03326416015625,-0.0009002685546875
1690839822310624500,10.80462451171875,-0.981719970703125,0.0334625244140625,-0.001434326171875
1690839822320664600,10.81466455078125,-0.980621337890625,0.0335845947265625,-0.00128173828125
1690839822330704400,10.824704345703125,-0.980743408203125,0.033477783203125,-0.00079345703125
1690839822340744400,10.834744384765624,-0.9808502197265625,0.0331268310546875,-0.0011138916015625
1690839822350785500,10.84478564453125,-0.9810028076171875,0.0340423583984375,-0.00201416015625
1690839822360825600,10.85482568359375,-0.980072021484375,0.0341339111328125,-0.001007080078125
1690839822370865700,10.86486572265625,-0.9810791015625,0.0335540771484375,-0.001251220703125
1690839822380906500,10.874906494140625,-0.981842041015625,0.0330810546875,-0.001312255859375
1690839822390976500,10.8849765625,-0.9810028076171875,0.0341949462890625,-0.0015106201171875
1690839822401017300,10.895017333984375,-0.9799041748046875,0.033905029296875,-0.0015106201171875
1690839822411057400,10.905057373046875,-0.980224609375,0.0336151123046875,-0.0010223388671875
1690839822421097500,10.915097412109375,-0.9807891845703125,0.03350830078125,-0.001068115234375
1690839822431137500,10.925137451171874,-0.98150634765625,0.0336456298828125,-0.001617431640625
1690839822441178600,10.9351787109375,-0.9853973388671875,0.0343780517578125,-0.0013885498046875
1690839822451218700,10.94521875,-0.981414794921875,0.033905029296875,-0.0013580322265625
1690839822461258800,10.9552587890625,-0.982025146484375,0.03314208984375,-0.0014190673828125
1690839822471299600,10.965299560546875,-0.9798583984375,0.0336151123046875,-0.00115966796875
1690839822481339400,10.97533935546875,-0.981201171875,0.0333709716796875,-0.0004119873046875
1690839822491379500,10.98537939453125,-0.9816741943359375,0.033905029296875,-0.0005645751953125
1690839822501419500,10.99541943359375,-0.981231689453125,0.0342559814453125,-0.0010986328125
1690839822511460600,11.005460693359375,-0.98248291015625,0.033416748046875,-0.0012054443359375
1690839822521500700,11.015500732421875,-0.9824676513671875,0.0333404541015625,-0.0012054443359375
1690839822531540700,11.025540771484375,-0.9808502197265625,0.0333709716796875,-0.0017852783203125
1690839822541611500,11.035611572265625,-0.980865478515625,0.0334014892578125,-0.0025482177734375
1690839822551651600,11.045651611328125,-0.9812164306640625,0.0337677001953125,-0.0029449462890625
1690839822561692400,11.0556923828125,-0.9794769287109375,0.033111572265625,-0.0019683837890625
1690839822571732500,11.065732421875,-0.9815673828125,0.0328216552734375,-0.0010528564453125
1690839822581772500,11.0757724609375,-0.98272705078125,0.033477783203125,-0.001739501953125
1690839822591812600,11.0858125,-0.98095703125,0.0336761474609375,-0.00103759765625
1690839822601853700,11.095853759765625,-0.981842041015625,0.0342864990234375,0.000396728515625
1690839822611893800,11.105893798828125,-0.98101806640625,0.0336456298828125,0.000640869140625
1690839822621933600,11.11593359375,-0.9815673828125,0.03375244140625,-0.000091552734375
1690839822631974400,11.125974365234375,-0.980133056640625,0.0342559814453125,-0.000213623046875
1690839822642014500,11.136014404296875,-0.9808197021484375,0.03399658203125,-0.00103759765625
1690839822652054500,11.146054443359375,-0.9820098876953125,0.0340728759765625,-0.0021209716796875
1690839822662094600,11.156094482421874,-0.980316162109375,0.033843994140625,-0.002960205078125
1690839822672135700,11.1661357421875,-0.9802398681640625,0.03369140625,-0.003082275390625
1690839822682206700,11.176206787109376,-0.9808502197265625,0.033447265625,-0.00238037109375
1690839822692246500,11.18624658203125,-0.9809417724609375,0.0330810546875,-0.0015411376953125
1690839822702286600,11.19628662109375,-0.981536865234375,0.0334930419921875,-0.000457763671875
1690839822712326400,11.206326416015624,-0.9813690185546875,0.0335235595703125,0.000274658203125
1690839822722367500,11.216367431640625,-0.981048583984375,0.033203125,0.000518798828125
1690839822732407600,11.226407470703125,-0.98199462890625,0.033599853515625,-0.0001983642578125
1690839822742447600,11.236447509765625,-0.980987548828125,0.0336151123046875,0.0000457763671875
1690839822752488700,11.24648876953125,-0.9809112548828125,0.0339508056640625,-0.0022430419921875
1690839822762528800,11.25652880859375,-0.981719970703125,0.0336761474609375,-0.0026702880859375
1690839822772568600,11.266568603515625,-0.98089599609375,0.0333404541015625,-0.0033111572265625
1690839822782608400,11.2766083984375,-0.98077392578125,0.033416748046875,-0.0033416748046875
1690839822792649500,11.2866494140625,-0.980621337890625,0.03369140625,-0.002227783203125
1690839822802689500,11.296689453125,-0.981231689453125,0.033538818359375,-0.0026397705078125
1690839822812729600,11.3067294921875,-0.9811859130859375,0.0333251953125,-0.0006256103515625
1690839822822770700,11.316770751953126,-0.981109619140625,0.0333099365234375,-0.0001373291015625
1690839822832840400,11.32684033203125,-0.98193359375,0.033233642578125,0
1690839822842881500,11.336881591796875,-0.9818267822265625,0.0339813232421875,0.000091552734375
1690839822852921600,11.346921630859375,-0.9810943603515625,0.033477783203125,-0.000030517578125
1690839822862961400,11.35696142578125,-0.9810638427734375,0.03369140625,-0.0007781982421875
1690839822873001500,11.36700146484375,-0.9815673828125,0.03338623046875,-0.0022125244140625
1690839822883042600,11.37704248046875,-0.981231689453125,0.0341339111328125,-0.0029449462890625
1690839822893091600,11.387091552734375,-0.9810333251953125,0.0341033935546875,-0.0030059814453125
1690839822903131400,11.39713134765625,-0.981109619140625,0.033599853515625,-0.00225830078125
1690839822913172500,11.40717236328125,-0.9805145263671875,0.03387451171875,-0.0018463134765625
1690839822923212500,11.417212646484375,-0.981292724609375,0.0338592529296875,-0.0018157958984375
1690839822933252600,11.427252685546875,-0.9808197021484375,0.0337982177734375,-0.0009307861328125
1690839822943292700,11.437292724609375,-0.9815216064453125,0.03375244140625,0.00018310546875
1690839822953333500,11.44733349609375,-0.98150634765625,0.0340118408203125,0.00042724609375
1690839822963373600,11.45737353515625,-0.9809417724609375,0.0340728759765625,-0.00091552734375
1690839822973413600,11.46741357421875,-0.9809417724609375,0.033447265625,-0.0013885498046875
1690839822983484400,11.477484375,-0.9813690185546875,0.0338897705078125,-0.001617431640625
1690839822993524500,11.4875244140625,-0.9804840087890625,0.0336456298828125,-0.0024871826171875
1690839823003565600,11.497565673828126,-0.9808349609375,0.033416748046875,-0.0027008056640625
1690839823013605600,11.507605712890625,-0.9803009033203125,0.03350830078125,-0.0021514892578125
1690839823023645700,11.517645751953125,-0.9808807373046875,0.033843994140625,-0.0019073486328125
1690839823033686500,11.5276865234375,-0.981781005859375,0.0337371826171875,-0.001007080078125
1690839823043726600,11.5377265625,-0.981597900390625,0.033935546875,-0.0017852783203125
1690839823053766400,11.547766357421875,-0.981170654296875,0.0336761474609375,-0.001220703125
1690839823063806500,11.557806396484375,-0.98150634765625,0.0343780517578125,-0.000335693359375
1690839823073847600,11.56784765625,-0.981292724609375,0.0338287353515625,-0.00067138671875
1690839823083887600,11.5778876953125,-0.98138427734375,0.0334320068359375,-0.0007476806640625
1690839823093927700,11.587927734375,-0.980743408203125,0.0341339111328125,-0.0011749267578125
1690839823103967700,11.5979677734375,-0.9809112548828125,0.034271240234375,-0.0024566650390625
1690839823114008600,11.608008544921875,-0.9811248779296875,0.034698486328125,-0.001861572265625
1690839823124048400,11.61804833984375,-0.98138427734375,0.0332489013671875,-0.002349853515625
1690839823134119400,11.628119384765625,-0.9810943603515625,0.0341949462890625,-0.002838134765625
1690839823144159500,11.638159423828125,-0.981689453125,0.03350830078125,-0.001190185546875
1690839823154199600,11.648199462890625,-0.980987548828125,0.033660888671875,-0.0002593994140625
1690839823164240600,11.65824072265625,-0.981842041015625,0.0342559814453125,-0.0010223388671875
1690839823174280700,11.66828076171875,-0.981964111328125,0.034149169921875,-0.00091552734375
1690839823184320800,11.67832080078125,-0.9818267822265625,0.034149169921875,-0.0006103515625
1690839823194361600,11.688361572265626,-0.981781005859375,0.0339508056640625,-0.0000762939453125
1690839823204401400,11.6984013671875,-0.9813995361328125,0.0332489013671875,-0.0006561279296875
1690839823214441500,11.70844140625,-0.981781005859375,0.032928466796875,-0.0013885498046875
1690839823224481500,11.7184814453125,-0.9810638427734375,0.0340728759765625,-0.0015716552734375
1690839823234522600,11.728522705078126,-0.98114013671875,0.0341644287109375,-0.0023040771484375
1690839823244562700,11.738562744140625,-0.981353759765625,0.0340728759765625,-0.002593994140625
1690839823254602800,11.748602783203125,-0.9818115234375,0.033782958984375,-0.0022735595703125
1690839823264643600,11.7586435546875,-0.9810943603515625,0.033599853515625,-0.0015106201171875
1690839823274683400,11.768683349609375,-0.980804443359375,0.033966064453125,-0.0004119873046875
1690839823284754400,11.77875439453125,-0.9823150634765625,0.03369140625,-0.0013275146484375
1690839823294794500,11.78879443359375,-0.9807281494140625,0.03387451171875,-0.0005645751953125
1690839823304834600,11.79883447265625,-0.9817657470703125,0.033294677734375,-0.0007476806640625
1690839823314874600,11.80887451171875,-0.981109619140625,0.033782958984375,-0.0010223388671875
1690839823324915700,11.818915771484376,-0.982330322265625,0.033416748046875,-0.0015869140625
1690839823334955800,11.828955810546875,-0.982330322265625,0.033111572265625,-0.0016937255859375
1690839823344995600,11.83899560546875,-0.981170654296875,0.0329437255859375,-0.003021240234375
1690839823355036400,11.849036376953125,-0.9815673828125,0.0334625244140625,-0.002593994140625
1690839823365076500,11.859076416015625,-0.98138427734375,0.033172607421875,-0.0016632080078125
1690839823375116500,11.869116455078125,-0.9801483154296875,0.0330810546875,-0.0015716552734375
1690839823385156600,11.879156494140625,-0.980133056640625,0.0332183837890625,-0.0009307861328125
1690839823395197700,11.88919775390625,-0.9813385009765625,0.03326416015625,-0.0003662109375
1690839823405237800,11.89923779296875,-0.98187255859375,0.0338134765625,-0.0007781982421875
1690839823415277600,11.909277587890625,-0.98101806640625,0.03387451171875,-0.000335693359375
1690839823425318400,11.919318359375,-0.9809417724609375,0.034027099609375,-0.0003509521484375
1690839823435388700,11.929388671875,-0.9820404052734375,0.0341339111328125,-0.001556396484375
1690839823445429500,11.939429443359375,-0.9813232421875,0.03363037109375,-0.0016021728515625
1690839823455469600,11.949469482421875,-0.9813995361328125,0.033233642578125,-0.0017547607421875
1690839823465509600,11.959509521484375,-0.9806060791015625,0.03350830078125,-0.00189208984375
1690839823475550700,11.96955078125,-0.9811248779296875,0.0345001220703125,-0.001678466796875
1690839823485590800,11.9795908203125,-0.9815826416015625,0.03399658203125,-0.0023345947265625
1690839823495630600,11.989630615234375,-0.9815826416015625,0.034423828125,-0.001129150390625
1690839823505670700,11.999670654296875,-0.982025146484375,0.035064697265625,-0.001007080078125
1690839823515711500,12.00971142578125,-0.9816131591796875,0.033935546875,-0.0012359619140625
1690839823525751600,12.01975146484375,-0.9803466796875,0.03363037109375,-0.0015869140625
1690839823535791600,12.02979150390625,-0.9812774658203125,0.03363037109375,-0.000946044921875
1690839823545831700,12.039831787109375,-0.981842041015625,0.0331878662109375,-0.0010223388671875
1690839823555872800,12.049872802734376,-0.9810791015625,0.033843994140625,-0.0012054443359375
1690839823565912600,12.05991259765625,-0.9812469482421875,0.0341339111328125,-0.0014190673828125
1690839823575983600,12.069983642578125,-0.981719970703125,0.0335235595703125,-0.0019073486328125
1690839823586023700,12.080023681640625,-0.9816436767578125,0.0336151123046875,-0.001953125
1690839823596063500,12.0900634765625,-0.980377197265625,0.033355712890625,-0.001678466796875
1690839823606104600,12.1001044921875,-0.979888916015625,0.0334320068359375,-0.0015716552734375
1690839823616144600,12.11014453125,-0.9808349609375,0.0341339111328125,-0.0015106201171875
1690839823626184700,12.120184814453125,-0.9818572998046875,0.0345306396484375,-0.0009918212890625
1690839823636225800,12.130225830078125,-0.982513427734375,0.033843994140625,-0.0008087158203125
1690839823646265600,12.140265625,-0.9817352294921875,0.0336151123046875,-0.0010986328125
1690839823656305700,12.1503056640625,-0.98138427734375,0.03338623046875,-0.001800537109375
1690839823666345500,12.160345458984375,-0.9815521240234375,0.0341949462890625,-0.00152587890625
1690839823676386600,12.170386474609375,-0.981170654296875,0.034027099609375,-0.0013427734375
1690839823686426600,12.180426513671875,-0.98211669921875,0.033538818359375,-0.0017852783203125
1690839823696466700,12.190466796875,-0.9815521240234375,0.0335693359375,-0.001617431640625
1690839823706507800,12.2005078125,-0.98150634765625,0.0333709716796875,-0.001800537109375
1690839823716547600,12.210547607421875,-0.9814300537109375,0.0339202880859375,-0.0018157958984375
1690839823726618600,12.22061865234375,-0.981353759765625,0.0340728759765625,-0.00128173828125
1690839823736658700,12.23065869140625,-0.9807281494140625,0.0341339111328125,-0.000946044921875
1690839823746698500,12.240698486328125,-0.9820709228515625,0.0341644287109375,-0.0014801025390625
1690839823756738600,12.250738525390625,-0.98211669921875,0.033538818359375,-0.0014190673828125
1690839823766779600,12.260779541015625,-0.9810943603515625,0.0336456298828125,-0.0021209716796875
1690839823776819700,12.27081982421875,-0.9808807373046875,0.0332489013671875,-0.0014190673828125
1690839823786859500,12.280859619140625,-0.9802093505859375,0.0336151123046875,-0.001678466796875
1690839823796900600,12.290900634765626,-0.9805145263671875,0.0339508056640625,-0.000946044921875
1690839823806940700,12.300940673828125,-0.9815521240234375,0.033843994140625,-0.001434326171875
1690839823816980500,12.31098046875,-0.9814910888671875,0.033905029296875,-0.0016937255859375
1690839823827020500,12.3210205078125,-0.9816131591796875,0.0333709716796875,-0.001495361328125
1690839823837061600,12.3310615234375,-0.9803619384765625,0.0335845947265625,-0.001739501953125
1690839823847101700,12.341101806640625,-0.9816131591796875,0.03399658203125,-0.0008544921875
1690839823857141500,12.3511416015625,-0.9807586669921875,0.033233642578125,-0.0003662109375
1690839823867182600,12.3611826171875,-0.980987548828125,0.033203125,-0.001190185546875
1690839823877252600,12.371252685546875,-0.9817657470703125,0.033599853515625,-0.0017547607421875
1690839823887293700,12.381293701171876,-0.9818878173828125,0.0336456298828125,-0.0013427734375
1690839823897316400,12.39131640625,-0.9811553955078125,0.0341796875,-0.0013275146484375
1690839823907356400,12.4013564453125,-0.9812164306640625,0.0336456298828125,-0.0019073486328125
1690839823917397500,12.4113974609375,-0.9809417724609375,0.032867431640625,-0.001739501953125
1690839823927437300,12.421437255859376,-0.981170654296875,0.03369140625,-0.0013427734375
1690839823937477400,12.431477294921875,-0.9805450439453125,0.0334014892578125,-0.0014801025390625
1690839823947517400,12.441517333984375,-0.9810943603515625,0.0336456298828125,-0.0008392333984375
1690839823957558300,12.451558349609375,-0.9812774658203125,0.0333709716796875,-0.0010833740234375
1690839823967598300,12.461598388671876,-0.980621337890625,0.033355712890625,-0.0013427734375
1690839823977638400,12.471638427734375,-0.982147216796875,0.033721923828125,-0.0013275146484375
1690839823987679500,12.481679443359376,-0.9820709228515625,0.033966064453125,-0.002593994140625
1690839823997719600,12.491719482421875,-0.9816436767578125,0.0339202880859375,-0.00201416015625
1690839824007759400,12.50175927734375,-0.98193359375,0.0337371826171875,-0.001190185546875
1690839824017799400,12.51179931640625,-0.9821014404296875,0.034027099609375,-0.001190185546875
1690839824027870500,12.521870361328125,-0.981353759765625,0.033843994140625,-0.000457763671875
1690839824037910500,12.53191064453125,-0.9813232421875,0.034027099609375,-0.001007080078125
1690839824047951400,12.541951416015625,-0.9799957275390625,0.033660888671875,-0.001312255859375
1690839824057991400,12.551991455078126,-0.9814300537109375,0.03338623046875,-0.000701904296875
1690839824068031200,12.56203125,-0.981109619140625,0.03314208984375,-0.0012359619140625
1690839824078072300,12.572072265625,-0.980712890625,0.033538818359375,-0.0005950927734375
1690839824088112400,12.5821123046875,-0.98095703125,0.0338287353515625,-0.00152587890625
1690839824098152400,12.59215234375,-0.9809112548828125,0.0344390869140625,-0.0009002685546875
1690839824108192500,12.602192626953125,-0.982574462890625,0.0334625244140625,-0.000762939453125
1690839824118233300,12.6122333984375,-0.98260498046875,0.0337677001953125,-0.0013427734375
1690839824128273400,12.6222734375,-0.9800262451171875,0.0341644287109375,-0.0017547607421875
1690839824138313500,12.6323134765625,-0.9812469482421875,0.0344085693359375,-0.001373291015625
1690839824148354600,12.6423544921875,-0.9810943603515625,0.03411865234375,-0.000640869140625
1690839824158394400,12.652394287109376,-0.9806671142578125,0.033538818359375,-0.00115966796875
1690839824168434400,12.662434326171875,-0.981170654296875,0.0330810546875,-0.000946044921875
1690839824178505500,12.67250537109375,-0.9812469482421875,0.0332183837890625,-0.0017547607421875
1690839824188545500,12.682545654296876,-0.981353759765625,0.033203125,-0.00201416015625
1690839824198585600,12.692585693359375,-0.98162841796875,0.0337982177734375,-0.001312255859375
1690839824208626400,12.70262646484375,-0.980560302734375,0.034454345703125,-0.00103759765625
1690839824218666200,12.712666259765625,-0.98065185546875,0.033843994140625,-0.0013427734375
1690839824228706300,12.722706298828125,-0.98211669921875,0.0347137451171875,0.0001220703125
1690839824238747400,12.732747314453125,-0.981231689453125,0.0343780517578125,-0.0010223388671875
1690839824248787500,12.742787353515626,-0.981292724609375,0.033233642578125,-0.0020599365234375
1690839824258827500,12.75282763671875,-0.9815521240234375,0.0332794189453125,-0.0023345947265625
1690839824268867600,12.76286767578125,-0.98162841796875,0.0336456298828125,-0.0012664794921875
1690839824278908400,12.772908447265625,-0.9818572998046875,0.0340728759765625,-0.00103759765625
1690839824288948500,12.782948486328126,-0.981842041015625,0.03387451171875,-0.0006866455078125
1690839824298988300,12.79298828125,-0.9816131591796875,0.03399658203125,-0.0016021728515625
1690839824309029400,12.803029296875,-0.98150634765625,0.034027099609375,-0.002166748046875
1690839824319069400,12.8130693359375,-0.981201171875,0.0334014892578125,-0.0023040771484375
1690839824329140500,12.823140380859375,-0.9816741943359375,0.0337371826171875,-0.00103759765625
1690839824339180500,12.8331806640625,-0.981109619140625,0.03369140625,-0.0011138916015625
1690839824349220600,12.843220703125,-0.9813079833984375,0.0339508056640625,-0.0009613037109375
1690839824359261400,12.853261474609376,-0.981597900390625,0.033782958984375,-0.00103759765625
1690839824369301200,12.86330126953125,-0.982025146484375,0.0337066650390625,-0.000946044921875
1690839824379341300,12.87334130859375,-0.9811553955078125,0.0336761474609375,-0.0015411376953125
1690839824389381400,12.88338134765625,-0.982177734375,0.0337677001953125,-0.0014495849609375
1690839824399422500,12.89342236328125,-0.9814910888671875,0.033172607421875,-0.0009918212890625
1690839824409462500,12.903462646484375,-0.982177734375,0.033599853515625,-0.0011444091796875
1690839824419502600,12.913502685546876,-0.981201171875,0.033660888671875,-0.0015411376953125
1690839824429543400,12.92354345703125,-0.981353759765625,0.0330352783203125,-0.00213623046875
1690839824439583500,12.93358349609375,-0.9816436767578125,0.0341796875,-0.001678466796875
1690839824449623300,12.943623291015625,-0.981109619140625,0.0337982177734375,-0.001678466796875
