time,seconds_elapsed,z,y,x
1690839811697993500,0.191993408203125,0.30381401999294755,0.21046768257459625,-0.00649811614791397
1690839811708033500,0.202033447265625,0.31051556345820425,0.23703959102202204,0.000951176944724284
1690839811718073300,0.2120732421875,0.3075403470396995,0.23628329276200383,0.009742180669633671
1690839811728113400,0.222113525390625,0.33349136537611485,0.23581445140754803,0.003091865068115294
1690839811738154500,0.232154541015625,0.31773090166449547,0.22529831809019668,0.003337871151859872
1690839811748194600,0.242194580078125,0.30124270820021626,0.19899481478799133,0.002697997779166326
1690839811758234600,0.252234619140625,0.2867097404569387,0.17792681925278156,-0.000547855699196225
1690839811768275500,0.262275390625,0.2587041276782751,0.16337452575452624,0.0006325611408508848
1690839811778315500,0.2723154296875,0.2333762096762657,0.11877053713537752,0.00039279414329212157
1690839811788355300,0.282355224609375,0.22096213378310203,-0.1863608855990693,-0.005124777401518076
1690839811798395400,0.2923955078125,0.1942149966329336,-0.22675796058028935,-0.01051122881337069
1690839811808436500,0.3024365234375,0.19356325472593305,-0.26351631373297424,-0.01087463703197427
1690839811818476500,0.3124765625,0.18413842377662656,-0.2962284967673942,-0.0020670514942001316
1690839811828547600,0.322547607421875,0.16983926478922365,-0.30116441879961636,0.005648454215750098
1690839811838587600,0.332587646484375,0.1933136638790369,-0.28297004247196017,0.017571540854731574
1690839811848627500,0.34262744140625,0.18850538681447504,-0.2550882387360558,0.021433157319482414
1690839811858668500,0.35266845703125,0.19671733484268186,-0.21329401030801234,0.010892830275790764
1690839811868708400,0.362708251953125,0.2077396641165018,-0.17445209234692155,0.002379816941777244
1690839811878748400,0.37274853515625,0.2312982343584299,-0.12002353287115693,-0.00533502261871472
1690839811888779500,0.382779541015625,0.24587504124343393,-0.06502842555381358,-0.013420449057267978
1690839811898820600,0.392820556640625,0.24295652344822882,-0.016991265881899743,-0.0069533080029301345
1690839811908860400,0.4028603515625,0.2592892340898514,0.018052648035716264,-0.007194924464280484
1690839811918900500,0.412900390625,0.26191665998399255,0.050353601654432714,-0.007303454881161451
1690839811928941600,0.422941650390625,0.2674602655857801,0.06506651080818847,-0.01686640195979271
1690839811938981600,0.432981689453125,0.270987270668149,0.08172120167948305,-0.010802055852953345
1690839811949021700,0.443021728515625,0.2725309929788112,0.07012476231213659,-0.010211757243028842
1690839811959061500,0.4530615234375,0.26877836244702336,0.06535367545280606,-0.002497634635167196
1690839811969102600,0.4631025390625,0.2564455350965261,0.05501680769249796,-0.0015865197019506012
1690839811979173600,0.473173583984375,0.234196293887496,0.02823666332187131,0.0064972034032834925
1690839811989213400,0.48321337890625,0.24034897129833696,0.013882979401946067,0.011009246029960923
1690839811999253500,0.49325341796875,0.22372283066809176,-0.014620554695185273,0.016927759633545064
1690839812009293600,0.50329345703125,0.19734628039598465,-0.036587599695660174,0.005974708761740476
1690839812019334700,0.513334716796875,0.2068511908441782,-0.04969930246416479,-0.006059071710100397
1690839812029374700,0.523374755859375,0.20019465556442737,-0.07685167768066749,-0.008854241686849854
1690839812039414500,0.53341455078125,0.19936463448107242,-0.09121045790081843,-0.014995274325669742
1690839812049455600,0.54345556640625,0.20212299327850342,-0.10220832858681678,-0.017037118884199298
1690839812059495400,0.553495361328125,0.20893559590280056,-0.0903444339223206,-0.012104461954720317
1690839812069535500,0.563535400390625,0.21290625309944153,-0.06776950442288071,0.0056532673881854855
1690839812079575600,0.573575439453125,0.2216822647511959,-0.06395999260470271,0.014735162084759211
1690839812089616600,0.58361669921875,0.21999767266511916,-0.03207545603346079,0.016508127715677254
1690839812099656700,0.59365673828125,0.22266893770098684,-0.011620715292077512,0.007873856913950294
1690839812109696500,0.603696533203125,0.22821488139033316,-0.002121796193253249,0.007317470848426455
1690839812119737600,0.613737548828125,0.23004560394883156,0.019756839871406553,-0.0010171776859089733
1690839812129807400,0.623807373046875,0.23354864363372324,0.029309845511335877,-0.005113492247456452
1690839812139848400,0.633848388671875,0.24274492652416227,0.028081527559086678,-0.0209790751427412
1690839812149888500,0.643888427734375,0.24909517233371734,0.04169332533683628,-0.015783433595253155
1690839812159928600,0.653928466796875,0.24588322454988956,0.03764079854302108,-0.022807381981867363
1690839812169968600,0.66396875,0.24370997216403484,0.03132841879213229,-0.012888237310131079
1690839812180009700,0.674009765625,0.2350929504662752,0.021831052329577504,-0.003512862392584793
1690839812190049500,0.684049560546875,0.21494564997255802,0.013062146272044628,0.004560303927661153
1690839812200089300,0.69408935546875,0.2197650329530239,-0.0015113909436389804,0.012306665429356507
1690839812210130400,0.70413037109375,0.21454232986867428,-0.016906674604676663,0.014965573307150043
1690839812220170500,0.71417041015625,0.20497078392505644,-0.020854060523584485,0.018898784570232963
1690839812230210600,0.72421044921875,0.20435060620009898,-0.03489933608146384,0.0013655767066928092
1690839812240250600,0.734250732421875,0.19339315885603428,-0.042211120399553326,-0.006280363477696664
1690839812250291700,0.744291748046875,0.20338029986321926,-0.056632535793446,-0.01411174208994489
1690839812260331500,0.75433154296875,0.2043845084697008,-0.05493011578973382,-0.02301541697566863
1690839812270371300,0.764371337890625,0.20269757829606533,-0.04718246080502867,-0.01592385584609583
1690839812280442400,0.7744423828125,0.21448387767970561,-0.03274303483041003,-0.010683037149743176
1690839812290482400,0.784482421875,0.21430442945957182,-0.03215723429908976,0.0011845336094498634
1690839812300523500,0.7945234375,0.21801614345908163,-0.013870540045481175,-0.0018791328440653158
1690839812310563600,0.8045634765625,0.2156032370984554,0.003495185171999037,0.0055344085151795295
1690839812320603600,0.814603759765625,0.21499533433318138,0.002682425750698894,0.0067459682705171865
1690839812330644500,0.82464453125,0.22188626289069652,0.01409653082108125,0.005878764973441138
1690839812340684500,0.8346845703125,0.22863807523846624,0.019777955724671482,0.0032328809740021823
1690839812350724400,0.844724365234375,0.2253723514407873,0.022343130037561058,-0.0063692108049290255
1690839812360764400,0.854764404296875,0.23378771308660506,0.017484291829541324,-0.0010687160769011824
1690839812370805500,0.864805419921875,0.21901509136855601,0.014678203166555612,-0.00584245155104436
1690839812380845600,0.874845458984375,0.22788579556643962,0.006776983321644365,-0.014423785447492263
1690839812390885600,0.8848857421875,0.214602535623312,0.004587656583823263,-0.006635323528363369
1690839812400925700,0.89492578125,0.21448563124537467,-0.0015772957867011426,0.004105476257181726
1690839812410966500,0.904966552734375,0.21211247237324712,-0.0098735062985681,-0.0063976366067479825
1690839812421006300,0.91500634765625,0.20688509311378,-0.02309701714478433,0.001082115556235658
1690839812431077400,0.925077392578125,0.20104571943581104,-0.0290696800799109,-0.00011383107143919915
1690839812441117400,0.935117431640625,0.21060615946352482,-0.03183770175483078,0.015792211698397295
1690839812451157500,0.945157470703125,0.2007078657835722,-0.031369718916900456,0.008322445498243906
1690839812461198600,0.955198486328125,0.20801789653599262,-0.02672224017092958,0.0012946109543787315
1690839812471238700,0.96523876953125,0.20888766510784626,-0.026200554384384303,-0.007652003457350656
1690839812481278700,0.97527880859375,0.21155483849048612,-0.021559213118255136,0.0022908006511861458
1690839812491319600,0.985319580078125,0.22589608305394648,-0.021318536230176686,-0.0002498557083774358
1690839812501359400,0.995359375,0.22558102575540542,-0.021961473776213825,-0.003610148754599504
1690839812511399400,1.0053994140625,0.20237784482240675,-0.006762406807020306,-0.00913785353435669
1690839812521439500,1.015439453125,0.20641630655825136,0.0007869491266086697,0.0033625443688128144
1690839812531480600,1.02548046875,0.2162929729282856,0.004686586913652718,-0.0033798105974448844
1690839812541520600,1.035520751953125,0.2113607772231102,0.009850910874269902,0.0009159458011388778
1690839812551560700,1.045560791015625,0.20972820758521554,0.00483545733243227,0.010085405758378328
1690839812561601500,1.0556015625,0.21618074472546575,0.01410739927496761,0.005995322291506454
1690839812571641300,1.065641357421875,0.209770293161273,0.004308930973988026,-0.00024674130268394944
1690839812581712400,1.07571240234375,0.2124889044702053,-0.002900744676496833,0.005410928265983239
1690839812591752400,1.08575244140625,0.20951602613925932,-0.0008760704484768212,0.003543714188574813
1690839812601792500,1.09579248046875,0.20773791055083274,-0.008857588987983762,-0.0032988634488778186
1690839812611832600,1.10583251953125,0.20131459950506686,-0.0031623364884406325,-0.003424243394215591
1690839812621873700,1.115873779296875,0.2083539966225624,-0.010690649634040891,-0.00037972459916491057
1690839812631913700,1.125913818359375,0.20536182906925676,-0.019197342825122178,0.01230856512549799
1690839812641953500,1.13595361328125,0.19742226824164388,-0.01987321452638134,0.0071655259815044696
1690839812651994400,1.145994384765625,0.19486673853993414,-0.01600581677481532,0.007865810604812578
1690839812662034400,1.156034423828125,0.19635142413973808,-0.023961433688085523,0.012384251577057874
1690839812672074500,1.166074462890625,0.18616086951494215,-0.016637977198511362,0.011887910294323227
1690839812682114600,1.176114501953125,0.1876449705928564,-0.013083243859000504,0.011041381034161895
1690839812692155600,1.18615576171875,0.20154607017338275,-0.013823065908253192,0.0001746852800482884
1690839812702195700,1.19619580078125,0.20228139871060846,-0.0067041920800693326,-0.007290481235156767
1690839812712235500,1.206235595703125,0.21020868457853792,-0.007165197187941521,-0.0031479917276126795
1690839812722276400,1.2162763671875,0.20900983018279073,0.003100779026933014,-0.003459903796063736
1690839812732346600,1.2263466796875,0.21259879458546638,0.004188464665785431,-0.007882149818260221
1690839812742387500,1.236387451171875,0.21170973679125307,0.0007808116467669606,-0.0007260172861861064
1690839812752427500,1.246427490234375,0.20438626203536986,-0.001702803596202284,0.008760594886913895
1690839812762467600,1.256467529296875,0.20859014346599578,-0.003700224491115659,0.02099743278333917
1690839812772508700,1.2665087890625,0.20546412039995193,0.002049132815841585,0.014862154031870885
1690839812782548500,1.276548583984375,0.20547931796908378,0.0017741152667440474,0.011391632943670264
1690839812792588500,1.286588623046875,0.20339725099802017,-0.006822831757366657,0.011854697577888146
1690839812802628600,1.296628662109375,0.1944283471226692,-0.012853088364936411,0.000932645774190314
1690839812812669400,1.30666943359375,0.20161621280014513,-0.010662702181190252,-0.011023626181762666
1690839812822709500,1.31670947265625,0.20132395185530186,-0.017128062270395455,-0.019934603024530224
1690839812832749600,1.32674951171875,0.20296938097476958,-0.022380575971119105,-0.027986410321271978
1690839812842789600,1.33678955078125,0.20895254703760147,-0.021013908994104713,-0.022275393997016363
1690839812852830700,1.346830810546875,0.20580606570541857,-0.024355200512334703,-0.007193441468314268
1690839812862870500,1.35687060546875,0.19293080204129218,-0.016579123150743544,0.006012314525502734
1690839812872910600,1.36691064453125,0.19112521392405032,-0.00950903863403946,0.019004957491601818
1690839812882981600,1.376981689453125,0.18946926341056822,-0.012886515710502863,0.02816445660218596
1690839812893001000,1.3870009765625,0.19334698162674901,-0.009790102331433445,0.027293290657689793
1690839812903041800,1.397041748046875,0.19139058686196803,-0.004514573081303388,0.014208640292892231
1690839812913081900,1.407081787109375,0.19721827010214327,0.00015889862244948744,-0.0070635132120223714
1690839812923122000,1.417121826171875,0.19751579174399375,-0.0013718180761672556,-0.023115667046327143
1690839812933163000,1.4271630859375,0.21248305925130842,0.0011542115364223718,-0.03485523207825608
1690839812943202800,1.437202880859375,0.2129372327595949,0.0021052286509424447,-0.030456471962924114
1690839812953243000,1.447242919921875,0.21130232503414154,0.0017430808076635002,-0.025323808082472532
1690839812963283000,1.457282958984375,0.19770166970491407,-0.005408562778960913,-0.010093957815947942
1690839812973323800,1.46732373046875,0.19592063150703906,-0.008600253226049244,0.011993727022665553
1690839812983363800,1.47736376953125,0.19802900196313858,-0.0005817454107105731,0.03079901549001224
1690839812993404000,1.48740380859375,0.19489596463441847,0.002947963085398078,0.036887482257955705
1690839813003445000,1.497445068359375,0.18607377575337886,-0.00004557444108650088,0.0421259765664814
1690839813013485000,1.507485107421875,0.18742460584044454,-0.0019123546936549245,0.021860196225671095
1690839813023524900,1.51752490234375,0.195958040907979,-0.006349917015992104,0.0036729996991169173
1690839813033596000,1.527595947265625,0.18518237987160682,-0.014614307617489247,-0.00552054324496421
1690839813043636000,1.537635986328125,0.1956535050034523,-0.013989946907758712,-0.02789994218079373
1690839813053675800,1.54767578125,0.20178046345114706,-0.016022512181289493,-0.03243991456483491
1690839813063716900,1.557716796875,0.1959323219448328,-0.018058986444957553,-0.017872825356246902
1690839813073757000,1.5677568359375,0.19546762704253196,-0.003788779557403177,0.0013514648413052782
1690839813083796700,1.577796630859375,0.1881236940205097,-0.002078888633288443,0.020763537262496537
1690839813093837800,1.587837890625,0.19304945998489856,-0.0006399784039705992,0.02530993025416974
1690839813103878000,1.5978779296875,0.1919932289302349,-0.00023256664685904977,0.03941713316631503
1690839813113918000,1.60791796875,0.20156711296141147,0.003734400755353272,0.029622560155740937
1690839813123957800,1.617957763671875,0.20007658214271068,0.0007460691269487143,0.013268861525016835
1690839813133998800,1.627998779296875,0.19859248106479643,-0.006498823967389762,-0.001114642144436948
1690839813144039000,1.638038818359375,0.20115560955107212,-0.010047273696586489,-0.02694488821197301
1690839813154078700,1.64807861328125,0.19922727183699607,-0.01235933176493272,-0.03558539125001989
1690839813164119800,1.658119873046875,0.20477906074523924,-0.006696410632412881,-0.02191572580519132
1690839813174160000,1.668159912109375,0.19775486119687555,-0.007290357937570661,-0.026063575332798062
1690839813184231000,1.67823095703125,0.18743395819067954,-0.001468264187965542,-0.011487800494255497
1690839813194271000,1.68827099609375,0.1928168202728033,-0.004808167466707527,0.011549756389629328
1690839813204310800,1.698310791015625,0.1892173344761133,-0.01621103875702247,0.01703317450308823
1690839813214352000,1.708351806640625,0.19205168111920357,-0.015043912940099834,0.017230298802163452
1690839813224392000,1.718391845703125,0.1848568011790514,-0.009227774007245898,0.015231284171785228
1690839813234431700,1.728431640625,0.18095628660917282,-0.011563852271996437,0.01409302368974313
1690839813244471800,1.738471923828125,0.1959101101130247,-0.005813672981131821,0.014083301446749828
1690839813254513000,1.748512939453125,0.20757132181227206,-0.010710231117345393,-0.0069501616311958055
1690839813264552700,1.758552734375,0.20456687929928302,0.004523998496774584,-0.016264358113147317
1690839813274592800,1.7685927734375,0.1937836194783449,0.00833822302268818,-0.0087322821078822
1690839813284633900,1.7786337890625,0.1927344026863575,0.010345653854962437,-0.00008318477142602204
1690839813294674000,1.788673828125,0.19408172564208506,0.004830561961606144,0.010597304228204301
1690839813304713700,1.798713623046875,0.19767770430743692,0.0072659176160581405,0.0014381521774921564
1690839813314753800,1.80875390625,0.19499825596511364,-0.006385828579589724,0.0012823131618089974
1690839813324795000,1.818794921875,0.19576456416249274,-0.004010916141793132,-0.0009377009752206504
1690839813334865000,1.828864990234375,0.19010171609520912,-0.006812949684169143,-0.004701980845606885
1690839813344905700,1.83890576171875,0.18757833509743213,-0.012718648330308497,-0.0012420713413215708
1690839813354945800,1.84894580078125,0.18714929603040217,-0.017726795348525046,0.008431610669364454
1690839813364985900,1.85898583984375,0.17294541411101816,-0.024423461709264665,0.006832211507065221
1690839813375027000,1.86902685546875,0.19360183317065238,-0.015935984675306825,0.006002368520223535
1690839813385066800,1.879066650390625,0.18087971424162386,-0.019798779316991567,0.0006227213084930553
1690839813395106800,1.88910693359375,0.17653028686046598,-0.02663689997503534,0.0003168382636737078
1690839813405147000,1.89914697265625,0.1807037731528282,-0.014890439411439001,0.0019683546306332573
1690839813415187700,1.909187744140625,0.18233108209371565,-0.01552866424974054,0.0030530320367135573
1690839813425227800,1.919227783203125,0.19099018936753273,-0.01617876218892634,-0.002589938861387782
1690839813435267800,1.929267822265625,0.19292028064727781,-0.0031727117519825695,0.006498623037990182
1690839813445309000,1.939308837890625,0.1800409253299236,-0.007955872641596943,0.006335171538009308
1690839813455348700,1.9493486328125,0.19230361005365848,-0.006469762269686907,0.006207645301357843
1690839813465388800,1.959388916015625,0.20786475180089473,0.0011039426539093255,0.004499800203857012
1690839813475459800,1.9694599609375,0.2011351512849331,0.016090115791093557,0.006708397897728718
1690839813485500000,1.9795,0.197103119289875,0.012370291550364345,0.012691134702297859
1690839813495540000,1.9895400390625,0.19771219109892843,0.0178868264821358,0.001617760227830149
1690839813505580800,1.999580810546875,0.1917407154738903,0.014441563132777809,-0.002777300959918648
1690839813515620900,2.009620849609375,0.19355039524435996,0.008101491657365113,-0.0018119847503432537
1690839813525660700,2.01966064453125,0.1953618285804987,-0.004857997957803309,-0.0013879928928334266
1690839813535701800,2.02970166015625,0.18310849620699882,-0.012546945025213063,-0.007360701493732631
1690839813545741800,2.039741943359375,0.18671382722258567,-0.011396258886437862,-0.005483051645633531
1690839813555782000,2.049781982421875,0.18207915315926074,-0.015106858641095459,-0.003615966574032791
1690839813565822000,2.059822021484375,0.18777181184291838,-0.017406112026795744,0.000409809210174717
1690839813575862800,2.06986279296875,0.18746786046028135,-0.0150781074706465,0.010204926785087444
1690839813585902800,2.07990283203125,0.18042437168955802,-0.015501648378651589,0.01011792892164667
1690839813595942700,2.089942626953125,0.17442250092625616,-0.014078191446792334,0.0069515327460190745
1690839813605983700,2.099983642578125,0.1741080281496048,-0.01153126517664641,0.007482231814437546
1690839813616023800,2.11002392578125,0.18456804736554622,-0.005987056786660104,0.006116861745365895
1690839813626094800,2.1200947265625,0.19592823029160497,-0.007809924832265823,-0.004456276155961677
1690839813636135000,2.130135009765625,0.18065818044543266,0.0028518822997808456,-0.004179619205626659
1690839813646175000,2.140175048828125,0.19846154816150663,0.0007681713609024882,-0.010478331190766766
1690839813656215800,2.1502158203125,0.19502046779692173,-0.00489695999501273,-0.017096347391302696
1690839813666256000,2.160255859375,0.19263328039944172,-0.000897314165905118,-0.01477400539095979
1690839813676295700,2.170295654296875,0.19683190113306046,0.005099442030861974,0.003889262523502111
1690839813686335700,2.180335693359375,0.18996084631979465,0.004222640930023044,0.015663169358094454
1690839813696376800,2.190376953125,0.18712766872048378,0.007176577098481357,0.030082181590702382
1690839813706417000,2.2004169921875,0.18279811508357524,-0.0039100495832040906,0.02935648853150196
1690839813716457000,2.21045703125,0.17502163586318492,-0.005475490535330027,0.011001610712776892
1690839813726497800,2.220497802734375,0.18086276310682295,-0.009578615005221218,-0.003681760677596321
1690839813736537900,2.230537841796875,0.18490765458345412,-0.01535266836201772,-0.01898523330275784
1690839813746577700,2.24057763671875,0.19014789332449436,-0.01941940634427592,-0.020871902140951713
1690839813756617700,2.25061767578125,0.19059563709199429,-0.02308682454433292,-0.01993931573226582
1690839813766658800,2.260658935546875,0.19508008902966975,-0.021520360678900032,-0.015156569259538082
1690839813776728800,2.270728759765625,0.17876316047906873,-0.015951638902164996,0.0072129772858461364
1690839813786770000,2.28077001953125,0.18219313492774963,-0.013004698730073868,0.01920843047471717
1690839813796810000,2.29081005859375,0.17095687064230441,-0.009034571256395429,0.01733528898002114
1690839813806850000,2.30085009765625,0.18800386703312397,0.0015779899064451454,0.007827994778496213
1690839813816891000,2.310890869140625,0.18170798175930974,0.0008333820842206477,-0.005830395787069574
1690839813826930700,2.3209306640625,0.19277707278430462,-0.0017153890831395982,-0.00614708792027086
1690839813836970800,2.330970703125,0.18888766413033006,-0.005708623437769711,-0.00988325594102498
1690839813847010800,2.3410107421875,0.19233634327948093,-0.002725004517100751,-0.004598607236100361
1690839813857052000,2.351052001953125,0.19623919593691824,-0.0059866914604790504,-0.0004889514190785121
1690839813867092000,2.361092041015625,0.18772271200418472,0.0008496208329685031,-0.00030740828162524847
1690839813877132000,2.371132080078125,0.18923136300146579,-0.00001375453071668744,-0.004533998159336625
1690839813887169300,2.381169189453125,0.186097741150856,-0.007581212376616895,-0.010741830690362258
1690839813897209300,2.391209228515625,0.18834815042614936,-0.006161591369658708,0.0035759279662335754
1690839813907249400,2.40124951171875,0.194637605959177,-0.0062824960692785675,0.009121360198926412
1690839813917289200,2.411289306640625,0.19149813888967035,-0.011400131343957036,0.00893606561825145
1690839813927360300,2.4213603515625,0.18072364689707754,-0.00019513897961005567,0.025433127375575713
1690839813937401300,2.4314013671875,0.1750356643885374,-0.012964531116466968,0.01248613762402092
1690839813947441400,2.44144140625,0.17727672131359576,-0.012038940704148262,0.006198115996253909
1690839813957481500,2.4514814453125,0.1881944211691618,-0.011951079757604748,-0.0068252006693219295
1690839813967521500,2.461521484375,0.18414836064875126,-0.011600695417355745,-0.01200642553239013
1690839813977562400,2.471562255859375,0.18623919544816017,-0.006098901396989822,-0.012017399017553543
1690839813987602200,2.481602294921875,0.18608429714739322,-0.012473203935567289,-0.009345217241300269
1690839813997642200,2.491642333984375,0.18009645490944384,0.00400455946624279,0.010705702214344637
1690839814007682300,2.501682373046875,0.17260989854633807,-0.0011236337350681424,0.01045412833127193
1690839814017723400,2.511723388671875,0.17484978642761706,-0.0019100714050233362,0.011022964028059504
1690839814027763500,2.521763427734375,0.17933833001852034,0.006610010990593582,0.010378876846196362
1690839814037803500,2.531803466796875,0.17664543767273425,0.00202270146664232,0.0030880394180130676
1690839814047844400,2.54184423828125,0.1883200933754444,-0.007732073823083192,-0.008451929654896956
1690839814057884400,2.551884521484375,0.19012217436134815,-0.004762355563603341,-0.01573184497191105
1690839814067924200,2.56192431640625,0.1919283470004797,-0.00913428703751415,-0.004189501278824173
1690839814077995300,2.571995361328125,0.1826560762643814,0.0024331454310566186,0.00035135702120605856
1690839814088035300,2.582035400390625,0.17652677972912786,0.0004195588526315987,0.009093198116944404
1690839814098076400,2.592076416015625,0.1747352201372385,-0.0006107523094862699,0.0033982515780779064
1690839814108116500,2.602116455078125,0.17937457037568091,-0.003264993145316839,-0.0009990438075968995
1690839814118156500,2.612156494140625,0.1867079820036888,-0.0036689891026355326,-0.0035760501221753656
1690839814128196400,2.6221962890625,0.18161971895396709,-0.008781235816143453,-0.004403617811895674
1690839814138237200,2.6322373046875,0.19238895024955271,-0.003604965689405799,-0.0033494508501549715
1690839814148277200,2.64227734375,0.1856529199928045,-0.014622198663000017,0.0035982117216335607
1690839814158317300,2.6523173828125,0.18235680105686186,-0.002381762303691357,0.012454864561278372
1690839814168358400,2.6623583984375,0.18369769427180288,-0.010994272223114967,0.015636910397186874
1690839814178398500,2.6723984375,0.17606150030493736,-0.00759927775627002,0.008439533680916066
1690839814188438500,2.6824384765625,0.1732183858335018,-0.004599365287926048,0.00385569932226208
1690839814198478300,2.692478271484375,0.18443886802792547,-0.0015264423822984098,-0.0018768952212063594
1690839814208519200,2.702519287109375,0.18862755188941954,-0.00008373276069760322,-0.006391448894556379
1690839814218559200,2.712559326171875,0.1938625299334526,0.002978047696407884,-0.0012260985956992953
1690839814228630300,2.72263037109375,0.1895230394244194,0.005197221583221108,-0.0031152219691721254
1690839814238670300,2.73267041015625,0.18832710763812063,0.00045269393725320695,-0.0019351225062448065
1690839814248710400,2.74271044921875,0.1845896746754646,0.003444788425322622,0.002767085526580922
1690839814258751500,2.75275146484375,0.19447043269872663,0.0006445084486156701,-0.002113311492698267
1690839814268791600,2.76279150390625,0.18205694132745265,-0.004639057977497577,0.003912790671206312
1690839814278831400,2.772831298828125,0.19283494045138358,-0.008051222774852066,0.005148515611776383
1690839814288871200,2.78287109375,0.18131752113699912,-0.003077014558855444,0.00531346494909958
1690839814298912300,2.792912353515625,0.1841623891741037,-0.004490899944771081,0.0032927807679632676
1690839814308952300,2.802952392578125,0.18969781146943568,-0.002160411170590669,0.01057892032978707
1690839814318992400,2.812992431640625,0.18146365160942077,0.0021839199103415013,0.00442943838138599
1690839814329033500,2.823033447265625,0.17846739240288734,-0.0038002873321063813,-0.004145715794380521
1690839814339073500,2.833073486328125,0.17995850774347782,-0.008194521969370544,-0.0015141114820435176
1690839814349113300,2.84311328125,0.18205109610855577,-0.017102726899739355,-0.0005699682079488411
1690839814359153200,2.853153076171875,0.19416940392553805,-0.012720602825377136,0.004266947004274698
1690839814369194200,2.8631943359375,0.189081725397706,-0.005243691073451191,-0.012025495559041154
1690839814379265300,2.873265380859375,0.18384499378800392,-0.006562664717528969,0.002789426364196697
1690839814389305300,2.883305419921875,0.1871387746363878,-0.0021551504735834895,0.00029409785054740497
1690839814399345400,2.893345458984375,0.18115443952977656,0.0038922947308048603,-0.0005733977074734866
1690839814409385500,2.903385498046875,0.17711714683771132,-0.006923296457156539,-0.00359166210819385
1690839814419426600,2.913426513671875,0.1871446198552847,-0.009678422117885202,-0.0030541439982771407
1690839814429466400,2.92346630859375,0.19343349086642264,-0.0002367678979411721,0.004454386734619038
1690839814439506200,2.933506103515625,0.1874526628911495,0.002349321338813752,0.000008778103144140914
1690839814449547300,2.94354736328125,0.1958317841798067,0.0039884485816583035,-0.00003373330624308437
1690839814459587300,2.95358740234375,0.1889513770163059,-0.0047251836246810855,0.00014505276018753646
1690839814469627400,2.96362744140625,0.18341127854585645,0.004254570438247174,-0.006832677297946065
1690839814479667500,2.97366748046875,0.19163900866508482,-0.008411032530572266,0.0010191321809776127
1690839814489708500,2.98370849609375,0.18655425274670123,-0.007843206047359854,0.002381470042746514
1690839814499748400,2.993748291015625,0.17608254309296606,-0.009523304621409625,0.009131327895447612
1690839814509788200,3.0037880859375,0.1843161184310913,-0.008935659192875027,0.008070421807310777
1690839814519828200,3.013828125,0.18461539363861082,0.001391710086725652,0.004520500498590991
1690839814529899300,3.023899169921875,0.18775661427378654,0.0010392799198627471,0.003779912406002404
1690839814539940400,3.0339404296875,0.18491116171479224,-0.010559424469806252,0.010451461450150235
1690839814549980400,3.04398046875,0.17458499801158903,-0.005212821011152118,0.0013559583533322439
1690839814560020500,3.0540205078125,0.17877251282930373,-0.0015876710502430796,-0.0029655432662169913
1690839814570060300,3.064060302734375,0.18984160385429857,-0.005330218579433858,-0.006273148285620846
1690839814580101400,3.074101318359375,0.18759820884168146,-0.004855513739772141,-0.004629526389105012
1690839814590141200,3.08414111328125,0.18011749769747257,-0.004063669242337346,-0.004703993564535631
1690839814600181200,3.09418115234375,0.17592764479219913,-0.0030120047649368643,0.0005608944189269095
1690839814610222300,3.104222412109375,0.17877075926363467,-0.005865841559786349,0.0017439998313377144
1690839814620262400,3.114262451171875,0.18131693661510942,-0.0002209492743015289,-0.0016202261795522643
1690839814630302500,3.124302490234375,0.1858060647279024,-0.007405271287821233,-0.001698584078811109
1690839814640342300,3.13434228515625,0.18191665607392787,-0.003473649193625897,0.008422687577392207
1690839814650383400,3.14438330078125,0.17757658104300497,-0.004233710313308984,0.0012951646518718917
1690839814660423200,3.154423095703125,0.1864034460991621,-0.0057843190224841235,0.0035628024815348904
1690839814670494200,3.164494140625,0.18984686455130576,-0.007085154221672565,-0.00041208222400746305
1690839814680534300,3.1745341796875,0.18520692979097364,-0.0044282099721021945,-0.00572609059580136
1690839814690574300,3.18457421875,0.18775076905488966,0.0008032244079746306,-0.0025153164223302156
1690839814700615400,3.194615478515625,0.18490823910534382,-0.0011235789361409843,-0.005266930385143496
1690839814710655500,3.204655517578125,0.17922376372814178,0.0010310418144799769,0.0027829372579057233
1690839814720695300,3.2146953125,0.17862696687877178,-0.009833302152343093,-0.005584790420479839
1690839814730735400,3.2247353515625,0.17727964392304418,-0.0016257563046179712,0.004790156885981559
1690839814740776200,3.234776123046875,0.1786257978349924,-0.007033844159543514,0.0020288526462158185
1690839814750816300,3.244816162109375,0.17847557570934294,-0.0018244206818751989,0.001385683346382575
1690839814760856300,3.254856201171875,0.1808656857162714,0.0004193579232320189,0.0033220479616429656
1690839814770897400,3.2648974609375,0.18220657893121242,-0.00670369888972491,-0.0005212005877110642
1690839814780937500,3.2749375,0.18040858959853648,-0.0008023476251401006,-0.0010308717094769234
1690839814790977300,3.284977294921875,0.17741525300145147,-0.0029327655162662268,-0.005268938537494977
1690839814801017300,3.295017333984375,0.18205401871800422,-0.004274754709750413,-0.0078066996870737055
1690839814811058200,3.30505810546875,0.1878893007427454,-0.012986943877674639,-0.001042763076670235
1690839814821129200,3.315129150390625,0.19327917708754538,-0.012107421096786856,0.0006627016924321651
1690839814831169300,3.325169189453125,0.17338205196261405,-0.0033999994355253874,0.0003824154548172373
1690839814841209300,3.335209228515625,0.17113807242810725,-0.0014199498005211353,0.006350953629030846
1690839814851249400,3.34524951171875,0.1781727933704853,-0.002688782426249236,0.004168029232532717
1690839814861290500,3.35529052734375,0.17173603832125664,-0.004271777301374823,0.0013242023750441147
1690839814871330300,3.365330322265625,0.17861995261609553,-0.0006519611027091741,-0.005523013763263589
1690839814881370400,3.375370361328125,0.18176468038260934,-0.00652487172409892,-0.009722530687670223
1690839814891393800,3.385393798828125,0.1789215659111738,-0.00039575785193592307,0.004897023927094415
1690839814901433900,3.395433837890625,0.18191373346447945,-0.0026643969036638736,0.0033383004101226106
1690839814911473700,3.4054736328125,0.18356150067150592,-0.0021591690615750847,-0.006383334086759714
1690839814921513700,3.415513671875,0.1786211216598749,-0.014066446210071444,0.0016693808172130956
1690839814931554800,3.425554931640625,0.18744740219414233,-0.004729987663961947,-0.0006877950344933196
1690839814941595000,3.435594970703125,0.18340835593640803,-0.003787446116842329,-0.0038351348832016807
1690839814951635000,3.445635009765625,0.1772749677479267,-0.004162782235257327,-0.006315800117258913
1690839814961675000,3.455675048828125,0.19014380167126654,-0.009858765387162566,0.001634712504275376
1690839814971745800,3.465745849609375,0.1895487583875656,0.0004559270739555359,0.003346973481989698
1690839814981786600,3.47578662109375,0.18236966053843498,-0.00583418604619801,0.011058291069767438
1690839814991826700,3.48582666015625,0.18012626552581787,0.0020104265069589016,0.007271114380983636
1690839815001866800,3.49586669921875,0.1751923162549734,-0.002308587469626218,0.00013771427052561194
1690839815011906800,3.50590673828125,0.18327333137989044,-0.003327262992877513,-0.004309392198291607
1690839815021948000,3.515947998046875,0.18461890076994894,0.0002081993905827403,-0.00241020294688642
1690839815031988000,3.525988037109375,0.1867126581788063,-0.004652721176669001,-0.004335114586370764
1690839815042028000,3.536028076171875,0.18462006981372833,-0.011294077153597027,-0.00047731578021193853
1690839815052068900,3.54606884765625,0.17534604551196098,-0.002915741316229105,-0.0033606355395168065
1690839815062108700,3.556108642578125,0.18014029405117035,-0.0014743834014981985,-0.0012537948868004605
1690839815072148700,3.566148681640625,0.17759996191859245,-0.0028137239801697433,0.0006344939446775242
1690839815082188800,3.576188720703125,0.1723643993526697,-0.006332527489773929,0.005475755396811291
1690839815092230000,3.58622998046875,0.1799982552319765,-0.0042822621627710755,0.008389460019581019
1690839815102270000,3.59627001953125,0.1916699883252382,-0.001448280845861882,-0.0017435637232090812
1690839815112310000,3.60631005859375,0.18089315824508667,-0.005756316770706325,-0.008510730045381934
1690839815122380800,3.616380859375,0.18343407489955424,-0.005286562100797892,-0.00048386881858459674
1690839815132420900,3.6264208984375,0.18402911818325518,0.0032484073366969824,0.003705772882490419
1690839815142461700,3.636461669921875,0.17340367927253245,-0.0011467040834017097,0.00004017788840574212
1690839815152501800,3.646501708984375,0.1728010372042656,-0.006846742355916649,0.001363680435484275
1690839815162541800,3.656541748046875,0.1867126581788063,-0.003148454093560576,0.004000974703091196
1690839815172582000,3.666581787109375,0.18447101673185826,-0.007513243440631777,-0.009503758529078914
1690839815182623000,3.676623046875,0.17998890288174152,-0.009016323213651777,-0.0020870810728985814
1690839815192663000,3.6866630859375,0.18762626589238643,-0.006991612453013658,-0.001310222940397216
1690839815202702800,3.696702880859375,0.1798492021501064,0.0008107866599224508,0.0020437864955107216
1690839815212743700,3.70674365234375,0.18149696935713291,0.001187657148297876,-0.0019937584999483076
1690839815222783700,3.71678369140625,0.17655834391117095,-0.0016847016839310527,0.008933010578062384
1690839815232823800,3.72682373046875,0.17880407701134682,-0.00821907188873738,0.00617007607021369
1690839815242863900,3.73686376953125,0.18119710962772367,-0.006471059177629649,0.0011404022067785262
1690839815252905000,3.746905029296875,0.1773053628861904,-0.005458009677566588,0.0030829876419156787
1690839815262945000,3.756945068359375,0.17326456306278704,-0.007276219814363867,0.003231967658549547
1690839815273015800,3.767015869140625,0.18433949930667876,-0.004210749562829732,-0.0017759053650312124
1690839815283055900,3.777055908203125,0.17625789965987204,-0.015337799586448818,-0.003297264005191391
1690839815293096000,3.787095947265625,0.1807435206413269,-0.00829812847431749,0.009802514288434759
1690839815303136800,3.79713671875,0.17670213629603385,-0.0016248064565472305,0.0017009826735185924
1690839815313176800,3.8071767578125,0.17714988006353377,-0.00032183409919962286,0.0026346239615522788
1690839815323217000,3.817216796875,0.181187172755599,0.0025434739377349614,-0.0059499933039478484
1690839815333258000,3.827258056640625,0.17834464280605314,-0.004444101660978049,0.0044783920896472405
1690839815343297800,3.8372978515625,0.1873223145097494,-0.0058215457603335375,0.008177252315805525
1690839815353337900,3.847337890625,0.18777181184291838,-0.00250916980933398,-0.00048795133865787646
1690839815363378000,3.8573779296875,0.18238836523890495,-0.0013016571830958127,0.0034109409546479582
1690839815373418800,3.867418701171875,0.18134499366581439,-0.0023439510439522563,0.0073498558727325865
1690839815383458800,3.877458740234375,0.18029986852705476,-0.007806289836764335,0.0043487344030581875
1690839815393499000,3.887498779296875,0.18105097915530205,-0.007808372195996343,0.0002644504893105477
1690839815403540000,3.8975400390625,0.18210078046917913,-0.0038278511924669145,0.0027471158842090515
1690839815413609700,3.907609619140625,0.17835867133140562,0.006298004165664315,-0.0009853075431892648
1690839815423650800,3.91765087890625,0.17356792992353437,0.0005115114524029195,-0.0024241709650901612
1690839815433691000,3.92769091796875,0.18000059331953525,-0.004484525002911687,0.005361769061745144
1690839815443731000,3.93773095703125,0.17431085724532602,-0.007619498560391366,0.006371644790610298
1690839815453770800,3.947770751953125,0.18298925374150274,-0.01814321239599958,0.005818770423001842
1690839815463811800,3.957811767578125,0.18209084359705446,-0.012324370049405842,-0.003353497979254462
1690839815473852000,3.967851806640625,0.17730302479863166,-0.010657678946200757,-0.004139806643401971
1690839815483891700,3.9778916015625,0.17745149335861204,0.0020276881690137086,-0.004862404704862274
1690839815493932800,3.987932861328125,0.17460954793095587,0.0007276201548054814,-0.00900697086341679
1690839815503972900,3.997972900390625,0.18598200581669808,-0.0064577978372573844,-0.0026624287088634446
1690839815514013000,4.008012939453125,0.18643091862797737,-0.0024380408018827436,-0.0025423311517748515
1690839815524052700,4.018052734375,0.17415888155400752,-0.005198755953181535,-0.001883246188535122
1690839815534093800,4.02809375,0.17745090883672238,-0.01146733309496194,-0.0037802126584574576
1690839815544134000,4.0381337890625,0.17266367456018925,-0.008285195927508175,-0.009954370107100112
1690839815554174000,4.048174072265625,0.1746077943652868,-0.004431059516314417,0.0039986959810368716
1690839815564244700,4.05824462890625,0.17894670035243032,-0.004156169831380248,-0.004803782410890562
1690839815574284800,4.068284912109375,0.17700433411300182,-0.0023896898818202314,-0.0018738618722592944
1690839815584326000,4.078325927734375,0.1850830111503601,0.002319766450766474,0.00852048082948313
1690839815594366000,4.088365966796875,0.1759551173210144,-0.005017554167378694,0.00440697652947274
1690839815604405800,4.09840576171875,0.183436412987113,0.005149930109083652,0.006502920187194831
1690839815614445800,4.10844580078125,0.18493220450282097,0.0009171879101544619,0.002593291870743269
1690839815624487000,4.11848681640625,0.17445757223963737,-0.004310739338584244,0.007811066476581618
1690839815634526700,4.128526611328125,0.18014204761683938,-0.003929941593762487,0.004309090804192237
1690839815644566800,4.13856689453125,0.1885205843836069,0.0012702573978342114,-0.008692941044759936
1690839815654608000,4.14860791015625,0.18148586344122886,-0.0018105565533041953,-0.0023021748535044023
1690839815664648000,4.15864794921875,0.17759470122158527,-0.0010684329491108654,0.002031446462101303
1690839815674687700,4.168687744140625,0.17938918342292307,-0.006057893533166498,-0.0009018716100137681
1690839815684727800,4.178727783203125,0.1772527559161186,-0.000876326176803559,-0.0071191752222832284
1690839815694769000,4.188768798828125,0.2808902405232191,-0.040740974781755354,-0.05783818068958353
1690839815704809000,4.19880908203125,0.13216507543325423,-0.05722525925589725,-0.420518966368027
1690839815714879700,4.208879638671875,-0.014276362633705138,-0.09971234705261886,0.5530186440505087
1690839815724919800,4.218919921875,0.2280173129916191,-0.0661084210765548,-0.02003830999417696
1690839815734959900,4.2289599609375,0.1920966893047094,0.03915631767250597,0.02121307569486089
1690839815745001000,4.2390009765625,-0.006387655210494995,-0.14462246074518187,0.15629837682321668
1690839815755040800,4.249040771484375,0.1533428880184889,-0.06768376236818731,-0.005419000832940219
1690839815765080800,4.259080810546875,0.20833412287831304,-0.03561270851520821,-0.08256020978689194
1690839815775122000,4.269121826171875,0.21473405304849147,0.0053182541470043355,-0.08113581214011646
1690839815785161700,4.27916162109375,0.25200959847569465,0.05852518113963306,-0.11557109264009631
1690839815795201800,4.289201904296875,0.24086919578015803,0.08043764640865847,-0.10824982810760847
1690839815805241900,4.299241943359375,0.2664472891509533,0.09539331480972468,-0.06486234827190637
1690839815815283000,4.309282958984375,0.23476561820805072,0.11736236910419538,-0.012918965808534993
1690839815825322800,4.31932275390625,0.2103361103504896,0.12287561610033734,0.027056815020693466
1690839815835362800,4.32936279296875,0.21213000802993773,0.11731425564615056,0.08175231833695433
1690839815845404000,4.33940380859375,0.1882160484790802,0.10185661080600693,0.09707388830780983
1690839815855444000,4.34944384765625,0.15668226157426834,0.0777060112213716,0.07729701942852697
1690839815865514800,4.3595146484375,0.2051987474620342,0.04696945737516507,0.04356604213984683
1690839815875554800,4.369554931640625,0.1835270138800144,0.01998153373906389,-0.014822907725226831
1690839815885595000,4.379594970703125,0.18203180688619613,-0.007242262745834886,-0.05991299136937595
1690839815895638800,4.389638671875,0.17915654371082781,-0.03826731467721983,-0.08508594713853672
1690839815905679600,4.3996796875,0.1802823328703642,-0.05077175400126725,-0.07274034707143437
1690839815915719700,4.4097197265625,0.16310849522948265,-0.07040153342690318,-0.04074055922322441
1690839815925759700,4.419759765625,0.13078326568603516,-0.07956502829259261,0.00562887729902286
1690839815935800800,4.42980078125,0.1332861884176731,-0.0839182002671063,0.04897441768913995
1690839815945841000,4.4398408203125,0.1261760641515255,-0.09491787931770086,0.06957331157498993
1690839815955881000,4.449880859375,0.11948913373351096,-0.08009232183601707,0.0694709426124813
1690839815965920800,4.459920654296875,0.14121347428560257,-0.06130555083947256,0.03239375560185872
1690839815975961600,4.469961669921875,0.16815993340015412,-0.04343487177453935,-0.0041081157388398425
1690839815986001700,4.480001708984375,0.18074118255376814,-0.027571678340807555,-0.03306417937644292
1690839815996041700,4.490041748046875,0.19587211619019507,-0.0029215682688169178,-0.05698218948133289
1690839816006082800,4.500082763671875,0.1924684452265501,0.018193609142675995,-0.0474607160574058
1690839816016152800,4.51015283203125,0.194177002710104,0.044531909763626754,-0.030142277747485784
1690839816026194000,4.52019384765625,0.21432488772571084,0.04546977513562887,-0.018591294090216978
1690839816036234000,4.53023388671875,0.20218787520825862,0.058645227322727436,-0.001786737286299467
1690839816046273800,4.540273681640625,0.20355156477689743,0.07104817903367802,0.018839377966616302
1690839816056314600,4.550314697265625,0.20703706880509853,0.06720363243473694,0.03138649652176537
1690839816066354700,4.560354736328125,0.2050122849792242,0.05833301956839859,0.019746724902768617
1690839816076394800,4.570394775390625,0.20465280401706695,0.05317823062110692,0.00740707965241745
1690839816086434800,4.580434814453125,0.19263503396511078,0.03462713154396042,-0.0039849140508566045
1690839816096476000,4.590475830078125,0.19004501747190952,0.0301983918488957,-0.026608317767945117
1690839816106516000,4.600515869140625,0.19463000717461107,0.009972053035907447,-0.027639062754902986
1690839816116555800,4.6105556640625,0.18229484173655508,-0.002126563699916005,-0.025988322706078176
1690839816126595800,4.620595947265625,0.16156243483126162,-0.010802749972697347,-0.01588467004660051
1690839816136636700,4.63063671875,0.16923779176473616,-0.02767607029704377,-0.005273634120565839
1690839816146676700,4.6406767578125,0.14875906735956668,-0.03552738658562302,0.0013203390506794676
1690839816156716800,4.650716796875,0.15429273608922958,-0.04552914064005017,0.0009991905088914791
1690839816166787800,4.660787841796875,0.15411913308799266,-0.05573125783847645,0.008154555285163224
1690839816176828000,4.670827880859375,0.15931319459974766,-0.05439705009264871,0.010637060849857516
1690839816186869000,4.680868896484375,0.15611059916615486,-0.047094490260630846,0.007147232272988185
1690839816196908800,4.69090869140625,0.17100655500292777,-0.03258603590410203,0.00619103665985167
1690839816206948900,4.700948974609375,0.1808043109178543,-0.0244449611550197,-0.0054617308672139184
1690839816216989700,4.71098974609375,0.1795277151107788,-0.007324351538717746,-0.012254994607623667
1690839816227029800,4.72102978515625,0.18064882809519767,0.0011215148432180285,-0.009486424372610054
1690839816237069800,4.73106982421875,0.18971242451667786,0.012267360898852348,-0.007468806077283807
1690839816247110000,4.74110986328125,0.1878717650860548,0.017991510699316857,-0.011354584302334114
1690839816257151000,4.75115087890625,0.19113982697129248,0.03417962523847818,-0.006209695694549009
1690839816267190800,4.761190673828125,0.1951741970539093,0.03651164838261902,-0.00020846425206400452
1690839816277230800,4.77123095703125,0.19937632491886614,0.038300340163987125,0.0031313294288236645
1690839816287271700,4.781271728515625,0.1925204676747322,0.04017431734232232,-0.0012933231795905157
1690839816297311700,4.791311767578125,0.19226269352138042,0.04299604196585714,0.0006973899841454113
1690839816307382800,4.8013828125,0.1906681178063154,0.038877336334343995,0.0009559039230138296
1690839816317422800,4.8114228515625,0.18758184222877025,0.02208471656339243,0.013903031242708674
1690839816327463000,4.821462890625,0.18733809660077094,0.015903890770301223,-0.0039992257039994
1690839816337502700,4.831502685546875,0.19142974982857702,0.005698175108991563,-0.006867903874954208
1690839816347543800,4.841543701171875,0.18085048814713953,0.00049646001374349,0.0006301648294320329
1690839816357584000,4.851583984375,0.17565175046026707,-0.004640939407330006,-0.009121281425468622
1690839816367623700,4.861623779296875,0.17328151419758794,-0.01707211256576702,-0.011360018529277293
1690839816377664800,4.871664794921875,0.16536416520178318,-0.025826003717258572,-0.004260246693785302
1690839816387704800,4.881704833984375,0.16701310145258902,-0.03186698264824226,-0.019610832696571014
1690839816397745000,4.891744873046875,0.17523323278725148,-0.03270343347238377,-0.01309061431470327
1690839816407784700,4.90178466796875,0.16997019769251345,-0.03262101588593796,-0.007251729260501451
1690839816417825800,4.91182568359375,0.16469722572565076,-0.02557758191414177,0.0048153826587833464
1690839816427865900,4.921865966796875,0.17168635396063328,-0.010600121806375682,0.008908652454940602
1690839816437905700,4.93190576171875,0.1701379554748535,-0.004305350777413695,0.008872814527401351
1690839816447946800,4.94194677734375,0.1744295151889324,-0.00231899926578626,0.009828429614403285
1690839816458016800,4.952016845703125,0.17707564578354357,0.001357077164761722,-0.006445070215602754
1690839816468057900,4.962057861328125,0.18840718713700771,0.009465473486948758,-0.0023630895692622286
1690839816478097700,4.97209765625,0.19092296935021877,0.02086944075580686,-0.007680850525922141
1690839816488137700,4.9821376953125,0.19090952534675598,0.022334636203851548,-0.003271747113089077
1690839816498178800,4.9921787109375,0.19659341620206833,0.01820215777531266,-0.0009107718690996989
1690839816508219000,5.002218994140625,0.19405717572271822,0.01771331481244415,-0.006761534019940882
1690839816518258700,5.0122587890625,0.19601824666261672,0.028004334137029945,-0.006348952897367416
1690839816528298800,5.022298828125,0.19349486566483973,0.03382728640316054,0.0007269448721926891
1690839816538339800,5.03233984375,0.18663900842070577,0.020020276580564676,0.005585714581553475
1690839816548380000,5.0423798828125,0.17095570159852505,0.008510328186582773,0.006817018504510633
1690839816558419700,5.052419677734375,0.17367782003879545,0.010908968559838831,-0.0016165135522373019
1690839816568460800,5.062460693359375,0.17729834862351415,0.01424092599414289,-0.005195828777155838
1690839816578500900,5.0725009765625,0.1722381426244974,0.0026813480384647844,-0.002580033955303952
1690839816588540700,5.082540771484375,0.17959025895297526,-0.008420494478661566,-0.0019419272771890972
1690839816598580700,5.092580810546875,0.17690788800120352,-0.009056801354512572,-0.009279846116955742
1690839816608651800,5.10265185546875,0.17197803038358686,-0.01652932919226587,-0.015538948181737214
1690839816618691600,5.112691650390625,0.17811667926907537,-0.018813184079434723,-0.01096625627160538
1690839816628732700,5.122732666015625,0.17302315552234648,-0.018725670192763208,-0.005089336195378564
1690839816638772700,5.132772705078125,0.1785474719017744,-0.022776699149236083,0.006120163380727172
1690839816648812800,5.142812744140625,0.1762812805354595,-0.006812931417860091,0.009576258651353418
1690839816658854000,5.15285400390625,0.1764040301322937,0.0013340616153553128,0.008824531535175628
1690839816668893700,5.162893798828125,0.17143559406995773,-0.004118358571641147,0.0005950752497417852
1690839816678933800,5.172933837890625,0.1785901419997215,-0.0031926220288500187,-0.0023289133050246164
1690839816688973800,5.182973876953125,0.1881453213304281,0.00814028929779306,-0.009120304177934304
1690839816699015000,5.193014892578125,0.18857669848501682,0.008413863808475435,-0.004242569473199546
1690839816709054700,5.2030546875,0.1869213324934244,0.008808781410194933,-0.008535548251162981
1690839816719094800,5.2130947265625,0.18901508990228175,0.009073515027295798,-0.022615256943251005
1690839816729135900,5.223135986328125,0.18318623761832714,0.00692459336509928,-0.01658304127403535
1690839816739175700,5.23317578125,0.18454642005562782,0.016075192216597495,-0.0038928421492542835
1690839816749215700,5.2432158203125,0.18052023327946662,0.018225008927937596,0.010375729332817718
1690839816759286800,5.253286865234375,0.18128654147684573,0.011117807271238416,0.011605243728309868
1690839816769326600,5.26332666015625,0.1744166557073593,0.012213420488219707,0.007306829581758939
1690839816779366700,5.27336669921875,0.16500351519584655,0.004361026487406343,0.006147928170487284
1690839816789407700,5.28340771484375,0.17833645949959753,-0.0037537630429491397,-0.0019761817440623417
1690839816799447800,5.29344775390625,0.17251462147831917,0.0009450988303869963,-0.003030289340298623
1690839816809488000,5.30348779296875,0.1761152763187885,-0.0037925241507589815,-0.0025519997374853116
1690839816819528700,5.31352880859375,0.17357611322999,-0.014255173715204,-0.009898124716593883
1690839816829568800,5.32356884765625,0.1750748273551464,-0.00039953897790983314,-0.013886116640525869
1690839816839608800,5.33360888671875,0.18285481370687484,-0.009872118059080094,0.004443722635065205
1690839816849648600,5.343648681640625,0.18015607614219187,-0.022201474810857325,0.005091510456977994
1690839816859689700,5.353689697265625,0.17475918553471564,-0.01223314810199663,0.004954416670138016
1690839816869729800,5.363729736328125,0.1757932047575712,-0.009586761779058725,0.0007241592600621515
1690839816879769900,5.373769775390625,0.1757756691008806,-0.002436780426558107,0.008395127141964621
1690839816889800200,5.38380029296875,0.18159399999082088,-0.005179777258075773,0.005157091643876629
1690839816899840300,5.39384033203125,0.17260346880555152,0.001865154551062733,-0.0013205902124289422
1690839816909911300,5.403911376953125,0.18067045540511606,0.0052673094110563395,-0.006997209935093997
1690839816919951400,5.413951416015625,0.18530220685899257,0.009213197492621839,-0.006491837104177102
1690839816929991400,5.423991455078125,0.19038754729926585,0.005232694755401462,-0.006564970839046873
1690839816940032500,5.434032470703125,0.1814098755955696,0.0024002295421436427,-0.009188801695237635
1690839816950072600,5.444072509765625,0.18081541683375835,0.006591087094414979,-0.0076366414914373305
1690839816960112400,5.4541123046875,0.18172493289411068,0.011220573525968938,-0.007497698811627924
1690839816970152400,5.46415234375,0.18203648306131362,0.0002953296847641468,0.006079187482944689
1690839816980193300,5.474193359375,0.17576514770686624,0.004368680070899427,0.002658621325070271
1690839816990233300,5.4842333984375,0.17263386394381522,0.009432411467563361,0.002932413889816962
1690839817000273400,5.4942734375,0.19030045353770256,0.009919555663689971,-0.004243198519217548
1690839817010314500,5.504314453125,0.18312603186368942,0.0018379012179560957,-0.014284384968312223
1690839817020354600,5.5143544921875,0.17924188390672205,0.0044721221790648994,-0.007382418993551982
1690839817030394400,5.524394287109375,0.175806648761034,0.0015660072077065706,-0.0019927070455334614
1690839817040434400,5.534434326171875,0.17999767071008682,-0.01245977819841355,0.001521041263040388
1690839817050475300,5.544475341796875,0.181793321955204,-0.009459080278780311,0.003511131659802049
1690839817060545500,5.554545654296875,0.18253917188644408,-0.007293737204745411,0.00005073010681662708
1690839817070586400,5.56458642578125,0.17445348058640955,-0.004650912812072783,0.001679016295238398
1690839817080626400,5.57462646484375,0.17219839513599872,0.004686422516871244,0.0026285036063753067
1690839817090666500,5.58466650390625,0.17577917623221873,0.0002579385501332581,-0.00022028712059836834
1690839817100707600,5.59470751953125,0.1700818413734436,-0.010929207630269229,-0.0023120340938156004
1690839817110747400,5.604747314453125,0.180541860589385,0.002465038406662643,-0.002393005216913298
1690839817120787500,5.614787353515625,0.1794838759690523,0.007025733918324112,0.0008304731745040043
1690839817130827500,5.62482763671875,0.17857903608381748,0.006753949505928903,0.0025185449924552813
1690839817140868400,5.634868408203125,0.18396014460027216,0.002043196265399456,-0.004461992369050858
1690839817150908400,5.644908447265625,0.1791658960610628,0.005576886816881597,0.0020857932981103657
1690839817160948500,5.654948486328125,0.18440204314887523,0.007772917290125042,-0.0031003623267577495
1690839817170989600,5.664989501953125,0.1857505351483822,0.015920092986430972,0.002006833752297098
1690839817181029400,5.675029296875,0.18725334092676638,0.0073330463018268345,0.003276843413314782
1690839817191069400,5.6850693359375,0.1880102967739105,0.010047712088003754,-0.003581708111404441
1690839817201140500,5.695140380859375,0.18128712599873542,0.00953806379912421,0.0010528472209116444
1690839817211180500,5.7051806640625,0.18443886802792547,0.003733944097626954,0.003955570367007749
1690839817221221400,5.715221435546875,0.18175357446670531,0.008529909669887275,-0.0023393753335345536
1690839817231261400,5.725261474609375,0.16948972069919108,0.008174374230485408,-0.003111620081355795
1690839817241301500,5.735301513671875,0.1868552815198898,0.0023131540468893943,0.00517803282556124
1690839817251341300,5.74534130859375,0.1798246522307396,-0.0025318748314864933,0.0034414411241887135
1690839817261382400,5.75538232421875,0.17668109350800512,-0.0010773103753104806,0.008263143925904297
1690839817271422500,5.76542236328125,0.18221300867199897,-0.007693659775145352,0.002231668042205274
1690839817281462500,5.775462646484375,0.1669452969133854,-0.005170150913204998,-0.00998883520734962
1690839817291502600,5.785502685546875,0.18085399527847765,-0.0018570260435342787,-0.003685286075243493
1690839817301543400,5.79554345703125,0.18009353229999542,-0.00484564993288368,-0.004185336560360155
1690839817311583500,5.80558349609375,0.16945289582014084,-0.0001903897392563522,0.0038846365807345133
1690839817321623300,5.815623291015625,0.18619535630643366,-0.0006645648559555411,-0.0038281525865662843
1690839817331664400,5.825664306640625,0.17945231178700924,0.0061745969817042345,-0.004671973866410553
1690839817341704400,5.835704345703125,0.1842337008446455,0.009046042498480528,-0.001898932381434133
1690839817351775500,5.845775390625,0.1812397797256708,-0.0007105046232230961,0.004532442098134197
1690839817361815600,5.855815673828125,0.18527999502718448,0.0024152627144940196,0.008044332951406248
1690839817371855600,5.865855712890625,0.18468728983104227,0.004295852296706289,0.0012446936983149498
1690839817381896400,5.875896484375,0.19098142153918743,-0.009571418079454452,0.005694617745303549
1690839817391936300,5.885936279296875,0.1805173106700182,0.0017526888862252235,-0.007078500718600117
1690839817401976300,5.895976318359375,0.18531506634056566,-0.0008952318066731095,-0.012594145167805253
1690839817412016400,5.906016357421875,0.18038345515727996,0.0036837482803501187,-0.006187319465959444
1690839817422057500,5.916057373046875,0.18367665148377418,-0.003766476394049823,-0.004640085457381792
1690839817432097500,5.92609765625,0.17410042936503886,-0.003470470855850726,-0.004167439002421451
1690839817442137600,5.9361376953125,0.18098200557231903,0.0015608195759356021,-0.003868420664872974
1690839817452178400,5.946178466796875,0.18472236114442347,0.008264354068879038,0.0018166164013324305
1690839817462218500,5.956218505859375,0.18277941038310527,-0.0013744666909798978,0.007230398778105154
1690839817472258300,5.96625830078125,0.1776929008990526,-0.004318685183022171,0.009783471661247312
1690839817482298400,5.97629833984375,0.18143501003682613,-0.009811090320535003,-0.002041583121981239
1690839817492339500,5.98633935546875,0.1811392419606447,-0.006993146822974085,-0.0075297641755256335
1690839817502409500,5.996409423828125,0.18398177191019058,0.000020841858629137275,0.003399612418102333
1690839817512450600,6.006450439453125,0.17814356727600097,0.005172543799690902,-0.002966155187570257
1690839817522490600,6.01649072265625,0.18622049074769018,0.0035577472805045545,-0.00803376018339768
1690839817532530400,6.026530517578125,0.1718459284365177,0.0015648198976181446,-0.005416860249848105
1690839817542571300,6.0365712890625,0.18276362829208373,0.0034275450295768676,-0.002784368879877729
1690839817552611300,6.046611328125,0.16734218727648256,0.00805111317699775,-0.000032774325017817315
1690839817562651400,6.0566513671875,0.18035832071602342,-0.0008653846576809883,0.007945008754287846
1690839817572691500,6.06669140625,0.17796470357775687,-0.005779514983203261,0.001901833299640566
1690839817582732500,6.076732666015625,0.1908382136762142,0.0029165267675183714,0.0065418422668532
1690839817592772600,6.086772705078125,0.1829132658958435,0.006882452990114689,0.01172543147529941
1690839817602812400,6.0968125,0.1790314560264349,0.003464442973863333,0.0024508272182196377
1690839817612853500,6.106853515625,0.17245500024557112,0.004786485357861966,-0.0010274433515965937
1690839817622893300,6.116893310546875,0.1790402238547802,0.0001895494890399277,0.0007970013048092369
1690839817632933400,6.126933349609375,0.18143442551493644,0.0036421741609461602,-0.009430890797334723
1690839817642973400,6.136973388671875,0.1739507917612791,0.002090761734172702,-0.01178884753375314
1690839817653044500,6.14704443359375,0.1797849047422409,-0.0020139701709151266,-0.005953419378539547
1690839817663085600,6.15708544921875,0.18726210875511168,-0.00009964271588250993,-0.0010147425585833843
1690839817673125600,6.167125732421875,0.1817237638503313,-0.00002138984790071845,0.0010673107127484398
1690839817683165200,6.177165283203125,0.18381401412785053,0.0009920249783433974,0.0017721664798969867
1690839817693205200,6.187205322265625,0.17992518999576568,0.006289035407919436,0.013941929347836411
1690839817703246300,6.197246337890625,0.18561258798241614,0.0012449037608690558,0.013147317504580132
1690839817713286400,6.207286376953125,0.19952771608829498,-0.0017864450253546238,0.013418220567563548
1690839817723326500,6.217326416015625,0.10734802956283092,0.008441592065617442,0.020006960441265254
1690839817733366500,6.227366455078125,0.2351408812612295,0.0034464141268283127,0.0024484434648882596
1690839817743407400,6.237407470703125,0.19219605802595613,0.00530842687273398,-0.0016600786993280052
1690839817753447400,6.247447509765625,0.18471885401308535,-0.0008007584562525153,-0.011368871980946278
1690839817763487200,6.2574873046875,0.16901275083720682,-0.00011241086591035126,-0.025487889770115724
1690839817773528300,6.2675283203125,0.20508301212787627,-0.00808729873523116,-0.028469745991961098
1690839817783568400,6.277568359375,0.1679775625705719,-0.0032908034400083125,-0.019686500881821847
1690839817793608400,6.2876083984375,0.19925240627825258,0.0016333916218020021,-0.014091512152669019
1690839817803679500,6.297679443359375,0.1606394747674465,0.008111044936999679,-0.0013713522852864116
1690839817813719600,6.307719482421875,0.20238135195374488,0.008435107525903731,0.013705462843994608
1690839817823760400,6.317760498046875,0.14969605594873428,0.004809756635595113,0.022283408340113237
1690839817833800200,6.32780029296875,0.17661854966580867,0.013205883857980369,0.030535473749577068
1690839817843840300,6.33784033203125,0.17137421927154065,0.009536693825945257,0.026427504141209646
1690839817853880300,6.34788037109375,0.20220015016794204,0.0007584171518683433,0.007680924732802668
1690839817863921400,6.35792138671875,0.14414543608427047,0.0006703187433071434,-0.006445778605900705
1690839817873961500,6.36796142578125,0.21463468432724475,0.0008954875349998473,-0.025923354011354965
1690839817884001500,6.37800146484375,0.1730488744854927,0.000753284319024533,-0.03218746047399472
1690839817894048300,6.38804833984375,0.18906652782857417,0.008148381272703408,-0.02997299016176257
1690839817904088300,6.39808837890625,0.1714139667600393,0.0057399866904132065,-0.014728928706794975
1690839817914128400,6.40812841796875,0.17156360436379908,0.0033251075684092935,-0.003911542853969149
1690839817924168400,6.41816845703125,0.16691957795023918,0.0040110440059565,0.011199539871094748
1690839817934209300,6.428209228515625,0.17334814969301224,0.0017074067060835658,0.022596771438489666
1690839817944279300,6.438279296875,0.17080372590720652,-0.00009103928431868553,0.023207135588908568
1690839817954320100,6.448320068359375,0.1733487342149019,-0.009296053470484912,0.006892199207638623
1690839817964360200,6.458360107421875,0.16212766749858856,-0.007690956361405551,-0.0032685733418911693
1690839817974400300,6.468400146484375,0.19370529354512692,-0.00003967442326247692,-0.012730777159519494
1690839817984441300,6.47844140625,0.19086685524880884,-0.004512088863272219,-0.02999990100157447
1690839817994481400,6.4884814453125,0.18054010702371595,-0.0054897017237730324,-0.02740568325729109
1690839818004521500,6.498521484375,0.17574936561584473,-0.0005306545442901551,-0.0210643833725946
1690839818014561500,6.5085615234375,0.18651859691143036,0.005551843707170337,-0.005126027502043871
1690839818024602400,6.518602294921875,0.1763385636806488,0.01046522511402145,0.009969582517608069
1690839818034642200,6.52864208984375,0.18096856156885624,0.013425992882065474,0.01713127257421147
1690839818044682200,6.53868212890625,0.1788701279848814,0.005246650215517729,0.024836654753191394
1690839818054723300,6.548723388671875,0.17841887708604334,0.00728630281696096,0.020018162255291825
1690839818064763400,6.558763427734375,0.18904606956243514,0.00860184239493683,0.007706397100776666
1690839818074803500,6.568803466796875,0.18695874189436434,-0.0017264219338074325,-0.0036756380391307175
1690839818084843500,6.578843505859375,0.19040742104351518,-0.004612425698898732,-0.010530627633584663
1690839818094914300,6.588914306640625,0.18532558773458002,0.0044148573001846665,-0.014259647819277597
1690839818104955100,6.598955078125,0.1811398264825344,0.008147778484504669,-0.018791875288280423
1690839818114995200,6.6089951171875,0.17380992198586462,0.002531436440069228,-0.012461193837365134
1690839818125035300,6.61903515625,0.16618074228167534,0.002293188971094787,0.003519110611925134
1690839818135075300,6.629075439453125,0.16648060201108456,-0.00007533025853335857,0.008326574825734132
1690839818145116400,6.639116455078125,0.17440847240090368,0.004016067240945995,0.008975604185840346
1690839818155156500,6.649156494140625,0.16767478023171423,-0.007043342640250921,0.007717620606045238
1690839818165196300,6.6591962890625,0.17635259220600127,-0.0073820913416333496,-0.0037694572273583617
1690839818175237000,6.669237060546875,0.18443243828713893,-0.007381817346997559,-0.008803986504068597
1690839818185277200,6.679277099609375,0.1874222677528858,-0.007045991255063563,-0.004535240268352209
1690839818195317200,6.689317138671875,0.1880196491241455,-0.004248834817204624,-0.008330175571906148
1690839818205357300,6.699357421875,0.18637129739522934,0.0050868565439246595,-0.010130484725831775
1690839818215398400,6.7093984375,0.18621756813824175,0.014957367167808114,-0.005700443556247046
1690839818225438500,6.7194384765625,0.21314824516177175,0.012871610402315855,-0.004966184739745222
1690839818235478500,6.729478515625,0.0970271265566349,0.009212539905495941,0.0017070048472844063
1690839818245549300,6.73954931640625,0.1574813029974699,0.009975596699863672,0.011019269667053595
1690839818255589000,6.749589111328125,0.23349662118554113,0.00604879691125825,0.004874717338808113
1690839818265630200,6.759630126953125,0.17528876236677168,0.006382029187306761,0.010410768680158071
1690839818275670300,6.769670166015625,0.176491123893857,0.006730641695577651,0.016386746950377708
1690839818285710300,6.77971044921875,0.1805383534580469,0.00907130480390042,0.00728094736347557
1690839818295750400,6.78975048828125,0.18578151480853555,-0.002816281263437122,0.0028899915286863687
1690839818305791500,6.79979150390625,0.18728081345558165,-0.0019183825756423174,-0.002173202153504826
1690839818315831300,6.809831298828125,0.1575116981357336,-0.005337470304127782,-0.014379744234721874
1690839818325871000,6.81987109375,0.19507541285455227,-0.00890239624409005,-0.02116882556118071
1690839818335912200,6.829912109375,0.1790665273398161,-0.00253624047935009,-0.023597436381014993
1690839818345952300,6.8399521484375,0.17367898908257484,0.0041363508860580624,-0.01950713029350154
1690839818355992300,6.849992431640625,0.1721779368698597,0.006930493382923304,-0.005611926164221949
1690839818366032400,6.860032470703125,0.19850304921567438,0.005597783474437892,0.00949719864084036
1690839818376073500,6.870073486328125,0.14133037866353987,0.00773037505634129,0.022123007313744163
1690839818386113300,6.88011328125,0.19129940144717691,-0.0009841156665235757,0.030980189876351504
1690839818396184300,6.890184326171875,0.18725334092676638,-0.0038628677069209513,0.0229090431249002
1690839818406224100,6.90022412109375,0.16091770718693732,-0.005003416044171899,0.012143588388711213
1690839818416264200,6.91026416015625,0.19069559033513067,-0.0013756722673773764,0.0006008885025978088
1690839818426305300,6.92030517578125,0.18441373358666896,0.0008448898589238524,-0.02385682253614068
1690839818436345300,6.930345458984375,0.2007248169183731,0.006708776923641562,-0.03669337989138439
1690839818446385400,6.940385498046875,0.18067045540511606,0.008194850762933492,-0.037443905997741965
1690839818456425200,6.95042529296875,0.1758808830410242,0.008110460415109991,-0.02247030464776326
1690839818466466300,6.96046630859375,0.199822315120697,0.004164060876891017,-0.006838900401111459
1690839818476506000,6.970506103515625,0.15971885279119014,0.013111611436959355,0.00772075784462504
1690839818486546200,6.980546142578125,0.17378887919783592,0.00337449966808781,0.03354381611954886
1690839818496587300,6.990587158203125,0.18621756813824175,0.0050609549176879225,0.03633432818748988
1690839818506627300,7.00062744140625,0.1797930880486965,-0.0011174231899902223,0.027386928324471226
1690839818516667400,7.01066748046875,0.1666314086586237,0.006795560157950967,-0.0005739319970132783
1690839818526707500,7.02070751953125,0.1934258920818567,0.00881442569969222,-0.015453762107825604
1690839818536748300,7.030748291015625,0.17427227880060672,0.00029370398325845597,-0.026802858525933695
1690839818546819300,7.0408193359375,0.19402210440933704,-0.0026503683783113954,-0.03414825285268016
1690839818556859100,7.050859130859375,0.1814455314308405,-0.00025079642329365015,-0.02951712701988872
1690839818566899200,7.060899169921875,0.17455460287332533,-0.0020629056128673253,-0.016057272967416793
1690839818576939300,7.070939208984375,0.1827776568174362,0.0011008921802975237,0.00987044669180177
1690839818586980400,7.08098046875,0.1672106698513031,0.00659406450279057,0.02302730834286194
1690839818597020400,7.0910205078125,0.1724468169391155,0.0011692447087727487,0.028782387571129945
1690839818607060200,7.101060302734375,0.17484101859927176,-0.0037221257956698535,0.03324236722125206
1690839818617101300,7.111101318359375,0.16915128252506256,-0.005163794237654656,0.0163779928217642
1690839818627141000,7.12114111328125,0.20206980178654194,-0.00009673837274312972,0.0015984390394296495
1690839818637181200,7.13118115234375,0.1851613370835781,-0.0006720540426671505,-0.012536400798312388
1690839818647221200,7.14122119140625,0.18381226056218147,0.0034329153244383633,-0.023901588693051597
1690839818657262300,7.151262451171875,0.19338556007146834,0.003416530445218086,-0.026771600304567253
1690839818667302400,7.161302490234375,0.19233225162625311,-0.0005419979222118854,-0.017212288221437482
1690839818677342500,7.171342529296875,0.1830523821055889,0.009230714883003383,-0.0021134302237071096
1690839818687383300,7.18138330078125,0.1809603782624006,0.005569488961715251,0.015655821735278005
1690839818697453300,7.191453369140625,0.17587737590968608,0.009940689783263951,0.020925637055607512
1690839818707494100,7.201494140625,0.18127134390771388,-0.004461472920887172,0.016770307474443687
1690839818717534200,7.2115341796875,0.17559212922751902,-0.008984466770663857,0.019016151314118178
1690839818727574300,7.22157421875,0.17814064466655252,0.0022780644671991468,0.009648338648519711
1690839818737614300,7.2316142578125,0.1788958469480276,-0.0028280630327761173,0.002276630561938509
1690839818747655400,7.241655517578125,0.17036708805561065,0.012146182204596697,-0.011064728802064201
1690839818757695200,7.2516953125,0.1848790130108595,0.002769793506897986,-0.0057163135538809
1690839818767735300,7.2617353515625,0.18786825795471668,0.004278499303106218,-0.00783483551123645
1690839818777776000,7.271776123046875,0.1817278555035591,-0.005800630836468189,-0.003847017117240466
1690839818787816200,7.281816162109375,0.1811222908258438,-0.0017304770544171331,0.004325531623983988
1690839818797856300,7.291856201171875,0.1800672288149595,0.00008088321648538113,0.0035529032836726397
1690839818807896300,7.301896240234375,0.17647066562771796,0.0017008491011336446,0.010146062462520785
1690839818817937400,7.3119375,0.17826280974149702,-0.0000681515990756452,0.00976670318953693
1690839818827977200,7.321977294921875,0.17945874152779578,0.0006355944897979498,0.003558482499443926
1690839818838048300,7.33204833984375,0.18993103570342063,-0.003198996970709413,0.008555195949837799
1690839818848088300,7.34208837890625,0.19172493338286875,0.0070690068044699725,-0.0007260435440053697
1690839818858128400,7.35212841796875,0.18005436933338642,0.009669800420012324,-0.004589647611510008
1690839818868169200,7.362169189453125,0.1839461160749197,0.0023655600875616073,0.009049030181654961
1690839818878209300,7.372209228515625,0.17511515936553476,0.001844404023978859,0.004303999070543796
1690839818888249300,7.382249267578125,0.17975684769153594,0.012428159217443316,-0.0017628358209040014
1690839818898267400,7.392267333984375,0.18843992036283014,0.008093344883527606,0.0024656229285523294
1690839818908308500,7.40230859375,0.18619886343777178,0.003896112389396876,0.00024929858595132827
1690839818918348500,7.4123486328125,0.1818628800600767,-0.0028723405659198758,0.0021095531996106727
1690839818928388400,7.422388427734375,0.17737725907862184,-0.00095187563104555,0.00040846206988207995
1690839818938429400,7.432429443359375,0.1797755523920059,-0.0012779657802544533,-0.008197301873279501
1690839818948469500,7.442469482421875,0.17783143258690834,-0.006167874979972839,-0.0013731560833053662
1690839818958509600,7.452509521484375,0.1836708062648773,-0.0020211122977547348,0.008607282330101588
1690839818968549400,7.46254931640625,0.17858312773704527,0.0029329481793567537,0.009620207390934228
1690839818978590500,7.472590576171875,0.17214871077537536,-0.0011196516796946525,0.010911242715315893
1690839818988661500,7.48266162109375,0.1767833848387003,-0.0006489654280245304,0.009538114031474105
1690839818998701600,7.49270166015625,0.18097148417830466,0.0007779803688637911,-0.003000267519726185
1690839819008741400,7.502741455078125,0.18560849632918833,0.00550082590598613,-0.005154888270347146
1690839819018781400,7.512781494140625,0.18770634539127348,0.0014254114269278942,-0.003803140301251551
1690839819028822500,7.522822509765625,0.18396423625349997,-0.000704239279218018,0.0024008962624240664
1690839819038862600,7.532862548828125,0.17334230447411536,-0.008427380877174437,0.004493216341087827
1690839819048902400,7.54290234375,0.17798165471255778,0.00833917287075892,0.006557396029011579
1690839819058943500,7.552943603515625,0.17184475939273833,-0.0008401040859520435,0.008270185588044114
1690839819068983600,7.562983642578125,0.18321546371281147,-0.0046365189605392515,0.008954989514430052
1690839819079023400,7.5730234375,0.18635785339176653,0.006141334032919258,0.0072524016890034545
1690839819089063400,7.5830634765625,0.17947277005314827,0.0015921280296519397,0.006907538340665632
1690839819099104500,7.5931044921875,0.18471067070662975,0.0020671251302585006,0.0032791232770134227
1690839819109144600,7.60314453125,0.18770283825993536,0.014186437594238668,0.002517165886121802
1690839819119184400,7.613184326171875,0.18815584272444247,0.0016046769839711487,-0.0035833509375748688
1690839819129225500,7.6232255859375,0.1924988403648138,0.005172050609346479,-0.004386232852254761
1690839819139295500,7.63329541015625,0.18098200557231903,0.0019241547293029724,-0.008418958967056824
1690839819149336600,7.643336669921875,0.17829203583598136,0.007428706962335854,-0.0073362965631939
1690839819159376400,7.65337646484375,0.18652268856465815,0.0023668387291952966,0.002481039693392813
1690839819169416400,7.66341650390625,0.17185995696187018,0.011697561654262244,0.004551622864283854
1690839819179456500,7.67345654296875,0.18398352547585964,0.001929086632747203,0.008204966873215744
1690839819189497300,7.683497314453125,0.17649872267842293,0.003321417773980647,0.0037652171603695024
1690839819199537400,7.693537353515625,0.1745516802638769,0.001921451315563172,0.006471812662878073
1690839819209577500,7.703577392578125,0.17769056281149387,0.0008832491079345345,0.0062438639672764105
1690839819219618600,7.71361865234375,0.18172902454733847,0.0027715653388760983,0.0006836862566007766
1690839819229658400,7.723658447265625,0.18457096997499464,0.004975906982738525,-0.003367940921493573
1690839819239698400,7.733698486328125,0.170504450699687,0.00719928212063387,0.000060188629972981286
1690839819249738500,7.743738525390625,0.1743950283974409,0.01019815340936184,0.002544341587414965
1690839819259779300,7.753779296875,0.1881593498557806,0.008902779836580157,-0.0014866435198055113
1690839819269819400,7.7638193359375,0.18396423625349997,0.01561385831516236,0.0036159894069191065
1690839819279859500,7.773859375,0.18470716357529163,0.013170154957473278,0.006334148624702356
1690839819289930200,7.78393017578125,0.18350714013576505,0.004848462944477796,0.0035156891039106993
1690839819299970300,7.79397021484375,0.1794675093561411,0.014141502473969012,0.005921932828309945
1690839819310011400,7.804011474609375,0.17662614845037458,0.008359978196769952,0.008179173703189007
1690839819320051500,7.814051513671875,0.18919687620997427,0.0037652708176523445,0.0062707645322894676
1690839819330091500,7.824091552734375,0.1794762771844864,0.0011287117689847946,0.0008892861230764537
1690839819340132400,7.83413232421875,0.17827917635440826,0.007275105569511652,-0.00437322838185355
1690839819350172400,7.84417236328125,0.17648001797795296,0.01043437331803143,0.004014610502799041
1690839819360212500,7.85421240234375,0.18216975405216215,0.002326652849279344,0.0019271287127456162
1690839819370252300,7.864252197265625,0.1805254939764738,0.00015601254561915993,-0.0022090360852889714
1690839819380293400,7.87429345703125,0.17484101859927176,-0.005313322243560105,0.0012211118933279066
1690839819390333400,7.88433349609375,0.17918226267397402,-0.004061623415723443,0.0011679809085151645
1690839819400373500,7.89437353515625,0.17618892607688902,-0.0070592160628177225,-0.0006573542304569855
1690839819410413600,7.90441357421875,0.17394494654238224,0.0005853621399030089,-0.00668167428758461
1690839819420454400,7.914454345703125,0.17498948715925217,-0.0020677461847662926,-0.00482751491292729
1690839819430494500,7.924494384765625,0.1779769785374403,-0.0016436755537986754,0.000933549956488423
1690839819440565200,7.934565185546875,0.1676496457904577,0.004700706770550459,0.005247322644019732
1690839819450605300,7.944605224609375,0.18231062382757662,0.010860234047286211,0.003655664971825899
1690839819460645400,7.954645263671875,0.1902420013487339,0.010747001197468489,0.0007204871611203998
1690839819470686500,7.9646865234375,0.18276362829208373,-0.0006661174922250211,0.007240414423687616
1690839819480726500,7.9747265625,0.183662038436532,0.0020546675074845553,0.005629088503221282
1690839819490766600,7.9847666015625,0.19039573060572146,0.012395882649347186,-0.001501417538896203
1690839819500807400,7.994807373046875,0.18710662593245506,-0.0045572979781776666,0.004807163961353944
1690839819510847500,8.004847412109376,0.19159926117658613,0.001562500076368451,0.0006532397443428635
1690839819520887300,8.01488720703125,0.1779851618438959,0.005099752558115869,0.0016197934963565785
1690839819530927400,8.02492724609375,0.1814274112522602,0.008264792460296303,0.010748381445446284
1690839819540968400,8.034968505859375,0.17933540740907192,0.004620864733681083,0.004393258531374158
1690839819551008500,8.045008544921876,0.18023031042218207,-0.0016075813271105288,-0.0005287137489533052
1690839819561048600,8.055048583984375,0.19399404735863207,0.004426931330468505,0.008612911778222768
1690839819571089400,8.06508935546875,0.17798340827822684,0.00115096013341099,0.007543620312586426
1690839819581129500,8.07512939453125,0.16960428698956964,0.012237221488915383,0.007658648968912893
1690839819591200300,8.0852001953125,0.17843290561139583,0.0022217494363896547,0.004809701836667955
1690839819601240300,8.095240234375,0.18292437181174753,-0.00875955370729789,0.0007721305833896622
1690839819611280400,8.1052802734375,0.18068156132102012,0.008956501051504164,-0.0015655185839394106
1690839819621320400,8.115320556640626,0.17933540740907192,0.005516133072972297,-0.001664776565687498
1690839819631361500,8.125361572265625,0.18127894269227982,-0.0030641733435913918,-0.007216460442653624
1690839819641401600,8.135401611328126,0.17918226267397402,-0.001190196165256202,-0.0003199652274546679
1690839819651441700,8.145441650390625,0.177235220259428,0.005769614643696695,0.003210158827184932
1690839819661482500,8.155482421875,0.2186404128372669,0.0000025572832673788067,0.0002774561013560742
1690839819671522300,8.165522216796875,-0.12770225080549716,-0.5690862009499221,-0.4307804673371836
1690839819681562400,8.175562255859376,-0.546866405031085,-0.7877082744129001,0.7292997053902596
1690839819691602400,8.1856025390625,0.4498661664813757,0.25411767667084934,-0.09180056928107515
1690839819701643500,8.1956435546875,0.23061317470371723,0.06848042917121201,-0.23498068573083727
1690839819711683600,8.20568359375,0.13243863167762757,-0.019314977855421602,0.0066225873443763695
1690839819721723600,8.2157236328125,0.23598726895749567,0.23398151862565428,0.19796196460891513
1690839819731794400,8.22579443359375,0.357952437415719,0.28872761961799115,-0.10361340047861449
1690839819741834500,8.23583447265625,0.2174953344553709,0.030033026953041553,-0.10251482811956666
1690839819751875300,8.245875244140626,0.24073417122364044,0.22710958702955394,0.06403507626806386
1690839819761915400,8.255915283203125,0.26031448548436165,0.17453023561704903,-0.05292850277689285
1690839819771955500,8.26595556640625,0.25778116761445996,0.10887045335713773,-0.025291440182831137
1690839819781996500,8.27599658203125,0.24708207894563675,0.14006558289211243,-0.1184118598908186
1690839819792036600,8.28603662109375,0.254248901835084,0.1145409367416054,-0.09617672940553165
1690839819802076700,8.29607666015625,0.23436054453849792,0.11127316711731254,-0.07185535809756256
1690839819812116500,8.306116455078126,0.27091595899760723,0.1112763089224696,-0.05387995828283019
1690839819822157300,8.3161572265625,0.15845511646568775,0.10710176318418234,-0.011961044029192998
1690839819832197400,8.326197265625,0.22884265789985656,0.06823354173805564,0.011619884175015614
1690839819842237400,8.336237548828125,0.15077449883520602,0.04067797428183258,0.062409265164518724
1690839819852277500,8.346277587890626,0.13852058193981648,0.01767144843209535,0.07806682562408969
1690839819862318600,8.356318603515625,0.14043898278176783,-0.019055979859363286,0.0900959390539676
1690839819872358700,8.366358642578126,0.11178104357421398,-0.05168749887300655,0.07188022767733782
1690839819882429400,8.376429443359376,0.13813245940506458,-0.07478309124568477,0.030996885282825678
1690839819892456200,8.386456298828126,0.11189853247404098,-0.08431205842290074,-0.012500055409874766
1690839819902496300,8.396496337890625,0.1505447817325592,-0.10090641567539423,-0.057565035437163896
1690839819912537300,8.406537353515626,0.1692278548926115,-0.11115365065718069,-0.08924660134878941
1690839819922577400,8.416577392578125,0.12425532522201538,-0.1137341869359836,-0.08873306233608164
1690839819932617200,8.4266171875,0.16003274104595183,-0.10774795213323086,-0.07294200712337624
1690839819942658300,8.436658203125,0.13770458938181399,-0.09039775327844544,-0.037148503247741604
1690839819952698000,8.446697998046876,0.132549690836668,-0.06796435114154592,-0.0013397789700888096
1690839819962738200,8.45673828125,0.11899053656160831,-0.05543364486508071,0.023085390639072282
1690839819972778200,8.4667783203125,0.17065993352234363,-0.04191462167100981,0.040386096929479386
1690839819982819300,8.4768193359375,0.14377134207487105,-0.012413820164836942,0.04493785108285956
1690839819992859400,8.486859375,0.1776461391478777,0.00670234718285501,0.03720859940452501
1690839820002899500,8.4968994140625,0.18131693661510942,0.02833937477767467,0.016069913253281266
1690839820012940300,8.506940185546876,0.21374913366436957,0.05148191156461834,-0.0015989778955467044
1690839820022980000,8.51697998046875,0.2188368121922016,0.060896367250382895,-0.022472236309945583
1690839820033051100,8.527051025390625,0.2164841115862131,0.07214450463671236,-0.033860805080272255
1690839820043091200,8.53709130859375,0.24095921215116975,0.08118596229162067,-0.039361055597523224
1690839820053131300,8.54713134765625,0.22014263409376142,0.08651994373071938,-0.046136970340088006
1690839820063171300,8.55717138671875,0.22436463570296764,0.09161525757573545,-0.04013564756605774
1690839820073212400,8.56721240234375,0.23715689725875852,0.08889496576637029,-0.03255216103396378
1690839820083252200,8.577252197265626,0.21332710886001585,0.0851165066735819,-0.020724862919654696
1690839820093292300,8.587292236328125,0.22125673281550406,0.08721263870261609,-0.01851866724542342
1690839820103333000,8.5973330078125,0.19808745415210724,0.07220083793383092,-0.012171828102506697
1690839820113373200,8.607373291015625,0.20022095904946327,0.05920132683552801,-0.0018951752299908547
1690839820123413200,8.617413330078126,0.18111235395371914,0.050686048479191954,0.01511534334165044
1690839820133453300,8.627453369140625,0.1747135928273201,0.03274542771689594,0.024007272990653288
1690839820143494400,8.637494384765626,0.16351473794281482,0.01990101584875956,0.012396257108682765
1690839820153534500,8.647534423828125,0.1763864944756031,0.004543744376860559,0.002210807917267084
1690839820163574300,8.65757421875,0.15975333958268165,-0.006969108360260725,-0.00580684138154611
1690839820173615000,8.667614990234375,0.16852409053742884,-0.02303854668950662,-0.024909025869658215
1690839820183685400,8.677685302734375,0.15975392410457134,-0.0324359964415431,-0.03562540359999984
1690839820193726200,8.687726318359376,0.15169628985524178,-0.051577316496800626,-0.036084719074284656
1690839820203766300,8.697766357421875,0.15452829841077326,-0.05315917886076495,-0.033399279382592066
1690839820213806300,8.707806396484376,0.1501432151943445,-0.055759753280598665,-0.01614387353863567
1690839820223847400,8.717847412109375,0.1514163038700819,-0.04882679394595325,-0.005187202512705698
1690839820233887200,8.72788720703125,0.15850304726064204,-0.042295291551668196,0.006532032117247581
1690839820243927300,8.73792724609375,0.15135434454977512,-0.03082956589190289,0.015421897673327474
1690839820253967400,8.74796728515625,0.15795768833756446,-0.02190691231107339,0.012791439571883528
1690839820264008200,8.75800830078125,0.1534814197063446,-0.010126184151694178,0.013417535580974072
1690839820274048300,8.76804833984375,0.16771043606698513,0.0026411256259307263,0.0036562940178439017
1690839820284088300,8.77808837890625,0.18194705121219157,0.011520086195506155,-0.010027947941608726
1690839820294129400,8.78812939453125,0.18766776694655418,0.023683986719883976,-0.011816566657740621
1690839820304169200,8.798169189453125,0.1890641897410154,0.029020671572722492,-0.02036902608615346
1690839820314209300,8.808209228515626,0.20230419506430625,0.03923997736796737,-0.024915793537162244
1690839820324249300,8.818249267578125,0.20210078144669533,0.04479523687493056,-0.020413120956206694
1690839820334320400,8.8283203125,0.20716215648949146,0.04549059872794896,-0.018277022242965176
1690839820344360400,8.8383603515625,0.19968612152040002,0.043869719527848065,-0.016145234378660098
1690839820354401300,8.8484013671875,0.19941431884169578,0.05890318413916975,-0.013033751294622198
1690839820364441300,8.85844140625,0.19557225646078585,0.05885485148541629,-0.00995333920228295
1690839820374481200,8.868481201171875,0.194441791126132,0.05084003346450627,-0.0027179443032408013
1690839820384522200,8.878522216796876,0.19273264912068844,0.044064438382349906,0.003947303720517084
1690839820394562300,8.888562255859375,0.18385025448501108,0.03518197068143636,0.000963803530856967
1690839820404602400,8.898602294921876,0.18723814335763453,0.0297754719953984,-0.0006100487711766618
1690839820414642400,8.908642333984375,0.1800076075822115,0.024450075721554457,-0.010373747438285499
1690839820424683300,8.918683349609376,0.1789051992982626,0.013223894438706337,-0.01792992583834566
1690839820434723300,8.928723388671875,0.1745002423375845,0.001249232876114547,-0.009869460311112925
1690839820444763100,8.93876318359375,0.18145079212784765,-0.004230020518880337,-0.010679589383909479
1690839820454804200,8.94880419921875,0.16623744090497491,-0.009795618756767361,-0.018391268872935324
1690839820464844300,8.95884423828125,0.17285305965244768,-0.014625103006139397,-0.021661148255923763
1690839820474884400,8.96888427734375,0.16852350601553917,-0.021632095691375433,0.002738485053181648
1690839820484955400,8.978955322265625,0.15369769280552864,-0.01602558092121035,0.003079580975277349
1690839820494995500,8.988995361328126,0.1584615462064743,-0.019513002911861983,0.00018354900651611388
1690839820505035500,8.999035400390625,0.1675496925473213,-0.016759594284184276,0.00404027010044083
1690839820515076400,9.009076416015626,0.1592629257172346,-0.019338577926717698,0.0007613123618531971
1690839820525116200,9.0191162109375,0.1704208640694618,-0.005564100400544703,0.00025039484990556956
1690839820535156200,9.02915625,0.17783026354312895,0.006366575889848172,-0.01021585346283391
1690839820545197300,9.039197265625,0.17386486704349516,0.0034008579520508645,-0.014310548031097277
1690839820555237400,9.0492373046875,0.18292320276796817,0.009309826267510653,-0.013567785106087103
1690839820565277400,9.05927734375,0.1816618045300245,0.010145363776199519,-0.01267499185167253
1690839820575317500,9.0693173828125,0.1832493659824133,0.01836615269798785,-0.011926438506692647
1690839820585358300,9.0793583984375,0.1923293290168047,0.024511012128554284,-0.008259979287860915
1690839820595398100,9.089398193359376,0.194990072658658,0.02214979942254722,-0.00818676792117767
1690839820605438200,9.099438232421875,0.18299860609173774,0.025424364113807676,-0.016296315020835027
1690839820615479300,9.109479248046876,0.18418752361536025,0.032208179035037754,-0.009024186859698965
1690839820625549300,9.11954931640625,0.1874836425513029,0.03382419939693063,0.0006315576354973017
1690839820635590400,9.12959033203125,0.19034779981076716,0.03835994313042611,-0.0023887035011313854
1690839820645630500,9.13963037109375,0.18693828362822532,0.0326121932586655,-0.007509507980430498
1690839820655670500,9.14967041015625,0.18473697419166563,0.02542681179922074,-0.005021052165562287
1690839820665711400,9.15971142578125,0.18179390647709368,0.03085884678531438,-0.008321454550977795
1690839820675751200,9.169751220703125,0.1869353610187769,0.024136004803702232,-0.010904493314120918
1690839820685791200,9.179791259765626,0.1793570347189903,0.019656740497797726,-0.010636197766754776
1690839820695831300,9.189831298828125,0.17446809363365173,0.018965506830625235,-0.010778784575220197
1690839820705872400,9.199872314453126,0.1779541821837425,0.006734642017260193,-0.00545667623700574
1690839820715912400,9.209912353515625,0.17050737330913543,0.0036587417032569645,-0.006132100413693115
1690839820725952500,9.219952392578126,0.17098142056167126,0.0019068930672481656,-0.017813816044852136
1690839820735993300,9.229993408203125,0.1715986756771803,0.0002640212310478091,-0.01632533105276525
1690839820746033200,9.240033203125,0.1689133821159601,-0.001569770067371428,-0.0033201756649650633
1690839820756073200,9.2500732421875,0.1825257278829813,0.0006670856066048145,-0.00333300746166351
1690839820766113300,9.26011328125,0.1786170300066471,-0.0009509805819019675,-0.003500591999478638
1690839820776184300,9.270184326171876,0.16512626479268072,-0.011420023354515432,-0.009991095663094892
1690839820786224400,9.280224365234375,0.17392156566679476,-0.010535130278766154,-0.014681326705403626
1690839820796265500,9.290265380859376,0.1737368567496538,0.0012257424026727675,-0.01429619071218185
1690839820806305500,9.300305419921875,0.16845920860767363,0.003995499376952648,-0.0225074537537992
1690839820816345000,9.310344970703126,0.17290742018818855,0.0016640242220833897,-0.01716874134065583
1690839820826386200,9.32038623046875,0.17556173408925532,0.007924217128008603,-0.01044328727684915
1690839820836426200,9.33042626953125,0.1824117461144924,0.007642623707652092,-0.013342123124049976
1690839820846466300,9.34046630859375,0.18133564131557942,0.011098828576132655,-0.014722562898090109
1690839820856506400,9.35050634765625,0.17831892384290693,0.019491065074689687,-0.0016760982523672282
1690839820866547500,9.36054736328125,0.1808481500595808,0.021421667811088264,-0.010009279773756862
1690839820876587300,9.370587158203126,0.1845809068471193,0.02192322412505746,-0.004248451224714517
1690839820886627000,9.380626953125,0.18218319805562494,0.03125665046386421,-0.004206456980202347
1690839820896665300,9.390665283203125,0.18248773396015167,0.02483366821166128,-0.012306587797543032
1690839820906705400,9.400705322265624,0.18160101425349712,0.025762984951026736,-0.010826094315666704
1690839820916745500,9.410745361328125,0.1861059244573116,0.024304493238404393,-0.01366615831349045
1690839820926816300,9.420816162109375,0.1813397329688072,0.02859097491856664,-0.00753321764958091
1690839820936856300,9.430856201171874,0.18585107291340827,0.021044578127004204,-0.015396352240117267
1690839820946897200,9.440897216796875,0.18722236126661299,0.01610788890980184,-0.014344249371299519
1690839820956937200,9.450937255859374,0.17108721902370452,0.013468516849540172,-0.010183458163728936
1690839820966977300,9.460977294921875,0.17470248691141604,0.00853610194865614,-0.009997242276091127
1690839820977017300,9.471017333984374,0.18490297840833664,0.00781556912176311,0.001386915466010396
1690839820987058400,9.481058349609375,0.17295125932991504,0.002747873936034739,-0.0050581053734757
1690839820997098500,9.491098388671874,0.1725175440877676,0.007270356329157948,-0.015251801803428678
1690839821007138300,9.50113818359375,0.17507015118002892,0.0060510801998898385,-0.012435538806300609
1690839821017178400,9.511178466796874,0.17880992223024367,0.002877601262927055,-0.014391458647046237
1690839821027219200,9.52121923828125,0.1811959405839443,0.004848974401131272,-0.010512790582794695
1690839821037259300,9.53125927734375,0.17669862916469573,-0.0013951441528275608,-0.016714567832369357
1690839821047299300,9.54129931640625,0.17384031712412834,0.005766929496265947,-0.011493883175170048
1690839821057340400,9.55134033203125,0.17741525300145147,0.004506882965192198,-0.011998864422086626
1690839821067380500,9.56138037109375,0.17425532766580581,0.010387575034238398,-0.015408499335637316
1690839821077451300,9.571451171875,0.1826122371226549,0.007723945315554738,-0.008778075744677335
1690839821087491300,9.5814912109375,0.18184300631582737,0.007213475042767823,-0.008387843451229855
1690839821097531400,9.591531494140625,0.18482056082189083,0.013488244463317095,-0.001743464400153607
1690839821107572200,9.601572265625,0.17807167108356953,0.004631276529841125,-0.0066814505252987145
1690839821117612300,9.6116123046875,0.17476678431928155,0.01875924366880208,-0.004942415705090388
1690839821127652400,9.62165234375,0.1829828240007162,0.017578984375670553,-0.010413896785583347
1690839821137692400,9.6316923828125,0.18207447698414325,0.012162000828236342,-0.01786221263068728
1690839821147733500,9.6417333984375,0.17817922311127185,0.02159231167025864,-0.01612509577292949
1690839821157773300,9.651773193359375,0.18910802888274192,0.018904497358389196,-0.01597236202978529
1690839821167813400,9.6618134765625,0.18716858525276184,0.02434113545436412,-0.015798905159020795
1690839821177854200,9.671854248046875,0.18688041596114635,0.019435170168988405,-0.011453943890426307
1690839821187894300,9.681894287109374,0.19287644150555133,0.01738068532459438,-0.003562578719248995
1690839821197934300,9.691934326171875,0.1798714139819145,0.014202128353714942,-0.003834728457825258
1690839821207974400,9.701974365234374,0.17629530906081198,0.009420081708952784,-0.011028083161171525
1690839821218015500,9.712015380859375,0.169428345900774,0.01427523012254387,-0.012224581203050911
1690839821228085200,9.722085205078125,0.17348609685897826,0.020201332235895098,-0.009152060156222433
1690839821238126300,9.732126220703124,0.1814274112522602,0.009321334042213856,-0.0019002075981348753
1690839821248166400,9.74216650390625,0.18248305778503418,0.01406297561135143,-0.004882958298301673
1690839821258206500,9.75220654296875,0.18473054445087908,0.008325454872660338,-0.013168136530322953
1690839821268247300,9.762247314453125,0.1735100622564554,-0.0011837664244696497,-0.012715004201652481
1690839821278287400,9.772287353515624,0.17156068175435066,0.006476210276782512,-0.012873510098457336
1690839821288327400,9.782327392578125,0.17065876447856426,0.005603299899771809,-0.010558538553817196
1690839821298367200,9.7923671875,0.17858371225893496,0.003012552754208445,-0.012046174162533134
1690839821308408300,9.802408203125,0.19099486554265022,0.014265841239690779,-0.009633030339889229
1690839821318448400,9.812448486328124,0.17722060721218585,0.0024970775127410886,-0.007095200691651552
1690839821328488400,9.822488525390625,0.1836404111266136,0.007744403581693768,-0.014393267011642456
1690839821338529300,9.832529296875,0.17929098374545574,0.008328998536616563,-0.009449755328008904
1690839821348569300,9.8425693359375,0.18167466401159763,0.009793408533371984,-0.0046615161190668
1690839821358609400,9.852609375,0.17237901239991188,0.017478483143262565,-0.002378994957869872
1690839821368649200,9.862649169921875,0.1954091748535633,0.019584442446567117,0.00405461828620173
1690839821378720300,9.87272021484375,0.18492343667447567,0.013555427948012948,-0.006055993837025016
1690839821388761300,9.88276123046875,0.1769873829782009,0.014435864044353364,-0.011290232095541431
1690839821398801400,9.892801513671875,0.178926826608181,0.015304755833372473,-0.007648551124939695
1690839821408841500,9.902841552734374,0.1808703618913889,0.014351948620565234,-0.016188114539161323
1690839821418881500,9.912881591796875,0.17727847487926482,0.013744411181472242,-0.01947860745191574
1690839821428922400,9.92292236328125,0.1733884817034006,0.015858151932433246,-0.006916693186433985
1690839821438962200,9.932962158203125,0.17683306919932365,0.016241744422540068,-0.013357485089963301
1690839821449002200,9.943002197265624,0.18102876732349393,0.01641878148987889,-0.0164373948588036
1690839821459043300,9.953043212890625,0.1787912175297737,0.016488412659987805,-0.0021707590346690267
1690839821469083400,9.96308349609375,0.17969664193689822,0.013130772795155643,-0.012330781523883342
1690839821479123500,9.97312353515625,0.18748714968264102,0.013721614827774464,-0.008064155321661383
1690839821489163500,9.98316357421875,0.19557810167968273,0.010151208995096386,-0.009008441301295533
1690839821499204400,9.993204345703125,0.18436580279171466,0.014357793839462101,-0.0111421653943602
1690839821509244400,10.003244384765624,0.187662506249547,0.009712123458087444,-0.005242321100272238
1690839821519315200,10.013315185546874,0.17898469427525995,0.007666990963928401,-0.005154569751583039
1690839821529355300,10.023355224609375,0.18901158277094363,0.009647278060950339,-0.009825411106832325
1690839821539395300,10.033395263671874,0.17988427346348762,0.006223842950910329,-0.009492982548382132
1690839821549436400,10.0434365234375,0.17464871089756487,0.0041799160331487655,-0.012578253478929399
1690839821559476500,10.0534765625,0.18182722422480582,0.011672975202277303,-0.009315077831363304
1690839821569516500,10.0635166015625,0.17314239798784256,0.009855039060115813,-0.0060961249180138104
1690839821579556400,10.073556396484374,0.16924246793985365,0.011812785531766712,-0.0074919083916582165
1690839821589597200,10.08359716796875,0.17836217846274374,0.007666406442038714,-0.0059949934979435055
1690839821599637200,10.09363720703125,0.1895750618726015,0.004367072635702789,-0.001921296051936224
1690839821609677300,10.10367724609375,0.19285832132697103,0.007381598151288926,-0.005327469499921426
1690839821619718400,10.113718505859374,0.18791326614022255,0.014360899112001061,-0.013383870773389935
1690839821629758500,10.123758544921875,0.18013152622282505,0.015527020281925796,-0.010029527977341786
1690839821639798500,10.133798583984374,0.1738414861679077,0.00804948747549206,-0.015781506499648094
1690839821649838300,10.14383837890625,0.18161971895396709,0.008690744521096349,-0.014080310338642448
1690839821659879400,10.15387939453125,0.18116671448945998,0.01649754581451416,-0.010091176770394667
1690839821669949200,10.16394921875,0.1828127281308174,0.01815400778464973,-0.013452131970319896
1690839821679990300,10.173990234375,0.1783247690618038,0.01218852350898087,-0.005255463709635659
1690839821690030300,10.1840302734375,0.17832827619314193,0.007515344066172837,-0.003907318770000711
1690839821700070400,10.1940703125,0.17369243308603763,0.012835443110391496,-0.005057137259095907
1690839821710111500,10.204111572265624,0.18806115017831324,0.006823598942346871,-0.00035010121245868505
1690839821720151600,10.214151611328125,0.18522095831632612,0.009897051570937038,0.0018347137470263986
1690839821730191000,10.224191162109374,0.18193536077439784,0.0093641502706334,-0.0022172559243626893
1690839821740231200,10.234231201171875,0.17146365112066267,0.009441489823162555,-0.005262322708684951
1690839821750272300,10.244272216796874,0.17640519917607306,0.015401421140879392,-0.012630549921747296
1690839821760312300,10.254312255859375,0.1743172869861126,0.010527348831109703,-0.011714485389599577
1690839821770352400,10.264352294921874,0.17701602455079554,0.010689480590261518,-0.009990355877578258
1690839821780393500,10.2743935546875,0.1812093845874071,0.011396569413691758,-0.002369870936498046
1690839821790433300,10.284433349609374,0.1842021366626024,0.009298099297098815,-0.00476288528656587
1690839821800473300,10.294473388671875,0.18090718677043913,0.013548194489628075,-0.01267100979629904
1690839821810513200,10.30451318359375,0.16623627186119555,0.011557824390009045,-0.005522800275776535
1690839821820584200,10.314584228515624,0.17431319533288478,0.012634586776047944,0.0009439115202985704
1690839821830625300,10.324625244140625,0.17131576708257198,0.013838884531892835,0.00045203635012730953
1690839821840665300,10.334665283203124,0.1801385404855013,0.018294146907702088,-0.00701386995059438
1690839821850705400,10.344705322265625,0.18402210392057894,0.014203881919384001,-0.010575471422309055
1690839821860745500,10.354745361328124,0.18431904104053973,0.006338226578198373,-0.009071816260553896
1690839821870786300,10.364786376953125,0.17713409797251223,0.012401472139917314,-0.009371904318826273
1690839821880826000,10.374826171875,0.17608020500540733,0.009662731358408927,-0.008965478942403569
1690839821890866200,10.3848662109375,0.18281039004325866,0.014799436659738421,-0.01301561284973286
1690839821900895500,10.3948955078125,0.17502338942885398,0.011757730876281857,-0.010069448995776473
1690839821910935600,10.404935546875,0.17905892855525016,0.01087473749667406,-0.007559977792343124
1690839821920975400,10.414975341796875,0.18294950625300407,0.0132688660915941,-0.0026798502011224625
1690839821931015400,10.425015380859374,0.1798059475302696,0.019810469754785297,0.0013713522852864116
1690839821941056500,10.435056396484375,0.17112638199031352,0.013656294506601989,-0.0027354163132607937
1690839821951096600,10.4450966796875,0.17486673756241797,0.010657003092765807,-0.010139929549256339
1690839821961136600,10.45513671875,0.17770926751196384,0.00763356361836195,-0.004361080715511344
1690839821971207700,10.465207763671875,0.17815818032324313,0.016326719292253256,-0.00775406645918265
1690839821981247700,10.475247802734375,0.17502105134129523,0.014985716479457914,-0.01047957329978235
1690839821991288600,10.48528857421875,0.17592179957330226,0.01688227081578225,-0.008607285755034536
1690839822001328400,10.495328369140625,0.17248305729627608,0.012178440506383776,-0.011865684762783348
1690839822011368400,10.505368408203125,0.17577859171032906,0.01003547366093844,-0.013125776959629729
1690839822021408500,10.515408447265624,0.18490823910534382,0.0048467459114268415,-0.007544551323525956
1690839822031449600,10.52544970703125,0.17458558253347872,0.007765848228521645,-0.00812306416835636
1690839822041489700,10.53548974609375,0.18281798882782457,0.015625841013900934,-0.009009592078765854
1690839822051529700,10.54552978515625,0.18610826254487037,0.011683460063673556,-0.0028759481619577854
1690839822061570600,10.555570556640625,0.1825122838795185,0.011245397439971565,-0.0036907625430263576
1690839822071610400,10.5656103515625,0.17981705344617366,0.010294636053778231,-0.007841415949072688
1690839822081650400,10.575650390625,0.1714373476356268,0.010296901076100765,-0.007869125939905642
1690839822091690500,10.5856904296875,0.17891630521416663,0.0045199616424739355,-0.00539014120628126
1690839822101731600,10.595731689453125,0.17891221356093884,0.006041399056091904,-0.005910155625548213
1690839822111771600,10.605771728515625,0.1810012947946787,-0.0020802768727764486,-0.006702986503671854
1690839822121842700,10.6158427734375,0.1789046147763729,0.00803754130937159,-0.003855734142413712
1690839822131882500,10.625882568359375,0.17306407205462454,0.009549407177045941,-0.005758097735838965
1690839822141922600,10.635922607421875,0.17650222980976105,0.0037541649017482992,-0.0012876834566704928
1690839822151963400,10.64596337890625,0.1847264527976513,0.004027465417794883,-0.005637403098773211
1690839822162003500,10.65600341796875,0.17799159158468245,0.006835910434648394,-0.001193219239404425
1690839822172043500,10.66604345703125,0.17709084335267541,0.012275325009599327,-0.008091244257986544
1690839822182083600,10.67608349609375,0.16885434540510177,0.013573146267794071,-0.006344811582611873
1690839822192124700,10.686124755859375,0.18216916953027248,0.01123659307900816,-0.009700232090894132
1690839822202164700,10.696164794921875,0.17722879051864146,0.006531337997503578,-0.009666868677409365
1690839822212204500,10.70620458984375,0.17229191863834856,0.0055179231712594624,-0.006195621503423899
1690839822222245400,10.716245361328125,0.1830699177622795,0.008484189098328352,-0.0033187143602408467
1690839822232285400,10.726285400390625,0.17604104203879833,0.012201054196991025,-0.005111488661682233
1690839822242325500,10.736325439453125,0.1778407849371433,0.007547821563668549,-0.00921091420399025
1690839822252365600,10.746365478515624,0.18008768708109854,0.010023564027436076,-0.010335132460948079
1690839822262406700,10.75640673828125,0.1836795740932226,0.013483312559872864,-0.011523575060535222
1690839822272477700,10.766477783203126,0.1848790130108595,0.011146138316579162,-0.010314528064336628
1690839822282517500,10.776517578125,0.17859423365294932,0.010711546291597186,-0.013987882814835756
1690839822292557600,10.7865576171875,0.17470599404275416,0.007342289054207503,-0.011606522369943558
1690839822302597600,10.79659765625,0.18024083181619643,0.00713427232671529,-0.002960913898516446
1690839822312638500,10.806638427734375,0.1726075604587793,0.010068462615087627,-0.006396706166630611
1690839822322678500,10.816678466796875,0.18292904798686505,0.010853219784609973,-0.006746313617922714
1690839822332718600,10.826718505859375,0.18606676149070261,0.012810235603898762,-0.004164444469381123
1690839822342759700,10.836759765625,0.18292495633363723,0.0063982131371274585,-0.0017574837923515587
1690839822352799700,10.8467998046875,0.18247487447857855,0.011741985317878425,-0.011234446787694469
1690839822362839600,10.856839599609375,0.18546528846621513,0.015409604447335004,-0.006031014088573283
1690839822372879600,10.866879638671875,0.18815642724633216,0.014603293033130465,-0.004434338318789377
1690839822382920400,10.87692041015625,0.17288696192204953,0.0046773076286539435,-0.005434309141570702
1690839822392960500,10.88696044921875,0.1760240909039974,0.014548603703826666,-0.006914967020228505
1690839822403000600,10.89700048828125,0.18963877475857732,0.016120894521847368,-0.009335517831193282
1690839822413071600,10.907071533203125,0.19083353750109672,0.009604461832530796,-0.004842946519143879
1690839822423111400,10.917111328125,0.18155191441476343,0.010680018642172216,-0.0013233940908685326
1690839822433152500,10.927152587890625,0.18828385301828382,0.011224939173832535,-0.007013276295550167
1690839822443192600,10.937192626953125,0.1429413209915161,0.01325246294606477,-0.007748577433312311
1690839822453232600,10.947232666015625,0.1634451798379421,0.01665503793116659,-0.007568946550088003
1690839822463272400,10.9572724609375,0.1761690523326397,0.006310534853674471,-0.005795059041384956
1690839822473313500,10.9673134765625,0.18215572552680967,0.01069671404864639,-0.007701295092329382
1690839822483353600,10.977353515625,0.1921849521100521,0.009000102731212973,0.0024658055916428564
1690839822493393700,10.9873935546875,0.16959201202988625,0.00965728799831122,0.0041968123690225186
1690839822503434800,10.997434814453126,0.17857085277736187,0.01567176251485944,-0.0044466772105544805
1690839822513474600,11.007474609375,0.17437983082830905,0.013539791987463832,-0.0038661002728011223
1690839822523514600,11.0175146484375,0.16375322287380695,0.005551825440861285,-0.0057019197023473675
1690839822533554400,11.027554443359374,0.17691899391710758,0.00922711642012,-0.007796179434703662
1690839822543595500,11.037595458984375,0.18230419408679008,0.008736921750381588,-0.014746829689666627
1690839822553635600,11.047635498046875,0.18185586579740046,0.012335859557799995,-0.019690642767399548
1690839822563706600,11.05770654296875,0.1846995647907257,0.011448372666165232,-0.018811631443165243
1690839822573746400,11.067746337890625,0.19142974982857702,0.00385941537450999,-0.004952818368095904
1690839822583786500,11.077786376953124,0.16045125871896743,0.007922317431867122,-0.009965321901021524
1690839822593827600,11.08782763671875,0.1816974603652954,0.009488543835282325,-0.00793368820925243
1690839822603867600,11.09786767578125,0.1731622717320919,0.013200330900028347,0.003584781417902559
1690839822613907500,11.107907470703125,0.1812403642475605,0.012233750890195369,0.013694754220312461
1690839822623947500,11.117947509765624,0.17599954098463058,0.008387450725585222,0.007770195610076189
1690839822633988600,11.127988525390625,0.18572423166334628,0.014037000919878482,0.004137666060309857
1690839822644028700,11.138028564453125,0.18677052584588527,0.016696940844133496,0.0020467861659504705
1690839822654068500,11.148068359375,0.17344810293614862,0.01388718065302819,-0.008680515388026833
1690839822664109600,11.158109619140625,0.17838322125077247,0.012597542701289058,-0.017575175850233063
1690839822674149600,11.168149658203125,0.19064882858395577,0.012159845403768122,-0.023251559252524746
1690839822684189400,11.178189453125,0.18331074078083037,0.008071991568244993,-0.01855147353648208
1690839822694229500,11.1882294921875,0.18270692966878413,0.00625409195870161,-0.013154984787805005
1690839822704270600,11.1982705078125,0.1788128448396921,0.006420717229880392,-0.0017338837210554628
1690839822714341600,11.208341552734375,0.17447393885254858,0.010933226218260823,0.00588376994212158
1690839822724381400,11.21838134765625,0.18091420103311537,0.0064626201428473,0.011917579346802085
1690839822734421500,11.22842138671875,0.17448329120278358,0.008369038286060095,0.0048668576885160285
1690839822744461600,11.238461669921875,0.1762818650573492,0.010266286742128431,0.006206426596050732
1690839822754502700,11.248502685546875,0.18406243593096733,0.009377959600277245,-0.003927183381095528
1690839822764542500,11.25854248046875,0.17777941013872622,0.01242730070091784,-0.01980775720789097
1690839822774582500,11.26858251953125,0.17777765657305716,0.008635653332993388,-0.02010600950210355
1690839822784623600,11.27862353515625,0.18330840269327162,0.006961253847368061,-0.02555537921548821
1690839822794663400,11.288663330078125,0.18300737392008304,0.009135675277002155,-0.01728622110732831
1690839822804703500,11.298703369140625,0.18105857793986796,0.008425006256997585,-0.01839794520889409
1690839822814743600,11.30874365234375,0.17701310194134712,0.008393369009718299,-0.009465317652499652
1690839822824784600,11.31878466796875,0.18224866450726984,0.0050523149535059925,0.0045988446981180455
1690839822834824400,11.328824462890625,0.17387129678428173,0.0025702158141881226,0.0064697171747364335
1690839822844864500,11.338864501953125,0.16863398065268992,0.013064502625912426,0.00881622493113391
1690839822854905600,11.348905517578125,0.17881050675213336,0.009966171284392476,0.005484112233202904
1690839822864975400,11.358975341796874,0.18090134155154228,0.009552622047439218,0.004848572542332112
1690839822875016400,11.369016357421875,0.17805647351443765,0.00831007464043796,-0.010711573691060766
1690839822885056500,11.379056396484375,0.1728174038171768,0.009614910161308944,-0.020247783459816128
1690839822895105500,11.38910546875,0.18612988985478876,0.01648574577886611,-0.023160839628614482
1690839822905145600,11.3991455078125,0.17580080354213715,0.010515146936662495,-0.019329061179701238
1690839822915186700,11.409186767578126,0.18686872552335262,0.008393551672808825,-0.011372741013532504
1690839822925226800,11.419226806640625,0.18058394616544246,0.010624525595270096,-0.011456647304166108
1690839822935266600,11.4292666015625,0.18043489308357238,0.010039346118457615,-0.004715621211891993
1690839822945307400,11.439307373046875,0.18073767542243002,0.009853102831356228,0.004780375277483835
1690839822955347500,11.449347412109375,0.17475626292526722,0.011766790965571998,0.010588477034354582
1690839822965387500,11.459387451171875,0.18029168522059916,0.013850684567540883,0.003639525546133518
1690839822975427600,11.469427490234375,0.1843289779126644,0.009729220723360776,-0.007147661531250923
1690839822985468700,11.47946875,0.17759353217780588,0.008646211259625851,-0.005685489157354459
1690839822995508700,11.4895087890625,0.18163316295742987,0.008920534688979386,-0.013029869703948496
1690839823005548500,11.499548583984375,0.18267887261807916,0.005730360345542431,-0.017039689867198466
1690839823015619600,11.50961962890625,0.18536942687630653,0.004585939550772309,-0.01575829915399663
1690839823025659600,11.51965966796875,0.18626199180185793,0.010105397091992199,-0.014501778020570054
1690839823035700500,11.529700439453125,0.17488894939422606,0.006926365197077393,-0.006128392352955416
1690839823045740500,11.539740478515625,0.17354221096038816,0.012014043724909424,-0.007139962281985208
1690839823055780600,11.549780517578125,0.1778811169475317,0.008848748094402253,-0.013488244463317095
1690839823065821700,11.55982177734375,0.1781809766769409,0.011717581528984009,0.001981337409792468
1690839823075861800,11.56986181640625,0.17862813592255114,0.013457849325053393,0.000292827771246084
1690839823085901600,11.579901611328125,0.17429390611052512,0.005106419760920107,0.0005550126674119382
1690839823095941600,11.589941650390625,0.18402093487679957,0.009313406464084982,-0.0017989112104609376
1690839823105982500,11.599982421875,0.18147709561288355,0.01607022378053516,-0.010965995976701379
1690839823116022500,11.6100224609375,0.18267127383351325,0.016875293085724115,-0.014116075771767645
1690839823126062600,11.6200625,0.17728022844493388,0.011068616100959478,-0.008627588757546618
1690839823136102700,11.6301025390625,0.17862462879121302,0.009047887395694851,-0.019566623662086204
1690839823146143700,11.640143798828126,0.17847849831879137,0.011233524339087307,-0.010760956657584756
1690839823156183600,11.65018359375,0.1759381661862135,0.0062456163913011545,0.004860683676056215
1690839823166254600,11.660254638671875,0.17983458910286426,0.011653978240862489,0.000023134851237409746
1690839823176294700,11.670294677734375,0.17010931390225886,0.01528144802302122,-0.0013902116785611724
1690839823186334700,11.680334716796875,0.1707049417078495,0.011603599760495126,-0.00022933293933456297
1690839823196375600,11.69037548828125,0.1747393117904663,0.013384893686696887,0.005575955235119908
1690839823206415600,11.70041552734375,0.174437698495388,0.00853865923192352,0.007347814612695947
1690839823216455700,11.71045556640625,0.17608312761485576,0.00013418430630117654,-0.00446897066993115
1690839823226496800,11.720496826171875,0.17772271151542662,0.00907711349017918,-0.004115289831720293
1690839823236536600,11.73053662109375,0.18236556888520716,0.013384199566952883,-0.010143610210530458
1690839823246576600,11.74057666015625,0.17503332630097865,0.014587218681164084,-0.017966120529733596
1690839823256616700,11.75061669921875,0.1769791996717453,0.008756247505359352,-0.012293737449124455
1690839823266657500,11.760657470703125,0.17548165459036827,0.007227649698592722,-0.016531886475533247
1690839823276697600,11.770697509765625,0.18625556206107138,0.009611074236407875,0.0027115513804834334
1690839823286737700,11.780737548828125,0.1699462322950363,0.010100684384256601,-0.0017748459191061555
1690839823296778800,11.79077880859375,0.17982289866507054,0.00937313729468733,-0.002062375889904797
1690839823306818600,11.800818603515625,0.17548223911225794,0.005010448573157191,0.0023251367456279693
1690839823316889600,11.8108896484375,0.179670922973752,0.009762319275364278,0.00007485533449798821
1690839823326929700,11.8209296875,0.17218904278576372,0.006013342005386948,-0.004691079854857526
1690839823336969700,11.8309697265625,0.16455343334078787,0.002457147361151874,-0.004896877796621993
1690839823347009500,11.841009521484375,0.1757756691008806,0.0016963190564885735,-0.018140034058224407
1690839823357050600,11.851050537109375,0.17966624679863452,0.003487988246232271,-0.020549789480539038
1690839823367090700,11.861090576171875,0.1744300997108221,0.006512706362269818,-0.012285590675286949
1690839823377130500,11.871130615234375,0.18311024977266788,-0.0003420183707028627,-0.004549690060457214
1690839823387171600,11.881171630859376,0.193287360394001,0.004496288505941629,-0.004228349151602015
1690839823397211600,11.891211669921875,0.1840074908733368,0.001870104720816016,0.0014693242047127569
1690839823407251700,11.901251708984375,0.17427870854139327,0.009439042137749492,0.0035542401491664346
1690839823417291500,11.91129150390625,0.17442659257948398,0.00924048735834658,0.002633380710892379
1690839823427332600,11.92133251953125,0.186097741150856,0.010418591227009891,0.006389408776164054
1690839823437372700,11.93137255859375,0.17218319756686687,0.010631320662237704,-0.0007657510749530047
1690839823447412500,11.94141259765625,0.17532441820204256,0.011504048376157879,-0.008852520087221637
1690839823457483500,11.9514833984375,0.1762210747808218,0.004149411297030747,-0.006836330559756606
1690839823467523600,11.961523681640625,0.18415069873631,0.005158844067901373,-0.009848298792075365
1690839823477564700,11.971564697265626,0.18190905728936194,0.01466002818904817,-0.007491616130713373
1690839823487604700,11.981604736328125,0.17682371684908865,0.014273184295929968,-0.010623119089473039
1690839823497644500,11.99164453125,0.17592589122653007,0.010679762913845479,-0.006461131438659504
1690839823507685600,12.001685546875,0.17292846297621725,0.021913214187696574,0.000043117622518911956
1690839823517725700,12.0117255859375,0.1724772120773792,0.015100611563399433,-0.0014738622408680385
1690839823527765500,12.021765625,0.18235387844741344,0.009891206352040171,-0.008039386206585914
1690839823537805600,12.0318056640625,0.18594751902520656,0.005335735004767775,-0.00036899770917370915
1690839823547846700,12.0418466796875,0.169340667617321,0.006326170814223587,-0.001895851083425805
1690839823557886700,12.05188671875,0.17712883727550505,0.007425364227779209,-0.0014883017581742023
1690839823567926500,12.061926513671875,0.17847499118745325,0.013395305482856928,-0.004854636386115453
1690839823577967600,12.071967529296876,0.17503624891042707,0.01155150424707681,-0.005894391800835728
1690839823588007700,12.082007568359375,0.17129004811942578,0.007797485475800931,-0.010139061899576335
1690839823598047500,12.092047607421875,0.18236030818819998,0.005763751158490777,-0.008217108260514213
1690839823608118500,12.102118408203125,0.19118892681002617,0.0050193625319749115,-0.003695073391962796
1690839823618158600,12.11215869140625,0.18789456143975256,0.010631320662237704,-0.00621743147643283
1690839823628198700,12.12219873046875,0.17577333101332188,0.01704308740068227,-0.0028933194218669087
1690839823638239700,12.13223974609375,0.1687351029396057,0.011789879580214619,0.0008017813695594668
1690839823648279600,12.142279541015625,0.16873159580826758,0.008999591274559498,0.0010398918412160127
1690839823658319400,12.1523193359375,0.1769604949712753,0.005069704479724169,-0.006678098086765385
1690839823668360400,12.1623603515625,0.17396540480852127,0.011137187825143337,-0.0074796419943071665
1690839823678400500,12.172400390625,0.1800987929970026,0.012440890834853053,-0.005107762334635481
1690839823688440600,12.182440673828125,0.1720160243064165,0.0090705010863021,-0.004777032542927191
1690839823698480600,12.192480712890625,0.16992226689755915,0.006865465322695672,-0.006764854492433369
1690839823708521700,12.202521728515626,0.179797764223814,0.00384030881524086,-0.00868315486968495
1690839823718561500,12.2125615234375,0.17305998040139675,0.007899667208641768,-0.011628697669133544
1690839823728601600,12.2226015625,0.1782943739235401,0.013507497153058648,-0.005787479093950242
1690839823738642700,12.232642578125,0.18188275380432606,0.009981624581851065,-0.0023328268617391584
