time,seconds_elapsed,z,y,x
1690839811617640400,0.111640380859375,-0.0017417073249816895,-0.010755175724625587,-0.09382502734661102
1690839811627680500,0.121680419921875,-0.005872270092368126,-0.015237010084092617,-0.11660277843475342
1690839811637720300,0.13172021484375,-0.007472563534975052,-0.014284662902355194,-0.12581199407577515
1690839811647761400,0.141761474609375,-0.006238987669348717,-0.011434548534452915,-0.13080967962741852
1690839811657801500,0.151801513671875,-0.004131894558668137,-0.006095709279179573,-0.12454778701066971
1690839811667841500,0.161841552734375,-0.0020655477419495583,-0.002766757970675826,-0.11337529122829437
1690839811677912600,0.17191259765625,-0.0017744642682373524,-0.0031302794814109802,-0.10127522051334381
1690839811687952600,0.18195263671875,-0.0012484899489209056,-0.004180097486823797,-0.07817602902650833
1690839811697993500,0.191993408203125,0.0004884237423539162,-0.005025118589401245,-0.05347467586398125
1690839811708033500,0.202033447265625,-0.0007440872141160071,-0.003350256709381938,-0.025011343881487846
1690839811718073300,0.2120732421875,-0.0019531622529029846,-0.0006644586683250964,0.005080778617411852
1690839811728113400,0.222113525390625,-0.004238420631736517,-0.00011052118497900665,0.0306300800293684
1690839811738154500,0.232154541015625,-0.005048554390668869,0.0031103058718144894,0.05139527842402458
1690839811748194600,0.242194580078125,-0.00691995769739151,0.0022855247370898724,0.061887603253126144
1690839811758234600,0.252234619140625,-0.006206230726093054,0.0017028251895681024,0.07151705771684647
1690839811768275500,0.262275390625,-0.004336425103247166,0.000025832661776803434,0.06896335631608963
1690839811778315500,0.2723154296875,-0.004823783412575722,-0.00013555490295402706,0.057984206825494766
1690839811788355300,0.282355224609375,-0.00307621737010777,0.00032091091270558536,0.038533542305231094
1690839811798395400,0.2923955078125,-0.000934236915782094,0.0014572817599400878,0.019567575305700302
1690839811808436500,0.3024365234375,-0.002168345730751753,0.003480218816548586,-0.007641141768544912
1690839811818476500,0.3124765625,-0.003573163179680705,0.002975283656269312,-0.02798263169825077
1690839811828547600,0.322547607421875,-0.003032008884474635,-0.0009715211344882846,-0.04514297842979431
1690839811838587600,0.332587646484375,-0.005627791862934828,-0.0038434739690274,-0.06114591285586357
1690839811848627500,0.34262744140625,-0.007282414007931948,-0.00558092026039958,-0.0741538554430008
1690839811858668500,0.35266845703125,-0.005507150664925575,-0.00800146721303463,-0.07931985706090927
1690839811868708400,0.362708251953125,-0.002916161436587572,-0.006732737645506859,-0.07784632593393326
1690839811878748400,0.37274853515625,-0.002267149044200778,-0.005486644338816404,-0.07563696801662445
1690839811888779500,0.382779541015625,-0.002624545246362686,-0.006357498001307249,-0.07029599696397781
1690839811898820600,0.392820556640625,-0.003916711080819368,-0.0034906051587313414,-0.05988064408302307
1690839811908860400,0.4028603515625,-0.004223773255944252,-0.0018453042721375823,-0.04695046320557594
1690839811918900500,0.412900390625,-0.004846953321248293,-0.0017768610268831253,-0.031009580940008163
1690839811928941600,0.422941650390625,-0.0060299295000731945,-0.001261539408005774,-0.014764831401407719
1690839811938981600,0.432981689453125,-0.006499444600194693,0.0013771206140518188,0.0012301141396164894
1690839811949021700,0.443021728515625,-0.0057433731853961945,0.0017861821688711643,0.01655207946896553
1690839811959061500,0.4530615234375,-0.005623264703899622,0.001975000137463212,0.023736221715807915
1690839811969102600,0.4631025390625,-0.0032522522378712893,0.004824049770832062,0.030175745487213135
1690839811979173600,0.473173583984375,-0.00296329939737916,-0.0012538161827251315,0.027159182354807854
1690839811989213400,0.48321337890625,-0.0032557144295424223,-0.0009464874165132642,0.02250823751091957
1690839811999253500,0.49325341796875,-0.004703941289335489,-0.00424268189817667,0.012647618539631367
1690839812009293600,0.50329345703125,-0.004181695636361837,-0.004584365524351597,0.0009542105835862458
1690839812019334700,0.513334716796875,-0.005702893249690533,-0.004457066301256418,-0.010219880379736423
1690839812029374700,0.523374755859375,-0.005933522712439299,-0.0012141350889578462,-0.019840283319354057
1690839812039414500,0.53341455078125,-0.0046823699958622456,0.0007041397620923817,-0.029094502329826355
1690839812049455600,0.54345556640625,-0.003967044875025749,0.00034700988908298314,-0.038247521966695786
1690839812059495400,0.553495361328125,-0.004451740067452192,0.0030418625101447105,-0.0444452278316021
1690839812069535500,0.563535400390625,-0.004713795147836208,-0.0017174725653603673,-0.0498218834400177
1690839812079575600,0.573575439453125,-0.003585147438570857,-0.0036842171102762222,-0.052863482385873795
1690839812089616600,0.58361669921875,-0.004849616438150406,-0.00615136930719018,-0.05390291288495064
1690839812099656700,0.59365673828125,-0.00526666734367609,-0.008085623383522034,-0.04854756221175194
1690839812109696500,0.603696533203125,-0.0041342913173139095,-0.005531651899218559,-0.0440651960670948
1690839812119737600,0.613737548828125,-0.0046781087294220924,-0.004060521721839905,-0.03569035232067108
1690839812129807400,0.623807373046875,-0.0030338731594383717,-0.0025065671652555466,-0.027770644053816795
1690839812139848400,0.633848388671875,-0.0027513117529451847,-0.0007656587986275554,-0.01636006496846676
1690839812149888500,0.643888427734375,-0.0027627632953226566,-0.0002716424351092428,-0.007649397477507591
1690839812159928600,0.653928466796875,-0.005016596522182226,-0.00017124126316048205,0.0008135957177728415
1690839812169968600,0.66396875,-0.0033164345659315586,0.0037438718136399984,0.0073266224935650826
1690839812180009700,0.674009765625,-0.005703159607946873,0.0010974886827170849,0.006858172360807657
1690839812190049500,0.684049560546875,-0.004867459647357464,-0.0004013383586425334,0.006213421002030373
1690839812200089300,0.69408935546875,-0.006708502769470215,-0.003299922915175557,0.0022082931827753782
1690839812210130400,0.70413037109375,-0.00675191218033433,-0.0017829863354563713,-0.0027316042687743902
1690839812220170500,0.71417041015625,-0.004583300091326237,-0.004748948849737644,-0.011011372320353985
1690839812230210600,0.72421044921875,-0.005596100352704525,-0.004935370292514563,-0.018567025661468506
1690839812240250600,0.734250732421875,-0.003704723436385393,-0.004397145472466946,-0.025913888588547707
1690839812250291700,0.744291748046875,-0.005654956214129925,-0.0033041839487850666,-0.02851952612400055
1690839812260331500,0.75433154296875,-0.004727909807115793,0.000107858024421148,-0.03260907530784607
1690839812270371300,0.764371337890625,-0.004569185432046652,-0.0003283677506260574,-0.03495798259973526
1690839812280442400,0.7744423828125,-0.0036637107841670513,-0.001261805766262114,-0.037091176956892014
1690839812290482400,0.784482421875,-0.006736732088029385,-0.0025132251903414726,-0.03718864917755127
1690839812300523500,0.7945234375,-0.00475507415831089,-0.0026644926983863115,-0.03693484887480736
1690839812310563600,0.8045634765625,-0.004686098080128431,-0.0033073797821998596,-0.035773444920778275
1690839812320603600,0.814603759765625,-0.004610464442521334,-0.0041276332922279835,-0.03223809599876404
1690839812330644500,0.82464453125,-0.0035401401109993458,-0.003431216813623905,-0.02641376480460167
1690839812340684500,0.8346845703125,-0.0057652113027870655,-0.0037883466575294733,-0.02220730111002922
1690839812350724400,0.844724365234375,-0.003786748740822077,-0.0025891251862049103,-0.015035142190754414
1690839812360764400,0.854764404296875,-0.003599528456106782,-0.002020274056121707,-0.008723982609808445
1690839812370805500,0.864805419921875,-0.004041613079607487,-0.0009986853692680597,-0.005583317019045353
1690839812380845600,0.874845458984375,-0.0027742148377001286,-0.002013616031035781,-0.0030714236199855804
1690839812390885600,0.8848857421875,-0.005862682592123747,-0.0004290352517273277,-0.0030213561840355396
1690839812400925700,0.89492578125,-0.004770254250615835,-0.0015688681742176414,-0.006479204632341862
1690839812410966500,0.904966552734375,-0.005347893573343754,-0.0005273058777675033,-0.0073194317519664764
1690839812421006300,0.91500634765625,-0.004418184049427509,0.0010306433541700244,-0.013624466024339199
1690839812431077400,0.925077392578125,-0.0038919434882700443,-0.0013438310706987977,-0.01738511584699154
1690839812441117400,0.935117431640625,-0.0044352286495268345,-0.002344913315027952,-0.024349015206098557
1690839812451157500,0.945157470703125,-0.004073038697242737,-0.002082591876387596,-0.025320537388324738
1690839812461198600,0.955198486328125,-0.006589459255337715,-0.004601942375302315,-0.028367726132273674
1690839812471238700,0.96523876953125,-0.004881840664893389,-0.0044171190820634365,-0.03229881823062897
1690839812481278700,0.97527880859375,-0.00464641721919179,-0.0034416031558066607,-0.031134484335780144
1690839812491319600,0.985319580078125,-0.0054613444954156876,-0.0034935346338897943,-0.03266660124063492
1690839812501359400,0.995359375,-0.006652043666690588,-0.001318264752626419,-0.03008865937590599
1690839812511399400,1.0053994140625,-0.00373002327978611,-0.00039601203752681613,-0.027877170592546463
1690839812521439500,1.015439453125,-0.0037441381718963385,-0.00017869810108095407,-0.025899773463606834
1690839812531480600,1.02548046875,-0.004022438544780016,-0.003294330323114991,-0.024838769808411598
1690839812541520600,1.035520751953125,-0.00296329939737916,-0.0015763250412419438,-0.020054135471582413
1690839812551560700,1.045560791015625,-0.005309810396283865,-0.003370763035491109,-0.017416007816791534
1690839812561601500,1.0556015625,-0.005108742043375969,-0.0016218650853261352,-0.013767743483185768
1690839812571641300,1.065641357421875,-0.00592659879475832,-0.0035446672700345516,-0.011930429376661777
1690839812581712400,1.07571240234375,-0.0030426615849137306,-0.002915362361818552,-0.01193948369473219
1690839812591752400,1.08575244140625,-0.0030152308754622936,0.0007789746159687638,-0.011695272289216518
1690839812601792500,1.09579248046875,-0.005809685681015253,-0.0010602044640108943,-0.01122282724827528
1690839812611832600,1.10583251953125,-0.004295412451028824,-0.00031185615807771683,-0.015562181361019611
1690839812621873700,1.115873779296875,-0.004162254277616739,-0.0016953683225437999,-0.016533968970179558
1690839812631913700,1.125913818359375,-0.00407437002286315,-0.0017273263074457645,-0.020437896251678467
1690839812641953500,1.13595361328125,-0.004442152567207813,-0.002502039773389697,-0.02082272432744503
1690839812651994400,1.145994384765625,-0.005400624126195908,-0.0018437063554301858,-0.02358335629105568
1690839812662034400,1.156034423828125,-0.005368133541196585,-0.0033867419697344303,-0.025886457413434982
1690839812672074500,1.166074462890625,-0.004597947467118502,-0.005488774739205837,-0.024996696040034294
1690839812682114600,1.176114501953125,-0.005230448208749294,-0.004814994987100363,-0.02526860497891903
1690839812692155600,1.18615576171875,-0.0041638524271547794,-0.0034061830956488848,-0.026252375915646553
1690839812702195700,1.19619580078125,-0.005389172583818436,-0.0030394657514989376,-0.02569284662604332
1690839812712235500,1.206235595703125,-0.004564924165606499,-0.0018487664638087153,-0.02202487550675869
1690839812722276400,1.2162763671875,-0.003837881376966834,-0.0012540825409814715,-0.023741815239191055
1690839812732346600,1.2263466796875,-0.003233343828469515,-0.0010823087068274617,-0.020687701180577278
1690839812742387500,1.236387451171875,-0.005019259639084339,0.000005060006060375599,-0.018675949424505234
1690839812752427500,1.246427490234375,-0.004547347314655781,-0.0013949638232588768,-0.017524398863315582
1690839812762467600,1.256467529296875,-0.005509813781827688,-0.001374723738990724,-0.014978150837123394
1690839812772508700,1.2665087890625,-0.005800897255539894,-0.0025515747256577015,-0.013606622815132141
1690839812782548500,1.276548583984375,-0.0057287258096039295,-0.0023584954906255007,-0.014785070903599262
1690839812792588500,1.286588623046875,-0.00558198569342494,-0.004517786670476198,-0.015933958813548088
1690839812802628600,1.296628662109375,-0.005561213009059429,-0.0028104339726269245,-0.014751515351235867
1690839812812669400,1.30666943359375,-0.005609150044620037,-0.002267415402457118,-0.016562199220061302
1690839812822709500,1.31670947265625,-0.00481339730322361,-0.0026264095213264227,-0.018555574119091034
1690839812832749600,1.32674951171875,-0.005452556069940329,0.00023435817274730653,-0.019876768812537193
1690839812842789600,1.33678955078125,-0.0030277478508651257,0.002817624481394887,-0.021459752693772316
1690839812852830700,1.346830810546875,-0.006073338910937309,0.004463990684598684,-0.022171881049871445
1690839812862870500,1.35687060546875,-0.003194994293153286,-0.0002442118711769581,-0.023616911843419075
1690839812872910600,1.36691064453125,-0.004832838196307421,-0.0020548950415104628,-0.02455461211502552
1690839812882981600,1.376981689453125,-0.005016063805669546,-0.005422195885330439,-0.025051023811101913
1690839812893001000,1.3870009765625,-0.0030506509356200695,-0.010220413096249104,-0.026556510478258133
1690839812903041800,1.397041748046875,-0.004537227563560009,-0.007786284200847149,-0.02558179199695587
1690839812913081900,1.407081787109375,-0.005092762876302004,-0.005683451890945435,-0.024987375363707542
1690839812923122000,1.417121826171875,-0.005733252968639135,-0.004279699642211199,-0.021733790636062622
1690839812933163000,1.4271630859375,-0.005218996666371822,-0.00005193164179218002,-0.020078103989362717
1690839812943202800,1.437202880859375,-0.005578523501753807,0.004516188520938158,-0.01906743459403515
1690839812953243000,1.447242919921875,-0.003980626817792654,0.005055478774011135,-0.015096927061676979
1690839812963283000,1.457282958984375,-0.004159058444201946,0.002944657113403082,-0.014615427702665329
1690839812973323800,1.46732373046875,-0.004519650712609291,0.001020257011987269,-0.015163506381213665
1690839812983363800,1.47736376953125,-0.005373992491513491,-0.0009270463488064706,-0.015177887864410877
1690839812993404000,1.48740380859375,-0.0032586439047008753,-0.0038956720381975174,-0.016385365277528763
1690839813003445000,1.497445068359375,-0.006508499383926392,-0.007303186692297459,-0.016512397676706314
1690839813013485000,1.507485107421875,-0.004333229269832373,-0.006611297372728586,-0.017423199489712715
1690839813023524900,1.51752490234375,-0.00487118773162365,-0.004825647920370102,-0.018391789868474007
1690839813033596000,1.527595947265625,-0.005595301277935505,-0.004511395003646612,-0.02021286077797413
1690839813043636000,1.537635986328125,-0.00520727876573801,-0.0005925533478148282,-0.023452861234545708
1690839813053675800,1.54767578125,-0.005392634775489569,0.0035779569298028946,-0.024391891434788704
1690839813063716900,1.557716796875,-0.00475587323307991,0.004350007511675358,-0.027046797797083855
1690839813073757000,1.5677568359375,-0.00415346585214138,0.004443484358489513,-0.025437450036406517
1690839813083796700,1.577796630859375,-0.004136155359447002,0.0013310478534549475,-0.026284068822860718
1690839813093837800,1.587837890625,-0.005066930316388607,-0.004521248396486044,-0.025527996942400932
1690839813103878000,1.5978779296875,-0.00643659383058548,-0.007020092569291592,-0.022111160680651665
1690839813113918000,1.60791796875,-0.004151069093495607,-0.010260093957185745,-0.020474914461374283
1690839813123957800,1.617957763671875,-0.0057433731853961945,-0.005048554390668869,-0.017654361203312874
1690839813133998800,1.627998779296875,-0.004994226153939962,-0.003566771512851119,-0.014150439761579037
1690839813144039000,1.638038818359375,-0.004537493921816349,-0.0006977482116781175,-0.013451626524329185
1690839813154078700,1.64807861328125,-0.0038546593859791756,0.0006101301987655461,-0.013317403383553028
1690839813164119800,1.658119873046875,-0.0027593011036515236,0.0027254789602011442,-0.015393603593111038
1690839813174160000,1.668159912109375,-0.004343349486589432,0.0025829998776316643,-0.017177920788526535
1690839813184231000,1.67823095703125,-0.005121791269630194,-0.0002580603177193552,-0.019123893231153488
1690839813194271000,1.68827099609375,-0.003309244057163596,-0.0019768644124269485,-0.022831013426184654
1690839813204310800,1.698310791015625,-0.0036820864770561457,-0.003931891173124313,-0.023003052920103073
1690839813214352000,1.708351806640625,-0.004478105343878269,-0.005540440324693918,-0.024516794830560684
1690839813224392000,1.718391845703125,-0.004523645620793104,-0.003157443832606077,-0.025784192606806755
1690839813234431700,1.728431640625,-0.005132976453751326,-0.003328418591991067,-0.024758342653512955
1690839813244471800,1.738471923828125,-0.004261324182152748,-0.0021606225054711103,-0.024206535890698433
1690839813254513000,1.748512939453125,-0.0032895365729928017,-0.0019262643763795495,-0.025793513283133507
1690839813264552700,1.758552734375,-0.003459978848695755,-0.001743305241689086,-0.024176709353923798
1690839813274592800,1.7685927734375,-0.0046333675272762775,-0.0008948221220634878,-0.023664582520723343
1690839813284633900,1.7786337890625,-0.00490181427448988,-0.002645051572471857,-0.022298913449048996
1690839813294674000,1.788673828125,-0.006205964367836714,-0.0029148298781365156,-0.019686885178089142
1690839813304713700,1.798713623046875,-0.0043718451634049416,-0.0010687265312299132,-0.01811269111931324
1690839813314753800,1.80875390625,-0.00440966198220849,-0.0022333269007503986,-0.014364291913807392
1690839813324795000,1.818794921875,-0.0041185785084962845,-0.0007906925166025758,-0.011622567661106586
1690839813334865000,1.828864990234375,-0.005362274590879679,-0.0002324939559912309,-0.01113467663526535
1690839813344905700,1.83890576171875,-0.004339088220149279,-0.002007490722462535,-0.0099021652713418
1690839813354945800,1.84894580078125,-0.005655488930642605,-0.0011475561186671257,-0.012619921006262302
1690839813364985900,1.85898583984375,-0.004351072479039431,-0.0027510453946888447,-0.01571371592581272
1690839813375027000,1.86902685546875,-0.00561021501198411,-0.0022397185675799847,-0.018024273216724396
1690839813385066800,1.879066650390625,-0.004512726329267025,-0.00033955302205868065,-0.0227950606495142
1690839813395106800,1.88910693359375,-0.00387383415363729,-0.0012887036427855492,-0.026163427159190178
1690839813405147000,1.89914697265625,-0.002983539365231991,-0.0008189220097847283,-0.027538150548934937
1690839813415187700,1.909187744140625,-0.004679706413298845,-0.0011624698527157307,-0.030652450397610664
1690839813425227800,1.919227783203125,-0.00669465446844697,-0.0009036105475388467,-0.028448686003684998
1690839813435267800,1.929267822265625,-0.0043593281880021095,-0.0034589136485010386,-0.026809509843587875
1690839813445309000,1.939308837890625,-0.003913248889148235,0.000014913702216290403,-0.027160780504345894
1690839813455348700,1.9493486328125,-0.00162399560213089,-0.0008261125767603517,-0.02220543660223484
1690839813465388800,1.959388916015625,-0.004108458757400513,-0.002600576728582382,-0.0207526832818985
1690839813475459800,1.9694599609375,-0.004227501805871725,-0.0009379653492942452,-0.018424546346068382
1690839813485500000,1.9795,-0.006755640730261803,-0.001984587637707591,-0.01776142045855522
1690839813495540000,1.9895400390625,-0.005090898834168911,-0.0026695525739341974,-0.015976835042238235
1690839813505580800,1.999580810546875,-0.00461658975109458,-0.002928145695477724,-0.016221847385168076
1690839813515620900,2.009620849609375,-0.005966812372207642,-0.0022863238118588924,-0.014423946850001812
1690839813525660700,2.01966064453125,-0.003725229762494564,0.00006950850365683436,-0.012492355890572071
1690839813535701800,2.02970166015625,-0.0029324067290872335,-0.0007294398383237422,-0.013775999657809734
1690839813545741800,2.039741943359375,-0.004608334042131901,0.0002103897277265787,-0.01648363471031189
1690839813555782000,2.049781982421875,-0.004424042999744415,-0.00009640643111197278,-0.014511564746499062
1690839813565822000,2.059822021484375,-0.0038783615455031395,-0.0009387642494402826,-0.017768343910574913
1690839813575862800,2.06986279296875,-0.005148422904312611,-0.0011033476330339909,-0.021975073963403702
1690839813585902800,2.07990283203125,-0.005240568425506353,-0.004095675423741341,-0.02496367320418358
1690839813595942700,2.089942626953125,-0.003771568648517132,-0.0035278894938528538,-0.026523219421505928
1690839813605983700,2.099983642578125,-0.005673332139849663,-0.005008873529732227,-0.026670759543776512
1690839813616023800,2.11002392578125,-0.004571315832436085,-0.005832855589687824,-0.027052123099565506
1690839813626094800,2.1200947265625,-0.0038184402510523796,-0.004766525700688362,-0.02484356425702572
1690839813636135000,2.130135009765625,-0.005336974747478962,-0.0041369544342160225,-0.024407338351011276
1690839813646175000,2.140175048828125,-0.003655987558886409,-0.0022184131667017937,-0.020488496869802475
1690839813656215800,2.1502158203125,-0.0041215079836547375,0.0019534286111593246,-0.02088876999914646
1690839813666256000,2.160255859375,-0.004337224178016186,0.002891660202294588,-0.017284980043768883
1690839813676295700,2.170295654296875,-0.0049161952920258045,0.002638926263898611,-0.01769191212952137
1690839813686335700,2.180335693359375,-0.005248557776212692,-0.0005083974683657289,-0.01728045381605625
1690839813696376800,2.190376953125,-0.006102633662521839,-0.004026433452963829,-0.015559518709778786
1690839813706417000,2.2004169921875,-0.005617405753582716,-0.007390804588794708,-0.018199777230620384
1690839813716457000,2.21045703125,-0.005334311630576849,-0.0076158419251441956,-0.017352359369397163
1690839813726497800,2.220497802734375,-0.0041129859164357185,-0.0043747746385633945,-0.018557704985141754
1690839813736537900,2.230537841796875,-0.0038211036007851362,-0.0035033884923905134,-0.017895909026265144
1690839813746577700,2.24057763671875,-0.0029617014806717634,0.002376871183514595,-0.02040886878967285
1690839813756617700,2.25061767578125,-0.005642439238727093,0.0021995047573000193,-0.020856013521552086
1690839813766658800,2.260658935546875,-0.00621208967640996,0.0018908443162217736,-0.021645907312631607
1690839813776728800,2.270728759765625,-0.0065100970678031445,-0.0017337178578600287,-0.02310345508158207
1690839813786770000,2.28077001953125,-0.005516205448657274,-0.005379585549235344,-0.02606116235256195
1690839813796810000,2.29081005859375,-0.004834969062358141,-0.005714611150324345,-0.026138925924897194
1690839813806850000,2.30085009765625,-0.0032029838766902685,-0.002150768879801035,-0.02508937381207943
1690839813816891000,2.310890869140625,-0.003831756068393588,-0.005294364411383867,-0.02400733157992363
1690839813826930700,2.3209306640625,-0.0029020465444773436,0.00036139096482656896,-0.02099396474659443
1690839813836970800,2.330970703125,-0.005315136630088091,0.0006870955694466829,-0.019534286111593246
1690839813847010800,2.3410107421875,-0.005446963477879763,-0.003572896821424365,-0.01739763282239437
1690839813857052000,2.351052001953125,-0.005893309134989977,-0.0014836470363661647,-0.016258863732218742
1690839813867092000,2.361092041015625,-0.006788397673517466,-0.0043960800394415855,-0.015576562844216824
1690839813877132000,2.371132080078125,-0.0033182986080646515,-0.0011779161868616939,-0.015185077674686909
1690839813887169300,2.381169189453125,-0.004263188224285841,0.000028762138754245825,-0.018067684024572372
1690839813897209300,2.391209228515625,-0.002832005498930812,0.0013544837711378932,-0.018066618591547012
1690839813907249400,2.40124951171875,-0.005293831694871187,0.0030447919853031635,-0.01949753426015377
1690839813917289200,2.411289306640625,-0.005120193585753441,-0.0012516856659203768,-0.020844561979174614
1690839813927360300,2.4213603515625,-0.005872536450624466,-0.003296993440017104,-0.021685587242245674
1690839813937401300,2.4314013671875,-0.005782788153737783,-0.0070336745120584965,-0.021036576479673386
1690839813947441400,2.44144140625,-0.005676527973264456,-0.007540740538388491,-0.02094576135277748
1690839813957481500,2.4514814453125,-0.005690908990800381,-0.005421929527074099,-0.022126873955130577
1690839813967521500,2.461521484375,-0.003317766124382615,0.0017454357584938407,-0.023095998913049698
1690839813977562400,2.471562255859375,-0.0027507790364325047,0.0015129417879506946,-0.02273860201239586
1690839813987602200,2.481602294921875,-0.0046634613536298275,0.00330231967382133,-0.02310851402580738
1690839813997642200,2.491642333984375,-0.006431533955037594,0.0013406352372840047,-0.021159347146749496
1690839814007682300,2.501682373046875,-0.005901298485696316,-0.0021049624774605036,-0.022897858172655106
1690839814017723400,2.511723388671875,-0.006148706190288067,-0.0031899344176054,-0.02286403626203537
1690839814027763500,2.521763427734375,-0.005379052832722664,-0.00663553224876523,-0.0211284551769495
1690839814037803500,2.531803466796875,-0.003291400847956538,-0.005361209623515606,-0.02040114626288414
1690839814047844400,2.54184423828125,-0.0041004689410328865,-0.002656503114849329,-0.01978915184736252
1690839814057884400,2.551884521484375,-0.0027859327383339405,0.0022218753583729267,-0.015932893380522728
1690839814067924200,2.56192431640625,-0.005357747431844473,-0.0004854942671954632,-0.01853693276643753
1690839814077995300,2.571995361328125,-0.006007825024425983,-0.0013883059145882726,-0.01739496923983097
1690839814088035300,2.582035400390625,-0.004805407952517271,-0.0009478190331719816,-0.017011741176247597
1690839814098076400,2.592076416015625,-0.007751396391540766,-0.0030716899782419205,-0.018848255276679993
1690839814108116500,2.602116455078125,-0.005630987696349621,-0.001966211711987853,-0.018751850351691246
1690839814118156500,2.612156494140625,-0.005301821045577526,-0.0033867419697344303,-0.020807011052966118
1690839814128196400,2.6221962890625,-0.0030716899782419205,-0.001264202524907887,-0.021376928314566612
1690839814138237200,2.6322373046875,-0.0025798040442168713,0.002132659312337637,-0.024038756266236305
1690839814148277200,2.64227734375,-0.0036005936563014984,-0.0009326389990746975,-0.021748971194028854
1690839814158317300,2.6523173828125,-0.00549223693087697,-0.0019864519126713276,-0.022219551727175713
1690839814168358400,2.6623583984375,-0.006866161711513996,-0.002888997085392475,-0.02227175049483776
1690839814178398500,2.6723984375,-0.0059569585137069225,-0.004312190227210522,-0.020894896239042282
1690839814188438500,2.6824384765625,-0.004759334959089756,-0.004220311529934406,-0.019464511424303055
1690839814198478300,2.692478271484375,-0.004820588044822216,-0.0035212314687669277,-0.022723155096173286
1690839814208519200,2.702519287109375,-0.00512871565297246,-0.002229065867140889,-0.022587867453694344
1690839814218559200,2.712559326171875,-0.00410499656572938,-0.0006601976347155869,-0.021625399589538574
1690839814228630300,2.72263037109375,-0.006421946454793215,-0.0008420915110036731,-0.019869046285748482
1690839814238670300,2.73267041015625,-0.005387841258198023,-0.0014801849611103535,-0.020072244107723236
1690839814248710400,2.74271044921875,-0.006042712368071079,-0.0024466461036354303,-0.017785655334591866
1690839814258751500,2.75275146484375,-0.006756173446774483,-0.0036575854755938053,-0.017115071415901184
1690839814268791600,2.76279150390625,-0.004715659189969301,-0.0014018879737704992,-0.019448265433311462
1690839814278831400,2.772831298828125,-0.00452950457111001,-0.0023462448734790087,-0.01763971336185932
1690839814288871200,2.78287109375,-0.00296329939737916,-0.0016056197928264737,-0.017849836498498917
1690839814298912300,2.792912353515625,-0.004596349783241749,-0.0027355989441275597,-0.02070661075413227
1690839814308952300,2.802952392578125,-0.004766259342432022,-0.0016231966437771916,-0.021642444655299187
1690839814318992400,2.812992431640625,-0.006112753413617611,-0.0035659726709127426,-0.021739916875958443
1690839814329033500,2.823033447265625,-0.005578257143497467,-0.0018333201296627522,-0.021645108237862587
1690839814339073500,2.833073486328125,-0.0041247038170695305,-0.00315957423299551,-0.023724503815174103
1690839814349113300,2.84311328125,-0.0039020637050271034,-0.0023313311394304037,-0.021497035399079323
1690839814359153200,2.853153076171875,-0.0027233485598117113,-0.0019835224375128746,-0.02311757020652294
1690839814369194200,2.8631943359375,-0.002945456188172102,-0.0034376082476228476,-0.020008862018585205
1690839814379265300,2.873265380859375,-0.005018460564315319,-0.0013574132462963462,-0.020794494077563286
1690839814389305300,2.883305419921875,-0.004841094370931387,-0.0012341088149696589,-0.020186761394143105
1690839814399345400,2.893345458984375,-0.0027236149180680513,-0.0015302523970603943,-0.01985652931034565
1690839814409385500,2.903385498046875,-0.004924451000988483,-0.0038426751270890236,-0.01913188211619854
1690839814419426600,2.913426513671875,-0.003953196108341217,0.0002735066518653184,-0.019339343532919884
1690839814429466400,2.92346630859375,-0.003826962551102042,-0.003281546989455819,-0.017710553482174873
1690839814439506200,2.933506103515625,-0.0034466630313545465,-0.0013422331539914012,-0.019895145669579506
1690839814449547300,2.94354736328125,-0.003840810852125287,-0.0013265205780044198,-0.01944720186293125
1690839814459587300,2.95358740234375,-0.005742574110627174,-0.0013789847726002336,-0.01986212097108364
1690839814469627400,2.96362744140625,-0.0052325790748000145,-0.002141980454325676,-0.02159557305276394
1690839814479667500,2.97366748046875,-0.005575860384851694,-0.001437041675671935,-0.019305255264043808
1690839814489708500,2.98370849609375,-0.005044027231633663,-0.0016327840276062489,-0.01889565959572792
1690839814499748400,2.993748291015625,-0.0052951630204916,-0.0024956483393907547,-0.019225625321269035
1690839814509788200,3.0037880859375,-0.005081577692180872,-0.0022082931827753782,-0.018426144495606422
1690839814519828200,3.013828125,-0.0067971860989928246,-0.001198688754811883,-0.021463746204972267
1690839814529899300,3.023899169921875,-0.0037979339249432087,-0.0037915424909442663,-0.021021395921707153
1690839814539940400,3.0339404296875,-0.003326820908114314,-0.0021941782906651497,-0.020964138209819794
1690839814549980400,3.04398046875,-0.006477872841060162,-0.002112952060997486,-0.02075667679309845
1690839814560020500,3.0540205078125,-0.00395799009129405,-0.0027055053506046534,-0.02335379272699356
1690839814570060300,3.064060302734375,-0.005181978922337294,-0.0007882956997491419,-0.02154097892343998
1690839814580101400,3.074101318359375,-0.004283960908651352,-0.0014535533264279366,-0.0191971305757761
1690839814590141200,3.08414111328125,-0.0017150756902992725,-0.0022234732750803232,-0.02039608545601368
1690839814600181200,3.09418115234375,-0.004875981714576483,0.00029880666988901794,-0.020836839452385902
1690839814610222300,3.104222412109375,-0.006625412032008171,-0.0027233485598117113,-0.018568091094493866
1690839814620262400,3.114262451171875,-0.0051934304647147655,-0.0015614113071933389,-0.019949739798903465
1690839814630302500,3.124302490234375,-0.006301837973296642,-0.001936650718562305,-0.02081526629626751
1690839814640342300,3.13434228515625,-0.006571882404386997,-0.005094094667583704,-0.019815249368548393
1690839814650383400,3.14438330078125,-0.005298891570419073,-0.003594468580558896,-0.02184298075735569
1690839814660423200,3.154423095703125,-0.003576891729608178,-0.0017249294323846698,-0.020063988864421844
1690839814670494200,3.164494140625,-0.003962783608585596,-0.001985120354220271,-0.020077304914593697
1690839814680534300,3.1745341796875,-0.005730856209993362,-0.0013494236627593637,-0.019764916971325874
1690839814690574300,3.18457421875,-0.004647482186555862,-0.0018005631864070892,-0.0197454746812582
1690839814700615400,3.194615478515625,-0.005631520412862301,-0.0017177389236167073,-0.01884053274989128
1690839814710655500,3.204655517578125,-0.005022189114242792,-0.0007898935582488775,-0.020108729600906372
1690839814720695300,3.2146953125,-0.00404454255476594,-0.0004665858286898583,-0.020742030814290047
1690839814730735400,3.2247353515625,-0.004311657976359129,-0.0015757924411445856,-0.021700235083699226
1690839814740776200,3.234776123046875,-0.0038067223504185677,-0.0023315974976867437,-0.019785955548286438
1690839814750816300,3.244816162109375,-0.0038362834602594376,-0.0020780644845217466,-0.022184131667017937
1690839814760856300,3.254856201171875,-0.004840828012675047,-0.003692472819238901,-0.022523418068885803
1690839814770897400,3.2648974609375,-0.0038983351550996304,-0.0034171019215136766,-0.021985460072755814
1690839814780937500,3.2749375,-0.005048554390668869,-0.0028506475500762463,-0.020421652123332024
1690839814790977300,3.284977294921875,-0.004935103934258223,0.000358461489668116,-0.02154417335987091
1690839814801017300,3.295017333984375,-0.00481233187019825,-0.002025333931669593,-0.02130156010389328
1690839814811058200,3.30505810546875,-0.003774764481931925,-0.0015102786710485816,-0.020265590399503708
1690839814821129200,3.315129150390625,-0.0036615801509469748,-0.0016951019642874599,-0.017887920141220093
1690839814831169300,3.325169189453125,-0.005417668726295233,-0.0017390442080795765,-0.01882721669971943
1690839814841209300,3.335209228515625,-0.004125502891838551,-0.0021515677217394114,-0.019753731787204742
1690839814851249400,3.34524951171875,-0.005614742636680603,-0.003775563556700945,-0.01973428949713707
1690839814861290500,3.35529052734375,-0.004431500099599361,-0.0036724992096424103,-0.020650949329137802
1690839814871330300,3.365330322265625,-0.004194212146103382,-0.0025007082149386406,-0.020195549353957176
1690839814881370400,3.375370361328125,-0.003867442486807704,-0.0032834112644195557,-0.018726816400885582
1690839814891393800,3.385393798828125,-0.004278368316590786,0.00028389296494424343,-0.020255737006664276
1690839814901433900,3.395433837890625,-0.004773716442286968,-0.0024493092205375433,-0.022517027333378792
1690839814911473700,3.4054736328125,-0.005690109916031361,-0.0009076052810996771,-0.02088876999914646
1690839814921513700,3.415513671875,-0.004249606281518936,-0.003067428944632411,-0.019843213260173798
1690839814931554800,3.425554931640625,-0.003739610780030489,-0.00293400464579463,-0.02039874903857708
1690839814941595000,3.435594970703125,-0.0037081853952258825,-0.0008269115351140499,-0.01932442933320999
1690839814951635000,3.445635009765625,-0.004939364735037088,0.00015046859334688634,-0.020301010459661484
1690839814961675000,3.455675048828125,-0.0036935380194336176,-0.0023616913240402937,-0.018385665491223335
1690839814971745800,3.465745849609375,-0.005055478774011135,-0.0008093346259556711,-0.0206363033503294
1690839814981786600,3.47578662109375,-0.005526592023670673,-0.002600044244900346,-0.017974739894270897
1690839814991826700,3.48582666015625,-0.006834470201283693,-0.003492203075438738,-0.019690614193677902
1690839815001866800,3.49586669921875,-0.004147606901824474,-0.0031164311803877354,-0.019249327480793
1690839815011906800,3.50590673828125,-0.004219778813421726,-0.003085538512095809,-0.020532438531517982
1690839815021948000,3.515947998046875,-0.0036133769899606705,-0.0012895026011392474,-0.022550849243998528
1690839815031988000,3.525988037109375,-0.005102616734802723,0.00017656758427619934,-0.020722322165966034
1690839815042028000,3.536028076171875,-0.005194229539483786,-0.0007547398563474417,-0.01894839107990265
1690839815052068900,3.54606884765625,-0.004846420604735613,-0.001330249011516571,-0.021398499608039856
1690839815062108700,3.556108642578125,-0.005972671322524548,-0.0031182952225208282,-0.017967548221349716
1690839815072148700,3.566148681640625,-0.0059540290385484695,-0.003859453136101365,-0.01841788925230503
1690839815082188800,3.576188720703125,-0.004988367203623056,-0.002130262553691864,-0.020079968497157097
1690839815092230000,3.58622998046875,-0.005119927227497101,-0.001868473831564188,-0.019151857122778893
1690839815102270000,3.59627001953125,-0.0049071405082941055,-0.0036842171102762222,-0.019934026524424553
1690839815112310000,3.60631005859375,-0.005112470127642155,-0.0017584852175787091,-0.02263660356402397
1690839815122380800,3.616380859375,-0.005566006526350975,-0.0020775320008397102,-0.022006765007972717
1690839815132420900,3.6264208984375,-0.005964681971818209,-0.0016676714876666665,-0.022600650787353516
1690839815142461700,3.636461669921875,-0.005711415316909552,-0.0009962886106222868,-0.02123125270009041
1690839815152501800,3.646501708984375,-0.005057076457887888,-0.0016146745765581727,-0.02209491655230522
1690839815162541800,3.656541748046875,-0.004566788673400879,-0.003291134489700198,-0.021625932306051254
1690839815172582000,3.666581787109375,-0.004742290824651718,-0.0028884646017104387,-0.018909774720668793
1690839815182623000,3.676623046875,-0.004352137912064791,-0.0019446401856839657,-0.01871989108622074
1690839815192663000,3.6866630859375,-0.003846936160698533,-0.0019510318525135517,-0.01992364041507244
1690839815202702800,3.696702880859375,-0.005104747135192156,-0.00020186760229989886,-0.018680477514863014
1690839815212743700,3.70674365234375,-0.003831756068393588,-0.0011435613268986344,-0.020649084821343422
1690839815222783700,3.71678369140625,-0.006346046458929777,-0.0014977618120610714,-0.020168917253613472
1690839815232823800,3.72682373046875,-0.00577772781252861,-0.0004743089957628399,-0.020841898396611214
1690839815242863900,3.73686376953125,-0.004792091902345419,-0.0037497307639569044,-0.020869063213467598
1690839815252905000,3.746905029296875,-0.00390286254696548,-0.003323625074699521,-0.01962350308895111
1690839815262945000,3.756945068359375,-0.003808586625382304,-0.0022040321491658688,-0.021858161315321922
1690839815273015800,3.767015869140625,-0.004447478801012039,-0.003709783311933279,-0.018848521634936333
1690839815283055900,3.777055908203125,-0.0036970002111047506,0.0008681904873810709,-0.02172446995973587
1690839815293096000,3.787095947265625,-0.005348692648112774,-0.0027233485598117113,-0.021339377388358116
1690839815303136800,3.79713671875,-0.00498144282028079,-0.0013137373607605696,-0.02010233886539936
1690839815313176800,3.8071767578125,-0.005459479987621307,-0.0027355989441275597,-0.02262408658862114
1690839815323217000,3.817216796875,-0.006083991378545761,-0.0013845774810761213,-0.019328158348798752
1690839815333258000,3.827258056640625,-0.003907389938831329,-0.0037476003635674715,-0.019886089488863945
1690839815343297800,3.8372978515625,-0.005572398193180561,-0.0027856663800776005,-0.021682126447558403
1690839815353337900,3.847337890625,-0.005643238313496113,-0.0007025419035926461,-0.020969463512301445
1690839815363378000,3.8573779296875,-0.0040914141573011875,0.0008042746339924634,-0.018101239576935768
1690839815373418800,3.867418701171875,-0.0036879454273730516,-0.0004767058417201042,-0.019237343221902847
1690839815383458800,3.877458740234375,-0.005388107616454363,-0.002296710154041648,-0.018070081248879433
1690839815393499000,3.887498779296875,-0.0064837317913770676,-0.0024322650860995054,-0.01782054267823696
1690839815403540000,3.8975400390625,-0.005337507463991642,-0.0023438481148332357,-0.019699934870004654
1690839815413609700,3.907609619140625,-0.0044232443906366825,-0.001984587637707591,-0.021506624296307564
1690839815423650800,3.91765087890625,-0.0057066213339567184,-0.0049401638098061085,-0.021412348374724388
1690839815433691000,3.92769091796875,-0.004223507363349199,-0.002183525823056698,-0.022042185068130493
1690839815443731000,3.93773095703125,-0.004229366313666105,-0.0011430287268012762,-0.02117506042122841
1690839815453770800,3.947770751953125,-0.0044083306565880775,-0.0009217200567945838,-0.01967330276966095
1690839815463811800,3.957811767578125,-0.003734018187969923,-0.0014050838071852922,-0.021315941587090492
1690839815473852000,3.967851806640625,-0.005288239102810621,-0.0021797972731292248,-0.02063443884253502
1690839815483891700,3.9778916015625,-0.003894606838002801,-0.002438656520098448,-0.020266123116016388
1690839815493932800,3.987932861328125,-0.004099137615412474,-0.0009235842735506594,-0.019270634278655052
1690839815503972900,3.997972900390625,-0.002816825406625867,-0.00033662354690022767,-0.021633123978972435
1690839815514013000,4.008012939453125,-0.003716174978762865,-0.002326803747564554,-0.019225891679525375
1690839815524052700,4.018052734375,-0.00571833923459053,-0.0020610203500837088,-0.022011026740074158
1690839815534093800,4.02809375,-0.003923634998500347,-0.0029145635198801756,-0.020016318187117577
1690839815544134000,4.0381337890625,-0.004060255363583565,-0.0033659692853689194,-0.021441109478473663
1690839815554174000,4.048174072265625,-0.004336158744990826,-0.0039041941054165363,-0.01997237652540207
1690839815564244700,4.05824462890625,-0.0039880839176476,-0.002016279147937894,-0.02028210274875164
1690839815574284800,4.068284912109375,-0.006474144756793976,-0.0005099953268654644,-0.019700467586517334
1690839815584326000,4.078325927734375,-0.0039854203350842,-0.0004242415598127991,-0.021497301757335663
1690839815594366000,4.088365966796875,-0.0037286917213350534,-0.0012652678415179253,-0.020192086696624756
1690839815604405800,4.09840576171875,-0.0042131207883358,-0.0022831279784440994,-0.020012324675917625
1690839815614445800,4.10844580078125,-0.004022172186523676,-0.0008855010382831097,-0.020712468773126602
1690839815624487000,4.11848681640625,-0.002689260058104992,-0.0032948628067970276,-0.01949167624115944
1690839815634526700,4.128526611328125,-0.005503688473254442,-0.002654372714459896,-0.02142832614481449
1690839815644566800,4.13856689453125,-0.0027204190846532583,-0.0017949705943465233,-0.021077321842312813
1690839815654608000,4.14860791015625,-0.004445348400622606,-0.003573962254449725,-0.02183898538351059
1690839815664648000,4.15864794921875,-0.004796086810529232,-0.0035228293854743242,-0.020735105499625206
1690839815674687700,4.168687744140625,-0.004761998075991869,-0.0013022858183830976,-0.021630460396409035
1690839815684727800,4.178727783203125,0.008107194676995277,0.2604105472564697,-0.09652414172887802
1690839815694769000,4.188768798828125,0.011719506233930588,0.13462358713150024,-0.05975920334458351
1690839815704809000,4.19880908203125,-0.010117615573108196,-0.07627985626459122,-0.06906535476446152
1690839815714879700,4.208879638671875,-0.004862399306148291,-0.01859632134437561,-0.07128430157899857
1690839815724919800,4.218919921875,-0.01167476549744606,-0.014139787293970585,-0.07900986075401306
1690839815734959900,4.2289599609375,-0.01936996914446354,-0.03665761277079582,-0.09931273758411407
1690839815745001000,4.2390009765625,-0.01859072782099247,-0.039869919419288635,-0.10689502209424973
1690839815755040800,4.249040771484375,-0.010636664927005768,-0.028252409771084785,-0.1048438549041748
1690839815765080800,4.259080810546875,-0.0013235911028459668,-0.018259165808558464,-0.09376484155654907
1690839815775122000,4.269121826171875,0.007075752597302198,0.002335326047614217,-0.0781797543168068
1690839815785161700,4.27916162109375,0.013077719137072563,0.020682642236351967,-0.05890326574444771
1690839815795201800,4.289201904296875,0.010775948874652386,0.030313696712255478,-0.04020228236913681
1690839815805241900,4.299241943359375,0.00803209375590086,0.03232278674840927,-0.0157757680863142
1690839815815283000,4.309282958984375,0.004123372491449118,0.02304859459400177,0.002766757970675826
1690839815825322800,4.31932275390625,-0.00321816373616457,0.011136540211737156,0.021395303308963776
1690839815835362800,4.32936279296875,-0.009061671793460846,-0.007940747775137424,0.037150830030441284
1690839815845404000,4.33940380859375,-0.012255600653588772,-0.021935125812888145,0.04754914343357086
1690839815855444000,4.34944384765625,-0.012055863626301289,-0.025904834270477295,0.05055931210517883
1690839815865514800,4.3595146484375,-0.011201255023479462,-0.02153751626610756,0.049904175102710724
1690839815875554800,4.369554931640625,-0.00541340745985508,-0.012606605887413025,0.04829802364110947
1690839815885595000,4.379594970703125,-0.0012796488590538502,0.003910852130502462,0.0373108871281147
1690839815895638800,4.389638671875,0.000056459015468135476,0.01398772094398737,0.022037390619516373
1690839815905679600,4.3996796875,-0.0012426309986039996,0.020176641643047333,0.005726329050958157
1690839815915719700,4.4097197265625,-0.002948385663330555,0.017225591465830803,-0.01143721118569374
1690839815925759700,4.419759765625,-0.004349208436906338,0.008232097141444683,-0.028302477672696114
1690839815935800800,4.42980078125,-0.006840595509856939,-0.002406165935099125,-0.041495244950056076
1690839815945841000,4.4398408203125,-0.010057694278657436,-0.014398113824427128,-0.0556454174220562
1690839815955881000,4.449880859375,-0.008016914129257202,-0.019240273162722588,-0.06403730809688568
1690839815965920800,4.459920654296875,-0.005931392312049866,-0.01870684139430523,-0.07309285551309586
1690839815975961600,4.469961669921875,-0.002861832967028022,-0.016278572380542755,-0.07386969774961472
1690839815986001700,4.480001708984375,-0.0017052220646291971,-0.006895190104842186,-0.07418741285800934
1690839815996041700,4.490041748046875,-0.0018927085911855102,0.002834402257576585,-0.06895776093006134
1690839816006082800,4.500082763671875,-0.0033859428949654102,0.00833569373935461,-0.059900350868701935
1690839816016152800,4.51015283203125,-0.0042706448584795,0.010696053504943848,-0.04953452944755554
1690839816026194000,4.52019384765625,-0.00634897593408823,0.007326888851821423,-0.035351332277059555
1690839816036234000,4.53023388671875,-0.005528988782316446,0.0024077638518065214,-0.02365606091916561
1690839816046273800,4.540273681640625,-0.007466970942914486,-0.004391818773001432,-0.01227237842977047
1690839816056314600,4.550314697265625,-0.004448277875781059,-0.00743075180798769,-0.0001906823308672756
1690839816066354700,4.560354736328125,-0.0041406829841434956,-0.010904845781624317,0.00842943787574768
1690839816076394800,4.570394775390625,-0.003713245503604412,-0.007405718322843313,0.016093216836452484
1690839816086434800,4.580434814453125,-0.0028674255590885878,-0.002865028567612171,0.020198745653033257
1690839816096476000,4.590475830078125,-0.004319913685321808,0.0010703244479373097,0.018272479996085167
1690839816106516000,4.600515869140625,-0.006952181924134493,0.0027806065045297146,0.015872173011302948
1690839816116555800,4.6105556640625,-0.00703873485326767,0.003409378696233034,0.010131463408470154
1690839816126595800,4.620595947265625,-0.00492098880931735,0.003254915354773402,0.005018993280827999
1690839816136636700,4.63063671875,-0.005712480284273624,0.0023853934835642576,-0.005809952039271593
1690839816146676700,4.6406767578125,-0.00555242458358407,-0.002276203827932477,-0.013059343211352825
1690839816156716800,4.650716796875,-0.004975850228220224,-0.0023427826818078756,-0.02496979758143425
1690839816166787800,4.660787841796875,-0.0031553131993860006,-0.003495931625366211,-0.03248870000243187
1690839816176828000,4.670827880859375,-0.004083957523107529,-0.003501257859170437,-0.03911038488149643
1690839816186869000,4.680868896484375,-0.003946804907172918,-0.00660677021369338,-0.04452113062143326
1690839816196908800,4.69090869140625,-0.005253351293504238,-0.005420864559710026,-0.04883971065282822
1690839816206948900,4.700948974609375,-0.007348726503551006,-0.005197425372898579,-0.051473312079906464
1690839816216989700,4.71098974609375,-0.0054666707292199135,-0.0034384073223918676,-0.052077051252126694
1690839816227029800,4.72102978515625,-0.005346029531210661,-0.0020037624053657055,-0.04693395271897316
1690839816237069800,4.73106982421875,-0.004031493328511715,-0.0007273092633113265,-0.04235704243183136
1690839816247110000,4.74110986328125,-0.004221909213811159,-0.0024527714122086763,-0.03513588383793831
1690839816257151000,4.75115087890625,-0.0015654060989618301,-0.000056459015468135476,-0.027404991909861565
1690839816267190800,4.761190673828125,-0.0052171326242387295,0.0020415792241692543,-0.01973029598593712
1690839816277230800,4.77123095703125,-0.004765726625919342,-0.002304699504747987,-0.014721155166625977
1690839816287271700,4.781271728515625,-0.005302620120346546,-0.002389654517173767,-0.00785366166383028
1690839816297311700,4.791311767578125,-0.005596366710960865,-0.003163569141179323,-0.0029909962322562933
1690839816307382800,4.8013828125,-0.004388889297842979,-0.003367567202076316,-0.0001395496365148574
1690839816317422800,4.8114228515625,-0.004391286056488752,-0.0028903286438435316,0.0026290726382285357
1690839816327463000,4.821462890625,-0.005682120565325022,-0.0025427863001823425,0.001119060325436294
1690839816337502700,4.831502685546875,-0.0037800907157361507,-0.0034011229872703552,-0.0003249056462664157
1690839816347543800,4.841543701171875,-0.004321511369198561,-0.000550475378986448,-0.0012998889433220029
1690839816357584000,4.851583984375,-0.005253884010016918,-0.0012665993999689817,-0.0067662931978702545
1690839816367623700,4.861623779296875,-0.005465073045343161,-0.001967543503269553,-0.013170663267374039
1690839816377664800,4.871664794921875,-0.004232828039675951,0.00030546457855962217,-0.0156119829043746
1690839816387704800,4.881704833984375,-0.005538309924304485,0.0004881574132014066,-0.020355604588985443
1690839816397745000,4.891744873046875,-0.005314870737493038,0.0007310376968234777,-0.026875289157032967
1690839816407784700,4.90178466796875,-0.004917527083307505,0.0009161274065263569,-0.03322772681713104
1690839816417825800,4.91182568359375,-0.006422212813049555,-0.00398648576810956,-0.03537503629922867
1690839816427865900,4.921865966796875,-0.00561048137024045,-0.002284459536895156,-0.03928561881184578
1690839816437905700,4.93190576171875,-0.005259210709482431,-0.008127168752253056,-0.03936205431818962
1690839816447946800,4.94194677734375,-0.005022721830755472,-0.005724464543163776,-0.03899533674120903
1690839816458016800,4.952016845703125,-0.005588111001998186,-0.006957508157938719,-0.03767786920070648
1690839816468057900,4.962057861328125,-0.0035960664972662926,-0.003195527009665966,-0.034145984798669815
1690839816478097700,4.97209765625,-0.0041191112250089645,-0.0026991136837750673,-0.02869848906993866
1690839816488137700,4.9821376953125,-0.00506799528375268,0.0003110571997240186,-0.023869113996624947
1690839816498178800,4.9921787109375,-0.004500475712120533,-0.001401355373673141,-0.021264009177684784
1690839816508219000,5.002218994140625,-0.00532578956335783,0.0005957491230219603,-0.014533668756484985
1690839816518258700,5.0122587890625,-0.005172391422092915,-0.002201635157689452,-0.014218350872397423
1690839816528298800,5.022298828125,-0.0037920749746263027,-0.0017329188995063305,-0.010191118344664574
1690839816538339800,5.03233984375,-0.004605937283486128,-0.0033185649663209915,-0.008608934469521046
1690839816548380000,5.0423798828125,-0.005385976750403643,-0.005401423200964928,-0.01004970446228981
1690839816558419700,5.052419677734375,-0.003792874049395323,-0.0033068470656871796,-0.007066697813570499
1690839816568460800,5.062460693359375,-0.006642456166446209,-0.00096086849225685,-0.008326905779540539
1690839816578500900,5.0725009765625,-0.003996339626610279,-0.0015536881983280182,-0.00977673102170229
1690839816588540700,5.082540771484375,-0.004496481269598007,-0.0015270565636456013,-0.014188257046043873
1690839816598580700,5.092580810546875,-0.004604339133948088,-0.001216265605762601,-0.015507054515182972
1690839816608651800,5.10265185546875,-0.003991279285401106,0.0014106763992458582,-0.016702281311154366
1690839816618691600,5.112691650390625,-0.004794222768396139,0.00042983421008102596,-0.01938435062766075
1690839816628732700,5.122732666015625,-0.003712446428835392,-0.0013827132061123848,-0.02376738004386425
1690839816638772700,5.132772705078125,-0.004811000544577837,-0.004450141917914152,-0.02448110841214657
1690839816648812800,5.142812744140625,-0.0030029804911464453,-0.0028304075822234154,-0.030111296102404594
1690839816658854000,5.15285400390625,-0.005305016878992319,-0.003296460723504424,-0.030042853206396103
1690839816668893700,5.162893798828125,-0.004327103961259127,-0.003698864486068487,-0.03208975866436958
1690839816678933800,5.172933837890625,-0.005074919667094946,-0.004820055328309536,-0.03014378808438778
1690839816688973800,5.182973876953125,-0.004744953941553831,-0.004867193289101124,-0.027760524302721024
1690839816699015000,5.193014892578125,-0.003694869577884674,-0.002432797569781542,-0.025180719792842865
1690839816709054700,5.2030546875,-0.00529463030397892,-0.0009526127250865102,-0.022774288430809975
1690839816719094800,5.2130947265625,-0.005783054046332836,-0.00063356600003317,-0.019098060205578804
1690839816729135900,5.223135986328125,-0.003478088416159153,-0.0006615291931666434,-0.01834678277373314
1690839816739175700,5.23317578125,-0.006835535634309053,-0.0019172097090631723,-0.015924904495477676
1690839816749215700,5.2432158203125,-0.004337490536272526,-0.0015571502735838294,-0.01498454250395298
1690839816759286800,5.253286865234375,-0.005273858085274696,-0.003307912265881896,-0.013745639473199844
1690839816769326600,5.26332666015625,-0.004337490536272526,-0.004983306862413883,-0.015363243408501148
1690839816779366700,5.27336669921875,-0.004400074947625399,-0.0030652983114123344,-0.013376259244978428
1690839816789407700,5.28340771484375,-0.005534048657864332,-0.003994741477072239,-0.014633803628385067
1690839816799447800,5.29344775390625,-0.003753991797566414,-0.0019646140281111,-0.014691061340272427
1690839816809488000,5.30348779296875,-0.0041065942496061325,-0.00221947836689651,-0.017056215554475784
1690839816819528700,5.31352880859375,-0.004057325888425112,-0.0016255935188382864,-0.019095130264759064
1690839816829568800,5.32356884765625,-0.0046610645949840546,-0.0003640541108325124,-0.019601130858063698
1690839816839608800,5.33360888671875,-0.005109274294227362,-0.003099120454862714,-0.020807277411222458
1690839816849648600,5.343648681640625,-0.005052549298852682,-0.0012551478575915098,-0.02267947979271412
1690839816859689700,5.353689697265625,-0.0026879284996539354,-0.002766491612419486,-0.025013474747538567
1690839816869729800,5.363729736328125,-0.004975317511707544,-0.002972087822854519,-0.02672508731484413
1690839816879769900,5.373769775390625,-0.004226702731102705,-0.003055444685742259,-0.026400182396173477
1690839816889800200,5.38380029296875,-0.005963882897049189,-0.005409945268183947,-0.025523468852043152
1690839816899840300,5.39384033203125,-0.0046149916015565395,-0.0065108961425721645,-0.026387931779026985
1690839816909911300,5.403911376953125,-0.004619252867996693,-0.0010892328573390841,-0.02484889142215252
1690839816919951400,5.413951416015625,-0.00387276872061193,-0.002115615177899599,-0.022840600460767746
1690839816929991400,5.423991455078125,-0.005615807604044676,-0.0012040151050314307,-0.020478110760450363
1690839816940032500,5.434032470703125,-0.004535895772278309,-0.0008143946761265397,-0.021872540935873985
1690839816950072600,5.444072509765625,-0.004160123877227306,-0.004545216914266348,-0.015782158821821213
1690839816960112400,5.4541123046875,-0.005690908990800381,-0.0017393104499205947,-0.014621020294725895
1690839816970152400,5.46415234375,-0.005052549298852682,-0.002772883279249072,-0.016033295542001724
1690839816980193300,5.474193359375,-0.0033332123421132565,-0.002645051572471857,-0.015104117803275585
1690839816990233300,5.4842333984375,-0.005321528296917677,-0.0035004590172320604,-0.016052469611167908
1690839817000273400,5.4942734375,-0.004990231245756149,-0.0008934905636124313,-0.016769658774137497
1690839817010314500,5.504314453125,-0.004941761493682861,-0.0023640880826860666,-0.01937263272702694
1690839817020354600,5.5143544921875,-0.004393949639052153,-0.0005720470217056572,-0.018545720726251602
1690839817030394400,5.524394287109375,-0.004788629710674286,-0.00239231763407588,-0.018788069486618042
1690839817040434400,5.534434326171875,-0.0026320021133869886,-0.0024927188642323017,-0.020679179579019547
1690839817050475300,5.544475341796875,-0.004379302263259888,-0.0012599414912983775,-0.018910840153694153
1690839817060545500,5.554545654296875,-0.0027233485598117113,-0.0035244273021817207,-0.021387580782175064
1690839817070586400,5.56458642578125,-0.006512760184705257,-0.0033806166611611843,-0.022876020520925522
1690839817080626400,5.57462646484375,-0.004306331276893616,-0.003029345767572522,-0.0250994935631752
1690839817090666500,5.58466650390625,-0.0054520233534276485,0.0005091963685117662,-0.02383715659379959
1690839817100707600,5.59470751953125,-0.005086104851216078,-0.0021196098532527685,-0.02569630928337574
1690839817110747400,5.604747314453125,-0.0031667647417634726,-0.0035055188927799463,-0.024273116141557693
1690839817120787500,5.614787353515625,-0.005332713946700096,-0.002276203827932477,-0.025105353444814682
1690839817130827500,5.62482763671875,-0.007582552265375853,-0.0011052117915824056,-0.021142836660146713
1690839817140868400,5.634868408203125,-0.0035079156514257193,0.00018562232435215265,-0.022163892164826393
1690839817150908400,5.644908447265625,-0.005317001137882471,-0.001996039180085063,-0.022670425474643707
1690839817160948500,5.654948486328125,-0.0044996771030128,-0.002344380598515272,-0.019286878407001495
1690839817170989600,5.664989501953125,-0.004433097783476114,-0.0006301039247773588,-0.018439993262290955
1690839817181029400,5.675029296875,-0.0049433596432209015,-0.0025885924696922302,-0.01624475046992302
1690839817191069400,5.6850693359375,-0.005339371506124735,-0.0006570018595084548,-0.018493790179491043
1690839817201140500,5.695140380859375,-0.0067543089389801025,-0.002659698948264122,-0.014629542827606201
1690839817211180500,5.7051806640625,-0.004042412154376507,-0.00041092574247159064,-0.017777930945158005
1690839817221221400,5.715221435546875,-0.005602492019534111,-0.0012748552253469825,-0.015739016234874725
1690839817231261400,5.725261474609375,-0.004824049770832062,-0.002653839997947216,-0.017432520166039467
1690839817241301500,5.735301513671875,-0.004324973560869694,-0.002240783767774701,-0.01721041277050972
1690839817251341300,5.74534130859375,-0.003572896821424365,-0.002918025478720665,-0.0201627928763628
1690839817261382400,5.75538232421875,-0.004002464935183525,0.0007536745979450643,-0.02015320584177971
1690839817271422500,5.76542236328125,-0.00657561095431447,-0.0023188143968582153,-0.02153938077390194
1690839817281462500,5.775462646484375,-0.0039007319137454033,-0.0025331987999379635,-0.023682426661252975
1690839817291502600,5.785502685546875,-0.004936701618134975,-0.0034674357157200575,-0.023316774517297745
1690839817301543400,5.79554345703125,-0.0046445527113974094,-0.004341484978795052,-0.025895247235894203
1690839817311583500,5.80558349609375,-0.0037582528311759233,-0.0036495958920568228,-0.02713681198656559
1690839817321623300,5.815623291015625,-0.004507666453719139,-0.0003379551344551146,-0.02478311024606228
1690839817331664400,5.825664306640625,-0.004789162427186966,-0.0014122743159532547,-0.02468191087245941
1690839817341704400,5.835704345703125,-0.004308994393795729,-0.0007605988066643476,-0.021992916241288185
1690839817351775500,5.845775390625,-0.004225371405482292,-0.0012266519479453564,-0.020862670615315437
1690839817361815600,5.855815673828125,-0.004376106429845095,-0.002864762442186475,-0.019342537969350815
1690839817371855600,5.865855712890625,-0.005233910400420427,-0.0032682311721146107,-0.016922790557146072
1690839817381896400,5.875896484375,-0.0057433731853961945,-0.004777710884809494,-0.01552036963403225
1690839817391936300,5.885936279296875,-0.005690109916031361,-0.004933239426463842,-0.01732759177684784
1690839817401976300,5.895976318359375,-0.0052046156488358974,-0.0020868529099971056,-0.01727645844221115
1690839817412016400,5.906016357421875,-0.005144428461790085,-0.0016580841038376093,-0.019420836120843887
1690839817422057500,5.916057373046875,-0.005047755315899849,0.00033342777169309556,-0.020137226209044456
1690839817432097500,5.92609765625,-0.0049127331003546715,0.0003384877636563033,-0.01955958642065525
1690839817442137600,5.9361376953125,-0.005458415020257235,-0.0004410194815136492,-0.021035777404904366
1690839817452178400,5.946178466796875,-0.005082643125206232,-0.0008990831556729972,-0.020561467856168747
1690839817462218500,5.956218505859375,-0.004513259045779705,-0.002142513170838356,-0.019764384254813194
1690839817472258300,5.96625830078125,-0.004828311037272215,-0.005096225067973137,-0.0195515975356102
1690839817482298400,5.97629833984375,-0.0038866172544658184,-0.002721750643104315,-0.01786208711564541
1690839817492339500,5.98633935546875,-0.004474110435694456,-0.0018018947448581457,-0.020474648103117943
1690839817502409500,5.996409423828125,-0.005752161610871553,-0.0016317188274115324,-0.020965736359357834
1690839817512450600,6.006450439453125,-0.0026434536557644606,-0.0015036207623779774,-0.021997444331645966
1690839817522490600,6.01649072265625,-0.003855990944430232,-0.0021486382465809584,-0.022287461906671524
1690839817532530400,6.026530517578125,-0.005277319811284542,0.0011124024167656898,-0.02407870441675186
1690839817542571300,6.0365712890625,-0.003781422507017851,-0.0009952232940122485,-0.02245497517287731
1690839817552611300,6.046611328125,-0.004307130351662636,-0.0015968313673511147,-0.02321637235581875
1690839817562651400,6.0566513671875,-0.005730057135224342,-0.0012282498646527529,-0.02129250578582287
1690839817572691500,6.06669140625,-0.0037031255196779966,-0.0015028218040242791,-0.01799711026251316
1690839817582732500,6.076732666015625,-0.0028250813484191895,-0.0038040592335164547,-0.01829964481294155
1690839817592772600,6.086772705078125,-0.004308195784687996,-0.0029411951545625925,-0.01834758184850216
1690839817602812400,6.0968125,-0.0037406759802252054,-0.0022269352339208126,-0.014550446532666683
1690839817612853500,6.106853515625,-0.004145476501435041,-0.003620301140472293,-0.01786981150507927
1690839817622893300,6.116893310546875,-0.004756671842187643,-0.004457066301256418,-0.01961657777428627
1690839817632933400,6.126933349609375,-0.005524461157619953,-0.0038048583082854748,-0.020611269399523735
1690839817642973400,6.136973388671875,-0.0041156490333378315,-0.0032538501545786858,-0.01997876726090908
1690839817653044500,6.14704443359375,-0.003260774305090308,-0.0004601942200679332,-0.021280255168676376
1690839817663085600,6.15708544921875,-0.0055817193351686,-0.0016772588714957237,-0.021204087883234024
1690839817673125600,6.167125732421875,-0.00384427304379642,-0.0005408879951573908,-0.021515412256121635
1690839817683165200,6.177165283203125,-0.005562544334679842,0.0023579627741128206,-0.020353475585579872
1690839817693205200,6.187205322265625,-0.002891660202294588,0.0011179950088262558,-0.019461315125226974
1690839817703246300,6.197246337890625,-0.006464024540036917,-0.001588575541973114,-0.02165576070547104
1690839817713286400,6.207286376953125,-0.005367867648601532,-0.006849117577075958,-0.02142965793609619
1690839817723326500,6.217326416015625,-0.005084507167339325,-0.004449876025319099,-0.020188359543681145
1690839817733366500,6.227366455078125,-0.005539374891668558,-0.004477838985621929,-0.019099391996860504
1690839817743407400,6.237407470703125,-0.004764395300298929,-0.005881591234356165,-0.020016850903630257
1690839817753447400,6.247447509765625,-0.003896470880135894,-0.00512791657820344,-0.019417373463511467
1690839817763487200,6.2574873046875,-0.004747617058455944,-0.0014498248929157853,-0.018137725070118904
1690839817773528300,6.2675283203125,-0.0048767803236842155,0.00224877311848104,-0.016765397042036057
1690839817783568400,6.277568359375,-0.00529702752828598,0.005515406373888254,-0.018199510872364044
1690839817793608400,6.2876083984375,-0.005273325368762016,0.004000067710876465,-0.022364960983395576
1690839817803679500,6.297679443359375,-0.003968109842389822,0.0017355820164084435,-0.022599318996071815
1690839817813719600,6.307719482421875,-0.0046243127435445786,0.0013129384024068713,-0.023379091173410416
1690839817823760400,6.317760498046875,-0.005199822131544352,-0.003406449221074581,-0.02551574632525444
1690839817833800200,6.32780029296875,-0.00395585922524333,-0.009064868092536926,-0.023555925115942955
1690839817843840300,6.33784033203125,-0.005167331546545029,-0.011067830957472324,-0.02101260796189308
1690839817853880300,6.34788037109375,-0.006425408646464348,-0.009979929774999619,-0.019662383943796158
1690839817863921400,6.35792138671875,-0.006174006499350071,-0.0066650933586061,-0.017655692994594574
1690839817873961500,6.36796142578125,-0.0057494984939694405,-0.002225337317213416,-0.015596004202961922
1690839817884001500,6.37800146484375,-0.004236023873090744,0.0046160570345819,-0.016576314345002174
1690839817894048300,6.38804833984375,-0.005279982928186655,0.007816111668944359,-0.017305487766861916
1690839817904088300,6.39808837890625,-0.004326837603002787,0.005060805007815361,-0.02081473357975483
1690839817914128400,6.40812841796875,-0.0054703992791473866,0.004537493921816349,-0.022234465926885605
1690839817924168400,6.41816845703125,-0.005709284916520119,-0.0009981527691707015,-0.022275211289525032
1690839817934209300,6.428209228515625,-0.004274639766663313,-0.005182777531445026,-0.020605143159627914
1690839817944279300,6.438279296875,-0.00433136522769928,-0.01137036643922329,-0.020139623433351517
1690839817954320100,6.448320068359375,-0.004505536053329706,-0.012103534303605556,-0.020417390391230583
1690839817964360200,6.458360107421875,-0.006076534744352102,-0.007802795618772507,-0.018621621653437614
1690839817974400300,6.468400146484375,-0.004730572924017906,-0.0038099181838333607,-0.01750975102186203
1690839817984441300,6.47844140625,-0.003867442486807704,-0.0004721784498542547,-0.0187851395457983
1690839817994481400,6.4884814453125,-0.004752411041408777,0.004181429278105497,-0.022727150470018387
1690839818004521500,6.498521484375,-0.005313538946211338,0.006536728702485561,-0.021040037274360657
1690839818014561500,6.5085615234375,-0.006632070057094097,0.006101568229496479,-0.02136094868183136
1690839818024602400,6.518602294921875,-0.005357214715331793,-0.0010700580896809697,-0.023008113726973534
1690839818034642200,6.52864208984375,-0.004893292207270861,-0.004833637271076441,-0.024533571675419807
1690839818044682200,6.53868212890625,-0.005350024439394474,-0.007934356108307838,-0.021086109802126884
1690839818054723300,6.548723388671875,-0.005786516238003969,-0.008594286628067493,-0.018855180591344833
1690839818064763400,6.558763427734375,-0.004795021377503872,-0.006795587949454784,-0.018329206854104996
1690839818074803500,6.568803466796875,-0.0052107409574091434,-0.002969424705952406,-0.016742227599024773
1690839818084843500,6.578843505859375,-0.005101018585264683,-0.0017068199813365936,-0.01739763282239437
1690839818094914300,6.588914306640625,-0.004052532371133566,-0.0002593918761704117,-0.01829352043569088
1690839818104955100,6.598955078125,-0.006728742737323046,0.003914047963917255,-0.019760388880968094
1690839818114995200,6.6089951171875,-0.004296477884054184,0.0013281183782964945,-0.018071677535772324
1690839818125035300,6.61903515625,-0.004775846842676401,-0.0013046825770288706,-0.019160378724336624
1690839818135075300,6.629075439453125,-0.004002997186034918,-0.004611796233803034,-0.021336713805794716
1690839818145116400,6.639116455078125,-0.005546299275010824,-0.002751844236627221,-0.020842697471380234
1690839818155156500,6.649156494140625,-0.004568652715533972,-0.004464789759367704,-0.020256269723176956
1690839818165196300,6.6591962890625,-0.0039044604636728764,-0.0065447185188531876,-0.020708473399281502
1690839818175237000,6.669237060546875,-0.003352387109771371,-0.0027017768006771803,-0.021858694031834602
1690839818185277200,6.679277099609375,-0.0038956720381975174,-0.0019622170366346836,-0.021384650841355324
1690839818195317200,6.689317138671875,-0.005430984310805798,-0.0017691379180178046,-0.02099662832915783
1690839818205357300,6.699357421875,-0.005627259146422148,0.0004873584839515388,-0.021350828930735588
1690839818215398400,6.7093984375,-0.004303934518247843,0.00007483482477255166,-0.020917799323797226
1690839818225438500,6.7194384765625,-0.0041468082927167416,-0.005399559158831835,-0.021833127364516258
1690839818235478500,6.729478515625,-0.003963849041610956,-0.003989947959780693,-0.020840033888816833
1690839818245549300,6.73954931640625,-0.004523645620793104,-0.0006804376607760787,-0.02002643793821335
1690839818255589000,6.749589111328125,-0.0035947347059845924,0.0021947110071778297,-0.02064509131014347
1690839818265630200,6.759630126953125,-0.0041699777357280254,0.0004873584839515388,-0.019776368513703346
1690839818275670300,6.769670166015625,-0.007650729268789291,-0.002100701443850994,-0.016051670536398888
1690839818285710300,6.77971044921875,-0.004993959795683622,-0.0030120352748781443,-0.018335331231355667
1690839818295750400,6.78975048828125,-0.005095958709716797,-0.007154848426580429,-0.019099391996860504
1690839818305791500,6.79979150390625,-0.004418983124196529,-0.006632602773606777,-0.01745409145951271
1690839818315831300,6.809831298828125,-0.0028655612841248512,-0.004830175079405308,-0.018318818882107735
1690839818325871000,6.81987109375,-0.005007275380194187,-0.0016253271605819464,-0.018969163298606873
1690839818335912200,6.829912109375,-0.0038605183362960815,0.005576126743108034,-0.019649866968393326
1690839818345952300,6.8399521484375,-0.0062826634384691715,0.004834702704101801,-0.021016335114836693
1690839818355992300,6.849992431640625,-0.007215568795800209,0.0051537491381168365,-0.023211579769849777
1690839818366032400,6.860032470703125,-0.00571833923459053,0.002484196564182639,-0.02334526926279068
1690839818376073500,6.870073486328125,-0.004609665367752314,-0.0035369442775845528,-0.024707211181521416
1690839818386113300,6.88011328125,-0.004607268609106541,-0.007366569712758064,-0.02292608842253685
1690839818396184300,6.890184326171875,-0.0026612968649715185,-0.011148790828883648,-0.021287444978952408
1690839818406224100,6.90022412109375,-0.0028037759475409985,-0.01136796921491623,-0.02045813761651516
1690839818416264200,6.91026416015625,-0.0038480013608932495,-0.00646668765693903,-0.01894892379641533
1690839818426305300,6.92030517578125,-0.0062704128213226795,-0.006223274860531092,-0.019168101251125336
1690839818436345300,6.930345458984375,-0.005857356358319521,0.0015425028977915645,-0.0208301804959774
1690839818446385400,6.940385498046875,-0.003757187630981207,0.007537811063230038,-0.022552713751792908
1690839818456425200,6.95042529296875,-0.0062488410621881485,0.0070975907146930695,-0.021212877705693245
1690839818466466300,6.96046630859375,-0.003907922655344009,0.006678408943116665,-0.020551081746816635
1690839818476506000,6.970506103515625,-0.003025883575901389,-0.0003605920064728707,-0.020430972799658775
1690839818486546200,6.980546142578125,-0.005483182147145271,-0.003353186184540391,-0.017543839290738106
1690839818496587300,6.990587158203125,-0.0034884747583419085,-0.008499212563037872,-0.015264706686139107
1690839818506627300,7.00062744140625,-0.00561074772849679,-0.01155705377459526,-0.018309498205780983
1690839818516667400,7.01066748046875,-0.00446905056014657,-0.011604990810155869,-0.01606951467692852
1690839818526707500,7.02070751953125,-0.005788647104054689,-0.006196110509335995,-0.01804877445101738
1690839818536748300,7.030748291015625,-0.004180896561592817,-0.0017467673169448972,-0.020846426486968994
1690839818546819300,7.0408193359375,-0.004286890383809805,0.004596349783241749,-0.022366559132933617
1690839818556859100,7.050859130859375,-0.0037023264449089766,0.0059867859818041325,-0.023250993341207504
1690839818566899200,7.060899169921875,-0.005085306242108345,0.00478277076035738,-0.023562317714095116
1690839818576939300,7.070939208984375,-0.005329518113285303,0.0019076223252341151,-0.02406565472483635
1690839818586980400,7.08098046875,-0.0038783615455031395,-0.0009744506096467376,-0.021092768758535385
1690839818597020400,7.0910205078125,-0.004829642828553915,-0.006381466519087553,-0.0184695553034544
1690839818607060200,7.101060302734375,-0.004266916774213314,-0.012292618863284588,-0.020205935463309288
1690839818617101300,7.111101318359375,-0.0051779840141534805,-0.011088071390986443,-0.021372932940721512
1690839818627141000,7.12114111328125,-0.0041372207924723625,-0.007577226031571627,-0.019347598776221275
1690839818637181200,7.13118115234375,-0.0032258869614452124,-0.0016873788554221392,-0.021219268441200256
1690839818647221200,7.14122119140625,-0.004576376173645258,0.001466869143769145,-0.019718842580914497
1690839818657262300,7.151262451171875,-0.005056277383118868,0.0036783581599593163,-0.02358788438141346
1690839818667302400,7.161302490234375,-0.004317782819271088,0.004595817066729069,-0.02208639308810234
1690839818677342500,7.171342529296875,-0.004087686073035002,0.0024562333710491657,-0.02021578885614872
1690839818687383300,7.18138330078125,-0.0040826257318258286,-0.0015755260828882456,-0.01907702162861824
1690839818697453300,7.191453369140625,-0.004769721534103155,-0.004043211229145527,-0.019093267619609833
1690839818707494100,7.201494140625,-0.004486627411097288,-0.0046384274028241634,-0.0167936272919178
1690839818717534200,7.2115341796875,-0.002626942005008459,-0.004238686989992857,-0.01859312504529953
1690839818727574300,7.22157421875,-0.003914846573024988,-0.005787581671029329,-0.017948374152183533
1690839818737614300,7.2316142578125,-0.005062402691692114,-0.0018908443162217736,-0.01780323125422001
1690839818747655400,7.241655517578125,-0.0038029940333217382,-0.0003051982494071126,-0.021691979840397835
1690839818757695200,7.2516953125,-0.0038360171020030975,-0.0015036207623779774,-0.020314060151576996
1690839818767735300,7.2617353515625,-0.003937483765184879,0.0007888282998465002,-0.022819561883807182
1690839818777776000,7.271776123046875,-0.003905792022123933,-0.0018852517241612077,-0.023931965231895447
1690839818787816200,7.281816162109375,-0.004025900736451149,-0.0033334787003695965,-0.022169217467308044
1690839818797856300,7.291856201171875,-0.005192098673433065,-0.001936650718562305,-0.021463213488459587
1690839818807896300,7.301896240234375,-0.004069576505571604,-0.0028735508676618338,-0.020071446895599365
1690839818817937400,7.3119375,-0.003725496120750904,-0.0022825952619314194,-0.02178332582116127
1690839818827977200,7.321977294921875,-0.00430047232657671,-0.0008503473363816738,-0.020296216011047363
1690839818838048300,7.33204833984375,-0.004882373381406069,-0.004884503781795502,-0.020791564136743546
1690839818848088300,7.34208837890625,-0.005858954507857561,-0.001181378262117505,-0.01900431700050831
1690839818858128400,7.35212841796875,-0.003867442486807704,-0.0012913667596876621,-0.019780628383159637
1690839818868169200,7.362169189453125,-0.00512924836948514,-0.0018964370246976614,-0.021771874278783798
1690839818878209300,7.372209228515625,-0.005024319514632225,-0.0009235842735506594,-0.01877049170434475
1690839818888249300,7.382249267578125,-0.005422994960099459,-0.0038195056840777397,-0.019280221313238144
1690839818898267400,7.392267333984375,-0.00538357999175787,-0.005915945861488581,-0.019574234262108803
1690839818908308500,7.40230859375,-0.004382497631013393,-0.0025654230266809464,-0.018499115481972694
1690839818918348500,7.4123486328125,-0.004674113821238279,-0.0013827132061123848,-0.01942775957286358
1690839818928388400,7.422388427734375,-0.006183327175676823,0.00021731393644586205,-0.017719607800245285
1690839818938429400,7.432429443359375,-0.005474393721669912,0.00009640643111197278,-0.02062911167740822
1690839818948469500,7.442469482421875,-0.003062102710828185,0.0009584716754034162,-0.018846925348043442
1690839818958509600,7.452509521484375,-0.0054698665626347065,-0.002635730430483818,-0.01997743733227253
1690839818968549400,7.46254931640625,-0.0044381581246852875,-0.0019624833948910236,-0.020122045651078224
1690839818978590500,7.472590576171875,-0.004963865969330072,-0.004281830508261919,-0.02154843509197235
1690839818988661500,7.48266162109375,-0.003983289934694767,-0.0033193640410900116,-0.021560152992606163
1690839818998701600,7.49270166015625,-0.0044200485572218895,-0.002284992253407836,-0.022999059408903122
1690839819008741400,7.502741455078125,-0.00427250936627388,-0.003355582943186164,-0.021286113187670708
1690839819018781400,7.512781494140625,-0.003832555143162608,-0.001669269404374063,-0.01997264288365841
1690839819028822500,7.522822509765625,-0.00566907087340951,0.0014274542918428779,-0.018371017649769783
1690839819038862600,7.532862548828125,-0.0025835325941443443,0.0024740765802562237,-0.020135361701250076
1690839819048902400,7.54290234375,-0.005693305749446154,-0.003358246060088277,-0.019879965111613274
1690839819058943500,7.552943603515625,-0.005543902516365051,-0.00004953479583491571,-0.019828299060463905
1690839819068983600,7.562983642578125,-0.0037638454232364893,-0.00424241553992033,-0.020081033930182457
1690839819079023400,7.5730234375,-0.005780390929430723,-0.006016347091645002,-0.02058250643312931
1690839819089063400,7.5830634765625,-0.00381471193395555,-0.003343865042552352,-0.02063603699207306
1690839819099104500,7.5931044921875,-0.00449781259521842,-0.003629888640716672,-0.01984933763742447
1690839819109144600,7.60314453125,-0.006190784275531769,-0.0021931130904704332,-0.02021099627017975
1690839819119184400,7.613184326171875,-0.00501180300489068,-0.0036019254475831985,-0.01883920095860958
1690839819129225500,7.6232255859375,-0.004746818449348211,-0.0010727213229984045,-0.01950073055922985
1690839819139295500,7.63329541015625,-0.004297010600566864,-0.0011891013709828258,-0.018019480630755424
1690839819149336600,7.643336669921875,-0.005811283830553293,-0.00019414443522691727,-0.01906503736972809
1690839819159376400,7.65337646484375,-0.005042695440351963,-0.0013052152935415506,-0.01943841204047203
1690839819169416400,7.66341650390625,-0.0035518580116331577,0.0003171824791934341,-0.019719108939170837
1690839819179456500,7.67345654296875,-0.003805390791967511,-0.0003733751946128905,-0.020498882979154587
1690839819189497300,7.683497314453125,-0.004505003336817026,-0.002001631772145629,-0.021337779238820076
1690839819199537400,7.693537353515625,-0.003745736088603735,-0.0036815537605434656,-0.02196415513753891
1690839819209577500,7.703577392578125,-0.004942027851939201,-0.004174771253019571,-0.021795310080051422
1690839819219618600,7.71361865234375,-0.0028152274899184704,-0.003004844533279538,-0.02087545394897461
1690839819229658400,7.723658447265625,-0.003346528159454465,-0.002004827605560422,-0.021394770592451096
1690839819239698400,7.733698486328125,-0.005758020561188459,-0.0009265137487091124,-0.021407553926110268
1690839819249738500,7.743738525390625,-0.006747651379555464,-0.002013349672779441,-0.020837903022766113
1690839819259779300,7.753779296875,-0.004965463653206825,-0.0014476943761110306,-0.021016335114836693
1690839819269819400,7.7638193359375,-0.005505552981048822,-0.0017449031583964825,-0.02153431996703148
1690839819279859500,7.773859375,-0.004782238509505987,-0.0033848776947706938,-0.021451761946082115
1690839819289930200,7.78393017578125,-0.003706587478518486,-0.0019297265680506825,-0.021921277046203613
1690839819299970300,7.79397021484375,-0.005512476898729801,-0.0017084177816286683,-0.020627779886126518
1690839819310011400,7.804011474609375,-0.006292250473052263,-0.0003499393642414361,-0.01865704171359539
1690839819320051500,7.814051513671875,-0.004781705792993307,-0.0013102752855047584,-0.02039928175508976
1690839819330091500,7.824091552734375,-0.004021905828267336,-0.003823766717687249,-0.019404057413339615
1690839819340132400,7.83413232421875,-0.00567093538120389,-0.0023899206425994635,-0.01949087716639042
1690839819350172400,7.84417236328125,-0.004597148858010769,-0.0023904533591121435,-0.020326044410467148
1690839819360212500,7.85421240234375,-0.0037345506716519594,-0.002424541860818863,-0.019936157390475273
1690839819370252300,7.864252197265625,-0.005322061013430357,-0.001118527608923614,-0.019661318510770798
1690839819380293400,7.87429345703125,-0.0057468353770673275,-0.0036903421860188246,-0.019644275307655334
1690839819390333400,7.88433349609375,-0.003811516100540757,-0.0025659557431936264,-0.020713800564408302
1690839819400373500,7.89437353515625,-0.005449892953038216,-0.0028655612841248512,-0.021074391901493073
1690839819410413600,7.90441357421875,-0.0027624969370663166,-0.0010101370280608535,-0.019950006157159805
1690839819420454400,7.914454345703125,-0.0038069887086749077,-0.003176884725689888,-0.0223228819668293
1690839819430494500,7.924494384765625,-0.003203782718628645,-0.0046152579598128796,-0.02190716378390789
1690839819440565200,7.934565185546875,-0.005605687852948904,-0.002966495230793953,-0.02135615423321724
1690839819450605300,7.944605224609375,-0.0046663908287882805,-0.0015819176333025098,-0.021925272420048714
1690839819460645400,7.954645263671875,-0.005405151750892401,-0.004145210143178701,-0.02196069248020649
1690839819470686500,7.9646865234375,-0.004700212739408016,-0.001472461735829711,-0.02003576047718525
1690839819480726500,7.9747265625,-0.004252802114933729,-0.002282062778249383,-0.01991298794746399
1690839819490766600,7.9847666015625,-0.0036770266015082598,-0.002716158051043749,-0.02022564224898815
1690839819500807400,7.994807373046875,-0.005553489550948143,-0.004760134033858776,-0.020648552104830742
1690839819510847500,8.004847412109376,-0.00321843009442091,-0.0012314456980675459,-0.01811828278005123
1690839819520887300,8.01488720703125,-0.004652542527765036,-0.0013100089272484183,-0.019543340429663658
1690839819530927400,8.02492724609375,-0.00407463638111949,-0.0015606123488396406,-0.019896209239959717
1690839819540968400,8.034968505859375,-0.004258394706994295,-0.0011552792275324464,-0.020420053973793983
1690839819551008500,8.045008544921876,-0.006626743823289871,-0.002927612978965044,-0.02381904609501362
1690839819561048600,8.055048583984375,-0.003989681601524353,-0.001272990950383246,-0.021023260429501534
1690839819571089400,8.06508935546875,-0.002602973720058799,-0.002502306131646037,-0.01961497962474823
1690839819581129500,8.07512939453125,-0.003808320267125964,-0.0023334617726504803,-0.020830446854233742
1690839819591200300,8.0852001953125,-0.004650411661714315,-0.0018812569323927164,-0.019601130858063698
1690839819601240300,8.095240234375,-0.004685565363615751,-0.0034850125666707754,-0.01955133117735386
1690839819611280400,8.1052802734375,-0.004730572924017906,0.000365918327588588,-0.01852228492498398
1690839819621320400,8.115320556640626,-0.0059510995633900166,-0.004482898861169815,-0.020201407372951508
1690839819631361500,8.125361572265625,-0.004714061506092548,-0.0015656723408028483,-0.020441891625523567
1690839819641401600,8.135401611328126,-0.004889563657343388,-0.0007898935582488775,-0.02111567184329033
1690839819651441700,8.145441650390625,-0.004887166898697615,-0.0016410398529842496,-0.02136893756687641
1690839819661482500,8.155482421875,-0.033552899956703186,0.018020546063780785,-0.1276429146528244
1690839819671522300,8.165522216796875,-0.03135073184967041,-0.16426190733909607,-0.24255777895450592
1690839819681562400,8.175562255859376,-0.02376951090991497,-0.09392543137073517,-0.21379457414150238
1690839819691602400,8.1856025390625,0.0046602655202150345,-0.0030397321097552776,-0.21004538238048553
1690839819701643500,8.1956435546875,0.020597686991095543,-0.03304663300514221,-0.20399866998195648
1690839819711683600,8.20568359375,0.03368046507239342,-0.06250332295894623,-0.13666117191314697
1690839819721723600,8.2157236328125,0.03772873803973198,-0.05392901226878166,-0.09058582782745361
1690839819731794400,8.22579443359375,0.03759264945983887,-0.048050083220005035,-0.05753812938928604
1690839819741834500,8.23583447265625,0.04155702888965607,-0.028932316228747368,-0.023796409368515015
1690839819751875300,8.245875244140626,0.03645068407058716,-0.02785719744861126,-0.0035246936604380608
1690839819761915400,8.255915283203125,0.026499517261981964,-0.01139806304126978,0.019327359274029732
1690839819771955500,8.26595556640625,0.020133763551712036,0.01034664735198021,0.033182453364133835
1690839819781996500,8.27599658203125,0.010451842099428177,0.029756031930446625,0.050283677875995636
1690839819792036600,8.28603662109375,0.0006005428149364889,0.04523831978440285,0.06460349261760712
1690839819802076700,8.29607666015625,-0.008420915342867374,0.0540832094848156,0.07598690688610077
1690839819812116500,8.306116455078126,-0.015074823051691055,0.05417961627244949,0.08924385905265808
1690839819822157300,8.3161572265625,-0.02014947682619095,0.04765487089753151,0.09310197830200195
1690839819832197400,8.326197265625,-0.016865000128746033,0.030060430988669395,0.09617447108030319
1690839819842237400,8.336237548828125,-0.01071043498814106,0.011152519844472408,0.08930964022874832
1690839819852277500,8.346277587890626,-0.004599545616656542,-0.014280402101576328,0.08203042298555374
1690839819862318600,8.356318603515625,0.0014809839194640517,-0.03015763685107231,0.06873858720064163
1690839819872358700,8.366358642578126,0.004382763989269733,-0.04037512093782425,0.05276387929916382
1690839819882429400,8.376429443359376,0.004960936494171619,-0.03727147355675697,0.031431425362825394
1690839819892456200,8.386456298828126,0.0011717908782884479,-0.022002236917614937,0.0089378347620368
1690839819902496300,8.396496337890625,-0.003195527009665966,-0.008504805155098438,-0.015126221813261509
1690839819912537300,8.406537353515626,-0.003665308468043804,0.010024936869740486,-0.04018683359026909
1690839819922577400,8.416577392578125,-0.008700813166797161,0.023385750129818916,-0.06022126227617264
1690839819932617200,8.4266171875,-0.007713845930993557,0.02630803734064102,-0.078770712018013
1690839819942658300,8.436658203125,-0.00711676524952054,0.023443540558218956,-0.09146866202354431
1690839819952698000,8.446697998046876,-0.005391569808125496,0.012329637072980404,-0.10261319577693939
1690839819962738200,8.45673828125,-0.0032431974541395903,-0.002260491019114852,-0.10674082487821579
1690839819972778200,8.4667783203125,-0.0018394453218206763,-0.014213024638593197,-0.10698903352022171
1690839819982819300,8.4768193359375,-0.0003222425002604723,-0.021392107009887695,-0.10272584855556488
1690839819992859400,8.486859375,-0.0017781927017495036,-0.026102440431714058,-0.09570948034524918
1690839820002899500,8.4968994140625,-0.0028674255590885878,-0.025432389229536057,-0.0859130397439003
1690839820012940300,8.506940185546876,-0.002743588527664542,-0.017462613061070442,-0.07318366318941116
1690839820022980000,8.51697998046875,-0.004972654394805431,-0.014363759197294712,-0.0598745197057724
1690839820033051100,8.527051025390625,-0.005893042776733637,-0.0067939902655780315,-0.04736911505460739
1690839820043091200,8.53709130859375,-0.007212372962385416,0.00009906959166983142,-0.035711657255887985
1690839820053131300,8.54713134765625,-0.006776413414627314,0.004048803821206093,-0.018929217010736465
1690839820063171300,8.55717138671875,-0.004880242515355349,0.010214820504188538,-0.005477323196828365
1690839820073212400,8.56721240234375,-0.004538825247436762,0.010524812154471874,0.007089867256581783
1690839820083252200,8.577252197265626,-0.005043494515120983,0.012662531808018684,0.01913720928132534
1690839820093292300,8.587292236328125,-0.0028850024100393057,0.012312592938542366,0.02936401404440403
1690839820103333000,8.5973330078125,-0.002406698651611805,0.006651244591921568,0.0367758572101593
1690839820113373200,8.607373291015625,-0.00535508431494236,0.002969158347696066,0.04032638296484947
1690839820123413200,8.617413330078126,-0.005858954507857561,-0.002907639369368553,0.04127579927444458
1690839820133453300,8.627453369140625,-0.005635515321046114,-0.008387359790503979,0.039931170642375946
1690839820143494400,8.637494384765626,-0.005874933209270239,-0.010839598253369331,0.035416048020124435
1690839820153534500,8.647534423828125,-0.006138852797448635,-0.009257148019969463,0.027846811339259148
1690839820163574300,8.65757421875,-0.005601692944765091,-0.008873119950294495,0.018092717975378036
1690839820173615000,8.667614990234375,-0.004780906718224287,-0.0026674221735447645,0.007444067858159542
1690839820183685400,8.677685302734375,-0.004450141917914152,0.0017757958266884089,-0.005510080140084028
1690839820193726200,8.687726318359376,-0.002317216480150819,0.0015188007382676005,-0.01786235347390175
1690839820203766300,8.697766357421875,-0.0033960631117224693,0.0073569826781749725,-0.03039279393851757
1690839820213806300,8.707806396484376,-0.005642439238727093,0.0062853265553712845,-0.0404994897544384
1690839820223847400,8.717847412109375,-0.003329750383272767,0.005172924138605595,-0.048528920859098434
1690839820233887200,8.72788720703125,-0.0046695866622030735,-0.00018322547839488834,-0.056589774787425995
1690839820243927300,8.73792724609375,-0.005129780620336533,-0.005234709475189447,-0.06215791404247284
1690839820253967400,8.74796728515625,-0.005016862880438566,-0.008823319338262081,-0.06568340212106705
1690839820264008200,8.75800830078125,-0.004253867082297802,-0.010016415268182755,-0.06382105499505997
1690839820274048300,8.76804833984375,-0.006278402172029018,-0.011401258409023285,-0.06394116580486298
1690839820284088300,8.77808837890625,-0.004000866785645485,-0.009250223636627197,-0.05964149162173271
1690839820294129400,8.78812939453125,-0.004345746245235205,-0.006183593533933163,-0.05560946464538574
1690839820304169200,8.798169189453125,-0.005423261318355799,-0.004458131734281778,-0.04893025755882263
1690839820314209300,8.808209228515626,-0.004306064918637276,0.000013315805517777335,-0.039556197822093964
1690839820324249300,8.818249267578125,-0.005477589555084705,0.001826395862735808,-0.03322719410061836
1690839820334320400,8.8283203125,-0.005028847139328718,0.003035471076145768,-0.022605177015066147
1690839820344360400,8.8383603515625,-0.0037651772145181894,0.007391870021820068,-0.015032212249934673
1690839820354401300,8.8484013671875,-0.005696767941117287,0.0018820558907464147,-0.009094162844121456
1690839820364441300,8.85844140625,-0.004287156742066145,-0.0009656621841713786,-0.0016708672046661377
1690839820374481200,8.868481201171875,-0.0036067189648747444,-0.0012756541837006807,0.004269047174602747
1690839820384522200,8.878522216796876,-0.005119660869240761,-0.005572398193180561,0.008695220574736595
1690839820394562300,8.888562255859375,-0.005565207917243242,-0.004101268015801907,0.009747701697051525
1690839820404602400,8.898602294921876,-0.004208593629300594,-0.005666141398251057,0.012517123483121395
1690839820414642400,8.908642333984375,-0.005576393101364374,-0.003894340479746461,0.013276390731334686
1690839820424683300,8.918683349609376,-0.0062158177606761456,-0.00242187874391675,0.009228918701410294
1690839820434723300,8.928723388671875,-0.003964914008975029,0.0009803095599636436,0.006511428859084845
1690839820444763100,8.93876318359375,-0.0043593281880021095,0.0006591323763132095,-0.0009145294898189604
1690839820454804200,8.94880419921875,-0.003721501212567091,0.0021584921050816774,-0.006397712044417858
1690839820464844300,8.95884423828125,-0.004790494218468666,0.0044394894503057,-0.014005830511450768
1690839820474884400,8.96888427734375,-0.0037883466575294733,0.0012452941155061126,-0.01973428949713707
1690839820484955400,8.978955322265625,-0.0030631679110229015,0.0007163903210312128,-0.026343723759055138
1690839820494995500,8.988995361328126,-0.0037177728954702616,-0.0035425368696451187,-0.03045590966939926
1690839820505035500,8.999035400390625,-0.004568119999021292,-0.0038488004356622696,-0.0350772924721241
1690839820515076400,9.009076416015626,-0.004760666750371456,-0.006859237793833017,-0.04091760516166687
1690839820525116200,9.0191162109375,-0.004514058120548725,-0.007333546411246061,-0.041671015322208405
1690839820535156200,9.02915625,-0.004473578184843063,-0.00449781259521842,-0.045034054666757584
1690839820545197300,9.039197265625,-0.005116997752338648,-0.005539641249924898,-0.045103028416633606
1690839820555237400,9.0492373046875,-0.0034051176626235247,-0.001719869440421462,-0.04332616925239563
1690839820565277400,9.05927734375,-0.004175570327788591,-0.0009970874525606632,-0.03969574719667435
1690839820575317500,9.0693173828125,-0.0031105722300708294,0.0029324067290872335,-0.03851649910211563
1690839820585358300,9.0793583984375,-0.005369465332478285,-0.0000857537888805382,-0.03359631076455116
1690839820595398100,9.089398193359376,-0.003930026665329933,-0.0012428972404450178,-0.02791019342839718
1690839820605438200,9.099438232421875,-0.004641357343643904,-0.003169161733239889,-0.02365259826183319
1690839820615479300,9.109479248046876,-0.003710582386702299,-0.0024945829063653946,-0.02056785859167576
1690839820625549300,9.11954931640625,-0.005051217507570982,-0.003340669209137559,-0.017537448555231094
1690839820635590400,9.12959033203125,-0.005215002223849297,-0.0029862024821341038,-0.011577294208109379
1690839820645630500,9.13963037109375,-0.004605670925229788,-0.002159557305276394,-0.00743155088275671
1690839820655670500,9.14967041015625,-0.0035297537688165903,-0.0019888486713171005,-0.005876797717064619
1690839820665711400,9.15971142578125,-0.005865079816430807,-0.006382265593856573,-0.005736182443797588
1690839820675751200,9.169751220703125,-0.004963599611073732,-0.000871652620844543,-0.0032501218374818563
1690839820685791200,9.179791259765626,-0.0049556102603673935,-0.0009741843095980585,-0.002427737694233656
1690839820695831300,9.189831298828125,-0.004537493921816349,0.0010298443958163261,-0.004378503188490868
1690839820705872400,9.199872314453126,-0.0038099181838333607,0.0013371731620281935,-0.006070409435778856
1690839820715912400,9.209912353515625,-0.004909005016088486,-0.00031664984999224544,-0.009546633809804916
1690839820725952500,9.219952392578126,-0.006413957104086876,0.0012599414912983775,-0.013174657709896564
1690839820735993300,9.229993408203125,-0.005314870737493038,-0.0027483822777867317,-0.014824486337602139
1690839820746033200,9.240033203125,-0.005116465035825968,-0.0026264095213264227,-0.01895558089017868
1690839820756073200,9.2500732421875,-0.005079713650047779,-0.002017078222706914,-0.025118669494986534
1690839820766113300,9.26011328125,-0.003824033075943589,-0.004485296085476875,-0.026067286729812622
1690839820776184300,9.270184326171876,-0.006595584563910961,-0.0041763694025576115,-0.030350981280207634
1690839820786224400,9.280224365234375,-0.0038661109283566475,-0.0009161274065263569,-0.03178615868091583
1690839820796265500,9.290265380859376,-0.005788647104054689,-0.0029236183036118746,-0.031446073204278946
1690839820806305500,9.300305419921875,-0.004629373084753752,0.000731836655177176,-0.03446716442704201
1690839820816345000,9.310344970703126,-0.0054453653283417225,-0.0002348908019484952,-0.0338120274245739
1690839820826386200,9.32038623046875,-0.00500967213883996,-0.0006287723081186414,-0.03299843147397041
1690839820836426200,9.33042626953125,-0.004565190523862839,-0.002544117858633399,-0.03074672631919384
1690839820846466300,9.34046630859375,-0.006428338121622801,-0.0029550434555858374,-0.028659075498580933
1690839820856506400,9.35050634765625,-0.004400873556733131,-0.0029670277144759893,-0.02611602284014225
1690839820866547500,9.36054736328125,-0.00538544449955225,-0.0037766287568956614,-0.024274978786706924
1690839820876587300,9.370587158203126,-0.0057652113027870655,-0.001892175991088152,-0.022110627964138985
1690839820886627000,9.380626953125,-0.0054482948035001755,-0.0028788771014660597,-0.019630426540970802
1690839820896665300,9.390665283203125,-0.004150004126131535,-0.0023041670210659504,-0.01865011639893055
1690839820906705400,9.400705322265624,-0.0036722328513860703,-0.0013933659065514803,-0.015602395869791508
1690839820916745500,9.410745361328125,-0.006196110509335995,-0.002501773415133357,-0.01435363944619894
1690839820926816300,9.420816162109375,-0.005240834783762693,0.00020985709852539003,-0.01260953489691019
1690839820936856300,9.430856201171874,-0.0049497513100504875,-0.0007627293234691024,-0.012004464864730835
1690839820946897200,9.440897216796875,-0.005363073665648699,-0.0006506102508865297,-0.012461196631193161
1690839820956937200,9.450937255859374,-0.004639759194105864,-0.0003307645965833217,-0.011771970428526402
1690839820966977300,9.460977294921875,-0.004336691461503506,0.00008602010348113254,-0.012172776274383068
1690839820977017300,9.471017333984374,-0.002810700098052621,-0.0020881847012788057,-0.01239275373518467
1690839820987058400,9.481058349609375,-0.0043910201638937,-0.004226702731102705,-0.014977085404098034
1690839820997098500,9.491098388671874,-0.003802461316809058,-0.004245611373335123,-0.015204519033432007
1690839821007138300,9.50113818359375,-0.004457865376025438,-0.005726595409214497,-0.018759572878479958
1690839821017178400,9.511178466796874,-0.0034967304673045874,-0.0019086875254288316,-0.02099023573100567
1690839821027219200,9.52121923828125,-0.0032895365729928017,-0.000010652644050423987,-0.022292789071798325
1690839821037259300,9.53125927734375,-0.005673598498106003,-0.0030839405953884125,-0.024388963356614113
1690839821047299300,9.54129931640625,-0.004342816770076752,0.001139566651545465,-0.024211063981056213
1690839821057340400,9.55134033203125,-0.005309011787176132,-0.0005989448982290924,-0.02539403922855854
1690839821067380500,9.56138037109375,-0.003364904085174203,-0.0005374259199015796,-0.026981815695762634
1690839821077451300,9.571451171875,-0.004801146686077118,-0.0015219965716823936,-0.02761618047952652
1690839821087491300,9.5814912109375,-0.006317018065601587,-0.0035446672700345516,-0.025831863284111023
1690839821097531400,9.591531494140625,-0.0038101845420897007,-0.00259418529458344,-0.023852335289120674
1690839821107572200,9.601572265625,-0.004935103934258223,-0.0028900622855871916,-0.025043834000825882
1690839821117612300,9.6116123046875,-0.003978496417403221,-0.0024586303625255823,-0.023260582238435745
1690839821127652400,9.62165234375,-0.005364938173443079,-0.0015600797487422824,-0.0247237216681242
1690839821137692400,9.6316923828125,-0.004046939779073,-0.00216594897210598,-0.02256895788013935
1690839821147733500,9.6417333984375,-0.0037063213530927896,-0.0019185412675142288,-0.020000074058771133
1690839821157773300,9.651773193359375,-0.005717274267226458,-0.0026636936236172915,-0.019120164215564728
1690839821167813400,9.6618134765625,-0.00529489666223526,-0.0007424892974086106,-0.01708497665822506
1690839821177854200,9.671854248046875,-0.0043747746385633945,-0.002526541007682681,-0.017777664586901665
1690839821187894300,9.681894287109374,-0.003960386849939823,-0.002523611532524228,-0.017425861209630966
1690839821197934300,9.691934326171875,-0.005302353762090206,-0.0019920445047318935,-0.014511831104755402
1690839821207974400,9.701974365234374,-0.006473079323768616,-0.00007137271313695237,-0.0147485863417387
1690839821218015500,9.712015380859375,-0.003942010924220085,-0.003087136195972562,-0.014798386953771114
1690839821228085200,9.722085205078125,-0.005785717628896236,-0.0036485306918621063,-0.016053002327680588
1690839821238126300,9.732126220703124,-0.005018460564315319,-0.00398701848462224,-0.015930762514472008
1690839821248166400,9.74216650390625,-0.005518602207303047,-0.0038900794461369514,-0.01666419766843319
1690839821258206500,9.75220654296875,-0.0027915253303945065,-0.00009134642459684983,-0.019715381786227226
1690839821268247300,9.762247314453125,-0.003855191869661212,-0.0015092133544385433,-0.01883946731686592
1690839821278287400,9.772287353515624,-0.0037406759802252054,-0.003787015099078417,-0.020442690700292587
1690839821288327400,9.782327392578125,-0.004893824923783541,-0.002751844236627221,-0.02245497517287731
1690839821298367200,9.7923671875,-0.004848551005125046,0.0002495381922926754,-0.02298414520919323
1690839821308408300,9.802408203125,-0.004397677723318338,0.0007036071619950235,-0.02111061103641987
1690839821318448400,9.812448486328124,-0.004450940992683172,-0.002439455594867468,-0.0235801599919796
1690839821328488400,9.822488525390625,-0.004495415836572647,-0.0024493092205375433,-0.025118669494986534
1690839821338529300,9.832529296875,-0.0054882424883544445,-0.002814695006236434,-0.022424882277846336
1690839821348569300,9.8425693359375,-0.00612154183909297,-0.0036519928835332394,-0.025421736761927605
1690839821358609400,9.852609375,-0.004788363818079233,-0.0019182749092578888,-0.025589250028133392
1690839821368649200,9.862649169921875,-0.0038567897863686085,-0.004883438348770142,-0.025077655911445618
1690839821378720300,9.87272021484375,-0.005497829522937536,-0.0015006912872195244,-0.02317642606794834
1690839821388761300,9.88276123046875,-0.0033846113365143538,-0.0009379653492942452,-0.021286912262439728
1690839821398801400,9.892801513671875,-0.003858654061332345,-0.003712712787091732,-0.021267205476760864
1690839821408841500,9.902841552734374,-0.0034139060880988836,-0.0013467605458572507,-0.02153165638446808
1690839821418881500,9.912881591796875,-0.005088767968118191,-0.002026399364694953,-0.020652014762163162
1690839821428922400,9.92292236328125,-0.004778776317834854,-0.0015779229579493403,-0.018982479348778725
1690839821438962200,9.932962158203125,-0.004385161213576794,-0.0018767296569421887,-0.018980082124471664
1690839821449002200,9.943002197265624,-0.005268265027552843,-0.0024117587599903345,-0.0196839552372694
1690839821459043300,9.953043212890625,-0.004743356257677078,0.0006370281334966421,-0.018556905910372734
1690839821469083400,9.96308349609375,-0.005494900047779083,0.00026498452643863857,-0.018500447273254395
1690839821479123500,9.97312353515625,-0.004200337454676628,-0.003456516657024622,-0.015000787563621998
1690839821489163500,9.98316357421875,-0.0032266860362142324,-0.0024173513520509005,-0.016160061582922935
1690839821499204400,9.993204345703125,-0.004712196998298168,-0.0008143946761265397,-0.016695888713002205
1690839821509244400,10.003244384765624,-0.0038722362369298935,-0.0034940673504024744,-0.019038937985897064
1690839821519315200,10.013315185546874,-0.004087686073035002,-0.003775030840188265,-0.02093377709388733
1690839821529355300,10.023355224609375,-0.00458649592474103,-0.002801911672577262,-0.019424032419919968
1690839821539395300,10.033395263671874,-0.004391286056488752,-0.00012916330888401717,-0.0193161740899086
1690839821549436400,10.0434365234375,-0.005032575689256191,-0.002487658755853772,-0.02008955553174019
1690839821559476500,10.0534765625,-0.005049886181950569,0.0002210423699580133,-0.020922059193253517
1690839821569516500,10.0635166015625,-0.005212604999542236,-0.0005723133217543364,-0.022010760381817818
1690839821579556400,10.073556396484374,-0.004690092988312244,-0.0026583673898130655,-0.02231968753039837
1690839821589597200,10.08359716796875,-0.0046453517861664295,-0.0036634444259107113,-0.022772423923015594
1690839821599637200,10.09363720703125,-0.006007025949656963,-0.003334543900564313,-0.023841949179768562
1690839821609677300,10.10367724609375,-0.004766792058944702,-0.0029795446898788214,-0.021444039419293404
1690839821619718400,10.113718505859374,-0.005333512555807829,-0.0017132115317508578,-0.02232474647462368
1690839821629758500,10.123758544921875,-0.004247741773724556,-0.0011179950088262558,-0.020086092874407768
1690839821639798500,10.133798583984374,-0.004993693437427282,-0.0014482269762083888,-0.02287202700972557
1690839821649838300,10.14383837890625,-0.0038900794461369514,0.0008567389450035989,-0.020963072776794434
1690839821659879400,10.15387939453125,-0.003823234001174569,-0.00250523560680449,-0.020253872498869896
1690839821669949200,10.16394921875,-0.005393433850258589,-0.001663410454057157,-0.01980512961745262
1690839821679990300,10.173990234375,-0.005849899724125862,-0.000015446334145963192,-0.01877262257039547
1690839821690030300,10.1840302734375,-0.005030977539718151,-0.0021611552219837904,-0.019244002178311348
1690839821700070400,10.1940703125,-0.003955060616135597,-0.002223206916823983,-0.019664514809846878
1690839821710111500,10.204111572265624,-0.005883455276489258,-0.004491155035793781,-0.01968022808432579
1690839821720151600,10.214151611328125,-0.001702026231214404,-0.002028529765084386,-0.018808575347065926
1690839821730191000,10.224191162109374,-0.004623247776180506,-0.00284958234988153,-0.019688216969370842
1690839821740231200,10.234231201171875,-0.0046328348107635975,-0.0037787591572850943,-0.01912762224674225
1690839821750272300,10.244272216796874,-0.0057311225682497025,-0.0006657902849838138,-0.016627978533506393
1690839821760312300,10.254312255859375,-0.003994208760559559,0.00007163903501350433,-0.019524166360497475
1690839821770352400,10.264352294921874,-0.00415453128516674,0.0011638014111667871,-0.017846908420324326
1690839821780393500,10.2743935546875,-0.003867708845064044,-0.0009408948244526982,-0.019274095073342323
1690839821790433300,10.284433349609374,-0.004808337427675724,-0.00042796999332495034,-0.019177423790097237
1690839821800473300,10.294473388671875,-0.0052173989824950695,-0.003882622579112649,-0.020057864487171173
1690839821810513200,10.30451318359375,-0.0041153826750814915,-0.00013182646944187582,-0.021251225844025612
1690839821820584200,10.314584228515624,-0.005048554390668869,-0.003204315435141325,-0.021699968725442886
1690839821830625300,10.324625244140625,-0.004311391618102789,-0.005468002520501614,-0.022233400493860245
1690839821840665300,10.334665283203124,-0.006767624989151955,-0.003884752979502082,-0.022833144292235374
1690839821850705400,10.344705322265625,-0.003817907767370343,-0.0027861990965902805,-0.020720990374684334
1690839821860745500,10.354745361328124,-0.0046570696868002415,-0.002397377509623766,-0.02004161849617958
1690839821870786300,10.364786376953125,-0.004923918284475803,-0.0029696908313781023,-0.02329467050731182
1690839821880826000,10.374826171875,-0.004446147475391626,-0.0013467605458572507,-0.0217905156314373
1690839821890866200,10.3848662109375,-0.005362807307392359,0.0018074874533340335,-0.022466693073511124
1690839821900895500,10.3948955078125,-0.0041010016575455666,-0.0015387744642794132,-0.02208506129682064
1690839821910935600,10.404935546875,-0.004290618933737278,-0.00008335694292327389,-0.02130582183599472
1690839821920975400,10.414975341796875,-0.00370126124471426,-0.0012916331179440022,-0.01920059323310852
1690839821931015400,10.425015380859374,-0.003859186777845025,-0.00279019377194345,-0.021402226760983467
1690839821941056500,10.435056396484375,-0.004869856406003237,-0.003763579297810793,-0.019813651219010353
1690839821951096600,10.4450966796875,-0.00632048025727272,-0.001823732745833695,-0.018968630582094193
1690839821961136600,10.45513671875,-0.005504221189767122,-0.0031997880432754755,-0.020124442875385284
1690839821971207700,10.465207763671875,-0.005393966566771269,-0.0026130937039852142,-0.0191316157579422
1690839821981247700,10.475247802734375,-0.0038506644777953625,-0.002722283359616995,-0.019274627789855003
1690839821991288600,10.48528857421875,-0.005455751903355122,-0.0009121326729655266,-0.019045596942305565
1690839822001328400,10.495328369140625,-0.004575310740619898,-0.0009659285424277186,-0.019941750913858414
1690839822011368400,10.505368408203125,-0.0052259210497140884,-0.002828543307259679,-0.020354539155960083
1690839822021408500,10.515408447265624,-0.005912750028073788,-0.002525741932913661,-0.01985972560942173
1690839822031449600,10.52544970703125,-0.004712996073067188,-0.003096990054473281,-0.020807011052966118
1690839822041489700,10.53548974609375,-0.004881574306637049,-0.0027206854429095984,-0.01998143084347248
1690839822051529700,10.54552978515625,-0.004030960611999035,-0.0013134710025042295,-0.02111860178411007
1690839822061570600,10.555570556640625,-0.006744721904397011,-0.002314287004992366,-0.021541777998209
1690839822071610400,10.5656103515625,-0.004375040996819735,-0.00023196132679004222,-0.020747888833284378
1690839822081650400,10.575650390625,-0.004005660768598318,-0.0014476943761110306,-0.020385699346661568
1690839822091690500,10.5856904296875,-0.005744704511016607,-0.004649879410862923,-0.022492259740829468
1690839822101731600,10.595731689453125,-0.0037830201908946037,-0.0026463831309229136,-0.022128738462924957
1690839822111771600,10.605771728515625,-0.00401551416143775,-0.0013590110465884209,-0.020654944702982903
1690839822121842700,10.6158427734375,-0.004918325692415237,-0.001900964416563511,-0.021734056994318962
1690839822131882500,10.625882568359375,-0.005423527676612139,-0.0028301412239670753,-0.021434186026453972
1690839822141922600,10.635922607421875,-0.0046301716938614845,-0.0010130665032193065,-0.02045201137661934
1690839822151963400,10.64596337890625,-0.006533000618219376,-0.00370126124471426,-0.021445637568831444
1690839822162003500,10.65600341796875,-0.0038120488170534372,-0.0027417242527008057,-0.020364128053188324
1690839822172043500,10.66604345703125,-0.003778493031859398,-0.0027166905347257853,-0.02262062393128872
1690839822182083600,10.67608349609375,-0.0040735709480941296,-0.0027979169972240925,-0.022167619317770004
1690839822192124700,10.686124755859375,-0.005411809775978327,-0.003909786697477102,-0.021819811314344406
1690839822202164700,10.696164794921875,-0.004343083128333092,-0.0028546424582600594,-0.02016492374241352
1690839822212204500,10.70620458984375,-0.004856540355831385,-0.0020852552261203527,-0.019274361431598663
1690839822222245400,10.716245361328125,-0.003442934714257717,-0.0017907095607370138,-0.017774736508727074
1690839822232285400,10.726285400390625,-0.004342550411820412,-0.0009384979493916035,-0.019516443833708763
1690839822242325500,10.736325439453125,-0.0038088529836386442,-0.0031374699901789427,-0.019996877759695053
1690839822252365600,10.746365478515624,-0.004262655507773161,-0.004396612755954266,-0.019815249368548393
1690839822262406700,10.75640673828125,-0.005320463329553604,-0.0020152139477431774,-0.01901204138994217
1690839822272477700,10.766477783203126,-0.005255215801298618,-0.0025569009594619274,-0.02076466754078865
1690839822282517500,10.776517578125,-0.005656288005411625,-0.0009888317435979843,-0.0204530768096447
1690839822292557600,10.7865576171875,-0.004156928043812513,-0.0012591425329446793,-0.01924746483564377
1690839822302597600,10.79659765625,-0.004791026934981346,-0.0007568703731521964,-0.02063603699207306
1690839822312638500,10.806638427734375,-0.005769472103565931,-0.0015041533624753356,-0.02045867033302784
1690839822322678500,10.816678466796875,-0.005605687852948904,-0.002460494404658675,-0.020305005833506584
1690839822332718600,10.826718505859375,-0.004231496714055538,-0.0033862092532217503,-0.020834442228078842
1690839822342759700,10.836759765625,-0.003913781605660915,-0.0022913836874067783,-0.020079169422388077
1690839822352799700,10.8467998046875,-0.005289570428431034,-0.001088700257241726,-0.020793695002794266
1690839822362839600,10.856839599609375,-0.0036903421860188246,-0.001555552356876433,-0.020361730828881264
1690839822372879600,10.866879638671875,-0.00532632227987051,-0.003379285102710128,-0.02105788141489029
1690839822382920400,10.87692041015625,-0.005423527676612139,-0.0020295949652791023,-0.021210214123129845
1690839822392960500,10.88696044921875,-0.004453071393072605,-0.0017329188995063305,-0.02118837647140026
1690839822403000600,10.89700048828125,-0.005249090492725372,-0.0023315974976867437,-0.021344436332583427
1690839822413071600,10.907071533203125,-0.0046181874349713326,-0.0022064289078116417,-0.022818762809038162
1690839822423111400,10.917111328125,-0.005520200356841087,-0.00355878216214478,-0.0202778410166502
1690839822433152500,10.927152587890625,-0.004864796530455351,-0.003120958572253585,-0.02021845243871212
1690839822443192600,10.937192626953125,-0.004199272487312555,-0.00481259822845459,-0.02015799842774868
1690839822453232600,10.947232666015625,-0.0041646515019237995,-0.001160072977654636,-0.019629893824458122
1690839822463272400,10.9572724609375,-0.0029678267892450094,0.0005161206354387105,-0.017964620143175125
1690839822473313500,10.9673134765625,-0.003802727675065398,-0.00028282770654186606,-0.01937156729400158
1690839822483353600,10.977353515625,-0.004976116586476564,0.00041332258842885494,-0.019061574712395668
1690839822493393700,10.9873935546875,-0.006127667147666216,-0.003745203372091055,-0.021574800834059715
1690839822503434800,10.997434814453126,-0.004897020757198334,-0.004785966593772173,-0.019753465428948402
1690839822513474600,11.007474609375,-0.0038714371621608734,-0.00481206551194191,-0.021876269951462746
1690839822523514600,11.0175146484375,-0.0046544065698981285,-0.005053347907960415,-0.019957195967435837
1690839822533554400,11.027554443359374,-0.00455773388966918,-0.005575327668339014,-0.022665897384285927
1690839822543595500,11.037595458984375,-0.0057039582170546055,-0.004211256746202707,-0.020664798095822334
1690839822553635600,11.047635498046875,-0.005107676610350609,0.0005251753609627485,-0.020680777728557587
1690839822563706600,11.05770654296875,-0.005344165489077568,0.001148355077020824,-0.01998782344162464
1690839822573746400,11.067746337890625,-0.0070278155617415905,0.002123604528605938,-0.020231768488883972
1690839822583786500,11.077786376953124,-0.004282629117369652,0.0016104135429486632,-0.02135508880019188
1690839822593827600,11.08782763671875,-0.004667456261813641,0.00012969593808520585,-0.02015773206949234
1690839822603867600,11.09786767578125,-0.005119394510984421,-0.0012207929976284504,-0.021444305777549744
1690839822613907500,11.107907470703125,-0.004671184346079826,-0.0041244374588131905,-0.02154657058417797
1690839822623947500,11.117947509765624,-0.004602475091814995,-0.00640703272074461,-0.02040620520710945
1690839822633988600,11.127988525390625,-0.004244545940309763,-0.009985256008803844,-0.02063523791730404
1690839822644028700,11.138028564453125,-0.005464806687086821,-0.00917245913296938,-0.018759839236736298
1690839822654068500,11.148068359375,-0.00538544449955225,-0.008106129243969917,-0.02123498171567917
1690839822664109600,11.158109619140625,-0.006695985794067383,-0.0029342707712203264,-0.022493591532111168
1690839822674149600,11.168149658203125,-0.004932706709951162,0.0016383767360821366,-0.02135615423321724
1690839822684189400,11.178189453125,-0.0036852823104709387,0.004715925548225641,-0.02178119495511055
1690839822694229500,11.1882294921875,-0.0050687943585217,0.005815012380480766,-0.021254954859614372
1690839822704270600,11.1982705078125,-0.003507649526000023,0.004652009811252356,-0.020324712619185448
1690839822714341600,11.208341552734375,-0.005677859298884869,0.0002402171230642125,-0.019597403705120087
1690839822724381400,11.21838134765625,-0.005782255437225103,-0.004890629090368748,-0.0176977701485157
1690839822734421500,11.22842138671875,-0.0044197821989655495,-0.006120743229985237,-0.01974467560648918
1690839822744461600,11.238461669921875,-0.00475374236702919,-0.009784187190234661,-0.01890231855213642
1690839822754502700,11.248502685546875,-0.004177700728178024,-0.010809238068759441,-0.01985919289290905
1690839822764542500,11.25854248046875,-0.004165716469287872,-0.006975884083658457,-0.019785689190030098
1690839822774582500,11.26858251953125,-0.005773200653493404,-0.0019403791520744562,-0.0223295409232378
1690839822784623600,11.27862353515625,-0.004858138505369425,0.0019654128700494766,-0.022666163742542267
1690839822794663400,11.288663330078125,-0.0043777041137218475,0.005369198974221945,-0.020177971571683884
1690839822804703500,11.298703369140625,-0.003888481529429555,0.0037758296821266413,-0.02269119769334793
1690839822814743600,11.30874365234375,-0.006030728109180927,0.00043516053119674325,-0.021749503910541534
1690839822824784600,11.31878466796875,-0.004324174486100674,-0.0027198863681405783,-0.01931191235780716
1690839822834824400,11.328824462890625,-0.005360943265259266,-0.0017811221769079566,-0.019954532384872437
1690839822844864500,11.338864501953125,-0.0032597091048955917,-0.006658435333520174,-0.020050939172506332
1690839822854905600,11.348905517578125,-0.005434712860733271,-0.007180415093898773,-0.01896010898053646
1690839822864975400,11.358975341796874,-0.004636829718947411,-0.008073372766375542,-0.02184431254863739
1690839822875016400,11.369016357421875,-0.004344148561358452,-0.006588127929717302,-0.019156649708747864
1690839822885056500,11.379056396484375,-0.005506617948412895,-0.0030711572617292404,-0.01979873888194561
1690839822895105500,11.38910546875,-0.004581968765705824,-0.0018519621808081865,-0.021220067515969276
1690839822905145600,11.3991455078125,-0.004707403481006622,0.00043755737715400755,-0.022045115008950233
1690839822915186700,11.409186767578126,-0.004188619554042816,0.002142246812582016,-0.020917532965540886
1690839822925226800,11.419226806640625,-0.002927080262452364,0.002600576728582382,-0.019953735172748566
1690839822935266600,11.4292666015625,-0.004598746541887522,-0.0015536881983280182,-0.018864501267671585
1690839822945307400,11.439307373046875,-0.004930576309561729,-0.003010969841852784,-0.02064216136932373
1690839822955347500,11.449347412109375,-0.006743123754858971,-0.005380384158343077,-0.0189041830599308
1690839822965387500,11.459387451171875,-0.004431500099599361,-0.008947156369686127,-0.020545221865177155
1690839822975427600,11.469427490234375,-0.006835535634309053,-0.008860070258378983,-0.019704729318618774
1690839822985468700,11.47946875,-0.0033816818613559008,-0.005750829819589853,-0.02093803882598877
1690839822995508700,11.4895087890625,-0.005149488337337971,-0.0011113371001556516,-0.0222078338265419
1690839823005548500,11.499548583984375,-0.004344680812209845,0.0014735270524397492,-0.020666928961873055
1690839823015619600,11.50961962890625,-0.00509942090138793,0.003213103860616684,-0.020799554884433746
1690839823025659600,11.51965966796875,-0.004887433256953955,0.0032676986884325743,-0.02268214337527752
1690839823035700500,11.529700439453125,-0.006789728999137878,0.0023435817565768957,-0.02021126262843609
1690839823045740500,11.539740478515625,-0.006072007119655609,-0.0011289139511063695,-0.02022484503686428
1690839823055780600,11.549780517578125,-0.003683950752019882,-0.0036448021419346333,-0.020181167870759964
1690839823065821700,11.55982177734375,-0.004512193612754345,-0.004319114610552788,-0.020615529268980026
1690839823075861800,11.56986181640625,-0.0052291168831288815,-0.009019327349960804,-0.02082325704395771
1690839823085901600,11.579901611328125,-0.00478330347687006,-0.005362274590879679,-0.018507104367017746
1690839823095941600,11.589941650390625,-0.005408081226050854,-0.004474376793950796,-0.02111167646944523
1690839823105982500,11.599982421875,-0.004555869847536087,-0.004028297495096922,-0.02075374871492386
1690839823116022500,11.6100224609375,-0.00381417921744287,-0.00404507527127862,-0.023133281618356705
1690839823126062600,11.6200625,-0.004012851044535637,-0.0009885653853416443,-0.020414460450410843
1690839823136102700,11.6301025390625,-0.005498362239450216,0.0013941648649051785,-0.01979580894112587
1690839823146143700,11.640143798828126,-0.003748132847249508,-0.0014423680258914828,-0.018551846966147423
1690839823156183600,11.65018359375,-0.0038903458043932915,0.0009837717516347766,-0.019332950934767723
1690839823166254600,11.660254638671875,-0.0032855418976396322,-0.000728907180018723,-0.018860239535570145
1690839823176294700,11.670294677734375,-0.004846154246479273,-0.0024373249616473913,-0.02064109593629837
1690839823186334700,11.680334716796875,-0.005677326582372189,-0.006119411438703537,-0.022350845858454704
1690839823196375600,11.69037548828125,-0.005147357936948538,-0.005131645128130913,-0.021098360419273376
1690839823206415600,11.70041552734375,-0.0046762446872889996,-0.005885053426027298,-0.019830962643027306
1690839823216455700,11.71045556640625,-0.0037830201908946037,-0.0031699605751782656,-0.02166667953133583
1690839823226496800,11.720496826171875,-0.005265069659799337,-0.001787779969163239,-0.019454391673207283
1690839823236536600,11.73053662109375,-0.004493818152695894,-0.00036618465674109757,-0.01906530372798443
1690839823246576600,11.74057666015625,-0.002837331732735038,-0.00030360036180354655,-0.021578263491392136
1690839823256616700,11.75061669921875,-0.004077299498021603,0.0008234494016505778,-0.019640013575553894
1690839823266657500,11.760657470703125,-0.004396346397697926,-0.00042637207661755383,-0.020808342844247818
1690839823276697600,11.770697509765625,-0.0037670412566512823,-0.0043715788051486015,-0.020367588847875595
1690839823286737700,11.780737548828125,-0.003994741477072239,-0.00006285060226218775,-0.018927352502942085
