time,seconds_elapsed,z,y,x
1690839134098025500,0.032025390625,-0.9729461669921875,0.0858917236328125,0.009674072265625
1690839134108034600,0.04203466796875,-0.9722137451171875,0.0848846435546875,0.004638671875
1690839134118044700,0.052044677734375,-0.96923828125,0.0844268798828125,0.00042724609375
1690839134128084700,0.062084716796875,-0.9677734375,0.0831146240234375,-0.00177001953125
1690839134138125600,0.07212548828125,-0.967803955078125,0.0829010009765625,-0.0025634765625
1690839134148165600,0.08216552734375,-0.9677276611328125,0.0826873779296875,-0.0014495849609375
1690839134158205400,0.092205322265625,-0.9686126708984375,0.0789794921875,0.000213623046875
1690839134168246500,0.10224658203125,-0.9683990478515625,0.0749053955078125,0.003814697265625
1690839134178286600,0.11228662109375,-0.9691925048828125,0.072601318359375,0.00830078125
1690839134188326700,0.12232666015625,-0.970428466796875,0.06890869140625,0.0109710693359375
1690839134198397700,0.132397705078125,-0.9725189208984375,0.0645751953125,0.014068603515625
1690839134208437800,0.142437744140625,-0.9744415283203125,0.0593414306640625,0.014068603515625
1690839134218477800,0.152477783203125,-0.976409912109375,0.05316162109375,0.012908935546875
1690839134228518700,0.1625185546875,-0.9764404296875,0.04742431640625,0.01031494140625
1690839134238541800,0.172541748046875,-0.977752685546875,0.04296875,0.0072479248046875
1690839134248582000,0.182581787109375,-0.9783477783203125,0.03851318359375,0.0044708251953125
1690839134258623000,0.192623046875,-0.9785003662109375,0.0348358154296875,0.0024871826171875
1690839134268663000,0.2026630859375,-0.9795684814453125,0.0335845947265625,0.0026092529296875
1690839134278702800,0.212702880859375,-0.9801025390625,0.032562255859375,0.0040435791015625
1690839134288743000,0.222742919921875,-0.98052978515625,0.0341339111328125,0.0063018798828125
1690839134298784000,0.232783935546875,-0.980316162109375,0.036346435546875,0.007904052734375
1690839134308823800,0.24282373046875,-0.9794769287109375,0.0395965576171875,0.00897216796875
1690839134318864000,0.25286376953125,-0.9780120849609375,0.0428466796875,0.0097808837890625
1690839134328905000,0.262905029296875,-0.9771881103515625,0.0469207763671875,0.00994873046875
1690839134338945000,0.272945068359375,-0.975341796875,0.0513153076171875,0.009185791015625
1690839134348984800,0.28298486328125,-0.9738006591796875,0.0567779541015625,0.0084381103515625
1690839134359056000,0.293055908203125,-0.9733123779296875,0.061065673828125,0.006561279296875
1690839134369095700,0.303095703125,-0.9712982177734375,0.0645751953125,0.005157470703125
1690839134379136800,0.31313671875,-0.9698028564453125,0.0675048828125,0.0057525634765625
1690839134389176800,0.3231767578125,-0.97052001953125,0.0701141357421875,0.006011962890625
1690839134399217000,0.333216796875,-0.9701080322265625,0.0722198486328125,0.0068206787109375
1690839134409257000,0.343257080078125,-0.969207763671875,0.075042724609375,0.0057373046875
1690839134419298000,0.353298095703125,-0.9698944091796875,0.0749359130859375,0.006103515625
1690839134429337900,0.363337890625,-0.96954345703125,0.0742645263671875,0.0063323974609375
1690839134439378000,0.3733779296875,-0.969390869140625,0.07470703125,0.006011962890625
1690839134449419000,0.3834189453125,-0.96990966796875,0.07318115234375,0.0052337646484375
1690839134459458800,0.393458740234375,-0.97027587890625,0.0722808837890625,0.0054168701171875
1690839134469499000,0.403498779296875,-0.9705352783203125,0.070648193359375,0.0054779052734375
1690839134479539000,0.4135390625,-0.9705657958984375,0.0693206787109375,0.0048828125
1690839134489580000,0.423580078125,-0.972564697265625,0.0667724609375,0.0059051513671875
1690839134499619800,0.433619873046875,-0.973419189453125,0.063568115234375,0.0063934326171875
1690839134509660000,0.443659912109375,-0.9744415283203125,0.0604095458984375,0.007110595703125
1690839134519730700,0.453730712890625,-0.975921630859375,0.05706787109375,0.0077972412109375
1690839134529770800,0.463770751953125,-0.9765472412109375,0.053985595703125,0.0089569091796875
1690839134539811800,0.473811767578125,-0.977294921875,0.0501708984375,0.0090179443359375
1690839134549852000,0.483851806640625,-0.97821044921875,0.0470733642578125,0.0085601806640625
1690839134559892000,0.49389208984375,-0.97930908203125,0.0450592041015625,0.0073089599609375
1690839134569932000,0.50393212890625,-0.98052978515625,0.0441436767578125,0.006378173828125
1690839134579972900,0.513972900390625,-0.9791259765625,0.042449951171875,0.0057830810546875
1690839134590013000,0.524012939453125,-0.979461669921875,0.0424346923828125,0.0053253173828125
1690839134600052700,0.534052734375,-0.980010986328125,0.04425048828125,0.0058441162109375
1690839134610093800,0.54409375,-0.97918701171875,0.0457763671875,0.0066680908203125
1690839134620134000,0.5541337890625,-0.9788360595703125,0.047515869140625,0.0067138671875
1690839134630174000,0.564174072265625,-0.9782257080078125,0.0504150390625,0.00732421875
1690839134640214000,0.574214111328125,-0.9759521484375,0.0535888671875,0.0074005126953125
1690839134650254800,0.5842548828125,-0.9764404296875,0.0563507080078125,0.008026123046875
1690839134660295000,0.594294921875,-0.9764251708984375,0.0587921142578125,0.0083160400390625
1690839134670334700,0.604334716796875,-0.9746551513671875,0.06072998046875,0.0074310302734375
1690839134680405800,0.61440576171875,-0.973907470703125,0.0628662109375,0.0067901611328125
1690839134690445800,0.62444580078125,-0.97369384765625,0.0644989013671875,0.0065155029296875
1690839134700487000,0.63448681640625,-0.9737396240234375,0.0662689208984375,0.0067596435546875
1690839134710527000,0.64452685546875,-0.9728546142578125,0.06793212890625,0.006103515625
1690839134720567000,0.654567138671875,-0.9725341796875,0.067840576171875,0.005950927734375
1690839134730606800,0.66460693359375,-0.9731292724609375,0.06842041015625,0.0062713623046875
1690839134740648000,0.67464794921875,-0.971923828125,0.0680084228515625,0.0058746337890625
1690839134750687700,0.684687744140625,-0.973541259765625,0.0672454833984375,0.005523681640625
1690839134760727800,0.694727783203125,-0.9734954833984375,0.0661468505859375,0.0058441162109375
1690839134770769000,0.704768798828125,-0.9729156494140625,0.06524658203125,0.0068359375
1690839134780809000,0.71480908203125,-0.974609375,0.06396484375,0.0062408447265625
1690839134790849000,0.72484912109375,-0.974945068359375,0.0619354248046875,0.007568359375
1690839134800889000,0.73488916015625,-0.975860595703125,0.0594024658203125,0.0073394775390625
1690839134810930000,0.744929931640625,-0.976654052734375,0.0575714111328125,0.0071258544921875
1690839134820969700,0.7549697265625,-0.9768829345703125,0.055419921875,0.0075836181640625
1690839134831009800,0.765009765625,-0.9778289794921875,0.05291748046875,0.00762939453125
1690839134841080800,0.775080810546875,-0.9785614013671875,0.0514068603515625,0.0071868896484375
1690839134851121000,0.785120849609375,-0.977630615234375,0.051361083984375,0.006378173828125
1690839134861162000,0.795161865234375,-0.9798431396484375,0.0498046875,0.0060272216796875
1690839134871202000,0.8052021484375,-0.9789276123046875,0.0491790771484375,0.00537109375
1690839134881241900,0.815241943359375,-0.97998046875,0.048980712890625,0.006134033203125
1690839134891282700,0.82528271484375,-0.9788818359375,0.0499114990234375,0.0066986083984375
1690839134901322800,0.83532275390625,-0.9790496826171875,0.05072021484375,0.00738525390625
1690839134911362800,0.84536279296875,-0.9780731201171875,0.0511474609375,0.00726318359375
1690839134921403000,0.85540283203125,-0.979217529296875,0.0531463623046875,0.0083465576171875
1690839134931444000,0.86544384765625,-0.976165771484375,0.0545806884765625,0.0069122314453125
1690839134941484000,0.875484130859375,-0.9796600341796875,0.056182861328125,0.0075225830078125
1690839134951524000,0.885524169921875,-0.9723968505859375,0.057861328125,0.006439208984375
1690839134961565000,0.89556494140625,-0.980377197265625,0.0606231689453125,0.0070037841796875
1690839134971604700,0.905604736328125,-0.970245361328125,0.060546875,0.0059967041015625
1690839134981644800,0.915644775390625,-0.979461669921875,0.0630645751953125,0.0068206787109375
1690839134991684900,0.925684814453125,-0.973052978515625,0.0626220703125,0.0068511962890625
1690839135001756000,0.935755859375,-0.97601318359375,0.0629425048828125,0.005523681640625
1690839135011796000,0.9457958984375,-0.9759368896484375,0.0626678466796875,0.0068206787109375
1690839135021837000,0.955837158203125,-0.97296142578125,0.0634765625,0.0065460205078125
1690839135031876900,0.965876953125,-0.9782562255859375,0.0635833740234375,0.0071258544921875
1690839135041917000,0.9759169921875,-0.97088623046875,0.0623931884765625,0.006927490234375
1690839135051957800,0.985957763671875,-0.978851318359375,0.06219482421875,0.00738525390625
1690839135061997800,0.995997802734375,-0.9731903076171875,0.061279296875,0.00677490234375
1690839135072038000,1.006037841796875,-0.9787750244140625,0.060791015625,0.006683349609375
1690839135082078000,1.016077880859375,-0.9759674072265625,0.0591583251953125,0.00592041015625
1690839135092119000,1.026119140625,-0.977294921875,0.058502197265625,0.006805419921875
1690839135102159000,1.0361591796875,-0.9799346923828125,0.0570220947265625,0.0069732666015625
1690839135112199000,1.046198974609375,-0.975494384765625,0.0553741455078125,0.0065460205078125
1690839135122239700,1.05623974609375,-0.98101806640625,0.054443359375,0.0067138671875
1690839135132279800,1.06627978515625,-0.976470947265625,0.0527496337890625,0.00677490234375
1690839135142319900,1.07631982421875,-0.9796295166015625,0.0534820556640625,0.007598876953125
1690839135152360000,1.08635986328125,-0.9780426025390625,0.052703857421875,0.00653076171875
1690839135162401000,1.096401123046875,-0.978729248046875,0.051788330078125,0.0062255859375
1690839135172470800,1.106470703125,-0.9790496826171875,0.052215576171875,0.0063629150390625
1690839135182511900,1.116511962890625,-0.9775390625,0.05316162109375,0.00701904296875
1690839135192552000,1.126552001953125,-0.9792633056640625,0.0549163818359375,0.00701904296875
1690839135202592000,1.136592041015625,-0.977264404296875,0.0560455322265625,0.0067291259765625
1690839135212632800,1.1466328125,-0.9793701171875,0.0567779541015625,0.0079498291015625
1690839135222673000,1.1566728515625,-0.9775390625,0.0563507080078125,0.0069122314453125
1690839135232713000,1.166712890625,-0.978485107421875,0.0576629638671875,0.0067138671875
1690839135242742800,1.17674267578125,-0.9775238037109375,0.059173583984375,0.0068511962890625
1690839135252783900,1.186783935546875,-0.976226806640625,0.059417724609375,0.0067138671875
1690839135262824000,1.196823974609375,-0.9775238037109375,0.05926513671875,0.0064544677734375
1690839135272863700,1.20686376953125,-0.9755706787109375,0.0608062744140625,0.0063323974609375
1690839135282904800,1.21690478515625,-0.978057861328125,0.0625,0.00579833984375
1690839135292945000,1.22694482421875,-0.9749755859375,0.0623016357421875,0.0059051513671875
1690839135302985000,1.23698486328125,-0.9778900146484375,0.061920166015625,0.00665283203125
1690839135313024800,1.247024658203125,-0.976409912109375,0.0619964599609375,0.006744384765625
1690839135323065900,1.25706591796875,-0.9763031005859375,0.061187744140625,0.00689697265625
1690839135333137000,1.267136962890625,-0.9772186279296875,0.0605926513671875,0.00714111328125
1690839135343177000,1.277177001953125,-0.9771270751953125,0.06036376953125,0.0072021484375
1690839135353216800,1.287216796875,-0.978179931640625,0.0590972900390625,0.0071258544921875
1690839135363256800,1.2972568359375,-0.9783172607421875,0.0583648681640625,0.006561279296875
1690839135373298000,1.3072978515625,-0.978790283203125,0.057647705078125,0.006500244140625
1690839135383338000,1.317337890625,-0.9783477783203125,0.0560455322265625,0.006500244140625
1690839135393377800,1.327377685546875,-0.9780731201171875,0.05609130859375,0.006805419921875
1690839135403419000,1.3374189453125,-0.9791412353515625,0.0551300048828125,0.0069122314453125
1690839135413459000,1.347458984375,-0.9791259765625,0.055328369140625,0.00689697265625
1690839135423498800,1.357498779296875,-0.9792938232421875,0.055450439453125,0.0069580078125
1690839135433538800,1.367538818359375,-0.9796600341796875,0.0551605224609375,0.0067596435546875
1690839135443580000,1.377579833984375,-0.9807586669921875,0.0554656982421875,0.006500244140625
1690839135453620000,1.387619873046875,-0.9783935546875,0.0556182861328125,0.006805419921875
1690839135463659800,1.39765966796875,-0.9795684814453125,0.0557708740234375,0.0065765380859375
1690839135473700900,1.407700927734375,-0.97772216796875,0.0560760498046875,0.0061187744140625
1690839135483741000,1.417740966796875,-0.977691650390625,0.0567626953125,0.0067901611328125
1690839135493812000,1.42781201171875,-0.979583740234375,0.057159423828125,0.0068511962890625
1690839135503851800,1.437851806640625,-0.9785003662109375,0.05767822265625,0.0068511962890625
1690839135513891800,1.447891845703125,-0.9776763916015625,0.0584259033203125,0.0067138671875
1690839135523932000,1.457931884765625,-0.977813720703125,0.058685302734375,0.0071258544921875
1690839135533973000,1.467972900390625,-0.9779815673828125,0.058868408203125,0.00689697265625
1690839135544012800,1.4780126953125,-0.9779815673828125,0.059539794921875,0.0062408447265625
1690839135554052900,1.488052978515625,-0.9769134521484375,0.0603790283203125,0.0062713623046875
1690839135564094000,1.498093994140625,-0.977264404296875,0.0605316162109375,0.0070953369140625
1690839135574133800,1.5081337890625,-0.976776123046875,0.06060791015625,0.006195068359375
1690839135584173800,1.518173828125,-0.9770965576171875,0.0603179931640625,0.0057525634765625
1690839135594214000,1.5282138671875,-0.9775848388671875,0.0592041015625,0.006439208984375
1690839135604255000,1.5382548828125,-0.978118896484375,0.0593109130859375,0.007354736328125
1690839135614294800,1.548294677734375,-0.9783935546875,0.05908203125,0.0071868896484375
1690839135624334800,1.5583349609375,-0.9789886474609375,0.0581817626953125,0.008056640625
1690839135634376000,1.5683759765625,-0.977569580078125,0.05792236328125,0.007720947265625
1690839135644415700,1.578415771484375,-0.977935791015625,0.0572662353515625,0.0067596435546875
1690839135654486800,1.58848681640625,-0.9787445068359375,0.057708740234375,0.0069732666015625
1690839135664526800,1.59852685546875,-0.9783782958984375,0.05670166015625,0.00714111328125
1690839135674567000,1.60856689453125,-0.9790496826171875,0.0552978515625,0.0068206787109375
1690839135684606700,1.618606689453125,-0.9783935546875,0.0556182861328125,0.005218505859375
1690839135694647800,1.628647705078125,-0.9789581298828125,0.056365966796875,0.005767822265625
1690839135704687900,1.63868798828125,-0.978973388671875,0.05706787109375,0.0077362060546875
1690839135714728000,1.64872802734375,-0.979522705078125,0.056854248046875,0.00787353515625
1690839135724768800,1.658768798828125,-0.9779052734375,0.0568389892578125,0.006683349609375
1690839135734808800,1.668808837890625,-0.97979736328125,0.0576324462890625,0.0072479248046875
1690839135744849000,1.678848876953125,-0.9794464111328125,0.0568084716796875,0.0078125
1690839135754888700,1.688888671875,-0.9782867431640625,0.0568084716796875,0.0067596435546875
1690839135764929800,1.6989296875,-0.9787139892578125,0.0567169189453125,0.006317138671875
1690839135774969900,1.708969970703125,-0.9785919189453125,0.057373046875,0.0069580078125
1690839135785010000,1.719010009765625,-0.9784698486328125,0.05902099609375,0.006744384765625
1690839135795050800,1.72905078125,-0.9786224365234375,0.0592041015625,0.007232666015625
1690839135805090800,1.7390908203125,-0.979095458984375,0.059051513671875,0.0066070556640625
1690839135815161900,1.749161865234375,-0.9778594970703125,0.0591583251953125,0.006439208984375
1690839135825202000,1.759201904296875,-0.9781646728515625,0.0598297119140625,0.006988525390625
1690839135835241700,1.76924169921875,-0.9795989990234375,0.0589599609375,0.0072479248046875
1690839135845282800,1.77928271484375,-0.9788055419921875,0.0590057373046875,0.006927490234375
1690839135855323000,1.789322998046875,-0.97882080078125,0.0584564208984375,0.007171630859375
1690839135865363000,1.799363037109375,-0.9795684814453125,0.05780029296875,0.007232666015625
1690839135875403000,1.809403076171875,-0.9763336181640625,0.058624267578125,0.0073394775390625
1690839135885443800,1.81944384765625,-0.9795684814453125,0.0574493408203125,0.006866455078125
1690839135895484000,1.82948388671875,-0.9783477783203125,0.05889892578125,0.006439208984375
1690839135905523700,1.839523681640625,-0.9792938232421875,0.0576171875,0.00592041015625
1690839135915564800,1.849564697265625,-0.9801788330078125,0.0576324462890625,0.006195068359375
1690839135925604900,1.85960498046875,-0.978546142578125,0.0583343505859375,0.00653076171875
1690839135935645000,1.86964501953125,-0.978851318359375,0.05743408203125,0.0072479248046875
1690839135945685000,1.87968505859375,-0.97833251953125,0.0565185546875,0.0067596435546875
1690839135955725800,1.889725830078125,-0.9786376953125,0.0565185546875,0.0074310302734375
1690839135965766000,1.899765869140625,-0.980224609375,0.0566253662109375,0.0073089599609375
1690839135975836700,1.909836669921875,-0.978271484375,0.0566864013671875,0.0069427490234375
1690839135985876700,1.919876708984375,-0.9798126220703125,0.0570831298828125,0.00665283203125
1690839135995916800,1.929916748046875,-0.9783172607421875,0.056915283203125,0.0072784423828125
1690839136005958000,1.9399580078125,-0.9801483154296875,0.056610107421875,0.00738525390625
1690839136015998000,1.949998046875,-0.9776153564453125,0.0572662353515625,0.006072998046875
1690839136026038000,1.9600380859375,-0.9810333251953125,0.0575714111328125,0.0059051513671875
1690839136036078000,1.970078125,-0.9774169921875,0.0571136474609375,0.0057220458984375
1690839136046119000,1.980118896484375,-0.9791717529296875,0.0578460693359375,0.0063629150390625
1690839136056158700,1.99015869140625,-0.978607177734375,0.0586090087890625,0.0072784423828125
1690839136066198800,2.00019873046875,-0.9777984619140625,0.0582427978515625,0.0075531005859375
1690839136076240000,2.010239990234375,-0.979705810546875,0.0576934814453125,0.0082855224609375
1690839136086280000,2.020280029296875,-0.9790191650390625,0.058380126953125,0.0076904296875
1690839136096320000,2.030320068359375,-0.978302001953125,0.0580596923828125,0.0072784423828125
1690839136106360000,2.040360107421875,-0.9795379638671875,0.05810546875,0.00714111328125
1690839136116401000,2.05040087890625,-0.9785919189453125,0.058013916015625,0.00714111328125
1690839136126440700,2.060440673828125,-0.97900390625,0.05889892578125,0.006072998046875
1690839136136511700,2.07051171875,-0.978790283203125,0.0587005615234375,0.005859375
1690839136146551800,2.0805517578125,-0.9794464111328125,0.05853271484375,0.0047607421875
1690839136156591900,2.090591796875,-0.9779205322265625,0.0577239990234375,0.005523681640625
1690839136166633000,2.100633056640625,-0.98016357421875,0.0583343505859375,0.006439208984375
1690839136176673000,2.110673095703125,-0.97833251953125,0.058319091796875,0.00628662109375
1690839136186713000,2.120713134765625,-0.97967529296875,0.057708740234375,0.00701904296875
1690839136196753000,2.1307529296875,-0.978759765625,0.0573883056640625,0.0080108642578125
1690839136206793700,2.140793701171875,-0.97979736328125,0.0570220947265625,0.008270263671875
1690839136216833800,2.150833740234375,-0.980712890625,0.0570526123046875,0.007537841796875
1690839136226873900,2.160873779296875,-0.979766845703125,0.057281494140625,0.0075836181640625
1690839136236915000,2.1709150390625,-0.9798431396484375,0.0579376220703125,0.0064544677734375
1690839136246963700,2.180963623046875,-0.9784088134765625,0.0579833984375,0.0051116943359375
1690839136257003500,2.19100341796875,-0.9791717529296875,0.05712890625,0.0052947998046875
1690839136267043600,2.201043701171875,-0.9795074462890625,0.0574188232421875,0.004974365234375
1690839136277084700,2.211084716796875,-0.9793548583984375,0.0574188232421875,0.00592041015625
1690839136287124700,2.221124755859375,-0.979278564453125,0.0576629638671875,0.00616455078125
1690839136297195800,2.23119580078125,-0.978668212890625,0.0576324462890625,0.00665283203125
1690839136307235800,2.24123583984375,-0.9796295166015625,0.057861328125,0.007659912109375
1690839136317275600,2.251275634765625,-0.9803009033203125,0.058685302734375,0.0088348388671875
1690839136327316500,2.26131640625,-0.9799957275390625,0.058349609375,0.008575439453125
1690839136337356500,2.2713564453125,-0.97900390625,0.0578765869140625,0.008880615234375
1690839136347396600,2.281396728515625,-0.980224609375,0.0578155517578125,0.0070343017578125
1690839136357437700,2.291437744140625,-0.9799652099609375,0.05804443359375,0.005462646484375
1690839136367477800,2.301477783203125,-0.98028564453125,0.058258056640625,0.0052032470703125
1690839136377517800,2.311517822265625,-0.979339599609375,0.0579376220703125,0.0064697265625
1690839136387557600,2.3215576171875,-0.9783477783203125,0.0583343505859375,0.0057830810546875
1690839136397598500,2.331598388671875,-0.9793701171875,0.05804443359375,0.005523681640625
1690839136407638500,2.341638427734375,-0.97930908203125,0.0581512451171875,0.00616455078125
1690839136417678600,2.3516787109375,-0.979095458984375,0.058563232421875,0.0078887939453125
1690839136427719700,2.3617197265625,-0.9787445068359375,0.057861328125,0.007781982421875
1690839136437759700,2.371759765625,-0.9784698486328125,0.057403564453125,0.008941650390625
1690839136447799800,2.3817998046875,-0.9795989990234375,0.0577545166015625,0.0079345703125
1690839136457870800,2.391870849609375,-0.98052978515625,0.0575103759765625,0.0079803466796875
1690839136467910700,2.40191064453125,-0.9793701171875,0.057281494140625,0.0077056884765625
1690839136477950500,2.411950439453125,-0.97967529296875,0.057586669921875,0.0070037841796875
1690839136487991600,2.421991455078125,-0.979034423828125,0.057708740234375,0.0063323974609375
1690839136498031600,2.432031494140625,-0.9785308837890625,0.0576934814453125,0.005462646484375
1690839136508071700,2.44207177734375,-0.978607177734375,0.057525634765625,0.005157470703125
1690839136518112800,2.45211279296875,-0.9785919189453125,0.057098388671875,0.005218505859375
1690839136528152800,2.46215283203125,-0.979766845703125,0.0579681396484375,0.006103515625
1690839136538192400,2.4721923828125,-0.9793853759765625,0.057403564453125,0.0069122314453125
1690839136548232400,2.482232421875,-0.9796142578125,0.057708740234375,0.00750732421875
1690839136558273500,2.4922734375,-0.98052978515625,0.057952880859375,0.0080718994140625
1690839136568313600,2.502313720703125,-0.9800262451171875,0.057464599609375,0.0096588134765625
1690839136578353700,2.512353759765625,-0.979522705078125,0.0577239990234375,0.009307861328125
1690839136588394800,2.522394775390625,-0.97979736328125,0.057952880859375,0.007415771484375
1690839136598434600,2.5324345703125,-0.9797821044921875,0.058349609375,0.0072479248046875
1690839136608474600,2.542474609375,-0.97998046875,0.0587921142578125,0.00677490234375
1690839136618545400,2.55254541015625,-0.978546142578125,0.0590667724609375,0.0053253173828125
1690839136628585500,2.56258544921875,-0.9819488525390625,0.059539794921875,0.001953125
1690839136638626600,2.57262646484375,-0.9779205322265625,0.0574493408203125,0.0030517578125
1690839136648666600,2.58266650390625,-0.979766845703125,0.0569610595703125,0.00262451171875
1690839136658706700,2.592706787109375,-0.9769134521484375,0.0563812255859375,0.0043487548828125
1690839136668746800,2.602746826171875,-0.9788665771484375,0.055877685546875,0.010009765625
1690839136678787600,2.61278759765625,-0.978302001953125,0.05731201171875,0.013092041015625
1690839136688827400,2.622827392578125,-0.979888916015625,0.058319091796875,0.0157318115234375
1690839136698867500,2.632867431640625,-0.9811553955078125,0.0594940185546875,0.015655517578125
1690839136708907500,2.642907470703125,-0.9832611083984375,0.0594024658203125,0.0129547119140625
1690839136718948600,2.652948486328125,-0.9816131591796875,0.05914306640625,0.008392333984375
1690839136728988700,2.66298876953125,-0.9811553955078125,0.0587615966796875,-0.0002899169921875
1690839136739028700,2.67302880859375,-0.9777679443359375,0.0577239990234375,-0.00604248046875
1690839136749069600,2.683069580078125,-0.9764862060546875,0.056427001953125,-0.0081329345703125
1690839136759109600,2.693109619140625,-0.97540283203125,0.0561065673828125,-0.005859375
1690839136769149400,2.7031494140625,-0.9774627685546875,0.05657958984375,0.001434326171875
1690839136779220500,2.713220458984375,-0.9768524169921875,0.0561065673828125,0.0098876953125
1690839136789260500,2.723260498046875,-0.982330322265625,0.057342529296875,0.018646240234375
1690839136799301600,2.733301513671875,-0.981231689453125,0.0583038330078125,0.0247802734375
1690839136809341700,2.743341796875,-0.9847259521484375,0.05755615234375,0.0261077880859375
1690839136819381800,2.7533818359375,-0.9825439453125,0.058135986328125,0.0212554931640625
1690839136829421600,2.763421630859375,-0.98291015625,0.0597381591796875,0.0117645263671875
1690839136839462400,2.77346240234375,-0.980499267578125,0.0596466064453125,-0.00030517578125
1690839136849502500,2.78350244140625,-0.9773712158203125,0.0578460693359375,-0.01177978515625
1690839136859542500,2.79354248046875,-0.975860595703125,0.056488037109375,-0.0179901123046875
1690839136869583600,2.80358349609375,-0.975067138671875,0.0561065673828125,-0.01605224609375
1690839136879623700,2.813623779296875,-0.9760589599609375,0.055633544921875,-0.0067596435546875
1690839136889663700,2.823663818359375,-0.977752685546875,0.0565185546875,0.0063323974609375
1690839136899703600,2.83370361328125,-0.97955322265625,0.057891845703125,0.0201416015625
1690839136909744600,2.84374462890625,-0.9833831787109375,0.059051513671875,0.0299835205078125
1690839136919784400,2.853784423828125,-0.9834442138671875,0.0596466064453125,0.0325469970703125
1690839136929824500,2.863824462890625,-0.984649658203125,0.0616912841796875,0.029296875
1690839136939895600,2.8738955078125,-0.9829254150390625,0.0620574951171875,0.0189361572265625
1690839136949935600,2.883935546875,-0.9812469482421875,0.05999755859375,0.0052947998046875
1690839136959976700,2.893976806640625,-0.97747802734375,0.058685302734375,-0.0094451904296875
1690839136970016800,2.904016845703125,-0.975311279296875,0.0574188232421875,-0.0186004638671875
1690839136980056600,2.914056640625,-0.9735565185546875,0.0566253662109375,-0.019561767578125
1690839136990096600,2.9240966796875,-0.97406005859375,0.0552215576171875,-0.0131988525390625
1690839137000137500,2.934137451171875,-0.9777984619140625,0.05584716796875,0.0002593994140625
1690839137010177500,2.944177490234375,-0.980224609375,0.0572052001953125,0.0160980224609375
1690839137020217600,2.954217529296875,-0.98284912109375,0.05780029296875,0.0268707275390625
1690839137030258700,2.9642587890625,-0.9833831787109375,0.0589141845703125,0.03204345703125
1690839137040298800,2.974298828125,-0.985565185546875,0.05865478515625,0.0309906005859375
1690839137050338600,2.984338623046875,-0.984161376953125,0.05889892578125,0.0235137939453125
1690839137060378600,2.994378662109375,-0.981109619140625,0.0586395263671875,0.0096893310546875
1690839137070419500,3.00441943359375,-0.9791717529296875,0.058441162109375,-0.00445556640625
1690839137080459500,3.01445947265625,-0.976104736328125,0.05712890625,-0.01513671875
1690839137090499600,3.02449951171875,-0.974517822265625,0.0553741455078125,-0.0186767578125
1690839137100570600,3.034570556640625,-0.9751434326171875,0.0557708740234375,-0.0137786865234375
1690839137110610700,3.044610595703125,-0.97698974609375,0.05548095703125,-0.0028076171875
1690839137120651800,3.05465185546875,-0.979217529296875,0.0564117431640625,0.0102081298828125
1690839137130691600,3.064691650390625,-0.981658935546875,0.0576629638671875,0.0218505859375
1690839137140731600,3.074731689453125,-0.9829864501953125,0.0582275390625,0.0287322998046875
1690839137150771700,3.084771728515625,-0.9850616455078125,0.0589141845703125,0.0293121337890625
1690839137160812500,3.0948125,-0.98468017578125,0.0591888427734375,0.0229644775390625
1690839137170852600,3.1048525390625,-0.9817352294921875,0.059326171875,0.012420654296875
1690839137180892700,3.114892578125,-0.9791717529296875,0.058013916015625,-0.0010223388671875
1690839137190933800,3.124933837890625,-0.97674560546875,0.0571136474609375,-0.01129150390625
1690839137200973600,3.1349736328125,-0.9755401611328125,0.0566864013671875,-0.014801025390625
1690839137211013600,3.145013671875,-0.975067138671875,0.056182861328125,-0.0130462646484375
1690839137221053700,3.1550537109375,-0.9773712158203125,0.05645751953125,-0.0037078857421875
1690839137231094500,3.165094482421875,-0.97991943359375,0.0574798583984375,0.0075836181640625
1690839137241111600,3.175111572265625,-0.9821929931640625,0.058258056640625,0.017669677734375
1690839137251151600,3.185151611328125,-0.983856201171875,0.058868408203125,0.0240936279296875
1690839137261222700,3.19522265625,-0.9841766357421875,0.0599517822265625,0.0256195068359375
1690839137271262500,3.205262451171875,-0.983154296875,0.0597686767578125,0.021514892578125
1690839137281303300,3.21530322265625,-0.9819488525390625,0.05926513671875,0.013824462890625
1690839137291343400,3.22534326171875,-0.9793853759765625,0.0587005615234375,0.00299072265625
1690839137301383400,3.235383544921875,-0.976287841796875,0.0578765869140625,-0.005828857421875
1690839137311424500,3.245424560546875,-0.975494384765625,0.0569305419921875,-0.0095672607421875
1690839137321464600,3.255464599609375,-0.9761810302734375,0.0568695068359375,-0.0092010498046875
1690839137331504600,3.265504638671875,-0.9770965576171875,0.05706787109375,-0.003021240234375
1690839137341544400,3.27554443359375,-0.9795989990234375,0.0570220947265625,0.006103515625
1690839137351585300,3.285585205078125,-0.9810638427734375,0.057708740234375,0.0155181884765625
1690839137361625300,3.295625244140625,-0.9824981689453125,0.0574493408203125,0.02154541015625
1690839137371665400,3.30566552734375,-0.9831695556640625,0.0578765869140625,0.0224761962890625
1690839137381706500,3.31570654296875,-0.982177734375,0.0583038330078125,0.018218994140625
1690839137391746600,3.32574658203125,-0.9811553955078125,0.0578155517578125,0.0114288330078125
1690839137401786600,3.33578662109375,-0.9805908203125,0.05841064453125,0.0039215087890625
1690839137411857700,3.345857666015625,-0.97900390625,0.0572357177734375,-0.0030670166015625
1690839137421897500,3.3558974609375,-0.97784423828125,0.05633544921875,-0.0066680908203125
1690839137431937500,3.3659375,-0.9779205322265625,0.0561676025390625,-0.005462646484375
1690839137441978400,3.375978271484375,-0.9783935546875,0.056121826171875,-0.000885009765625
1690839137452018400,3.386018310546875,-0.97943115234375,0.0570220947265625,0.005645751953125
1690839137462058500,3.39605859375,-0.98046875,0.0579376220703125,0.0133514404296875
1690839137472099600,3.406099609375,-0.9825897216796875,0.05816650390625,0.01812744140625
1690839137482139600,3.4161396484375,-0.9825286865234375,0.0584869384765625,0.0186920166015625
1690839137492179500,3.426179443359375,-0.981781005859375,0.0584869384765625,0.015655517578125
1690839137502219500,3.436219482421875,-0.9814605712890625,0.058807373046875,0.0103912353515625
1690839137512260400,3.44626025390625,-0.979217529296875,0.058807373046875,0.0040435791015625
1690839137522300400,3.456300537109375,-0.97821044921875,0.0590667724609375,-0.0017547607421875
1690839137532340500,3.466340576171875,-0.9781951904296875,0.057586669921875,-0.003936767578125
1690839137542381600,3.476381591796875,-0.977935791015625,0.0575714111328125,-0.0025482177734375
1690839137552421600,3.486421630859375,-0.978729248046875,0.0570526123046875,0.0019378662109375
1690839137562461700,3.496461669921875,-0.9799652099609375,0.0578460693359375,0.007080078125
1690839137572532500,3.506532470703125,-0.9803924560546875,0.058868408203125,0.012237548828125
1690839137582572500,3.516572509765625,-0.981597900390625,0.0585174560546875,0.0149688720703125
1690839137592613400,3.52661328125,-0.9817962646484375,0.0588836669921875,0.0150909423828125
1690839137602653400,3.5366533203125,-0.981658935546875,0.0584869384765625,0.013702392578125
1690839137612693500,3.546693603515625,-0.980316162109375,0.0577850341796875,0.0095367431640625
1690839137622733600,3.556733642578125,-0.9794769287109375,0.0569610595703125,0.004150390625
1690839137632774700,3.566774658203125,-0.978729248046875,0.057373046875,0.0005645751953125
1690839137642814500,3.576814453125,-0.9783477783203125,0.056854248046875,-0.000762939453125
1690839137652854500,3.5868544921875,-0.978485107421875,0.0571441650390625,-0.0009613037109375
1690839137662894600,3.59689453125,-0.978973388671875,0.05645751953125,0.003143310546875
1690839137672935400,3.606935302734375,-0.979583740234375,0.0570068359375,0.0067138671875
1690839137682975500,3.6169755859375,-0.980072021484375,0.0569915771484375,0.011199951171875
1690839137693015600,3.627015625,-0.98095703125,0.0574798583984375,0.0140380859375
1690839137703056600,3.637056640625,-0.981231689453125,0.0574493408203125,0.0131988525390625
1690839137713096400,3.647096435546875,-0.9813079833984375,0.058197021484375,0.011566162109375
1690839137723136500,3.657136474609375,-0.9810638427734375,0.057281494140625,0.0072021484375
1690839137733207600,3.66720751953125,-0.979736328125,0.0571746826171875,0.00390625
1690839137743247600,3.67724755859375,-0.9792022705078125,0.057891845703125,0.00103759765625
1690839137753288400,3.687288330078125,-0.97796630859375,0.0565338134765625,0.00042724609375
1690839137763328500,3.69732861328125,-0.977691650390625,0.0575408935546875,0.0017242431640625
1690839137773368600,3.70736865234375,-0.9795379638671875,0.0576019287109375,0.004974365234375
1690839137783408400,3.717408447265625,-0.980133056640625,0.0583648681640625,0.007598876953125
1690839137793449500,3.727449462890625,-0.9799652099609375,0.05938720703125,0.0110321044921875
1690839137803489500,3.737489501953125,-0.980682373046875,0.0585174560546875,0.0123291015625
1690839137813529600,3.747529541015625,-0.9803619384765625,0.057586669921875,0.011749267578125
1690839137823570400,3.7575703125,-0.9801177978515625,0.0585479736328125,0.0094146728515625
1690839137833610500,3.767610595703125,-0.9795989990234375,0.0588836669921875,0.0064239501953125
1690839137843650600,3.777650634765625,-0.9791107177734375,0.0588226318359375,0.00396728515625
1690839137853690400,3.7876904296875,-0.9784088134765625,0.0579376220703125,0.00286865234375
1690839137863731500,3.7977314453125,-0.97930908203125,0.0576324462890625,0.00213623046875
1690839137873771500,3.807771484375,-0.979034423828125,0.057586669921875,0.00372314453125
1690839137883811600,3.8178115234375,-0.9793701171875,0.057830810546875,0.0058135986328125
1690839137893882600,3.827882568359375,-0.9795684814453125,0.05767822265625,0.0090789794921875
1690839137903922400,3.83792236328125,-0.980712890625,0.0584259033203125,0.010467529296875
1690839137913963500,3.847963623046875,-0.9811859130859375,0.0573577880859375,0.01116943359375
1690839137924003600,3.858003662109375,-0.981414794921875,0.0575408935546875,0.009796142578125
1690839137934043400,3.86804345703125,-0.980621337890625,0.0583648681640625,0.0078125
1690839137944083500,3.87808349609375,-0.9794464111328125,0.0577239990234375,0.0061798095703125
1690839137954124500,3.88812451171875,-0.979583740234375,0.0578765869140625,0.004730224609375
1690839137964164600,3.89816455078125,-0.9792327880859375,0.056793212890625,0.0029449462890625
1690839137974204400,3.908204345703125,-0.9794769287109375,0.0566253662109375,0.0035858154296875
1690839137984245500,3.91824560546875,-0.979339599609375,0.057403564453125,0.00469970703125
1690839137994285600,3.92828564453125,-0.980499267578125,0.057830810546875,0.0068206787109375
1690839138004325400,3.938325439453125,-0.980377197265625,0.05731201171875,0.0089111328125
1690839138014365400,3.948365478515625,-0.9810028076171875,0.0573272705078125,0.0096282958984375
1690839138024406500,3.958406494140625,-0.9808349609375,0.057647705078125,0.0098724365234375
1690839138034446600,3.968446533203125,-0.98114013671875,0.0583648681640625,0.008026123046875
1690839138044486400,3.978486328125,-0.9795379638671875,0.0577545166015625,0.00799560546875
1690839138054557400,3.988557373046875,-0.979095458984375,0.05816650390625,0.0063323974609375
1690839138064597500,3.998597412109375,-0.979705810546875,0.0583038330078125,0.004425048828125
1690839138074638600,4.008638671875,-0.9790191650390625,0.0583953857421875,0.004364013671875
1690839138084678400,4.018678466796875,-0.979248046875,0.0574493408203125,0.005126953125
1690839138094718500,4.028718505859375,-0.980499267578125,0.0576629638671875,0.006378173828125
1690839138104759600,4.038759521484375,-0.9802703857421875,0.0585479736328125,0.0079193115234375
1690839138114799600,4.048799560546875,-0.9801788330078125,0.058135986328125,0.0084075927734375
1690839138124839400,4.05883935546875,-0.9796142578125,0.05767822265625,0.00836181640625
1690839138134879500,4.06887939453125,-0.9810943603515625,0.057830810546875,0.008758544921875
1690839138144920600,4.078920654296875,-0.9812469482421875,0.0582733154296875,0.0078887939453125
1690839138154960400,4.08896044921875,-0.9791259765625,0.05804443359375,0.0064544677734375
1690839138165000400,4.09900048828125,-0.9784393310546875,0.0584869384765625,0.005218505859375
1690839138175040500,4.10904052734375,-0.9798431396484375,0.0583648681640625,0.0042724609375
1690839138185081600,4.11908154296875,-0.9801483154296875,0.05731201171875,0.005401611328125
1690839138195121400,4.129121337890625,-0.979644775390625,0.057464599609375,0.0061492919921875
1690839138205161500,4.139161376953125,-0.979461669921875,0.0577239990234375,0.00640869140625
1690839138215232500,4.149232421875,-0.9793243408203125,0.057952880859375,0.0086517333984375
1690839138225272300,4.159272216796875,-0.980133056640625,0.057830810546875,0.0085296630859375
1690839138235313400,4.1693134765625,-0.98089599609375,0.0564422607421875,0.00811767578125
1690839138245360600,4.179360595703125,-0.979827880859375,0.05780029296875,0.0075531005859375
1690839138255400400,4.189400390625,-0.9810791015625,0.0572967529296875,0.00689697265625
1690839138265441500,4.199441650390625,-0.97991943359375,0.0576629638671875,0.0069427490234375
1690839138275481300,4.2094814453125,-0.980072021484375,0.0585784912109375,0.00592041015625
1690839138285521400,4.219521484375,-0.97955322265625,0.057037353515625,0.0052337646484375
1690839138295561500,4.2295615234375,-0.97991943359375,0.057403564453125,0.00567626953125
1690839138305602600,4.2396025390625,-0.9797821044921875,0.058013916015625,0.00628662109375
1690839138315642600,4.249642578125,-0.979278564453125,0.0572509765625,0.0065155029296875
1690839138325682700,4.2596826171875,-0.9801788330078125,0.058013916015625,0.0071258544921875
1690839138335723500,4.2697236328125,-0.97991943359375,0.05792236328125,0.0075836181640625
1690839138345763300,4.279763427734375,-0.9805450439453125,0.0585784912109375,0.007904052734375
1690839138355803400,4.289803466796875,-0.979888916015625,0.0578460693359375,0.00762939453125
1690839138365843500,4.299843505859375,-0.9805145263671875,0.057952880859375,0.006988525390625
1690839138375914500,4.30991455078125,-0.9803466796875,0.057647705078125,0.006439208984375
1690839138385954600,4.31995458984375,-0.9795684814453125,0.0577850341796875,0.0061798095703125
1690839138395995600,4.32999560546875,-0.9798431396484375,0.0579986572265625,0.0056304931640625
1690839138406035500,4.340035400390625,-0.97918701171875,0.0581817626953125,0.0059814453125
1690839138416075500,4.350075439453125,-0.97943115234375,0.057220458984375,0.006866455078125
1690839138426116400,4.360116455078125,-0.980316162109375,0.05877685546875,0.006744384765625
1690839138436156400,4.370156494140625,-0.979949951171875,0.0582122802734375,0.0081024169921875
1690839138446196500,4.380196533203125,-0.9805450439453125,0.0573577880859375,0.0080718994140625
1690839138456236500,4.390236572265625,-0.980438232421875,0.0579833984375,0.0074005126953125
1690839138466277600,4.400277587890625,-0.980194091796875,0.0580902099609375,0.006561279296875
1690839138476317700,4.410317626953125,-0.9800262451171875,0.05670166015625,0.0067138671875
1690839138486357500,4.420357421875,-0.9800262451171875,0.0581207275390625,0.0061187744140625
1690839138496398300,4.4303984375,-0.9806060791015625,0.0581817626953125,0.0068359375
1690839138506438400,4.4404384765625,-0.9798736572265625,0.0571746826171875,0.006683349609375
1690839138516478500,4.450478515625,-0.9790496826171875,0.0583343505859375,0.0067138671875
1690839138526518500,4.4605185546875,-0.9795074462890625,0.057891845703125,0.0061798095703125
1690839138536589600,4.470589599609375,-0.9798431396484375,0.0573577880859375,0.006591796875
1690839138546630700,4.480630615234375,-0.9798583984375,0.0580596923828125,0.0078582763671875
1690839138556670500,4.49067041015625,-0.9798736572265625,0.0581512451171875,0.007720947265625
1690839138566710500,4.50071044921875,-0.9796142578125,0.057586669921875,0.007568359375
1690839138576750600,4.51075048828125,-0.9799957275390625,0.0574188232421875,0.0076751708984375
1690839138586791400,4.52079150390625,-0.9797821044921875,0.0575408935546875,0.0075531005859375
1690839138596831500,4.53083154296875,-0.979736328125,0.0576171875,0.006439208984375
1690839138606871600,4.54087158203125,-0.980438232421875,0.05780029296875,0.0067138671875
1690839138616912600,4.55091259765625,-0.97906494140625,0.05816650390625,0.00640869140625
1690839138626952700,4.56095263671875,-0.9788360595703125,0.0572052001953125,0.0064697265625
1690839138636992500,4.570992431640625,-0.980072021484375,0.0574951171875,0.006011962890625
1690839138647032600,4.581032470703125,-0.9796600341796875,0.05810546875,0.0064849853515625
1690839138657073400,4.591073486328125,-0.9799957275390625,0.057037353515625,0.00714111328125
1690839138667113500,4.601113525390625,-0.9805145263671875,0.05804443359375,0.0072479248046875
1690839138677153500,4.611153564453125,-0.9800872802734375,0.058441162109375,0.0069732666015625
1690839138687193600,4.621193603515625,-0.9803009033203125,0.0577392578125,0.0074005126953125
1690839138697264400,4.631264404296875,-0.98028564453125,0.0582275390625,0.008087158203125
1690839138707305500,4.641305419921875,-0.9799652099609375,0.0574951171875,0.00726318359375
1690839138717345500,4.651345458984375,-0.979736328125,0.05743408203125,0.006500244140625
1690839138727385600,4.661385498046875,-0.979217529296875,0.0584259033203125,0.0064849853515625
1690839138737425700,4.67142578125,-0.97967529296875,0.057647705078125,0.0066680908203125
1690839138747466500,4.681466552734375,-0.9807586669921875,0.0574951171875,0.0063018798828125
1690839138757506600,4.691506591796875,-0.9808197021484375,0.05810546875,0.006103515625
1690839138767546600,4.701546630859375,-0.980926513671875,0.058013916015625,0.00653076171875
1690839138777587700,4.711587646484375,-0.980316162109375,0.0581207275390625,0.006988525390625
1690839138787627500,4.72162744140625,-0.9800262451171875,0.0572052001953125,0.007415771484375
1690839138797667600,4.73166748046875,-0.9801788330078125,0.057403564453125,0.0074615478515625
1690839138807707600,4.741707763671875,-0.9801483154296875,0.0577392578125,0.0064544677734375
1690839138817748500,4.75174853515625,-0.9797210693359375,0.0572967529296875,0.0071868896484375
1690839138827788500,4.76178857421875,-0.9793701171875,0.0574188232421875,0.0070037841796875
1690839138837828600,4.77182861328125,-0.979949951171875,0.056884765625,0.007415771484375
1690839138847869700,4.78186962890625,-0.9794464111328125,0.05792236328125,0.006866455078125
1690839138857939500,4.791939453125,-0.9787139892578125,0.058624267578125,0.0070343017578125
1690839138867980500,4.80198046875,-0.9792327880859375,0.0589141845703125,0.0065155029296875
1690839138878020600,4.8120205078125,-0.9793548583984375,0.058258056640625,0.0063934326171875
1690839138888060700,4.822060791015625,-0.9802093505859375,0.0580902099609375,0.006561279296875
1690839138898100700,4.832100830078125,-0.980072021484375,0.058258056640625,0.0061798095703125
1690839138908141600,4.8421416015625,-0.9798736572265625,0.0587158203125,0.0065155029296875
1690839138918181400,4.852181396484375,-0.9791107177734375,0.0578155517578125,0.006744384765625
1690839138928221400,4.862221435546875,-0.9803314208984375,0.057891845703125,0.00640869140625
1690839138938262500,4.872262451171875,-0.980224609375,0.0577545166015625,0.0075836181640625
1690839138948302600,4.882302490234375,-0.97991943359375,0.0578460693359375,0.0074920654296875
1690839138958342700,4.8923427734375,-0.9796295166015625,0.0578765869140625,0.0068359375
1690839138968382700,4.9023828125,-0.9798126220703125,0.058197021484375,0.006805419921875
1690839138978423600,4.912423583984375,-0.9804229736328125,0.0585784912109375,0.0073089599609375
1690839138988463600,4.922463623046875,-0.980438232421875,0.057830810546875,0.0068206787109375
1690839138998503400,4.93250341796875,-0.9803466796875,0.058135986328125,0.006591796875
1690839139008544500,4.94254443359375,-0.97955322265625,0.0578460693359375,0.006622314453125
1690839139018614500,4.952614501953125,-0.9797515869140625,0.057769775390625,0.0067596435546875
1690839139028655600,4.962655517578125,-0.9799652099609375,0.0578155517578125,0.0065765380859375
1690839139038695700,4.97269580078125,-0.9802703857421875,0.0575408935546875,0.006103515625
1690839139048735700,4.98273583984375,-0.979766845703125,0.057861328125,0.0068511962890625
1690839139058776600,4.992776611328125,-0.9791259765625,0.057769775390625,0.0068206787109375
1690839139068816400,5.00281640625,-0.9739227294921875,0.0655059814453125,0.0468597412109375
1690839139078856400,5.0128564453125,-0.97833251953125,0.0266876220703125,-0.0486602783203125
1690839139088896500,5.022896484375,-0.973297119140625,0.048797607421875,0.0024261474609375
1690839139098937600,5.0329375,-0.98126220703125,0.04803466796875,0.0032806396484375
1690839139108977700,5.042977783203125,-0.986846923828125,0.059722900390625,0.010589599609375
1690839139119017700,5.053017822265625,-0.982147216796875,0.0545196533203125,0.017059326171875
1690839139129058600,5.06305859375,-0.98394775390625,0.0611724853515625,0.0166778564453125
1690839139139098600,5.0730986328125,-0.9806365966796875,0.0634307861328125,0.017974853515625
1690839139149138400,5.083138427734375,-0.979888916015625,0.06695556640625,0.01409912109375
1690839139159178500,5.093178466796875,-0.978515625,0.0686798095703125,0.0092620849609375
1690839139169219600,5.103219482421875,-0.9752349853515625,0.070587158203125,0.0047607421875
1690839139179289600,5.11328955078125,-0.9760894775390625,0.07098388671875,0.000885009765625
1690839139189330700,5.12333056640625,-0.9754791259765625,0.071441650390625,-0.0013275146484375
1690839139199370500,5.13337060546875,-0.97637939453125,0.0716094970703125,-0.001922607421875
1690839139209410300,5.143410400390625,-0.97442626953125,0.0701904296875,-0.0001983642578125
1690839139219451400,5.153451416015625,-0.979400634765625,0.072357177734375,0.0023651123046875
1690839139229491500,5.163491455078125,-0.9752655029296875,0.07275390625,0.00537109375
1690839139239531500,5.173531494140625,-0.9766082763671875,0.0724334716796875,0.00811767578125
1690839139249570800,5.18357080078125,-0.9802093505859375,0.0723724365234375,0.0112762451171875
1690839139259612000,5.19361181640625,-0.977142333984375,0.072296142578125,0.0125732421875
1690839139269651700,5.203651611328125,-0.9797515869140625,0.0711822509765625,0.0119781494140625
1690839139279691800,5.21369189453125,-0.977447509765625,0.06982421875,0.0097808837890625
1690839139289732600,5.223732666015625,-0.9793243408203125,0.06768798828125,0.0078125
1690839139299772700,5.233772705078125,-0.9789886474609375,0.0660552978515625,0.0055694580078125
1690839139309812700,5.243812744140625,-0.977294921875,0.0633697509765625,0.0030059814453125
1690839139319852800,5.253852783203125,-0.9797821044921875,0.0618438720703125,0.0022125244140625
1690839139329894000,5.263893798828125,-0.978302001953125,0.0605316162109375,0.001861572265625
1690839139339963600,5.273963623046875,-0.980010986328125,0.0591583251953125,0.004302978515625
1690839139350004700,5.284004638671875,-0.9816131591796875,0.0580902099609375,0.0075531005859375
1690839139360044800,5.294044921875,-0.98394775390625,0.0566864013671875,0.0096282958984375
1690839139370084900,5.3040849609375,-0.9801788330078125,0.0555877685546875,0.0118408203125
1690839139380125700,5.314125732421875,-0.9835052490234375,0.05450439453125,0.012420654296875
1690839139390165800,5.324165771484375,-0.982879638671875,0.054534912109375,0.011566162109375
1690839139400205800,5.334205810546875,-0.9832611083984375,0.053985595703125,0.0098419189453125
1690839139410245600,5.34424560546875,-0.982635498046875,0.0537261962890625,0.0071868896484375
1690839139420286700,5.35428662109375,-0.98236083984375,0.05389404296875,0.0046844482421875
1690839139430326800,5.364326904296875,-0.9819488525390625,0.054351806640625,0.002655029296875
1690839139440366800,5.374366943359375,-0.9796295166015625,0.05548095703125,0.00323486328125
1690839139450407700,5.38440771484375,-0.98065185546875,0.0571136474609375,0.004547119140625
1690839139460447700,5.39444775390625,-0.9821624755859375,0.0580291748046875,0.0057220458984375
1690839139470487800,5.40448779296875,-0.979827880859375,0.058990478515625,0.0071258544921875
1690839139480527600,5.414527587890625,-0.980804443359375,0.06170654296875,0.00823974609375
1690839139490568700,5.424568603515625,-0.9796600341796875,0.063446044921875,0.0091705322265625
1690839139500639700,5.4346396484375,-0.9798583984375,0.0643157958984375,0.0102386474609375
1690839139510679800,5.4446796875,-0.979583740234375,0.0651702880859375,0.0092620849609375
1690839139520720000,5.454719970703125,-0.9793701171875,0.0656280517578125,0.0079193115234375
1690839139530760000,5.464760009765625,-0.9785003662109375,0.066619873046875,0.006591796875
1690839139540800800,5.47480078125,-0.97772216796875,0.0676116943359375,0.005126953125
1690839139550840800,5.4848408203125,-0.9771575927734375,0.06829833984375,0.0037689208984375
1690839139560880600,5.494880615234375,-0.978271484375,0.067962646484375,0.0039215087890625
1690839139570921700,5.504921630859375,-0.9778289794921875,0.0683135986328125,0.0045166015625
1690839139580961800,5.5149619140625,-0.97735595703125,0.0688323974609375,0.004974365234375
1690839139591001900,5.525001953125,-0.978607177734375,0.068359375,0.0065765380859375
1690839139601042000,5.5350419921875,-0.9780426025390625,0.068267822265625,0.0068206787109375
1690839139611082800,5.545082763671875,-0.9787750244140625,0.0677947998046875,0.007354736328125
1690839139621122800,5.555122802734375,-0.980072021484375,0.0673675537109375,0.0091400146484375
1690839139631162600,5.56516259765625,-0.9787750244140625,0.0666351318359375,0.0085601806640625
1690839139641202700,5.57520263671875,-0.9782257080078125,0.0659942626953125,0.0070648193359375
1690839139651243800,5.585243896484375,-0.978607177734375,0.0646209716796875,0.0066070556640625
1690839139661314800,5.595314697265625,-0.9793243408203125,0.063934326171875,0.0067138671875
1690839139671355000,5.60535498046875,-0.97857666015625,0.0634307861328125,0.0057830810546875
1690839139681394700,5.615394775390625,-0.979400634765625,0.061859130859375,0.005340576171875
1690839139691434800,5.625434814453125,-0.9804229736328125,0.0609893798828125,0.0058135986328125
1690839139701475800,5.635475830078125,-0.9801025390625,0.059722900390625,0.0054168701171875
1690839139711515600,5.645515625,-0.9806060791015625,0.0594635009765625,0.0065460205078125
1690839139721555700,5.6555556640625,-0.981414794921875,0.0596923828125,0.0064849853515625
1690839139731596800,5.6655966796875,-0.9806976318359375,0.05902099609375,0.0077667236328125
1690839139741636900,5.675636962890625,-0.9813232421875,0.0583953857421875,0.00848388671875
1690839139751676700,5.6856767578125,-0.9824066162109375,0.05810546875,0.0090484619140625
1690839139761716700,5.695716796875,-0.9819793701171875,0.05792236328125,0.008544921875
1690839139771757800,5.7057578125,-0.9817352294921875,0.057891845703125,0.00750732421875
1690839139781797600,5.715797607421875,-0.98199462890625,0.0582733154296875,0.00799560546875
1690839139791837700,5.725837646484375,-0.980377197265625,0.0587615966796875,0.0072479248046875
1690839139801878800,5.735878662109375,-0.980560302734375,0.0594329833984375,0.0065155029296875
1690839139811948800,5.74594873046875,-0.9809722900390625,0.06024169921875,0.0062713623046875
1690839139821990000,5.755989990234375,-0.979461669921875,0.0604705810546875,0.00628662109375
1690839139832029700,5.76602978515625,-0.979522705078125,0.0615997314453125,0.0059661865234375
1690839139842069800,5.77606982421875,-0.979766845703125,0.0621795654296875,0.0064697265625
1690839139852109600,5.786109619140625,-0.9797515869140625,0.063385009765625,0.006805419921875
1690839139862150700,5.796150634765625,-0.9819183349609375,0.06475830078125,0.0073394775390625
1690839139872190700,5.806190673828125,-0.9767913818359375,0.06451416015625,0.00836181640625
1690839139882230800,5.816230712890625,-0.981231689453125,0.0648193359375,0.007965087890625
1690839139892271900,5.82627197265625,-0.979095458984375,0.06494140625,0.0077667236328125
1690839139902311700,5.836311767578125,-0.9794464111328125,0.0655517578125,0.007568359375
1690839139912351700,5.846351806640625,-0.9776458740234375,0.0652313232421875,0.0074462890625
1690839139922391600,5.8563916015625,-0.979095458984375,0.0663604736328125,0.005401611328125
1690839139932432600,5.8664326171875,-0.977630615234375,0.0662078857421875,0.0050201416015625
1690839139942472700,5.87647265625,-0.9781494140625,0.0660552978515625,0.005615234375
1690839139952512800,5.8865126953125,-0.9785003662109375,0.0659637451171875,0.005767822265625
1690839139962553900,5.896553955078125,-0.9787445068359375,0.065460205078125,0.005767822265625
1690839139972624000,5.906623779296875,-0.9796142578125,0.065399169921875,0.0067596435546875
1690839139982664700,5.916664794921875,-0.97900390625,0.064544677734375,0.007476806640625
1690839139992704500,5.92670458984375,-0.981231689453125,0.064117431640625,0.0078125
1690839140002744600,5.93674462890625,-0.979583740234375,0.063751220703125,0.007904052734375
1690839140012785700,5.94678564453125,-0.979217529296875,0.0632781982421875,0.0081634521484375
1690839140022825700,5.95682568359375,-0.9803619384765625,0.063079833984375,0.0069580078125
1690839140032865800,5.96686572265625,-0.9793701171875,0.0625762939453125,0.0060577392578125
1690839140042905900,5.97690576171875,-0.980072021484375,0.0623016357421875,0.006072998046875
1690839140052946700,5.98694677734375,-0.9790496826171875,0.0619354248046875,0.0063323974609375
1690839140062986800,5.99698681640625,-0.9805145263671875,0.061370849609375,0.00567626953125
1690839140073026600,6.007026611328125,-0.9801788330078125,0.06097412109375,0.0061492919921875
1690839140083067600,6.017067626953125,-0.980560302734375,0.0607757568359375,0.0064849853515625
1690839140093107700,6.027107666015625,-0.9804840087890625,0.0616912841796875,0.006988525390625
1690839140103147800,6.037147705078125,-0.980133056640625,0.060577392578125,0.008148193359375
1690839140113187800,6.047187744140625,-0.9805755615234375,0.0595855712890625,0.00823974609375
1690839140123228700,6.057228759765625,-0.9804229736328125,0.06060791015625,0.0083160400390625
1690839140133298700,6.067298583984375,-0.9810943603515625,0.0615997314453125,0.0075531005859375
1690839140143339500,6.077339599609375,-0.979705810546875,0.0616607666015625,0.0061187744140625
1690839140153379600,6.087379638671875,-0.9792938232421875,0.0612945556640625,0.0065460205078125
1690839140163419600,6.097419677734375,-0.980224609375,0.0618896484375,0.0059051513671875
1690839140173460700,6.107460693359375,-0.9805755615234375,0.0623931884765625,0.0056304931640625
1690839140183500800,6.117500732421875,-0.9797210693359375,0.0622711181640625,0.00531005859375
1690839140193540900,6.127540771484375,-0.9793701171875,0.06243896484375,0.005889892578125
1690839140203581000,6.137580810546875,-0.97979736328125,0.06280517578125,0.00732421875
1690839140213621800,6.147621826171875,-0.9795074462890625,0.063262939453125,0.0073699951171875
1690839140223661600,6.15766162109375,-0.978607177734375,0.062591552734375,0.0088043212890625
1690839140233701600,6.16770166015625,-0.97967529296875,0.0635223388671875,0.00848388671875
1690839140243716900,6.177716796875,-0.9796142578125,0.06414794921875,0.007568359375
1690839140253756700,6.187756591796875,-0.9790496826171875,0.0648040771484375,0.0084381103515625
1690839140263796700,6.197796630859375,-0.9792022705078125,0.0650787353515625,0.0077667236328125
1690839140273836800,6.2078369140625,-0.9793548583984375,0.0641021728515625,0.00628662109375
1690839140283878000,6.2178779296875,-0.9794158935546875,0.0654144287109375,0.00506591796875
1690839140293948000,6.227947998046875,-0.9792022705078125,0.0646514892578125,0.004547119140625
1690839140303989000,6.237989013671875,-0.9792938232421875,0.0643310546875,0.005706787109375
1690839140314029000,6.248029052734375,-0.9796600341796875,0.0635223388671875,0.006683349609375
1690839140324068900,6.25806884765625,-0.9789581298828125,0.062896728515625,0.006378173828125
1690839140334109700,6.268109619140625,-0.97869873046875,0.063446044921875,0.007476806640625
1690839140344149800,6.278149658203125,-0.979156494140625,0.0632476806640625,0.0089874267578125
1690839140354189800,6.28818994140625,-0.9791107177734375,0.062530517578125,0.0086212158203125
1690839140364230000,6.29822998046875,-0.9794769287109375,0.0627288818359375,0.0088348388671875
1690839140374271000,6.30827099609375,-0.980712890625,0.062835693359375,0.0072479248046875
1690839140384311000,6.31831103515625,-0.9800567626953125,0.0629425048828125,0.007232666015625
1690839140394350800,6.328350830078125,-0.9802398681640625,0.06280517578125,0.006622314453125
1690839140404391700,6.3383916015625,-0.97979736328125,0.063018798828125,0.0045928955078125
1690839140414431700,6.348431640625,-0.980255126953125,0.062225341796875,0.0038299560546875
1690839140424471800,6.358471923828125,-0.9797210693359375,0.06134033203125,0.0052642822265625
1690839140434512000,6.368511962890625,-0.9793853759765625,0.0609130859375,0.00506591796875
1690839140444553000,6.378552978515625,-0.9795074462890625,0.0611572265625,0.005645751953125
1690839140454624000,6.3886240234375,-0.9791717529296875,0.06121826171875,0.0063629150390625
1690839140464664000,6.3986640625,-0.979644775390625,0.06085205078125,0.0078887939453125
1690839140474704000,6.408703857421875,-0.9796905517578125,0.0608978271484375,0.0080718994140625
1690839140484744000,6.418743896484375,-0.9800872802734375,0.061065673828125,0.0080413818359375
1690839140494784800,6.42878466796875,-0.9794464111328125,0.0618133544921875,0.008056640625
1690839140504824800,6.438824951171875,-0.9787139892578125,0.062103271484375,0.0077667236328125
1690839140514865000,6.448864990234375,-0.980377197265625,0.0618438720703125,0.0083465576171875
1690839140524906000,6.458906005859375,-0.980926513671875,0.062530517578125,0.008514404296875
1690839140534946000,6.468946044921875,-0.9804229736328125,0.06256103515625,0.0076141357421875
1690839140544985900,6.47898583984375,-0.97735595703125,0.061279296875,0.00616455078125
1690839140555026000,6.48902587890625,-0.97821044921875,0.060638427734375,0.0061798095703125
1690839140565066800,6.499066650390625,-0.979522705078125,0.061126708984375,0.0059051513671875
1690839140575106800,6.50910693359375,-0.979461669921875,0.062530517578125,0.006591796875
1690839140585147000,6.51914697265625,-0.9797210693359375,0.0642852783203125,0.0074615478515625
1690839140595188000,6.52918798828125,-0.9798583984375,0.0658721923828125,0.0076446533203125
1690839140605228000,6.53922802734375,-0.980987548828125,0.066741943359375,0.008209228515625
1690839140615299000,6.549299072265625,-0.9802398681640625,0.0665130615234375,0.0092315673828125
1690839140625339000,6.5593388671875,-0.97943115234375,0.0640869140625,0.00848388671875
1690839140635379000,6.56937890625,-0.980377197265625,0.0631866455078125,0.007476806640625
1690839140645419000,6.5794189453125,-0.978546142578125,0.061859130859375,0.007476806640625
1690839140655459800,6.5894599609375,-0.9785614013671875,0.0617828369140625,0.0061187744140625
1690839140665500000,6.5995,-0.9793243408203125,0.061767578125,0.004913330078125
1690839140675540000,6.6095400390625,-0.9786834716796875,0.062896728515625,0.0054168701171875
1690839140685581000,6.6195810546875,-0.978546142578125,0.0640106201171875,0.005584716796875
1690839140695620900,6.629620849609375,-0.9805450439453125,0.0651092529296875,0.0074310302734375
1690839140705661000,6.639660888671875,-0.9799652099609375,0.0657958984375,0.0086517333984375
1690839140715701000,6.649700927734375,-0.9801177978515625,0.0654296875,0.0087432861328125
1690839140725741800,6.659741943359375,-0.9816131591796875,0.06561279296875,0.0089874267578125
1690839140735782000,6.669781982421875,-0.9802093505859375,0.0641021728515625,0.0091705322265625
1690839140745822000,6.679822021484375,-0.979278564453125,0.062774658203125,0.008331298828125
1690839140755863000,6.689863037109375,-0.9798736572265625,0.06036376953125,0.0063323974609375
1690839140765902800,6.69990283203125,-0.9791259765625,0.0599365234375,0.0045013427734375
1690839140775974000,6.709973876953125,-0.978271484375,0.06085205078125,0.00396728515625
1690839140786014000,6.720013916015625,-0.9781951904296875,0.0615234375,0.0039215087890625
1690839140796053800,6.7300537109375,-0.9791107177734375,0.062042236328125,0.0052642822265625
1690839140806093800,6.74009375,-0.9806365966796875,0.0631561279296875,0.0079803466796875
1690839140816135000,6.750135009765625,-0.9793548583984375,0.06396484375,0.0093841552734375
1690839140826175000,6.760175048828125,-0.9810791015625,0.0636749267578125,0.0106964111328125
1690839140836214800,6.77021484375,-0.9820556640625,0.0625,0.0112762451171875
1690839140846255900,6.780255859375,-0.980926513671875,0.062774658203125,0.009979248046875
1690839140856296000,6.7902958984375,-0.9796600341796875,0.06243896484375,0.007965087890625
1690839140866335700,6.800335693359375,-0.9787139892578125,0.0621490478515625,0.00555419921875
1690839140876375800,6.810375732421875,-0.978057861328125,0.0610504150390625,0.00384521484375
1690839140886417000,6.8204169921875,-0.9776153564453125,0.0616302490234375,0.0025482177734375
1690839140896457000,6.83045703125,-0.9786834716796875,0.0622406005859375,0.003143310546875
1690839140906496800,6.840496826171875,-0.9790496826171875,0.0637664794921875,0.0047607421875
1690839140916537900,6.850537841796875,-0.9787445068359375,0.0638580322265625,0.0062103271484375
1690839140926578000,6.860577880859375,-0.9810333251953125,0.0643157958984375,0.007354736328125
1690839140936649000,6.87064892578125,-0.9808349609375,0.06488037109375,0.0106658935546875
1690839140946688800,6.880688720703125,-0.979888916015625,0.0644989013671875,0.0116729736328125
1690839140956728800,6.890728759765625,-0.9794921875,0.0641021728515625,0.0108184814453125
1690839140966770000,6.90077001953125,-0.9795074462890625,0.063873291015625,0.008636474609375
1690839140976810000,6.91081005859375,-0.979400634765625,0.0635223388671875,0.0067596435546875
1690839140986849800,6.920849853515625,-0.9792938232421875,0.0629730224609375,0.004852294921875
1690839140996889900,6.930889892578125,-0.9791412353515625,0.0630645751953125,0.0042572021484375
1690839141006931000,6.940930908203125,-0.978485107421875,0.0628814697265625,0.003204345703125
1690839141016970800,6.950970703125,-0.979339599609375,0.0636138916015625,0.004486083984375
1690839141027010800,6.9610107421875,-0.979949951171875,0.06390380859375,0.0067291259765625
1690839141037052000,6.971052001953125,-0.9799346923828125,0.063751220703125,0.0086517333984375
1690839141047092000,6.981092041015625,-0.9801483154296875,0.064361572265625,0.01019287109375
1690839141057131800,6.9911318359375,-0.98016357421875,0.0643157958984375,0.01055908203125
1690839141067171800,7.001171875,-0.9801025390625,0.064178466796875,0.0088348388671875
1690839141077213000,7.011212890625,-0.9803619384765625,0.063140869140625,0.008514404296875
1690839141087252700,7.021252685546875,-0.9782562255859375,0.0624847412109375,0.00653076171875
1690839141097323800,7.03132373046875,-0.9783782958984375,0.0620269775390625,0.00494384765625
1690839141107363800,7.04136376953125,-0.9790191650390625,0.061767578125,0.0036468505859375
1690839141117404000,7.05140380859375,-0.979736328125,0.0619964599609375,0.003204345703125
1690839141127445000,7.061445068359375,-0.9792633056640625,0.062408447265625,0.0042724609375
1690839141137484800,7.07148486328125,-0.97967529296875,0.06219482421875,0.0062255859375
1690839141147524900,7.08152490234375,-0.980316162109375,0.0627593994140625,0.008575439453125
1690839141157565000,7.09156494140625,-0.9798126220703125,0.063201904296875,0.0096435546875
1690839141167605800,7.101605712890625,-0.9809722900390625,0.0630035400390625,0.009674072265625
1690839141177645800,7.111645751953125,-0.98016357421875,0.0631256103515625,0.0097503662109375
1690839141187686000,7.121685791015625,-0.98089599609375,0.062652587890625,0.0092926025390625
1690839141197727000,7.13172705078125,-0.98052978515625,0.0621185302734375,0.0068511962890625
1690839141207766800,7.141766845703125,-0.9794158935546875,0.06182861328125,0.004669189453125
1690839141217806800,7.151806884765625,-0.978668212890625,0.06219482421875,0.0048675537109375
1690839141227847000,7.161846923828125,-0.978759765625,0.062835693359375,0.0042877197265625
1690839141237887700,7.1718876953125,-0.9791412353515625,0.0629119873046875,0.00634765625
1690839141247924500,7.181924560546875,-0.9792327880859375,0.0632781982421875,0.00634765625
1690839141257995500,7.19199560546875,-0.9795989990234375,0.0630340576171875,0.0075836181640625
1690839141268035300,7.202035400390625,-0.9792327880859375,0.0641326904296875,0.0086822509765625
1690839141278075400,7.212075439453125,-0.979339599609375,0.063201904296875,0.0085601806640625
1690839141288116500,7.222116455078125,-0.9803619384765625,0.0629119873046875,0.008453369140625
1690839141298156500,7.232156494140625,-0.9797210693359375,0.0630340576171875,0.0070648193359375
1690839141308196600,7.242196533203125,-0.979736328125,0.0626983642578125,0.006744384765625
1690839141318236700,7.252236572265625,-0.97943115234375,0.0629425048828125,0.0070037841796875
1690839141328277500,7.262277587890625,-0.9790191650390625,0.062774658203125,0.0052947998046875
1690839141338317300,7.2723173828125,-0.9788818359375,0.0622406005859375,0.00531005859375
1690839141348357400,7.282357421875,-0.979400634765625,0.062347412109375,0.005340576171875
1690839141358398500,7.2923984375,-0.9783935546875,0.0629730224609375,0.0062103271484375
1690839141368438500,7.3024384765625,-0.9800872802734375,0.0630645751953125,0.0074920654296875
1690839141378478600,7.312478515625,-0.9796600341796875,0.0631866455078125,0.00732421875
1690839141388518700,7.3225185546875,-0.9782257080078125,0.0634765625,0.007537841796875
1690839141398559500,7.3325595703125,-0.9794769287109375,0.063079833984375,0.008758544921875
1690839141408599600,7.342599609375,-0.9799957275390625,0.06298828125,0.0079803466796875
1690839141418670300,7.35267041015625,-0.97955322265625,0.06402587890625,0.00726318359375
1690839141428710400,7.36271044921875,-0.9798126220703125,0.0634307861328125,0.0065460205078125
1690839141438750500,7.37275048828125,-0.9793243408203125,0.0630340576171875,0.0056610107421875
1690839141448791600,7.38279150390625,-0.9781951904296875,0.0633087158203125,0.0060882568359375
1690839141458831600,7.39283154296875,-0.978973388671875,0.0624847412109375,0.0061492919921875
1690839141468871700,7.40287158203125,-0.9791717529296875,0.063201904296875,0.0068511962890625
1690839141478912500,7.41291259765625,-0.980377197265625,0.0633392333984375,0.0069580078125
1690839141488952300,7.422952392578125,-0.980072021484375,0.0629425048828125,0.008087158203125
1690839141498992400,7.432992431640625,-0.98004150390625,0.0630035400390625,0.008056640625
1690839141509032400,7.443032470703125,-0.979827880859375,0.0635986328125,0.008056640625
1690839141519073500,7.453073486328125,-0.979949951171875,0.0626373291015625,0.008026123046875
1690839141529113600,7.463113525390625,-0.980682373046875,0.062530517578125,0.0073699951171875
1690839141539153700,7.473153564453125,-0.980255126953125,0.063140869140625,0.0070037841796875
1690839141549194500,7.483194580078125,-0.9795989990234375,0.0629425048828125,0.006866455078125
1690839141559234300,7.493234375,-0.9792938232421875,0.063446044921875,0.00714111328125
1690839141569274400,7.5032744140625,-0.9793548583984375,0.0629425048828125,0.0072021484375
1690839141579345400,7.513345458984375,-0.9803466796875,0.0634613037109375,0.00738525390625
1690839141589385500,7.523385498046875,-0.9804229736328125,0.0630645751953125,0.007568359375
1690839141599425500,7.533425537109375,-0.9804840087890625,0.0633087158203125,0.007659912109375
1690839141609466600,7.543466552734375,-0.980133056640625,0.0630035400390625,0.007598876953125
1690839141619506700,7.553506591796875,-0.9788055419921875,0.0636138916015625,0.007598876953125
1690839141629546500,7.56354638671875,-0.98028564453125,0.063232421875,0.00634765625
1690839141639587300,7.57358740234375,-0.9793701171875,0.063232421875,0.0064239501953125
1690839141649627400,7.58362744140625,-0.9795074462890625,0.0633087158203125,0.006134033203125
1690839141659667500,7.59366748046875,-0.9786834716796875,0.062957763671875,0.006134033203125
1690839141669707500,7.60370751953125,-0.9794769287109375,0.0634613037109375,0.0068359375
1690839141679748600,7.61374853515625,-0.9790191650390625,0.0634307861328125,0.006561279296875
1690839141689788700,7.62378857421875,-0.9794769287109375,0.0626678466796875,0.0077362060546875
1690839141699828500,7.633828369140625,-0.9805755615234375,0.0631866455078125,0.007080078125
1690839141709869300,7.643869384765625,-0.9800872802734375,0.06341552734375,0.00714111328125
1690839141719909400,7.653909423828125,-0.9803619384765625,0.0639801025390625,0.0057525634765625
1690839141729949400,7.663949462890625,-0.9783782958984375,0.0644989013671875,0.00592041015625
1690839141740020500,7.6740205078125,-0.97930908203125,0.0633392333984375,0.0068511962890625
1690839141750060500,7.684060546875,-0.979156494140625,0.0630035400390625,0.0070037841796875
1690839141760100600,7.6941005859375,-0.9791107177734375,0.0638580322265625,0.0069580078125
1690839141770141700,7.7041416015625,-0.9781951904296875,0.0639801025390625,0.0068359375
1690839141780181500,7.714181396484375,-0.9792633056640625,0.0631866455078125,0.007415771484375
1690839141790221600,7.7242216796875,-0.9803924560546875,0.063507080078125,0.00677490234375
1690839141800262400,7.734262451171875,-0.9794769287109375,0.0632476806640625,0.007843017578125
1690839141810302500,7.744302490234375,-0.978790283203125,0.0630340576171875,0.00799560546875
1690839141820342500,7.754342529296875,-0.9799957275390625,0.0628814697265625,0.0068359375
1690839141830382600,7.764382568359375,-0.9791259765625,0.062896728515625,0.0065155029296875
1690839141840423700,7.774423583984375,-0.9794769287109375,0.063629150390625,0.0073394775390625
1690839141850463500,7.78446337890625,-0.9789886474609375,0.062957763671875,0.007080078125
1690839141860503600,7.794503662109375,-0.9788970947265625,0.0636138916015625,0.0067596435546875
1690839141870544400,7.80454443359375,-0.979705810546875,0.063446044921875,0.006500244140625
1690839141880584400,7.81458447265625,-0.9796142578125,0.062591552734375,0.006622314453125
1690839141890624500,7.82462451171875,-0.9787750244140625,0.06298828125,0.0063323974609375
1690839141900695600,7.834695556640625,-0.978973388671875,0.063446044921875,0.0065460205078125
1690839141910735600,7.844735595703125,-0.9796295166015625,0.06256103515625,0.0078125
1690839141920776700,7.854776611328125,-0.9806365966796875,0.063140869140625,0.0076904296875
1690839141930816500,7.86481640625,-0.9798431396484375,0.06268310546875,0.0069427490234375
1690839141940856600,7.874856689453125,-0.9796600341796875,0.0635223388671875,0.0067901611328125
1690839141950896400,7.884896484375,-0.9790496826171875,0.063262939453125,0.006195068359375
1690839141960937500,7.8949375,-0.979278564453125,0.0628662109375,0.0072021484375
1690839141970977500,7.9049775390625,-0.9776611328125,0.06304931640625,0.007110595703125
1690839141981017600,7.915017578125,-0.979766845703125,0.063018798828125,0.00701904296875
1690839141991058700,7.92505859375,-0.9798431396484375,0.0633087158203125,0.0069427490234375
1690839142001098500,7.935098388671875,-0.979339599609375,0.0634002685546875,0.0067138671875
1690839142011138600,7.945138671875,-0.9799041748046875,0.0630645751953125,0.0070648193359375
1690839142021178400,7.955178466796875,-0.9804534912109375,0.06298828125,0.0072784423828125
1690839142031219500,7.965219482421875,-0.9799652099609375,0.06304931640625,0.0081024169921875
1690839142041259500,7.975259521484375,-0.9791107177734375,0.0626983642578125,0.00762939453125
1690839142051299600,7.985299560546875,-0.9793243408203125,0.0633392333984375,0.006591796875
1690839142061370600,7.99537060546875,-0.9789276123046875,0.0636749267578125,0.0066986083984375
1690839142071410400,8.005410400390625,-0.97943115234375,0.0636138916015625,0.0068359375
1690839142081451500,8.015451416015624,-0.979400634765625,0.0633087158203125,0.006256103515625
1690839142091491600,8.02549169921875,-0.9786529541015625,0.063201904296875,0.005828857421875
1690839142101531400,8.035531494140624,-0.9791717529296875,0.062835693359375,0.006683349609375
1690839142111571500,8.045571533203125,-0.9791259765625,0.0630645751953125,0.006866455078125
1690839142121612500,8.055612548828124,-0.9801483154296875,0.0634307861328125,0.0069580078125
1690839142131652600,8.065652587890625,-0.9803009033203125,0.062896728515625,0.00762939453125
1690839142141692400,8.0756923828125,-0.9801788330078125,0.06317138671875,0.0069580078125
1690839142151733500,8.0857333984375,-0.9788665771484375,0.0637969970703125,0.006744384765625
1690839142161773600,8.095773681640624,-0.9801177978515625,0.0635223388671875,0.0070343017578125
1690839142171813400,8.1058134765625,-0.9801177978515625,0.0633087158203125,0.007049560546875
1690839142181853400,8.115853515625,-0.979644775390625,0.063018798828125,0.0066680908203125
1690839142191894500,8.12589453125,-0.9795684814453125,0.063446044921875,0.00750732421875
1690839142201934600,8.1359345703125,-0.9795989990234375,0.0630035400390625,0.0068359375
1690839142211974400,8.145974365234375,-0.9784393310546875,0.0638580322265625,0.0076141357421875
1690839142222045400,8.15604541015625,-0.9793853759765625,0.0631561279296875,0.00762939453125
1690839142232085500,8.16608544921875,-0.979217529296875,0.06256103515625,0.007110595703125
1690839142242126600,8.176126708984375,-0.979888916015625,0.063934326171875,0.0070343017578125
1690839142252166100,8.186166259765624,-0.9799346923828125,0.0635986328125,0.00677490234375
1690839142262206000,8.1962060546875,-0.979766845703125,0.0633544921875,0.006195068359375
1690839142272245800,8.206245849609376,-0.9787445068359375,0.0626678466796875,0.00628662109375
1690839142282286800,8.216286865234375,-0.980010986328125,0.0627593994140625,0.006591796875
1690839142292327000,8.226326904296876,-0.9793548583984375,0.062744140625,0.007110595703125
1690839142302367000,8.236366943359375,-0.979217529296875,0.063201904296875,0.007232666015625
1690839142312408000,8.246407958984374,-0.9801483154296875,0.0632476806640625,0.006988525390625
1690839142322448100,8.2564482421875,-0.979034423828125,0.06292724609375,0.0067138671875
1690839142332488000,8.266488037109376,-0.978790283203125,0.0626983642578125,0.006256103515625
1690839142342528000,8.276528076171875,-0.9794769287109375,0.063629150390625,0.0068817138671875
1690839142352569000,8.286569091796874,-0.978851318359375,0.0636138916015625,0.006744384765625
1690839142362609000,8.29660888671875,-0.9793853759765625,0.0625,0.0074310302734375
1690839142372680000,8.306679931640625,-0.98028564453125,0.06329345703125,0.0068359375
1690839142382720000,8.316719970703126,-0.979827880859375,0.0630340576171875,0.00738525390625
1690839142392760000,8.326760009765625,-0.9806060791015625,0.0619964599609375,0.00701904296875
1690839142402801200,8.33680126953125,-0.97998046875,0.0626068115234375,0.0066680908203125
1690839142412841000,8.346841064453125,-0.9793701171875,0.0632781982421875,0.0071258544921875
1690839142422880800,8.356880859375,-0.98004150390625,0.06304931640625,0.0078277587890625
1690839142432921900,8.366921875,-0.97991943359375,0.063385009765625,0.007568359375
1690839142442962000,8.3769619140625,-0.979400634765625,0.0630950927734375,0.007293701171875
1690839142453002000,8.387001953125,-0.9802398681640625,0.0635223388671875,0.006744384765625
1690839142463042000,8.3970419921875,-0.98004150390625,0.0629119873046875,0.005950927734375
1690839142473083100,8.407083251953125,-0.9799346923828125,0.0623321533203125,0.007293701171875
1690839142483123000,8.417123046875,-0.9797515869140625,0.06292724609375,0.0068359375
1690839142493163000,8.4271630859375,-0.979400634765625,0.06378173828125,0.006378173828125
1690839142503204000,8.4372041015625,-0.9794921875,0.063507080078125,0.006134033203125
1690839142513244000,8.447243896484375,-0.9788055419921875,0.062896728515625,0.0068206787109375
1690839142523284000,8.457283935546876,-0.9786834716796875,0.062591552734375,0.0059967041015625
1690839142533355000,8.46735498046875,-0.9789581298828125,0.0633697509765625,0.006072998046875
1690839142543395000,8.47739501953125,-0.9797515869140625,0.063232421875,0.0068511962890625
1690839142553435100,8.48743505859375,-0.9799041748046875,0.0637969970703125,0.0069427490234375
1690839142563476000,8.49747607421875,-0.97918701171875,0.063079833984375,0.006744384765625
1690839142573515800,8.507515869140626,-0.9791259765625,0.0623779296875,0.007354736328125
1690839142583555800,8.517555908203125,-0.979766845703125,0.0626068115234375,0.006988525390625
1690839142593597000,8.527596923828124,-0.9798431396484375,0.0634765625,0.0066070556640625
1690839142603637000,8.537636962890625,-0.9796295166015625,0.063385009765625,0.0074005126953125
1690839142613677000,8.547677001953126,-0.9791412353515625,0.063446044921875,0.00604248046875
1690839142623717000,8.557717041015625,-0.9793548583984375,0.06317138671875,0.0067138671875
1690839142633758000,8.567758056640624,-0.97845458984375,0.0638427734375,0.0069580078125
1690839142643798000,8.577798095703125,-0.9791259765625,0.0642547607421875,0.00640869140625
1690839142653837800,8.587837890625,-0.9796295166015625,0.0634918212890625,0.007110595703125
1690839142663879000,8.59787890625,-0.97998046875,0.062896728515625,0.0065460205078125
1690839142673919000,8.6079189453125,-0.9796905517578125,0.0633544921875,0.007354736328125
1690839142683959000,8.617958984375,-0.979461669921875,0.06292724609375,0.0073699951171875
1690839142694030000,8.628030029296875,-0.979248046875,0.0632476806640625,0.0071868896484375
1690839142704070100,8.638070068359376,-0.9799652099609375,0.0633697509765625,0.0067901611328125
1690839142714111000,8.648111083984375,-0.979888916015625,0.0626983642578125,0.0065460205078125
1690839142724150800,8.65815087890625,-0.979736328125,0.0633697509765625,0.0070953369140625
1690839142734190800,8.66819091796875,-0.9806365966796875,0.0631256103515625,0.0073699951171875
1690839142744231000,8.67823095703125,-0.979888916015625,0.06317138671875,0.0062255859375
1690839142754272000,8.68827197265625,-0.9791717529296875,0.062255859375,0.0069427490234375
1690839142764312000,8.69831201171875,-0.9794464111328125,0.063751220703125,0.0069122314453125
1690839142774352100,8.70835205078125,-0.980010986328125,0.0626983642578125,0.007476806640625
1690839142784392000,8.718391845703126,-0.9791717529296875,0.0626678466796875,0.0077362060546875
1690839142794432800,8.728432861328125,-0.979949951171875,0.0634613037109375,0.0079803466796875
1690839142804472800,8.738472900390626,-0.9794769287109375,0.0637664794921875,0.0073699951171875
1690839142814513000,8.748512939453125,-0.9792938232421875,0.0630950927734375,0.0071563720703125
1690839142824554000,8.758553955078124,-0.978973388671875,0.0630950927734375,0.0066375732421875
1690839142834594000,8.768593994140625,-0.9791259765625,0.063232421875,0.0066375732421875
1690839142844634000,8.778634033203126,-0.97869873046875,0.0630645751953125,0.006072998046875
1690839142854705200,8.788705078125,-0.979705810546875,0.06280517578125,0.0065155029296875
1690839142864745000,8.798744873046875,-0.979400634765625,0.063873291015625,0.00677490234375
1690839142874785800,8.808785888671874,-0.9791717529296875,0.0630950927734375,0.0061187744140625
1690839142884825900,8.818825927734375,-0.979156494140625,0.0637969970703125,0.007843017578125
1690839142894866000,8.828865966796876,-0.9793548583984375,0.06341552734375,0.008087158203125
1690839142904906000,8.838906005859375,-0.979827880859375,0.06329345703125,0.0078582763671875
1690839142914947000,8.848947021484374,-0.980133056640625,0.062774658203125,0.0074462890625
1690839142924987100,8.858987060546875,-0.9803619384765625,0.0620269775390625,0.0072479248046875
1690839142935027000,8.86902685546875,-0.9808349609375,0.0629119873046875,0.0069580078125
1690839142945067800,8.87906787109375,-0.9799957275390625,0.0631866455078125,0.0062255859375
1690839142955107800,8.88910791015625,-0.9795379638671875,0.0634765625,0.007293701171875
1690839142965148000,8.89914794921875,-0.97967529296875,0.063934326171875,0.006988525390625
1690839142975188000,8.90918798828125,-0.979736328125,0.0629119873046875,0.007232666015625
1690839142985229000,8.91922900390625,-0.97869873046875,0.0630035400390625,0.0079803466796875
1690839142995269000,8.92926904296875,-0.978485107421875,0.06365966796875,0.00726318359375
1690839143005309200,8.93930908203125,-0.9791107177734375,0.06298828125,0.007171630859375
1690839143015380000,8.9493798828125,-0.97955322265625,0.063323974609375,0.00762939453125
1690839143025420000,8.959419921875,-0.980010986328125,0.06414794921875,0.0076751708984375
1690839143035460900,8.9694609375,-0.9800567626953125,0.0635223388671875,0.0078582763671875
1690839143045501000,8.9795009765625,-0.9795989990234375,0.063995361328125,0.0072174072265625
1690839143055541000,8.989541015625,-0.9785919189453125,0.0633544921875,0.0066375732421875
1690839143065581000,8.9995810546875,-0.9794158935546875,0.063201904296875,0.0071563720703125
1690839143075622100,9.0096220703125,-0.979400634765625,0.06390380859375,0.0064849853515625
1690839143085662000,9.019661865234376,-0.97979736328125,0.0637054443359375,0.006439208984375
1690839143095702000,9.029701904296875,-0.9796295166015625,0.0630340576171875,0.0065155029296875
1690839143105742800,9.039742919921874,-0.9797210693359375,0.0625457763671875,0.0069732666015625
1690839143115783000,9.049782958984375,-0.9792022705078125,0.0629119873046875,0.0076904296875
1690839143125823000,9.059822998046876,-0.9799652099609375,0.0639495849609375,0.0067596435546875
1690839143135863000,9.069863037109375,-0.97991943359375,0.06353759765625,0.0078125
1690839143145904000,9.079904052734374,-0.9794464111328125,0.0635528564453125,0.007843017578125
1690839143155944200,9.089944091796875,-0.9799652099609375,0.06304931640625,0.007415771484375
1690839143165984000,9.09998388671875,-0.9796142578125,0.0637054443359375,0.007537841796875
1690839143176055000,9.110054931640626,-0.9784698486328125,0.0637969970703125,0.0072479248046875
1690839143186095000,9.12009521484375,-0.978912353515625,0.0628814697265625,0.0066680908203125
1690839143196136000,9.130135986328124,-0.979705810546875,0.062652587890625,0.007720947265625
1690839143206176000,9.140176025390625,-0.980072021484375,0.0630035400390625,0.0074462890625
1690839143216216000,9.150216064453126,-0.958404541015625,0.07159423828125,0.0066680908203125
1690839143226257200,9.160257080078125,-1.006134033203125,0.1049957275390625,-0.0006866455078125
1690839143236297000,9.170296875,-0.9528961181640625,0.04058837890625,0.011810302734375
1690839143246322200,9.180322265625,-0.98809814453125,0.0583038330078125,-0.0073394775390625
1690839143256362200,9.1903623046875,-1.0016326904296875,0.0355072021484375,0.0346527099609375
1690839143266403000,9.200403076171876,-0.9818115234375,0.037109375,0.0148773193359375
1690839143276443100,9.210443115234375,-0.9949493408203125,0.044464111328125,0.017822265625
1690839143286483000,9.22048291015625,-0.980743408203125,0.0498809814453125,0.0087738037109375
1690839143296523000,9.23052294921875,-0.9817962646484375,0.0556640625,0.000213623046875
1690839143306564000,9.240564208984376,-0.979095458984375,0.062652587890625,-0.0027618408203125
1690839143316604200,9.250604248046875,-0.97515869140625,0.0660400390625,-0.0030364990234375
1690839143326644200,9.260644287109375,-0.9805145263671875,0.0665130615234375,0.000823974609375
1690839143336715300,9.27071533203125,-0.976165771484375,0.0734100341796875,0.001007080078125
1690839143346755300,9.28075537109375,-0.978851318359375,0.07293701171875,0.006744384765625
1690839143356796200,9.290796142578126,-0.9741668701171875,0.07598876953125,0.0087432861328125
1690839143366836000,9.3008359375,-0.982025146484375,0.0790863037109375,0.011077880859375
1690839143376876000,9.3108759765625,-0.9757232666015625,0.0791168212890625,0.0127105712890625
1690839143386917000,9.320917236328125,-0.9789886474609375,0.0818023681640625,0.01123046875
1690839143396957200,9.330957275390626,-0.9792938232421875,0.081390380859375,0.0117645263671875
1690839143406997200,9.340997314453125,-0.97308349609375,0.083587646484375,0.009033203125
1690839143417037300,9.351037353515625,-0.978515625,0.0843353271484375,0.0072479248046875
1690839143427078100,9.361078125,-0.97283935546875,0.083740234375,0.0058746337890625
1690839143437118000,9.371117919921875,-0.9754180908203125,0.0854339599609375,0.00323486328125
1690839143447158000,9.381157958984375,-0.9748687744140625,0.084564208984375,0.001617431640625
1690839143457199000,9.39119921875,-0.9727783203125,0.08416748046875,0.0013580322265625
1690839143467239200,9.4012392578125,-0.976715087890625,0.0845489501953125,0.0011138916015625
1690839143477279200,9.411279296875,-0.97332763671875,0.0830078125,0.001251220703125
1690839143487319300,9.4213193359375,-0.975372314453125,0.0829925537109375,0.003204345703125
1690839143497390300,9.431390380859375,-0.976165771484375,0.0815582275390625,0.0053558349609375
1690839143507430100,9.44143017578125,-0.9761962890625,0.080108642578125,0.0072479248046875
1690839143517471000,9.451470947265625,-0.9752655029296875,0.0798187255859375,0.008209228515625
1690839143527511000,9.461510986328125,-0.979400634765625,0.078948974609375,0.0097503662109375
1690839143537551000,9.471551025390625,-0.978759765625,0.0771331787109375,0.009368896484375
1690839143547592200,9.48159228515625,-0.9807281494140625,0.0753173828125,0.0094146728515625
1690839143557632300,9.49163232421875,-0.979705810546875,0.074066162109375,0.0089874267578125
1690839143567672300,9.50167236328125,-0.9789886474609375,0.0717926025390625,0.0072174072265625
1690839143577712000,9.511712158203125,-0.9816741943359375,0.070098876953125,0.0059814453125
1690839143587753000,9.5217529296875,-0.9773406982421875,0.0679168701171875,0.005126953125
1690839143597793000,9.53179296875,-0.980316162109375,0.0659637451171875,0.0032958984375
1690839143607833000,9.5418330078125,-0.980987548828125,0.065216064453125,0.0037078857421875
1690839143617874200,9.551874267578125,-0.9793243408203125,0.0640411376953125,0.004150390625
1690839143627914200,9.561914306640626,-0.98211669921875,0.0623779296875,0.004791259765625
1690839143637954300,9.571954345703125,-0.98138427734375,0.0614013671875,0.0062713623046875
1690839143647994400,9.581994384765625,-0.9815826416015625,0.0603485107421875,0.008026123046875
1690839143658065200,9.592065185546875,-0.982269287109375,0.0597686767578125,0.00927734375
1690839143668106000,9.60210595703125,-0.9828338623046875,0.0597991943359375,0.010406494140625
1690839143678146000,9.61214599609375,-0.9822845458984375,0.058868408203125,0.0105133056640625
1690839143688186000,9.62218603515625,-0.9826812744140625,0.0599365234375,0.0103607177734375
1690839143698226200,9.63222607421875,-0.9818878173828125,0.0605926513671875,0.0087890625
1690839143708267300,9.642267333984375,-0.9821624755859375,0.0600433349609375,0.007080078125
1690839143718307300,9.652307373046876,-0.9818878173828125,0.0606689453125,0.0066680908203125
1690839143728347100,9.66234716796875,-0.9809417724609375,0.0614776611328125,0.0060577392578125
1690839143738388000,9.672387939453126,-0.981170654296875,0.062896728515625,0.0047454833984375
1690839143748428000,9.682427978515625,-0.98028564453125,0.063629150390625,0.0043792724609375
1690839143758468000,9.692468017578125,-0.981231689453125,0.065277099609375,0.0049285888671875
1690839143768508200,9.702508056640625,-0.980255126953125,0.066070556640625,0.0064697265625
1690839143778549200,9.71254931640625,-0.9795989990234375,0.0682220458984375,0.0072784423828125
1690839143788589300,9.72258935546875,-0.97998046875,0.0695343017578125,0.00823974609375
1690839143798629000,9.732629150390625,-0.97918701171875,0.0704345703125,0.0080413818359375
1690839143808669200,9.742669189453125,-0.9783935546875,0.0722198486328125,0.008453369140625
1690839143818740200,9.752740234375,-0.9787445068359375,0.0730743408203125,0.0081024169921875
1690839143828781000,9.762781005859376,-0.97833251953125,0.0742950439453125,0.007110595703125
1690839143838821000,9.772821044921875,-0.9776611328125,0.075469970703125,0.006683349609375
1690839143848861200,9.782861083984375,-0.977569580078125,0.076141357421875,0.0059661865234375
1690839143858901200,9.7929013671875,-0.97686767578125,0.076629638671875,0.00616455078125
1690839143868942300,9.8029423828125,-0.9771728515625,0.077789306640625,0.005401611328125
1690839143878982100,9.812982177734375,-0.9762115478515625,0.0774383544921875,0.0042724609375
1690839143889022200,9.823022216796875,-0.976470947265625,0.077392578125,0.0053253173828125
1690839143899063000,9.83306298828125,-0.9780120849609375,0.0780792236328125,0.0051422119140625
1690839143909103000,9.84310302734375,-0.97735595703125,0.0783843994140625,0.005218505859375
1690839143919143200,9.85314306640625,-0.9778289794921875,0.077850341796875,0.0061492919921875
1690839143929183200,9.863183349609375,-0.978118896484375,0.0781707763671875,0.006011962890625
1690839143939224300,9.873224365234375,-0.977447509765625,0.077850341796875,0.00653076171875
1690839143949264100,9.88326416015625,-0.977874755859375,0.0779266357421875,0.0072174072265625
1690839143959304200,9.89330419921875,-0.977783203125,0.076873779296875,0.0069732666015625
1690839143969345000,9.903344970703126,-0.9781951904296875,0.0762481689453125,0.00714111328125
1690839143979415300,9.913415283203125,-0.978607177734375,0.0746612548828125,0.0067291259765625
1690839143989456100,9.9234560546875,-0.978363037109375,0.0740814208984375,0.00640869140625
1690839143999496200,9.93349609375,-0.9793243408203125,0.074127197265625,0.00677490234375
1690839144009536300,9.943536376953125,-0.9793243408203125,0.0730133056640625,0.0061798095703125
1690839144019576000,9.953576171875,-0.9782257080078125,0.072265625,0.0059967041015625
1690839144029617200,9.9636171875,-0.9781341552734375,0.0711212158203125,0.0055389404296875
1690839144039657200,9.9736572265625,-0.9790496826171875,0.0698089599609375,0.00616455078125
1690839144049697300,9.983697265625,-0.9799346923828125,0.068939208984375,0.0060882568359375
1690839144059738000,9.993738037109376,-0.980499267578125,0.068634033203125,0.0071563720703125
1690839144069778200,10.003778076171875,-0.98077392578125,0.0677642822265625,0.0070953369140625
1690839144079818200,10.013818359375,-0.97943115234375,0.0665283203125,0.00775146484375
1690839144089858000,10.023858154296875,-0.980865478515625,0.0661163330078125,0.007720947265625
1690839144099899100,10.033899169921876,-0.98040771484375,0.0656890869140625,0.0059356689453125
1690839144109939200,10.043939208984375,-0.9801025390625,0.0650177001953125,0.006439208984375
1690839144119979300,10.053979248046875,-0.97979736328125,0.06512451171875,0.00677490234375
1690839144130020000,10.06402001953125,-0.980133056640625,0.06573486328125,0.0065460205078125
1690839144140090000,10.074090087890625,-0.981781005859375,0.065216064453125,0.007476806640625
1690839144150131200,10.084131103515626,-0.9810791015625,0.0653076171875,0.0068359375
1690839144160171300,10.094171142578125,-0.980224609375,0.0652008056640625,0.006591796875
1690839144170211000,10.104211181640625,-0.980194091796875,0.0657196044921875,0.0064239501953125
1690839144180252200,10.114252197265625,-0.97882080078125,0.066131591796875,0.0068206787109375
1690839144190292200,10.124292236328126,-0.9811248779296875,0.0669708251953125,0.0069427490234375
1690839144200332300,10.134332275390625,-0.980194091796875,0.0684814453125,0.0069580078125
1690839144210372000,10.1443720703125,-0.97869873046875,0.0689849853515625,0.005584716796875
1690839144220413200,10.1544130859375,-0.979583740234375,0.069305419921875,0.0064849853515625
1690839144230453200,10.164453369140626,-0.9797821044921875,0.0693817138671875,0.006805419921875
1690839144240493000,10.1744931640625,-0.9787750244140625,0.0702972412109375,0.0071868896484375
1690839144250545200,10.184545166015624,-0.9782562255859375,0.0709381103515625,0.0070343017578125
1690839144260586000,10.1945859375,-0.9779052734375,0.0706939697265625,0.006103515625
1690839144270626000,10.2046259765625,-0.9796905517578125,0.07220458984375,0.006134033203125
1690839144280666000,10.214666015625,-0.9798431396484375,0.0723114013671875,0.0058135986328125
1690839144290707200,10.224707275390625,-0.97845458984375,0.073272705078125,0.0054779052734375
1690839144300777200,10.234777099609374,-0.97955322265625,0.07379150390625,0.0057525634765625
1690839144310818300,10.244818359375,-0.9778594970703125,0.074066162109375,0.0057830810546875
1690839144320858400,10.2548583984375,-0.9779052734375,0.0741119384765625,0.006195068359375
1690839144330898000,10.26489794921875,-0.9782867431640625,0.0749359130859375,0.0062255859375
1690839144340939000,10.27493896484375,-0.977325439453125,0.075439453125,0.006011962890625
1690839144350979000,10.28497900390625,-0.977294921875,0.0746917724609375,0.0066375732421875
1690839144361019100,10.29501904296875,-0.9785308837890625,0.07562255859375,0.0059051513671875
1690839144371059200,10.30505908203125,-0.978118896484375,0.07489013671875,0.0074920654296875
1690839144381100300,10.315100341796875,-0.97772216796875,0.074462890625,0.006927490234375
1690839144391140000,10.32514013671875,-0.9782257080078125,0.074554443359375,0.005859375
1690839144401180000,10.335179931640624,-0.978302001953125,0.07421875,0.00677490234375
1690839144411221000,10.345220947265625,-0.9785003662109375,0.0736236572265625,0.0064849853515625
1690839144421261000,10.355260986328124,-0.977813720703125,0.0729827880859375,0.0062103271484375
1690839144431301000,10.365301025390625,-0.9794921875,0.0735626220703125,0.0059661865234375
1690839144441341200,10.375341064453124,-0.9785614013671875,0.072967529296875,0.0068359375
1690839144451412200,10.385412109375,-0.9790802001953125,0.0716705322265625,0.0069122314453125
1690839144461452000,10.3954521484375,-0.9790496826171875,0.071502685546875,0.0063934326171875
1690839144471493000,10.4054931640625,-0.97894287109375,0.0709991455078125,0.0072021484375
1690839144481533000,10.415532958984375,-0.979034423828125,0.0706634521484375,0.0076751708984375
1690839144491573000,10.425572998046874,-0.9795074462890625,0.06988525390625,0.0069732666015625
1690839144501614000,10.435614013671875,-0.9791259765625,0.0697784423828125,0.006591796875
1690839144511654100,10.445654052734374,-0.979339599609375,0.0693359375,0.0056915283203125
1690839144521694200,10.455694091796875,-0.980316162109375,0.0689544677734375,0.0059814453125
1690839144531734300,10.465734375,-0.9799652099609375,0.069183349609375,0.005859375
1690839144541775000,10.475775146484375,-0.979583740234375,0.0689544677734375,0.006072998046875
1690839144551815000,10.48581494140625,-0.979461669921875,0.06829833984375,0.0063018798828125
1690839144561855000,10.49585498046875,-0.98016357421875,0.067840576171875,0.0068359375
1690839144571896000,10.50589599609375,-0.9796295166015625,0.0689239501953125,0.0069580078125
1690839144581936000,10.51593603515625,-0.9802398681640625,0.068267822265625,0.0073394775390625
1690839144591976200,10.52597607421875,-0.9797821044921875,0.068511962890625,0.00689697265625
1690839144602016300,10.536016357421875,-0.9795684814453125,0.0681610107421875,0.0068511962890625
1690839144612087000,10.546087158203125,-0.97906494140625,0.0681610107421875,0.0070648193359375
1690839144622128000,10.556128173828125,-0.9791107177734375,0.0693206787109375,0.0077362060546875
1690839144632168000,10.56616796875,-0.97991943359375,0.068756103515625,0.0066680908203125
1690839144642208000,10.5762080078125,-0.9799957275390625,0.07025146484375,0.005828857421875
1690839144652248000,10.586248046875,-0.9796142578125,0.0694580078125,0.0063018798828125
1690839144662289200,10.5962890625,-0.9796905517578125,0.0706939697265625,0.0068206787109375
1690839144672329200,10.6063291015625,-0.9783477783203125,0.0711669921875,0.00653076171875
1690839144682369300,10.616369384765624,-0.977996826171875,0.0714874267578125,0.0060882568359375
1690839144692410000,10.62641015625,-0.978668212890625,0.07135009765625,0.005889892578125
1690839144702450000,10.636449951171874,-0.97857666015625,0.071563720703125,0.0060577392578125
1690839144712490000,10.646489990234375,-0.9781494140625,0.0720062255859375,0.0065155029296875
1690839144722530000,10.656530029296874,-0.9784088134765625,0.072601318359375,0.007110595703125
1690839144732571100,10.666571044921875,-0.978790283203125,0.0733489990234375,0.007476806640625
1690839144742611200,10.676611083984374,-0.9788818359375,0.0733642578125,0.0064239501953125
1690839144752651300,10.6866513671875,-0.978729248046875,0.0737152099609375,0.0069580078125
1690839144762691000,10.696691162109374,-0.97821044921875,0.072509765625,0.0074920654296875
1690839144772762000,10.70676220703125,-0.9781951904296875,0.072662353515625,0.005950927734375
1690839144782803000,10.716802978515625,-0.9779815673828125,0.073394775390625,0.0053558349609375
1690839144792843000,10.726843017578124,-0.9774627685546875,0.073822021484375,0.006103515625
1690839144802883000,10.736883056640625,-0.9782867431640625,0.07305908203125,0.006011962890625
1690839144812923100,10.746923095703124,-0.977630615234375,0.0734405517578125,0.00592041015625
1690839144822964200,10.756964111328125,-0.97845458984375,0.072509765625,0.006072998046875
1690839144833004300,10.76700439453125,-0.979278564453125,0.072662353515625,0.005584716796875
1690839144843044000,10.777044189453125,-0.9794464111328125,0.0730133056640625,0.00653076171875
1690839144853085000,10.7870849609375,-0.978485107421875,0.0726470947265625,0.0067138671875
1690839144863125000,10.797125,-0.978729248046875,0.07135009765625,0.006622314453125
1690839144873165000,10.8071650390625,-0.978851318359375,0.0711517333984375,0.006011962890625
1690839144883205000,10.817205078125,-0.9796295166015625,0.0721282958984375,0.0068817138671875
1690839144893246200,10.82724609375,-0.9799346923828125,0.0713348388671875,0.006256103515625
1690839144903286300,10.837286376953125,-0.980377197265625,0.07037353515625,0.00616455078125
1690839144913326000,10.847326171875,-0.980255126953125,0.0704803466796875,0.0063018798828125
1690839144923367000,10.857366943359375,-0.97894287109375,0.0699310302734375,0.0066375732421875
1690839144933437200,10.867437255859375,-0.9789886474609375,0.069915771484375,0.0065460205078125
1690839144943478000,10.87747802734375,-0.97918701171875,0.0705108642578125,0.0062713623046875
1690839144953518000,10.88751806640625,-0.9791259765625,0.0698394775390625,0.006378173828125
1690839144963558100,10.89755810546875,-0.9795989990234375,0.069793701171875,0.006927490234375
1690839144973598000,10.907597900390625,-0.9795684814453125,0.0692596435546875,0.0061187744140625
1690839144983639300,10.917639404296875,-0.97900390625,0.070648193359375,0.0055999755859375
1690839144993679000,10.92767919921875,-0.9797515869140625,0.0704498291015625,0.006591796875
1690839145003719200,10.93771923828125,-0.979156494140625,0.0706939697265625,0.006561279296875
1690839145013760000,10.947760009765625,-0.9796295166015625,0.0704193115234375,0.0068359375
1690839145023800000,10.957800048828124,-0.9799652099609375,0.07000732421875,0.006744384765625
1690839145033840000,10.967840087890625,-0.979644775390625,0.0702056884765625,0.0069122314453125
1690839145043880200,10.977880126953124,-0.979827880859375,0.070465087890625,0.0073699951171875
1690839145053921300,10.98792138671875,-0.97943115234375,0.069915771484375,0.0065460205078125
1690839145063961000,10.997961181640624,-0.9795379638671875,0.0706939697265625,0.006561279296875
1690839145074001200,11.008001220703125,-0.9797210693359375,0.0712890625,0.0069122314453125
1690839145084042000,11.0180419921875,-0.978912353515625,0.071014404296875,0.0064697265625
1690839145094112300,11.0281123046875,-0.979248046875,0.0709381103515625,0.0074462890625
1690839145104153000,11.038153076171875,-0.979705810546875,0.071258544921875,0.00653076171875
1690839145114193200,11.048193115234374,-0.9797210693359375,0.0713958740234375,0.0071258544921875
1690839145124233000,11.05823291015625,-0.97930908203125,0.0710906982421875,0.006378173828125
1690839145134274000,11.068274169921875,-0.979522705078125,0.0713348388671875,0.0058746337890625
1690839145144314000,11.078314208984375,-0.9798736572265625,0.0721893310546875,0.006744384765625
1690839145154354200,11.088354248046874,-0.9790496826171875,0.0725555419921875,0.0064697265625
1690839145164394200,11.098394287109375,-0.978973388671875,0.0726470947265625,0.0063629150390625
1690839145174435000,11.10843505859375,-0.9799346923828125,0.07269287109375,0.006805419921875
1690839145184475100,11.11847509765625,-0.97918701171875,0.07208251953125,0.006439208984375
1690839145194515200,11.12851513671875,-0.9793243408203125,0.072509765625,0.00604248046875
1690839145204556300,11.138556396484375,-0.978485107421875,0.0727691650390625,0.006591796875
1690839145214596000,11.14859619140625,-0.9785614013671875,0.0727996826171875,0.00665283203125
1690839145224636200,11.15863623046875,-0.978790283203125,0.0724334716796875,0.0057830810546875
1690839145234676200,11.16867626953125,-0.9797821044921875,0.072662353515625,0.005828857421875
1690839145244717000,11.178717041015625,-0.9787750244140625,0.07208251953125,0.0060577392578125
1690839145254775600,11.188775634765625,-0.978851318359375,0.07208251953125,0.006683349609375
1690839145264816600,11.198816650390626,-0.9791107177734375,0.0721893310546875,0.007110595703125
1690839145274856400,11.2088564453125,-0.9799041748046875,0.0716552734375,0.0067596435546875
1690839145284896500,11.218896484375,-0.979644775390625,0.0719146728515625,0.0065765380859375
1690839145294937600,11.2289375,-0.978271484375,0.0720672607421875,0.007232666015625
1690839145304977400,11.238977294921876,-0.9792022705078125,0.0713958740234375,0.0068206787109375
1690839145315017500,11.249017578125,-0.979034423828125,0.0713958740234375,0.00628662109375
1690839145325057500,11.2590576171875,-0.97857666015625,0.07135009765625,0.00653076171875
1690839145335098600,11.2690986328125,-0.9795379638671875,0.071319580078125,0.006683349609375
1690839145345138400,11.279138427734376,-0.979248046875,0.070892333984375,0.0052490234375
1690839145355178500,11.289178466796875,-0.9797210693359375,0.0707855224609375,0.00592041015625
1690839145365219600,11.299219482421876,-0.979888916015625,0.0708465576171875,0.005615234375
1690839145375259400,11.30925927734375,-0.9792938232421875,0.0715789794921875,0.006500244140625
1690839145385299500,11.319299560546876,-0.9792938232421875,0.0707855224609375,0.0066070556640625
1690839145395339500,11.329339599609375,-0.980255126953125,0.07110595703125,0.0067901611328125
1690839145405380600,11.339380615234376,-0.97979736328125,0.0714111328125,0.0071563720703125
1690839145415450600,11.34945068359375,-0.9796295166015625,0.0706024169921875,0.0074005126953125
1690839145425491500,11.359491455078125,-0.9794921875,0.0697021484375,0.0071258544921875
1690839145435531300,11.36953125,-0.9799041748046875,0.07037353515625,0.0060577392578125
1690839145445571300,11.3795712890625,-0.9794158935546875,0.0709075927734375,0.005889892578125
1690839145455612400,11.3896123046875,-0.9792938232421875,0.0709075927734375,0.0060577392578125
1690839145465652500,11.399652587890625,-0.978424072265625,0.0701751708984375,0.0057525634765625
1690839145475692500,11.409692626953126,-0.979583740234375,0.071319580078125,0.005462646484375
1690839145485732600,11.419732666015625,-0.9796295166015625,0.071197509765625,0.0063629150390625
1690839145495773400,11.4297734375,-0.979278564453125,0.07171630859375,0.006317138671875
1690839145505813500,11.4398134765625,-0.9794769287109375,0.071502685546875,0.00628662109375
1690839145515853300,11.449853271484375,-0.97894287109375,0.0718841552734375,0.0063018798828125
1690839145525894400,11.459894287109375,-0.977996826171875,0.0726470947265625,0.0060882568359375
1690839145535934500,11.4699345703125,-0.979461669921875,0.0719146728515625,0.00579833984375
1690839145545974500,11.479974609375,-0.9788055419921875,0.07073974609375,0.0065765380859375
1690839145556014600,11.4900146484375,-0.9788970947265625,0.07177734375,0.0063629150390625
1690839145566055400,11.500055419921875,-0.979522705078125,0.072235107421875,0.006927490234375
1690839145576126500,11.51012646484375,-0.978668212890625,0.0726470947265625,0.0057525634765625
1690839145586166300,11.520166259765626,-0.9788055419921875,0.0720977783203125,0.0067291259765625
1690839145596206300,11.530206298828125,-0.9795684814453125,0.0714874267578125,0.007110595703125
1690839145606246400,11.540246337890625,-0.97918701171875,0.0726318359375,0.006378173828125
1690839145616287500,11.55028759765625,-0.9791412353515625,0.07269287109375,0.0060882568359375
1690839145626327600,11.56032763671875,-0.979766845703125,0.07220458984375,0.00592041015625
1690839145636367600,11.57036767578125,-0.9787445068359375,0.0712738037109375,0.0059661865234375
1690839145646408400,11.580408447265626,-0.9797210693359375,0.0727691650390625,0.0064239501953125
1690839145656448500,11.590448486328125,-0.9787139892578125,0.072235107421875,0.0069580078125
1690839145666488300,11.60048828125,-0.9785003662109375,0.0718231201171875,0.0062103271484375
1690839145676528400,11.6105283203125,-0.9793548583984375,0.072296142578125,0.00604248046875
1690839145686569500,11.620569580078126,-0.9789276123046875,0.0727081298828125,0.00634765625
1690839145696609500,11.630609619140625,-0.9794921875,0.0719146728515625,0.0061492919921875
1690839145706649600,11.640649658203126,-0.979949951171875,0.071685791015625,0.0067138671875
1690839145716690400,11.6506904296875,-0.9796905517578125,0.0718231201171875,0.006195068359375
1690839145726730500,11.66073046875,-0.9794158935546875,0.070892333984375,0.006622314453125
1690839145736801300,11.67080126953125,-0.9791259765625,0.071197509765625,0.0067291259765625
1690839145746841300,11.68084130859375,-0.9799652099609375,0.0709381103515625,0.0055999755859375
1690839145756881400,11.69088134765625,-0.980072021484375,0.071319580078125,0.0068511962890625
1690839145766921500,11.70092138671875,-0.97943115234375,0.071380615234375,0.006744384765625
1690839145776962600,11.710962646484376,-0.9790496826171875,0.071807861328125,0.0064849853515625
1690839145787002600,11.721002685546875,-0.979217529296875,0.0717620849609375,0.0063629150390625
1690839145797042700,11.731042724609376,-0.979217529296875,0.0716552734375,0.0059661865234375
1690839145807083500,11.74108349609375,-0.979278564453125,0.0718231201171875,0.006195068359375
1690839145817123300,11.751123291015626,-0.978790283203125,0.0714874267578125,0.005828857421875
1690839145827163400,11.761163330078125,-0.97967529296875,0.0704803466796875,0.0060577392578125
1690839145837203500,11.771203369140625,-0.97894287109375,0.0704803466796875,0.0071868896484375
1690839145847244500,11.78124462890625,-0.9787139892578125,0.0704193115234375,0.006927490234375
1690839145857284600,11.79128466796875,-0.9788818359375,0.0709686279296875,0.0072784423828125
1690839145867324700,11.80132470703125,-0.9788818359375,0.071075439453125,0.0070953369140625
1690839145877365500,11.811365478515626,-0.979156494140625,0.0708160400390625,0.0072174072265625
1690839145887405300,11.8214052734375,-0.9799041748046875,0.07135009765625,0.0067596435546875
1690839145897476400,11.831476318359375,-0.979827880859375,0.0717620849609375,0.0065155029296875
1690839145907516400,11.841516357421876,-0.9793853759765625,0.071563720703125,0.0064544677734375
1690839145917556500,11.851556396484375,-0.979217529296875,0.072174072265625,0.006591796875
1690839145927596500,11.861596435546875,-0.979339599609375,0.072509765625,0.006378173828125
1690839145937637600,11.8716376953125,-0.9794769287109375,0.072235107421875,0.0066375732421875
1690839145947677700,11.881677734375,-0.9795379638671875,0.0714263916015625,0.0067901611328125
1690839145957717500,11.891717529296875,-0.97955322265625,0.07220458984375,0.007080078125
1690839145967758300,11.90175830078125,-0.9788360595703125,0.0720977783203125,0.0066680908203125
1690839145977798400,11.91179833984375,-0.9793548583984375,0.0722503662109375,0.0064239501953125
1690839145987838500,11.92183837890625,-0.9793243408203125,0.0723876953125,0.00640869140625
1690839145997878500,11.93187841796875,-0.978790283203125,0.0717926025390625,0.007171630859375
1690839146007919600,11.941919677734376,-0.979278564453125,0.07208251953125,0.0065155029296875
1690839146017959700,11.951959716796875,-0.97821044921875,0.0717620849609375,0.0063629150390625
1690839146027999500,11.96199951171875,-0.97894287109375,0.07177734375,0.0068359375
1690839146038040300,11.972040283203125,-0.9786529541015625,0.0723114013671875,0.0066070556640625
1690839146048080400,11.982080322265626,-0.9793853759765625,0.0723724365234375,0.0060882568359375
1690839146058151400,11.9921513671875,-0.9794158935546875,0.073455810546875,0.0055084228515625
1690839146068191500,12.00219140625,-0.98028564453125,0.072113037109375,0.0066680908203125
1690839146078231600,12.0122314453125,-0.98101806640625,0.0715789794921875,0.0067901611328125
1690839146088272600,12.022272705078125,-0.9791259765625,0.07183837890625,0.006988525390625
1690839146098312400,12.0323125,-0.9791412353515625,0.07232666015625,0.0064544677734375
1690839146108352500,12.0423525390625,-0.9786834716796875,0.07147216796875,0.0065155029296875
1690839146118392600,12.052392578125,-0.978790283203125,0.072540283203125,0.0063323974609375
1690839146128433400,12.062433349609375,-0.978668212890625,0.07208251953125,0.0068817138671875
1690839146138473500,12.072473388671876,-0.979034423828125,0.072265625,0.00677490234375
1690839146148513500,12.082513427734375,-0.9791107177734375,0.0719146728515625,0.0064849853515625
1690839146158554600,12.0925546875,-0.979095458984375,0.071807861328125,0.006927490234375
1690839146168594700,12.1025947265625,-0.9791107177734375,0.07159423828125,0.00653076171875
1690839146178634500,12.112634521484376,-0.9791259765625,0.071319580078125,0.0060577392578125
1690839146188674600,12.122674560546875,-0.9798431396484375,0.0712127685546875,0.00555419921875
1690839146198715400,12.13271533203125,-0.979095458984375,0.0713958740234375,0.0061187744140625
1690839146208785400,12.142785400390625,-0.979522705078125,0.0713653564453125,0.0056304931640625
1690839146218826500,12.152826416015625,-0.98016357421875,0.07177734375,0.006500244140625
1690839146228866600,12.162866455078126,-0.97918701171875,0.071685791015625,0.0063629150390625
1690839146238906400,12.17290625,-0.9801788330078125,0.070953369140625,0.0069580078125
1690839146248929500,12.182929443359376,-0.9797210693359375,0.0718841552734375,0.006500244140625
1690839146258969600,12.192969482421875,-0.9800567626953125,0.072265625,0.006500244140625
1690839146269009700,12.203009765625,-0.979248046875,0.072235107421875,0.0059661865234375
1690839146279049500,12.213049560546875,-0.979522705078125,0.0720367431640625,0.006866455078125
1690839146289090300,12.22309033203125,-0.979248046875,0.0713043212890625,0.00592041015625
1690839146299130400,12.23313037109375,-0.978302001953125,0.0710906982421875,0.006256103515625
1690839146309170400,12.24317041015625,-0.97918701171875,0.07171630859375,0.00604248046875
1690839146319211500,12.25321142578125,-0.9797821044921875,0.07208251953125,0.0058441162109375
1690839146329251600,12.26325146484375,-0.980010986328125,0.071990966796875,0.006317138671875
1690839146339291600,12.273291748046875,-0.979217529296875,0.072235107421875,0.0066375732421875
1690839146349331500,12.28333154296875,-0.97900390625,0.0712738037109375,0.0057373046875
1690839146359372300,12.293372314453125,-0.98004150390625,0.0716400146484375,0.0067138671875
1690839146369442600,12.303442626953125,-0.9791717529296875,0.07208251953125,0.0067138671875
1690839146379483400,12.3134833984375,-0.97930908203125,0.0720062255859375,0.0066375732421875
1690839146389523500,12.3235234375,-0.97906494140625,0.0723114013671875,0.006591796875
1690839146399563500,12.3335634765625,-0.9791717529296875,0.0720367431640625,0.0060882568359375
1690839146409604600,12.3436044921875,-0.9791107177734375,0.0723419189453125,0.006011962890625
1690839146419644700,12.353644775390626,-0.9794769287109375,0.07177734375,0.0067596435546875
1690839146429684500,12.3636845703125,-0.9787750244140625,0.0716094970703125,0.0059051513671875
1690839146439724500,12.373724609375,-0.979248046875,0.071929931640625,0.006500244140625
1690839146449765400,12.383765380859375,-0.979644775390625,0.0727386474609375,0.0069580078125
1690839146459805400,12.393805419921875,-0.978851318359375,0.0719757080078125,0.0072784423828125
1690839146469845500,12.403845458984375,-0.979034423828125,0.0721282958984375,0.00640869140625
1690839146479886600,12.413886474609376,-0.978515625,0.0719451904296875,0.00732421875
1690839146489926700,12.4239267578125,-0.9789886474609375,0.071197509765625,0.0069732666015625
1690839146499966500,12.433966552734375,-0.979278564453125,0.07177734375,0.0063018798828125
1690839146510006500,12.444006591796875,-0.9786834716796875,0.0722198486328125,0.006256103515625
1690839146520047400,12.45404736328125,-0.9786224365234375,0.0721435546875,0.006195068359375
1690839146530118400,12.464118408203126,-0.97906494140625,0.072174072265625,0.0057373046875
1690839146540158500,12.474158447265625,-0.9792022705078125,0.0717926025390625,0.00616455078125
1690839146550198500,12.484198486328125,-0.97918701171875,0.07208251953125,0.0065155029296875
1690839146560238600,12.494238525390625,-0.9790496826171875,0.0720367431640625,0.0066070556640625
1690839146570279700,12.50427978515625,-0.978851318359375,0.0721282958984375,0.0064849853515625
1690839146580319500,12.514319580078125,-0.9798583984375,0.0725250244140625,0.0074920654296875
1690839146590359600,12.524359619140625,-0.9793701171875,0.071258544921875,0.0070648193359375
1690839146600400400,12.534400390625,-0.97930908203125,0.0713958740234375,0.006500244140625
1690839146610440400,12.5444404296875,-0.979705810546875,0.0718994140625,0.0062255859375
1690839146620480500,12.55448046875,-0.978668212890625,0.0724029541015625,0.0068206787109375
1690839146630520600,12.5645205078125,-0.979095458984375,0.0720977783203125,0.0062408447265625
1690839146640561700,12.574561767578125,-0.980224609375,0.072113037109375,0.0067596435546875
1690839146650601500,12.5846015625,-0.979766845703125,0.0714569091796875,0.0062713623046875
1690839146660641500,12.5946416015625,-0.9797821044921875,0.071807861328125,0.00616455078125
1690839146670682400,12.604682373046876,-0.979217529296875,0.0724334716796875,0.0059967041015625
1690839146680722400,12.614722412109375,-0.9790191650390625,0.0718841552734375,0.00537109375
1690839146690793500,12.62479345703125,-0.979522705078125,0.071624755859375,0.0063018798828125
1690839146700833500,12.63483349609375,-0.97882080078125,0.0714874267578125,0.0060577392578125
1690839146710873600,12.64487353515625,-0.9787750244140625,0.07196044921875,0.0060882568359375
1690839146720913400,12.654913330078125,-0.97998046875,0.072418212890625,0.006622314453125
1690839146730954500,12.66495458984375,-0.9794158935546875,0.071990966796875,0.0056915283203125
1690839146740994600,12.67499462890625,-0.979827880859375,0.072235107421875,0.0061492919921875
1690839146751034600,12.68503466796875,-0.97900390625,0.0723876953125,0.00677490234375
1690839146761075500,12.695075439453126,-0.979034423828125,0.0715789794921875,0.0063018798828125
1690839146771115500,12.705115478515625,-0.9780426025390625,0.07177734375,0.0068359375
1690839146781155600,12.715155517578125,-0.9735870361328125,0.07373046875,0.005645751953125
1690839146791195400,12.7251953125,-0.9896697998046875,0.038543701171875,0.033477783203125
1690839146801236500,12.735236572265626,-0.993743896484375,0.0708160400390625,0.0209808349609375
1690839146811276500,12.745276611328125,-0.9481201171875,0.0912017822265625,-0.0307464599609375
1690839146821316600,12.755316650390625,-0.9724273681640625,0.08624267578125,-0.03326416015625
1690839146831357400,12.765357421875,-0.9615325927734375,0.0930328369140625,-0.0177764892578125
1690839146841397500,12.7753974609375,-0.9844970703125,0.0861663818359375,0.041656494140625
1690839146851468500,12.785468505859376,-0.993438720703125,0.053070068359375,0.036224365234375
1690839146861508600,12.795508544921875,-0.99267578125,0.0466156005859375,0.026031494140625
1690839146871548400,12.80554833984375,-0.983001708984375,0.06427001953125,0.0086822509765625
1690839146881588500,12.81558837890625,-0.9807891845703125,0.0684356689453125,0.002044677734375
1690839146891629600,12.825629638671876,-0.979949951171875,0.0624847412109375,0.0054779052734375
1690839146901669400,12.83566943359375,-0.9841766357421875,0.065155029296875,0.0057830810546875
1690839146911709400,12.84570947265625,-0.9775390625,0.0738677978515625,-0.0014801025390625
1690839146921750500,12.85575048828125,-0.9777069091796875,0.07415771484375,-0.0014495849609375
1690839146931790600,12.86579052734375,-0.9781341552734375,0.0687408447265625,0.0024566650390625
1690839146941830400,12.875830322265625,-0.9821014404296875,0.07415771484375,0.0016021728515625
1690839146951870500,12.885870361328125,-0.9705657958984375,0.0779266357421875,0.001373291015625
1690839146961911600,12.89591162109375,-0.9841766357421875,0.07659912109375,0.006378173828125
1690839146971951400,12.905951416015625,-0.9766998291015625,0.077239990234375,0.0078582763671875
1690839146981991400,12.915991455078125,-0.97857666015625,0.0828399658203125,0.0078887939453125
1690839146992032500,12.926032470703126,-0.9779205322265625,0.0815582275390625,0.00970458984375
1690839147002072600,12.936072509765625,-0.9791107177734375,0.08056640625,0.012359619140625
1690839147012143600,12.9461435546875,-0.9809417724609375,0.085052490234375,0.0106201171875
1690839147022183400,12.956183349609375,-0.976287841796875,0.085784912109375,0.008575439453125
1690839147032223500,12.966223388671875,-0.978973388671875,0.0829925537109375,0.008941650390625
1690839147042264600,12.9762646484375,-0.9783477783203125,0.0846099853515625,0.0062408447265625
1690839147052304400,12.986304443359375,-0.9751739501953125,0.0862884521484375,0.00384521484375
1690839147062344400,12.996344482421875,-0.9775848388671875,0.0849609375,0.00390625
1690839147072384500,13.006384521484375,-0.9778900146484375,0.0848236083984375,0.0034637451171875
1690839147082425600,13.016425537109376,-0.976806640625,0.0863800048828125,0.0021820068359375
1690839147092465400,13.02646533203125,-0.976287841796875,0.0864105224609375,0.0017852783203125
1690839147102505500,13.03650537109375,-0.9778900146484375,0.0852203369140625,0.0033111572265625
1690839147112546600,13.046546630859375,-0.9752960205078125,0.0868072509765625,0.005157470703125
1690839147122586400,13.05658642578125,-0.9763336181640625,0.0874786376953125,0.0048980712890625
1690839147132626400,13.06662646484375,-0.9763336181640625,0.08642578125,0.00616455078125
1690839147142666500,13.07666650390625,-0.9795989990234375,0.085479736328125,0.008087158203125
