time,seconds_elapsed,z,y,x
1690839134259626800,0.193626708984375,0.19180442835986614,-0.32075806746594604,-0.02982208304952364
1690839134269666800,0.203666748046875,0.17743278865814208,-0.3317445217087865,-0.03326092579124961
1690839134279707000,0.213706787109375,0.1740507450044155,-0.3430032170217484,-0.021074913899763487
1690839134289747000,0.223746826171875,0.1692541583776474,-0.3339504342552274,0.0010604414389003068
1690839134299788000,0.2337880859375,0.16949848852753638,-0.3199847450058907,0.016395697441813534
1690839134309827800,0.243827880859375,0.1762941400170326,-0.29781244149059055,0.027262904652580616
1690839134319868000,0.253867919921875,0.1890875706166029,-0.2804812213309109,0.034969195580435916
1690839134329908700,0.26390869140625,0.1975958712428808,-0.2508310562156141,0.03836366945747286
1690839134339948800,0.27394873046875,0.23122107746899126,0.1120822550104931,0.06739695391659624
1690839134349988900,0.28398876953125,0.2504471714645624,0.1820289573419839,0.057743739305203774
1690839134360060000,0.294059814453125,0.2550859371811151,0.22757055560480802,0.03884873586094472
1690839134370100000,0.304099853515625,0.2709475231796503,0.2588227856218815,0.01451169205980841
1690839134380141000,0.31414111328125,0.2878478045761585,0.2815172133151442,0.011521168474317528
1690839134390180900,0.324180908203125,0.2815788073092699,0.29688078666366635,0.008408036855887622
1690839134400221000,0.334220947265625,0.28365444453954697,0.30730204477179796,0.00925995011064224
1690839134410261000,0.344260986328125,0.2915039889961481,0.3234556359868496,-0.0051319240949349474
1690839134420301800,0.3543017578125,0.2875263175368309,0.31316655289102346,-0.003672856993577443
1690839134430342000,0.364341796875,0.2881365583896637,0.29137082760315386,-0.004888913685875013
1690839134440382000,0.3743818359375,0.29014322203695775,0.28534488184452056,-0.009195707501703872
1690839134450423000,0.384423095703125,0.2866770072311163,0.26139139400087297,-0.015537747171916997
1690839134460462800,0.394462890625,0.28028058419227597,0.24248211086951194,-0.010896141044306569
1690839134470503000,0.4045029296875,0.27769699743986126,0.21855916429460048,-0.010157072480302303
1690839134480543000,0.41454296875,0.2766764222204685,0.20050730171017347,-0.017595730014494618
1690839134490583800,0.424583740234375,0.25831834323108194,0.1730199406519532,-0.009270124444784596
1690839134500624000,0.434623779296875,0.24841069720089434,0.13744104307480157,-0.004548137424187734
1690839134510664000,0.444663818359375,0.23887246900498865,0.10387096456941217,0.0007454937382135539
1690839134520735000,0.45473486328125,0.22364158212542531,0.06921542891487478,0.006984324195701629
1690839134530774800,0.46477490234375,0.21546587445437906,0.03819708071891218,0.01937197787282057
1690839134540816000,0.47481591796875,0.21011223846673965,-0.0008621332546696066,0.021561322876950725
1690839134550856000,0.48485595703125,0.20039456205070016,-0.037428617097064854,0.018182722422480584
1690839134560896000,0.49489599609375,0.1922673696964979,-0.06160462511759251,0.007937615465698763
1690839134570936000,0.50493603515625,0.17662381036281585,-0.07347016374990344,-0.0005220419795718044
1690839134580977000,0.514976806640625,0.19013386479914188,-0.09439327092170714,-0.006081822398025542
1690839134591017000,0.525016845703125,0.1899935795456171,-0.10447006297372281,-0.012385662649432196
1690839134601056800,0.535056884765625,0.18175708159804344,-0.09335092226192354,-0.009854454538226127
1690839134611097900,0.545097900390625,0.1871218235015869,-0.08376052548736333,-0.0011205284625291825
1690839134621138000,0.555137939453125,0.19444763634502887,-0.07158157352432608,-0.0005867777788545936
1690839134631178000,0.565177978515625,0.19806758040785788,-0.04887567458897829,0.0021276048795320092
1690839134641218000,0.575218017578125,0.21862112361490726,-0.02323163984250277,0.0053692902144975956
1690839134651259000,0.5852587890625,0.21749241184592247,0.0001169409105554223,0.010036396109545603
1690839134661299000,0.595298828125,0.21431261276602745,0.02274367366246879,0.014464350353321059
1690839134671338800,0.6053388671875,0.23033611132800577,0.03996566129401326,0.0063150511985877525
1690839134681409800,0.615409912109375,0.24188334125876426,0.05729523748587816,0.0013273715796647593
1690839134691449900,0.625449951171875,0.23984043725430965,0.07261899028066546,-0.0026318920067045838
1690839134701491000,0.635490966796875,0.24097674780786035,0.0870621243160218,0.0021753667111275715
1690839134711531000,0.645531005859375,0.24931787517368792,0.10461254018433391,-0.004897037626826204
1690839134721571000,0.655571044921875,0.2543862644791603,0.10349866065829992,-0.007177431048429571
1690839134731611100,0.665611083984375,0.24766134013831614,0.10863361239396035,-0.0036528097193920983
1690839134741652000,0.67565185546875,0.2587812845677137,0.10623254260160028,-0.008729514762060716
1690839134751691800,0.68569189453125,0.24570143824219703,0.103508743660897,-0.011858834896888583
1690839134761731800,0.69573193359375,0.24222353299856184,0.09356843747012317,-0.009733878632169216
1690839134771773000,0.70577294921875,0.2494055534571409,0.08682696385327726,-0.0013492409181781113
1690839134781813000,0.71581298828125,0.23550153126716614,0.07673771417848765,-0.00799404009436257
1690839134791853000,0.72585302734375,0.2290887416154146,0.06186561414133757,0.005181211163336411
1690839134801893000,0.73589306640625,0.2229804878681898,0.03898786577042192,0.0039421937205595895
1690839134811934000,0.745933837890625,0.21356617831289768,0.024568733665160835,0.0021114939949475227
1690839134821973800,0.755973876953125,0.21296470528841016,0.005195376686006784,0.0077617383089847855
1690839134832013800,0.766013916015625,0.2039490396618843,-0.016911021986231206,0.00816727320284117
1690839134842084900,0.7760849609375,0.19280162270367143,-0.029933183307759462,0.002618831595731899
1690839134852125000,0.786125,0.2073351749688387,-0.03348473830949515,-0.0026998335432261225
1690839134862166000,0.796166015625,0.1848521250039339,-0.04675795178264379,-0.007071143962629139
1690839134872206000,0.8062060546875,0.189257081964612,-0.05559961254913359,-0.013110378461098297
1690839134882246100,0.81624609375,0.18525018441081045,-0.059771820199862116,-0.0073596877135802055
1690839134892287000,0.826286865234375,0.18703297617435455,-0.057142092750780284,-0.0036355708902236074
1690839134902326800,0.836326904296875,0.19388065011203287,-0.049964711934700604,0.004236678588530048
1690839134912366800,0.846366943359375,0.19787176557481287,-0.04915712187886238,0.003907419234700501
1690839134922407000,0.856406982421875,0.18764204798340797,-0.033787411050498484,0.01312214196412824
1690839134932448000,0.866447998046875,0.2134726548105478,-0.02311254350747913,0.0017158411742886528
1690839134942488000,0.876488037109375,0.18605097939968107,-0.01269537705257535,0.0060322019694838665
1690839134952528000,0.88652783203125,0.24708441703319547,0.0034721330899745223,-0.0009910751302726567
1690839134962569000,0.89656884765625,0.18409692272245884,0.027793723593652248,0.0014237126601859926
1690839134972608800,0.90660888671875,0.2601467277020216,0.026089002034999427,-0.007916737074451521
1690839134982648800,0.91664892578125,0.20468261463344095,0.04520242943633347,-0.001675422398932278
1690839134992689000,0.92668896484375,0.22661153784692287,0.045389914832450445,0.001576729531120509
1690839135002760000,0.936760009765625,0.236299988168478,0.044174876486882564,-0.012625919412402436
1690839135012800000,0.946800048828125,0.20158523313999174,0.042708457196131346,0.00010336904292926192
1690839135022841000,0.956841064453125,0.2638718857049942,0.049207098500430584,-0.0029255868568085134
1690839135032881000,0.966880859375,0.18477496811449526,0.05579550044741481,0.0027618704953463746
1690839135042920700,0.976920654296875,0.27540041093528267,0.04396671362891793,0.0007709569730330258
1690839135052961800,0.9869619140625,0.18783961638212202,0.04390384099315851,0.004309506362723186
1690839135063001900,0.997001953125,0.24663258161246776,0.036526371027715505,-0.0010073230121750384
1690839135073042000,1.0070419921875,0.19395313082635401,0.037363296775892375,-0.0014701090851798654
1690839135083082000,1.01708203125,0.21849077523350716,0.023621296747215092,-0.007022491648467257
1690839135093123000,1.027123046875,0.20904256340861319,0.01857464434951544,-0.0015096099785063416
1690839135103163000,1.037162841796875,0.17967443010509013,0.007225603871978819,0.002638860603608191
1690839135113202700,1.04720263671875,0.22150106296539304,-0.009493293075636029,-0.0030180235137697306
1690839135123243800,1.057243896484375,0.1748784280002117,-0.016443988996371627,-0.0007063490379136055
1690839135133283800,1.067283935546875,0.20782851144373415,-0.031025070197694002,-0.002524906234582886
1690839135143324000,1.077323974609375,0.1910778676509857,-0.02820866107009351,0.008042432113620452
1690839135153364000,1.087364013671875,0.1928513070642948,-0.032497261642105875,-0.0010715884539997205
1690839135163405000,1.097405029296875,0.200428464320302,-0.044676359735615546,-0.004045850457856432
1690839135173475000,1.10747509765625,0.1837409488916397,-0.04037398636657744,-0.004799331139703281
1690839135183516000,1.117515869140625,0.20713059230744837,-0.034540567505359644,0.0011594174345023929
1690839135193555700,1.1275556640625,0.18650924456119536,-0.0200339397797361,0.0001973674693144858
1690839135203595800,1.137595703125,0.20627426773905752,-0.01284369948208332,-0.000619839798239991
1690839135213636900,1.147636962890625,0.18728724319636822,-0.0063174760511145,0.011714384924899787
1690839135223677000,1.157677001953125,0.20135083986222743,-0.011208609093539415,0.00129009460946545
1690839135233717000,1.167717041015625,0.19612521416842937,-0.005102620368637145,-0.001118373038060963
1690839135243746800,1.177746826171875,0.20109832640588282,0.009187295866385102,0.0007512521921424195
1690839135253787600,1.18778759765625,0.21717034028470514,0.012727306560799479,-0.00007148520047776401
1690839135263827700,1.19782763671875,0.20259177983403204,0.007587532519549131,-0.00284137917207554
1690839135273867800,1.20786767578125,0.22364392021298407,0.021889906377345322,-0.0030446831918321546
1690839135283908900,1.217908935546875,0.1990823104083538,0.04068710743635893,-0.008187585338507778
1690839135293949000,1.227948974609375,0.22467209421694279,0.03804108643960207,-0.007888337530451827
1690839135303989000,1.237989013671875,0.20196224975883958,0.033564562080055475,-0.0016579050085507331
1690839135314029000,1.248029052734375,0.2121925518721342,0.03600055705532432,-0.0021295959072187543
1690839135324070000,1.25806982421875,0.21749241184592247,0.03244428934585303,-0.0005487838560249656
1690839135334140700,1.268140625,0.20588672972619532,0.024148900817893445,0.0023042218217626215
1690839135344180700,1.2781806640625,0.20821955658793448,0.02462440937515348,0.005122220118250698
1690839135354220800,1.288220703125,0.19813246233761309,0.014621742005273698,0.0023118388726375994
1690839135364260900,1.2982607421875,0.19687223314344882,0.007293919867835939,-0.0023051808029878884
1690839135374302000,1.308302001953125,0.19410393747389315,0.004090739912353456,-0.005273035898944363
1690839135384342000,1.318342041015625,0.19447393983006475,-0.011559870216622949,-0.0025078455019276586
1690839135394381800,1.3283818359375,0.20110592519044876,-0.012518230387382208,-0.0006375900840619579
1690839135404422700,1.338422607421875,0.1899199297875166,-0.020547515325061976,0.0005255171448690817
1690839135414462700,1.348462646484375,0.18933190076649187,-0.019020780681818724,0.0021949481944320724
1690839135424502800,1.358502685546875,0.1858808835297823,-0.017536423875577748,0.0005320016845827922
1690839135434542800,1.36854296875,0.18480068707764147,-0.022751491642743347,-0.0001840467634378001
1690839135444584000,1.378583984375,0.17113281173110007,-0.016601079254224896,-0.0041661523692775515
1690839135454624000,1.3886240234375,0.195008777359128,-0.01971826142668724,0.0009515559706371277
1690839135464664000,1.3986640625,0.1847644467204809,-0.017936930967867373,-0.0033181618043920023
1690839135474705000,1.408704833984375,0.20053952347934245,-0.016870434247516095,-0.005522626745840534
1690839135484744700,1.41874462890625,0.20359715748429297,-0.011743665818311273,-0.0013100368523737416
1690839135494815700,1.428815673828125,0.1833089872151613,-0.010521905471011995,-0.00029960400108247994
1690839135504855800,1.438855712890625,0.1925076081931591,-0.005433057899400591,0.00006155746150761842
1690839135514896000,1.448895751953125,0.20171850413084028,0.001211129355430603,-0.0010341014212463051
1690839135524936000,1.45893603515625,0.19986381617486476,0.0030184345057234167,0.0018343986531952395
1690839135534977000,1.46897705078125,0.1992167504429817,0.003373750749416649,-0.0001532862989930436
1690839135545016800,1.479016845703125,0.19812953972816466,0.008045213159173727,-0.004539278264297173
1690839135555057000,1.489056884765625,0.20962825434207916,0.01735288400221616,-0.0030841247196542096
1690839135565097700,1.49909765625,0.20678163273930547,0.01744571338482201,0.001897613782249391
1690839135575137800,1.5091376953125,0.2103922244518995,0.019276253280229864,-0.0032432471043895928
1690839135585177900,1.519177734375,0.20817396388053894,0.019301205058395863,-0.009139739530766383
1690839135595218000,1.529218017578125,0.2047679548293352,0.008708097514696419,-0.0035335261547006663
1690839135605259000,1.539259033203125,0.19868074387013912,0.009996529890038073,0.004205525398440659
1690839135615299000,1.549299072265625,0.19574585946202278,0.00950618908982724,0.003063716685865074
1690839135625339000,1.5593388671875,0.19011866723001003,0.0019914295455440876,0.012027040203800424
1690839135635379700,1.569379638671875,0.20244272675216196,-0.0007024126483127475,0.009064751765527762
1690839135645419800,1.579419677734375,0.19980068781077862,-0.006551796263642609,0.0015768254292430354
1690839135655490800,1.58949072265625,0.19131109188497064,-0.0033212533771991726,0.00101057441518642
1690839135665531000,1.59953076171875,0.19717676904797554,-0.00986987130306661,0.004502549283369444
1690839135675571000,1.609571044921875,0.18746961402595042,-0.02387870557438582,0.0003247475754935294
1690839135685610800,1.61961083984375,0.193610016477108,-0.02152169411946088,-0.013991997300949879
1690839135695651800,1.62965185546875,0.19104981060028076,-0.014303835162520408,-0.01231108130957
1690839135705692000,1.63969189453125,0.1911778208941221,-0.008970182516984641,0.007270347196003422
1690839135715732000,1.64973193359375,0.18231997617781162,-0.011255991899222134,0.009136022336874156
1690839135725772800,1.659772705078125,0.1987415341466665,-0.011345569878816604,-0.0017760423623491078
1690839135735812900,1.669812744140625,0.18432547078132627,-0.004598616369254887,0.00410874592650216
1690839135745853000,1.67985302734375,0.18277064255475997,-0.012771291832998395,0.010612442431831732
1690839135755892700,1.689892822265625,0.19574469041824338,-0.013843889500573277,0.001143370481999591
1690839135765934000,1.69993408203125,0.19046119705736636,-0.01585533892083913,-0.005968059825245291
1690839135775974000,1.709973876953125,0.19356091663837433,-0.01166296526491642,0.0019493713689502327
1690839135786014000,1.720013916015625,0.19172259529531002,0.005573343152925372,-0.0016999449188355355
1690839135796054800,1.7300546875,0.1939268273413181,0.006848477655276655,0.003947349386289716
1690839135806094800,1.7400947265625,0.1876098992794752,0.004499503376334905,-0.00034482224914245303
1690839135816166000,1.750165771484375,0.19656711271703242,0.0030932533076032994,-0.004577934340829961
1690839135826206000,1.7602060546875,0.19700433509051798,0.011581424461305142,0.000910050349892117
1690839135836245800,1.770245849609375,0.18189269067645072,0.0036917671900242566,0.0049060292174573986
1690839135846286800,1.780286865234375,0.19118892681002617,0.004287468060851097,0.0015967813718831166
1690839135856327000,1.790326904296875,0.19135960720181464,-0.0006036649815738201,0.0027531939985463395
1690839135866367000,1.800366943359375,0.1857020198315382,-0.006395801984332501,0.004826634705159813
1690839135876406800,1.81040673828125,0.20862696834504604,0.0007387991359457374,0.005941765473363921
1690839135886447900,1.82044775390625,0.18875906931459902,-0.010799736031703651,0.0013778916239272803
1690839135896488000,1.830488037109375,0.19327216282486914,0.0036885888522490856,-0.003678734178515151
1690839135906527700,1.84052783203125,0.18685294343233108,-0.007275032504275441,-0.007368053683126345
1690839135916568800,1.85056884765625,0.17594810305833816,-0.008318404077365994,-0.007218872737092897
1690839135926609000,1.86060888671875,0.1942103204578161,-0.0008852218693122268,-0.0029878749706782398
1690839135936649000,1.87064892578125,0.18882336672246455,-0.00807177237253636,0.005717281668260694
1690839135946688800,1.880688720703125,0.1985544871419668,-0.0159159100016579,-0.001252826772420667
1690839135956729900,1.890729736328125,0.19077216270267963,-0.019950718475691975,0.004550393313355744
1690839135966770000,1.90077001953125,0.17955109598636626,-0.014064656111784278,0.005131042745523154
1690839135976841000,1.910841064453125,0.1966027685523033,-0.016121698239445686,-0.0009296546660829335
1690839135986880800,1.920880859375,0.18088848206996916,-0.0116864557383582,-0.0006580437836237251
1690839135996920800,1.9309208984375,0.19568974536061287,-0.013299699621275066,0.0018074832468060774
1690839136006962000,1.9409619140625,0.17754852399230003,-0.016328217129595576,0.006617637174623087
1690839136017002000,1.951001953125,0.20145897641181945,-0.011505582746118306,-0.004669370917370542
1690839136027041800,1.961041748046875,0.17164836003780365,-0.008642594530433416,-0.010326958287646994
1690839136037081900,1.971081787109375,0.20123510452806948,-0.014281038808822632,-0.007815989246871323
1690839136047123000,1.981123046875,0.1917658499151468,-0.010492752441763877,-0.00472854005896952
1690839136057162800,1.991162841796875,0.18873685748279093,-0.0003197334736585617,0.0036496405147714538
1690839136067202800,2.001202880859375,0.20128303532302377,-0.0026318463409319517,0.007774890051502734
1690839136077244000,2.011243896484375,0.182419929420948,-0.011148111077956855,0.012753719643689692
1690839136087284000,2.021283935546875,0.18809563696980475,-0.0069940601384267205,0.010570247257919982
1690839136097323800,2.03132373046875,0.19691957941651342,-0.005453552698157727,0.005554254859965294
1690839136107363800,2.04136376953125,0.1813537614941597,-0.00882043531537056,0.004469907389092259
1690839136117405000,2.051405029296875,0.19348083713948724,-0.007080678975954651,0.0036196792013477534
1690839136127445000,2.061445068359375,0.1882505352705717,-0.0002480199443176389,-0.007443511805823072
1690839136137515800,2.071515869140625,0.19080314236283302,-0.00025649551171809436,-0.008299571512732654
1690839136147555800,2.081555908203125,0.18183949918448924,-0.002394128594920039,-0.018873010808159597
1690839136157596000,2.091595947265625,0.2014572228461504,-0.010640271153673529,-0.0139611774710007
1690839136167637000,2.101636962890625,0.17782558736801146,-0.005189129608310759,-0.003152769509074278
1690839136177676800,2.1116767578125,0.19490005628764628,-0.00459046959541738,-0.00580868171218317
1690839136187716900,2.121716796875,0.18294658364355562,-0.009636318275518715,0.0007396393861621618
1690839136197756700,2.131756591796875,0.1905950525701046,-0.0114198041588068,0.01187112355630379
1690839136207797800,2.1417978515625,0.18193068459928036,-0.01625317913200706,0.013697128840489313
1690839136217837800,2.151837890625,0.17221885340213774,-0.01350373429339379,0.007771072392910718
1690839136227878000,2.1618779296875,0.18090017250776289,-0.011592201583646237,0.008949445689632556
1690839136237919000,2.1719189453125,0.1798497866719961,-0.008114588600955904,-0.001229532661801204
1690839136247967700,2.1819677734375,0.1952566146403551,-0.005708659970387816,-0.015535641979798674
1690839136258007600,2.192007568359375,0.18835224207937717,-0.01281980714984238,-0.014031000437354668
1690839136268047600,2.202047607421875,0.1842810471177101,-0.013172273849323391,-0.01663945676954463
1690839136278088400,2.21208837890625,0.18440788836777208,-0.013522731254808604,-0.007591213180823251
1690839136288128500,2.22212841796875,0.18677812463045118,-0.01072641506716609,-0.004816816564043983
1690839136298199600,2.232199462890625,0.1925941174328327,-0.012354783453978597,-0.0022680179972201587
1690839136308239600,2.242239501953125,0.18329437416791916,-0.011354374239780009,0.006149389475211501
1690839136318279400,2.252279541015625,0.1763952623039484,-0.00325399682726711,0.01787953822482377
1690839136328320500,2.262320556640625,0.17892507304251193,-0.005033427589945494,0.017387507791025564
1690839136338360600,2.272360595703125,0.18938626130223274,-0.009790522456541656,0.021349634621338917
1690839136348400600,2.282400634765625,0.1790524988144636,-0.01210205080192536,0.0074361687495838845
1690839136358441500,2.29244140625,0.17950316519141196,-0.007627170410193502,-0.010322090316284447
1690839136368481500,2.3024814453125,0.17665712811052797,-0.006197028009220958,-0.01602419268172234
1690839136378521600,2.312521484375,0.18533844721615314,-0.008714308059774339,-0.0027658251512562852
1690839136388561700,2.322561767578125,0.19461597864925861,-0.00659008244741708,-0.008243836437235585
1690839136398602800,2.332602783203125,0.1856359688580036,-0.00821096164751798,-0.01202973905096296
1690839136408642600,2.342642578125,0.18534487695693969,-0.008454232351481914,-0.008672834405070171
1690839136418682600,2.3526826171875,0.18760288501679898,-0.004278334906324744,0.009711520669888705
1690839136428723500,2.362723388671875,0.1892611736178398,-0.00808547210432589,0.008860338067496195
1690839136438763500,2.372763427734375,0.19406126737594603,-0.013878230161592363,0.018335520097706465
1690839136448803600,2.382803466796875,0.18329437416791916,-0.010027107691392301,0.01168652880359441
1690839136458874600,2.39287451171875,0.1726788721293211,-0.012880341698043047,0.010747110795322805
1690839136468914400,2.40291455078125,0.18330314199626443,-0.01516257088370621,0.00943288639159873
1690839136478954500,2.41295458984375,0.18419921405315398,-0.01223828093484044,0.0020840305992867797
1690839136488995600,2.42299560546875,0.18793080179691313,-0.011087503464519977,-0.0037370676364749666
1690839136499035600,2.43303564453125,0.19315993462204933,-0.0104760205026716,-0.011632478795107454
1690839136509075700,2.44307568359375,0.19315058227181434,-0.01301686409190297,-0.01462887499895878
1690839136519116500,2.453116455078125,0.19254034141898155,-0.018269377792626617,-0.014269677164591849
1690839136529156600,2.463156494140625,0.1814490385621786,-0.010324775463715194,-0.007789644662640057
1690839136539196700,2.47319677734375,0.18382687360942362,-0.01475095787551254,0.0007069152934942395
1690839136549236500,2.483236572265625,0.18366379200220107,-0.011196735992655157,0.004544785556476563
1690839136559277600,2.493277587890625,0.17541560361683367,-0.009841631589271128,0.009011468942021018
1690839136569317600,2.503317626953125,0.178995800191164,-0.015402517119422554,0.025671447909786364
1690839136579357700,2.513357666015625,0.18407763350009917,-0.013864274701476097,0.025594190555647947
1690839136589398500,2.5233984375,0.17853110528886318,-0.009876593304798006,0.00838905816078186
1690839136599438600,2.5334384765625,0.18212182325720785,-0.008289835570007563,0.004585807120031677
1690839136609478700,2.543478759765625,0.1800163754105568,-0.003269267461635172,0.00007306523621082306
1690839136619549400,2.553549560546875,0.19032734154462813,-0.00012362637966871262,-0.010653505094582214
1690839136629589500,2.563589599609375,0.16097557485401628,0.002258556049130857,-0.04405921421796083
1690839136639630600,2.573630615234375,0.19612579869031904,-0.013570954310707747,-0.03767574655881617
1690839136649670700,2.583670654296875,0.18191022633314133,-0.02144782516565174,-0.03857419780245982
1690839136659710700,2.593710693359375,0.20303250933885572,-0.02675652603302151,-0.027745984594943
1690839136669750800,2.603750732421875,0.19782851095497608,-0.0310831205278635,0.023217739181313663
1690839136679791600,2.61379150390625,0.19171558103263378,-0.017756021443009376,0.058084689096827055
1690839136689831700,2.623831787109375,0.18171148889064787,-0.007100077796168625,0.08076227525314315
1690839136699871500,2.63387158203125,0.16914251469671726,0.004979067054204643,0.08314738029139115
1690839136709911600,2.64391162109375,0.1463748025715351,0.0040139848817139865,0.0620898741841549
1690839136719952600,2.65395263671875,0.16116379090249539,0.0012682663701474666,0.023684160249819976
1690839136729992700,2.66399267578125,0.16592822882533073,-0.003269413592107594,-0.05596967883738689
1690839136740032800,2.67403271484375,0.19836685561537742,-0.012733809366822241,-0.11556446196991019
1690839136750073600,2.684073486328125,0.2116694047808647,-0.025848763538338242,-0.13746834207368083
1690839136760113700,2.69411376953125,0.2245265482664108,-0.03251340905930847,-0.12564782076003028
1690839136770153500,2.704153564453125,0.20341478665471074,-0.02594528271537274,-0.06119137727473862
1690839136780224500,2.714224609375,0.21479250523746013,-0.029742373443394896,0.017122765040770174
1690839136790264600,2.7242646484375,0.1585445483148098,-0.018209829625114797,0.09883129903492517
1690839136800305700,2.7343056640625,0.16501286754608152,-0.006937982569634914,0.1628071376627311
1690839136810345700,2.744345703125,0.1357259827852249,-0.013301928110979497,0.18240723433615638
1690839136820385800,2.7543857421875,0.15326865373849868,-0.008505706810392439,0.14373427973380312
1690839136830425900,2.76442578125,0.14895312862694263,0.004770502337440848,0.06166459341021254
1690839136840466700,2.774466796875,0.17109890946149825,0.006621463966369629,-0.04888060192584526
1690839136850506500,2.784506591796875,0.2009983731627464,-0.009357428268902004,-0.1600468061039224
1690839136860546600,2.794546630859375,0.21920506098270415,-0.02594144679047167,-0.22661402206495404
1690839136870587600,2.804587646484375,0.22436989639997482,-0.03130227970387786,-0.22066716942451892
1690839136880627700,2.814627685546875,0.2193587902396917,-0.036750096780993044,-0.14142338157608172
1690839136890667800,2.824667724609375,0.1995440827012062,-0.029118104065209625,-0.023779843743215314
1690839136900707800,2.834707763671875,0.18693126936554907,-0.014793664506077766,0.1074626323858276
1690839136910748700,2.844748779296875,0.147712188655138,-0.002317592759989202,0.20618995045647023
1690839136920788500,2.85478857421875,0.14623568636178969,0.0008375468026846647,0.23837197213694453
1690839136930828500,2.86482861328125,0.13461714476048944,0.02090695975460112,0.21836210735253989
1690839136940899600,2.874899658203125,0.14770575891435145,0.02930851207077503,0.13127598110642283
1690839136950939600,2.884939697265625,0.16408113965392113,0.009724288819916545,0.006825827432051301
1690839136960980700,2.894980712890625,0.20033494081795214,-0.006168934425897896,-0.13095413787406868
1690839136971020800,2.905020751953125,0.224140179297328,-0.014938625934720038,-0.2276834596610628
1690839136981060600,2.915060546875,0.2383428921729326,-0.024290355115197598,-0.24846619024779645
1690839136991100700,2.9251005859375,0.23935996026098727,-0.03773687932863831,-0.1995154959275387
1690839137001141500,2.9351416015625,0.20384850189685821,-0.033563173840567465,-0.08206140255243517
1690839137011181600,2.945181640625,0.18000117784142494,-0.02080050370544195,0.06768673064340837
1690839137021221600,2.9552216796875,0.15288579190075396,-0.015775076758861542,0.17258154923468827
1690839137031262700,2.9652626953125,0.14465104751884936,-0.0037331586463376877,0.2313758296392858
1690839137041302800,2.975302734375,0.1259749886214733,-0.008183598716557026,0.22946257989648727
1690839137051342800,2.9853427734375,0.13560206414461135,-0.002179645594023168,0.17162127110147848
1690839137061382700,2.995382568359375,0.1660258439809084,-0.007118599833548069,0.04866228756662458
1690839137071423500,3.005423583984375,0.1853571519166231,-0.009407003031671047,-0.08400078225033357
1690839137081463600,3.015463623046875,0.21348960594534871,-0.018782624544389545,-0.18952066480424254
1690839137091503600,3.025503662109375,0.232318225055933,-0.03835464590080082,-0.23825373431844635
1690839137101574700,3.03557470703125,0.22883681268095968,-0.03531809121649712,-0.2029544574002735
1690839137111614700,3.04561474609375,0.2108282777816057,-0.03728829531092197,-0.10423902156366965
1690839137121655800,3.05565576171875,0.1896837829440832,-0.030725868055410683,0.013132097102561965
1690839137131695600,3.065695556640625,0.1631722081154585,-0.01809318097550422,0.12523046299763954
1690839137141735700,3.075735595703125,0.14970949995219707,-0.011153189111873506,0.197112124580238
1690839137151775500,3.085775390625,0.1302975279957056,-0.0034300475139170884,0.21412004933599382
1690839137161816600,3.095816650390625,0.13170213409662246,-0.0013322349844500422,0.16568886711150407
1690839137171856600,3.105856689453125,0.1594464655905962,0.0009256634775549172,0.07051907712565735
1690839137181896700,3.115896728515625,0.18447510838508605,-0.010878317693248391,-0.05499960996252484
1690839137191937800,3.125937744140625,0.20872692158818243,-0.02086147664505988,-0.15663767351387067
1690839137201977900,3.135977783203125,0.22188567836880682,-0.02362728809658438,-0.19963621796406805
1690839137212017700,3.146017578125,0.22783260407447814,-0.03149984810259193,-0.19242064229575917
1690839137222057500,3.156057373046875,0.20786533632278442,-0.028338497994840145,-0.11170012382511049
1690839137232098600,3.1660986328125,0.18056699503064155,-0.020016148394718766,-0.006744030900113284
1690839137242115600,3.176115478515625,0.15896774216294288,-0.010773286416195332,0.09022361142109148
1690839137252155600,3.18615576171875,0.14008651608228684,-0.00718443161137402,0.15410831943303346
1690839137262226700,3.196226806640625,0.13799509676098823,0.0030664748985320327,0.17798981975270434
1690839137272266500,3.2062666015625,0.14625146845281123,0.0033475933948531743,0.14694555166419596
1690839137282307300,3.216307373046875,0.1567623410731554,-0.0007818345600739121,0.08176283973096869
1690839137292347400,3.226347412109375,0.18207856863737104,-0.006410926488228142,-0.017464226289046928
1690839137302387500,3.236387451171875,0.21082652421593664,-0.016115012770332397,-0.10561197215099818
1690839137312428500,3.246428466796875,0.22399229525923728,-0.026735446712374687,-0.1458747349617537
1690839137322468600,3.256468505859375,0.21559622283577917,-0.025515695659071205,-0.15151135260923765
1690839137332508700,3.2665087890625,0.21033435678482054,-0.023487477767094967,-0.1012606359405443
1690839137342548700,3.276548828125,0.1835328590989113,-0.023943149112723765,-0.016648224597889928
1690839137352589600,3.286589599609375,0.17006138310730456,-0.016400734376534817,0.07374371999427676
1690839137362629400,3.29662939453125,0.15796002642512322,-0.01785414805524051,0.1337666380115319
1690839137372669400,3.30666943359375,0.14738368735313415,-0.01573511007465422,0.1511327833541203
1690839137382710500,3.31671044921875,0.15627134268581866,-0.00890522752199322,0.11589666219949722
1690839137392750600,3.32675048828125,0.1684393348634243,-0.014298501400277018,0.056691152379196134
1690839137402790700,3.336790771484375,0.17326456306278704,-0.00781030842475593,-0.012956302144238725
1690839137412861700,3.34686181640625,0.18644903880655764,-0.017773703230172393,-0.0812879704945255
1690839137422901500,3.356901611328125,0.1996048729777336,-0.026191183767840263,-0.1233778848003596
1690839137432941300,3.36694140625,0.19882219816744326,-0.030105763395689426,-0.11666840462381951
1690839137442982400,3.376982421875,0.19472177711129188,-0.03223397106342017,-0.07587139793904497
1690839137453022500,3.3870224609375,0.18493395806849003,-0.0238562745468691,-0.019514884341694412
1690839137463062500,3.3970625,0.17695464975237846,-0.015225589649938046,0.05508796409941278
1690839137473103600,3.407103515625,0.1546264980882406,-0.013863982440531252,0.10498235074426047
1690839137483143700,3.417143798828125,0.15237141263782977,-0.00851995453145355,0.11456713062878697
1690839137493183500,3.42718359375,0.16149872194528578,-0.010965922911465167,0.09262416062364354
1690839137503223300,3.437223388671875,0.16180501141548156,-0.008395086042769253,0.04351429368630051
1690839137513264400,3.447264404296875,0.18351064726710317,-0.00932122444435954,-0.013375294741289689
1690839137523304400,3.457304443359375,0.19547581034898756,-0.006291647490113973,-0.07162115661604329
1690839137533344500,3.467344482421875,0.19650515339672564,-0.020506562260165808,-0.09800909593184479
1690839137543385600,3.477385498046875,0.19812895520627496,-0.0197935916852206,-0.08862353754700161
1690839137553425700,3.48742578125,0.19272271224856374,-0.023543774531595407,-0.048173727731546385
1690839137563465500,3.497465576171875,0.1796849514991045,-0.01950757781807333,-0.0033043753076344726
1690839137573536500,3.50753662109375,0.17534663003385065,-0.00937704628482461,0.04657699659201316
1690839137583576300,3.517576416015625,0.16443769800662994,-0.01026223162151873,0.07515704825776628
1690839137593617400,3.527617431640625,0.16132102729082107,-0.006513838873431086,0.08041964496108703
1690839137603657500,3.537657470703125,0.1618020888060331,-0.008027604437246918,0.07083885626508854
1690839137613697500,3.547697509765625,0.1757587179660797,-0.016334391142055392,0.03410710799153894
1690839137623737600,3.557737548828125,0.1828296792656183,-0.024168190040253102,-0.015712921075732446
1690839137633778700,3.56777880859375,0.19003391155600546,-0.0222671421919018,-0.05230686374721117
1690839137643818500,3.577818603515625,0.19497604413330555,-0.02412219547405839,-0.06361468629837036
1690839137653858300,3.5878583984375,0.1921153940051794,-0.02289605121258646,-0.07235545310680754
1690839137663898400,3.5978984375,0.18790449831187725,-0.028088176495581863,-0.038146656572772185
1690839137673939500,3.607939453125,0.18354221144914626,-0.025532500663399696,-0.005331771215703338
1690839137683979500,3.6179794921875,0.17678864553570747,-0.023758586326055226,0.03764248361003119
1690839137694019600,3.62801953125,0.1709440111607313,-0.021174268921278414,0.06851172849177382
1690839137704060700,3.638060791015625,0.1672059936761856,-0.021081110745109616,0.06611390096927061
1690839137714100500,3.6481005859375,0.16615853044986723,-0.011705452699773014,0.050680851714266464
1690839137724140300,3.658140380859375,0.16706044772565365,-0.020395320438034832,0.012194108432973734
1690839137734211300,3.66821142578125,0.18067162444889545,-0.023361403702013193,-0.021781345136067828
1690839137744251400,3.67825146484375,0.18529285450875757,-0.01562788684051484,-0.04889679044224322
1690839137754292500,3.68829248046875,0.1964993081778288,-0.028271131847053765,-0.05948076939799357
1690839137764332500,3.69833251953125,0.2029080061763525,-0.02136635742727667,-0.049221273156255484
1690839137774372600,3.70837255859375,0.18343173681199548,-0.01916117553319782,-0.018163360134884714
1690839137784412400,3.718412353515625,0.17503274177908895,-0.015408435403555631,0.0077028842612169674
1690839137794453500,3.72845361328125,0.1784597936183214,-0.00223886496797204,0.03998634788901545
1690839137804493300,3.738493408203125,0.17082769130468367,-0.009434658223576843,0.05329208452543244
1690839137814533400,3.748533447265625,0.1730833612769842,-0.02089979936145246,0.05157364496868103
1690839137824574500,3.758574462890625,0.1777449233472347,-0.01123151504509151,0.029833367061940952
1690839137834614500,3.768614501953125,0.18000819210410118,-0.006132876731827855,0.0025804403806803746
1690839137844654600,3.778654541015625,0.1861597004711628,-0.009237783944606781,-0.022514006792171855
1690839137854694700,3.788694580078125,0.19288988550901412,-0.014849267150834202,-0.032499937656382094
1690839137864735500,3.798735595703125,0.18765023128986358,-0.019608517441898583,-0.04214969536878634
1690839137874775300,3.808775390625,0.18838789791464805,-0.020702157897502182,-0.029566254258085973
1690839137884815400,3.8188154296875,0.18434885165691375,-0.017998561494611202,-0.012254099558480083
1690839137894886400,3.828886474609375,0.18150807527303695,-0.01814578794557601,0.020568274985300377
1690839137904926500,3.838926513671875,0.17284078469276426,-0.012217128548957406,0.03544263091161847
1690839137914967600,3.848967529296875,0.16747487374544143,-0.020295549857988954,0.0428963170515839
1690839137925007600,3.859007568359375,0.16464344971179962,-0.01870988810174167,0.03251801216918975
1690839137935047400,3.86904736328125,0.17108955711126325,-0.01325238988082856,0.014503020129585638
1690839137945087500,3.87908740234375,0.18246143047511576,-0.018759316734038294,-0.0006467278051655739
1690839137955128300,3.88912841796875,0.18440204314887523,-0.017413053224235774,-0.012298979879822581
1690839137965168400,3.89916845703125,0.18528525572419166,-0.023778752331249414,-0.03455673318887129
1690839137975208400,3.90920849609375,0.18406652758419512,-0.03051010641288012,-0.028919234191975556
1690839137985249500,3.91924951171875,0.1841939533561468,-0.022850166244246066,-0.02097743117492646
1690839137995289600,3.92928955078125,0.17414251494109628,-0.01839198125898838,0.00014774704077281058
1690839138005329700,3.93932958984375,0.17577450005710124,-0.022915157771855592,0.021353415747312827
1690839138015369500,3.949369384765625,0.16888649410903453,-0.023746749757789076,0.029921328473184256
1690839138025410300,3.959410400390625,0.16993045020401476,-0.020114859528839586,0.032035279286699365
1690839138035450400,3.969450439453125,0.1670885047763586,-0.01359082805495709,0.016275363564351573
1690839138045490400,3.979490478515625,0.18145020760595798,-0.01910981067214161,0.01489542611381039
1690839138055561500,3.9895615234375,0.1856406450331211,-0.016024813736230135,-0.0003323920258320868
1690839138065601500,3.9996015625,0.18204349732398986,-0.014962481734342873,-0.01828650245736353
1690839138075642600,4.009642578125,0.18667466425597667,-0.013869097007066011,-0.018984494658885524
1690839138085682400,4.019682373046875,0.1857674862831831,-0.02083488089907914,-0.014242907888675108
1690839138095722500,4.029722412109375,0.17558686853051184,-0.021455570080690083,-0.003069685202348046
1690839138105763300,4.039763427734375,0.17498539550602435,-0.010956132169812918,0.011270038690883666
1690839138115803400,4.049803466796875,0.1781295387506485,-0.01448646172042936,0.01894019885943271
1690839138125843500,4.059843505859375,0.18203180688619613,-0.020003654239326714,0.016700854400848036
1690839138135883500,4.069883544921875,0.16962532977759837,-0.01757876517996192,0.022114307984057814
1690839138145924600,4.079924560546875,0.16395196031630038,-0.01354585640206933,0.013364344089012593
1690839138155964700,4.089964599609375,0.1850561231434345,-0.016513510568626225,0.0010012448978377506
1690839138166004500,4.10000439453125,0.19268997902274132,-0.012158164903335272,-0.012501763309771194
1690839138176044500,4.11004443359375,0.1802723959982395,-0.012119367262907325,-0.01970378537676297
1690839138186085400,4.12008544921875,0.1784779137969017,-0.023292758912593126,-0.013649937831051647
1690839138196125400,4.13012548828125,0.1813151830494404,-0.023039405206032097,-0.003371339596621692
1690839138206165500,4.14016552734375,0.18490005579888819,-0.019203662968054414,-0.0032985483550466597
1690839138216236500,4.150236572265625,0.1850473553150892,-0.018312047890573738,0.019173304362408817
1690839138226276400,4.1602763671875,0.1768091038018465,-0.016490750747546554,0.020717355466634033
1690839138236317400,4.1703173828125,0.16947919930517671,-0.03160436792299151,0.015031953074247576
1690839138246364700,4.18036474609375,0.1801069763034582,-0.020652071678079663,0.012386521165957674
1690839138256404700,4.19040478515625,0.1693365759640932,-0.021978863302432,0.002538651632145047
1690839138266445600,4.200445556640625,0.17755436921119688,-0.022208580405078827,0.005645759935164823
1690839138276485400,4.2104853515625,0.17590075678527353,-0.010401713157445192,-0.004378900070814416
1690839138286525400,4.220525390625,0.18098083652853963,-0.025024185815081,-0.013203207843704148
1690839138296565500,4.2305654296875,0.177832017108798,-0.023901100069284437,-0.0073841189019382
1690839138306606600,4.240606689453125,0.18036708854436873,-0.01669577180035412,-0.0035351061904337253
1690839138316646700,4.250646728515625,0.18426117337346076,-0.02395498568098992,-0.001337692044279538
1690839138326686700,4.260686767578125,0.17648001797795296,-0.019756438012607395,0.005202043888811022
1690839138336727600,4.2707275390625,0.17977321430444718,-0.01796261339839548,0.010308312952681444
1690839138346767400,4.280767333984375,0.17319500495791434,-0.013087079783901572,0.012414322488335891
1690839138356807400,4.290807373046875,0.17738485786318778,-0.020144487482123077,0.012135026056342757
1690839138366847500,4.300847412109375,0.176041626560688,-0.018769144008308647,0.005067553621833212
1690839138376918500,4.31091845703125,0.17305355066061018,-0.020958909137547013,0.001779540360532701
1690839138386958600,4.32095849609375,0.18353344362080096,-0.0183387897670269,-0.0020358988749329
1690839138396999700,4.330999755859375,0.17800386654436587,-0.01746872893422842,-0.0064221237356774504
1690839138407039700,4.341039794921875,0.18458792110979555,-0.015062106183916329,-0.005911781327053904
1690839138417079600,4.35107958984375,0.1854845776885748,-0.023601021144166588,0.0035105471379123627
1690839138427120400,4.361120361328125,0.17515958302915094,-0.011624679081141948,0.0031523676502751186
1690839138437160400,4.371160400390625,0.1766606352418661,-0.014809519662335515,0.013855461207358167
1690839138447200500,4.381200439453125,0.17456980044245718,-0.0241742544548586,0.017490246646292507
1690839138457240600,4.391240478515625,0.17276771945655345,-0.01875011051427573,0.010241179700335487
1690839138467281700,4.40128173828125,0.17575345726907252,-0.01619768608510494,0.0018938143899664282
1690839138477321700,4.41132177734375,0.17754443233907222,-0.030057284611463547,0.002759418243356049
1690839138487361500,4.421361572265625,0.17993395782411098,-0.017729498762264848,-0.002167535031121224
1690839138497402400,4.43140234375,0.17200550291240213,-0.014860884523391724,0.0021320618589408696
1690839138507442400,4.4414423828125,0.1788788958132267,-0.024002806878089904,0.004405523216258735
1690839138517482500,4.451482421875,0.18620821578800678,-0.014162271267361939,0.001405218022270128
1690839138527522600,4.4615224609375,0.18591361675560472,-0.017824410504102706,-0.0011700210269074886
1690839138537593600,4.471593505859375,0.1799281126052141,-0.024077698745205996,-0.000669040101673454
1690839138547634700,4.481634765625,0.18187457049787042,-0.018658815501630305,0.01264556482778862
1690839138557674800,4.4916748046875,0.17947393909692763,-0.017115750778093932,0.013954784262832254
1690839138567714600,4.501714599609375,0.184258835285902,-0.021661066057533023,0.010331186938192695
1690839138577754600,4.511754638671875,0.17917174127995966,-0.022842457861825823,0.01166887441589497
1690839138587795500,4.52179541015625,0.1791699877142906,-0.020495127550698815,0.01220356124790851
1690839138597835500,4.53183544921875,0.18141513629257677,-0.02363769989274442,0.0011467771486379206
1690839138607875600,4.54187548828125,0.1734843432933092,-0.0179708697700873,0.0012710017499281093
1690839138617916700,4.551916748046875,0.18635142365097998,-0.015167721982859074,-0.0006825663035269826
1690839138627956700,4.561956787109375,0.19009587087631225,-0.02318688738532364,0.0011958267550216987
1690839138637996500,4.57199658203125,0.18007073594629763,-0.0233148611465469,-0.003080275095021352
1690839138648036400,4.582036376953125,0.18052315588891504,-0.016800145490281283,-0.0005600998344831168
1690839138658077400,4.592077392578125,0.18052140232324598,-0.02669131530970335,0.006129218903440051
1690839138668117500,4.602117431640625,0.17318974426090716,-0.0191819625928998,0.0059788826133590186
1690839138678157600,4.612157470703125,0.1767828003168106,-0.013181224340759218,0.006556773832859471
1690839138688197600,4.62219775390625,0.17453531365096567,-0.019834873543679712,0.008835290391207671
1690839138698268700,4.6322685546875,0.17708032195866108,-0.013536284856125711,0.014419273669156246
1690839138708309800,4.642309814453125,0.17797873210310935,-0.022209895579330622,0.010160442614322527
1690839138718349600,4.652349609375,0.1800724895119667,-0.022093210397101937,0.0005874992980621754
1690839138728389400,4.662389404296875,0.18545593611598013,-0.014675116160325704,-0.001174843332497403
1690839138738429400,4.672429443359375,0.18262334303855896,-0.019577866575308144,0.0027240775019163263
1690839138748470500,4.682470458984375,0.16975801624655723,-0.024289660995453596,-0.001561513695679605
1690839138758510600,4.692510498046875,0.16990239315330982,-0.016885266490466892,-0.003912268939753994
1690839138768550700,4.702550537109375,0.16944237442612647,-0.01824387802518904,-0.00106122232361231
1690839138778591700,4.712591796875,0.17496785984933375,-0.016613244616054,0.005269181707734241
1690839138788631600,4.722631591796875,0.17899463114738462,-0.02536810388192534,0.006990758503065444
1690839138798671400,4.73267138671875,0.17749416345655916,-0.0243869108248502,0.009885973054496571
1690839138808711400,4.74271142578125,0.1771878739863634,-0.021071502666547892,-0.002025971135962754
1690839138818752500,4.75275244140625,0.18107260646522044,-0.02597863699570298,0.0075982000440359115
1690839138828792600,4.76279248046875,0.18481003942787647,-0.023802571598254142,0.006065802844986319
1690839138838832600,4.77283251953125,0.1780804389119148,-0.027334435518831014,0.007578458730527199
1690839138848873700,4.782873779296875,0.18362521355748176,-0.019252470545843243,0.006305977409565821
1690839138858943500,4.792943603515625,0.1902192049950361,-0.011445596187189221,0.004547370239207521
1690839138868984600,4.802984619140625,0.18408698585033414,-0.011072561623714864,-0.0008750475351698696
1690839138879024400,4.8130244140625,0.18573475305736065,-0.013125694761238992,-0.0007720849176170304
1690839138889064400,4.823064453125,0.17511165223419664,-0.01668934205956757,0.0002732731165830046
1690839138899104500,4.8331044921875,0.18005436933338642,-0.016900500592216847,-0.0013391305161174385
1690839138909145600,4.8431455078125,0.17871406064033507,-0.01035944491829723,-0.0007355568660888821
1690839138919185700,4.853185546875,0.1854442456781864,-0.018800598592497407,0.00377074157721363
1690839138929225500,4.8632255859375,0.17452011608183382,-0.01911890729404986,-0.002452758880401961
1690839138939266600,4.8732666015625,0.17542086431384085,-0.020104447732679543,0.010040953553654253
1690839138949306400,4.883306396484375,0.17781448145210743,-0.019663499032147227,0.010018111534183844
1690839138959346400,4.893346435546875,0.1818546967536211,-0.018772066617757082,0.003934151977999136
1690839138969386500,4.903386474609375,0.17976853812932966,-0.01848375119566917,0.0023366993192583323
1690839138979427600,4.913427490234375,0.1745335600852966,-0.011265965303964912,0.007761610444821417
1690839138989467600,4.923467529296875,0.17302783169746397,-0.018455365351401267,0.004227417569840327
1690839138999507500,4.933507568359375,0.1731710395604372,-0.01631480965875089,0.0026969931321684268
1690839139009548500,4.943548583984375,0.18274609263539313,-0.017543693866580723,-0.0005798548477236181
1690839139019618600,4.95361865234375,0.1800549538552761,-0.019309790223650633,0.002492145609296858
1690839139029659400,4.963659423828125,0.1775152062445879,-0.019528985932283104,0.0008935604393947869
1690839139039699500,4.973699462890625,0.17602292186021803,-0.023939349720440803,-0.00488143363231793
1690839139049739500,4.983739501953125,0.1787175677716732,-0.018239859437197446,0.0022842704456998036
1690839139059780600,4.993780517578125,0.18592647623717784,-0.018225611716136337,0.0016538772874046116
1690839139069820700,5.003820556640625,0.18534195434749126,0.04724613715838641,0.3490024209039286
1690839139079860500,5.013860595703125,0.2146498818963766,-0.28656455983258783,-0.430637807463482
1690839139089900500,5.023900634765625,0.22254209645092485,-0.1317530970988795,-0.12200929986089468
1690839139099941400,5.03394140625,0.20060908158421514,-0.1508823431238532,-0.019854139933153055
1690839139109981400,5.0439814453125,0.10861351945400237,-0.01611760658621788,0.007982029996160418
1690839139120021500,5.054021484375,0.15682897656857966,-0.09176789085417986,0.09096737899309955
1690839139130062600,5.0640625,0.135160750117898,-0.02750000134408474,0.08308010547515005
1690839139140102700,5.0741025390625,0.16530395944714546,-0.01883760613463819,0.10560071097146718
1690839139150142500,5.084142578125,0.17513854024112224,0.010009645099937915,0.07048715675058774
1690839139160182500,5.0941826171875,0.1885293522119522,0.021180881325155495,0.027409295419906263
1690839139170223400,5.104223388671875,0.21450725855529307,0.035673590123280884,-0.01206853669139091
1690839139180293600,5.114293701171875,0.2162970645815134,0.03560878125876188,-0.0502770749526564
1690839139190334500,5.12433447265625,0.21393384258151052,0.034746173080056904,-0.07300117169839795
1690839139200374500,5.13437451171875,0.21000001026391982,0.034560295119136566,-0.08290036499407141
1690839139210414600,5.14441455078125,0.22558745549619197,0.01856594958640635,-0.06788765547641087
1690839139220455700,5.15445556640625,0.18543430880606174,0.036940833580121395,-0.045909627857618034
1690839139230495500,5.16449560546875,0.2116524536460638,0.044240416003763675,-0.019074237035261465
1690839139240535600,5.17453564453125,0.21580723523795603,0.043558790415152905,0.006546197639917955
1690839139250574800,5.184574951171875,0.16646657348573207,0.045656566412001845,0.03484093869142234
1690839139260616000,5.194615966796875,0.2032476133942604,0.04810037936754524,0.05195097211478278
1690839139270655700,5.20465576171875,0.17560089705586432,0.04219517391175032,0.04776458067507483
1690839139280695600,5.214695556640625,0.19768004239499568,0.03580291559137404,0.029941366614215075
1690839139290736600,5.224736572265625,0.18478081333339214,0.021324016122892496,0.011293816858693025
1690839139300776700,5.234776611328125,0.18101356975436209,0.013032353921979664,-0.009343399743549525
1690839139310816800,5.244816650390625,0.20432254914939402,-0.006328837695345283,-0.036467631144379266
1690839139320856800,5.25485693359375,0.17839315812289713,-0.01623297659419477,-0.0445781600581482
1690839139330898000,5.26489794921875,0.19044366140067576,-0.0258363059155643,-0.05151902413803618
1690839139340967700,5.2749677734375,0.17986206163167953,-0.030525048253685235,-0.0320466226646211
1690839139351008800,5.2850087890625,0.16115268498659133,-0.037427155792340634,-0.0017470034975325688
1690839139361048600,5.295048583984375,0.13731412875950336,-0.047115715711750085,0.0166646597094601
1690839139371088600,5.305088623046875,0.17253157261312008,-0.055281449978053565,0.04018866096150595
1690839139381129700,5.315129638671875,0.14693711262941359,-0.06089665951132774,0.04759786407235078
1690839139391169800,5.325169677734375,0.14656360314190386,-0.06456939320731908,0.042985301376134155
1690839139401209900,5.3352099609375,0.14612170459330082,-0.06775332047306001,0.02697165748788975
1690839139411249700,5.345249755859375,0.14965864654779434,-0.07256674863677472,0.0015302143751177936
1690839139421290800,5.355290771484375,0.15582476796209813,-0.0711874596402049,-0.019962162318313492
1690839139431330600,5.36533056640625,0.1556499959170818,-0.07122552662827074,-0.04311300114272162
1690839139441370600,5.37537060546875,0.17846739240288734,-0.06289101166632026,-0.03948475504242815
1690839139451411700,5.38541162109375,0.1726701043009758,-0.05382062017787247,-0.026852730116224847
1690839139461451800,5.39545166015625,0.15487316632568834,-0.04725063067041337,-0.015394982266938313
1690839139471491800,5.405491943359375,0.17642273483276366,-0.045604324768111104,-0.002591911622765474
1690839139481532000,5.415531982421875,0.16922902393639086,-0.021841975582391024,0.009354953184025362
1690839139491572700,5.42557275390625,0.17910802839398382,-0.009418985730409621,0.016156116532278247
1690839139501643800,5.435643798828125,0.17523673991858957,-0.005589271374419331,0.02859776998553425
1690839139511683600,5.44568359375,0.17916764962673187,0.0019913930129259825,0.02299950245390646
1690839139521723600,5.4557236328125,0.18073066115975378,0.0006987228538841008,0.008944472686992957
1690839139531763700,5.465763671875,0.1886035864919424,0.006267243701219559,-0.0006559888238552958
1690839139541804800,5.4758046875,0.19547814843654632,0.015294380569830537,-0.016193375236168504
1690839139551844900,5.485844970703125,0.20298457854390142,0.019342486916854976,-0.028878925014473495
1690839139561884700,5.495884765625,0.1931739631474018,0.01807239391580224,-0.030805774024361743
1690839139571925800,5.50592578125,0.19491466933488844,0.01745024342946708,-0.02174050623560324
1690839139581965600,5.515965576171875,0.20208558387756345,0.020935893588140606,-0.020484405227284876
1690839139592005600,5.526005615234375,0.18894494727551936,0.021582009471952913,-0.006763694581808522
1690839139602045700,5.536045654296875,0.19216566288769243,0.018184549053385853,-0.002922687080246396
1690839139612086800,5.546086669921875,0.18823416865766046,0.016724413372948766,0.003121200760453939
1690839139622126800,5.556126953125,0.17507190474569798,0.014465090138837695,0.0184517029564362
1690839139632167000,5.5661669921875,0.1870744772285223,0.010172215250506997,0.014943667436018585
1690839139642206700,5.576206787109375,0.19102467615902421,0.0086944708481431,-0.00002658661282621324
1690839139652247600,5.58624755859375,0.1884112787902355,-0.000691270199790597,-0.0052994626815663646
1690839139662318600,5.596318603515625,0.18220190275609494,-0.006058934712782502,-0.0019883516724687068
1690839139672358700,5.606358642578125,0.18915712872147558,-0.00486300292648375,-0.012901434718421659
1690839139682398700,5.616398681640625,0.18233692731261253,-0.01783544335477054,-0.018197796694026328
1690839139692438800,5.626438720703125,0.1741600505977869,-0.023741817854344843,-0.013013375226873904
1690839139702480000,5.63647998046875,0.1759860969811678,-0.033421573412790895,-0.01545579080977477
1690839139712519700,5.646519775390625,0.17284195373654365,-0.0338712168764323,-0.007264721172815188
1690839139722559700,5.656559814453125,0.16263035632371903,-0.032171792547404765,-0.008000515500921755
1690839139732600600,5.6666005859375,0.16795418169498444,-0.03449475560225546,0.003038920171326026
1690839139742640600,5.676640625,0.1665033983647823,-0.03899550108760595,0.00916029369502794
1690839139752680700,5.6866806640625,0.1542483124256134,-0.04354841515161097,0.019147831994434816
1690839139762720800,5.696720703125,0.15722703597545623,-0.04500577435307204,0.014904783030622638
1690839139772761900,5.706761962890625,0.16002514226138592,-0.04875599373206496,0.0016519182257587089
1690839139782801700,5.7168017578125,0.15680793378055094,-0.044292146191000935,0.007175398921547457
1690839139792841700,5.726841796875,0.17090718628168106,-0.04317636696882546,0.0019458733707666397
1690839139802882600,5.736882568359375,0.17198270655870437,-0.036437048776447774,-0.00494509171936661
1690839139812952800,5.746952880859375,0.16479951705634593,-0.032530177531018854,-0.009667224870435894
1690839139822993700,5.75699365234375,0.1799023936420679,-0.03384564404375851,-0.008302895980980246
1690839139833033700,5.76703369140625,0.1816840163618326,-0.023674524771794676,-0.011247826859075575
1690839139843073800,5.77707373046875,0.1749362956672907,-0.020836232605949044,-0.009354446293949149
1690839139853113600,5.787113525390625,0.18151275144815443,-0.012185308638587593,-0.003015393165266141
1690839139863154700,5.79715478515625,0.1539782633125782,-0.001051701010018587,0.0010574640305247157
1690839139873194800,5.80719482421875,0.20650983006060122,-0.003847688404098153,0.010087866001878864
1690839139883234800,5.81723486328125,0.16598434292674064,-0.0017154986809939145,0.010968530427082441
1690839139893275600,5.827275634765625,0.18069617436826227,-0.0025579408545047043,0.007224416561890393
1690839139903315700,5.837315673828125,0.18137538880407808,0.0015849311038851736,0.004460632670670747
1690839139913355800,5.847355712890625,0.1983855603158474,-0.001436974000558257,0.004218942002439871
1690839139923395600,5.8573955078125,0.1857984659433365,0.006775266288593411,-0.013588060709135607
1690839139933436700,5.867436767578125,0.19492811333835125,0.008132745312154292,-0.01931637066148687
1690839139943476700,5.877476806640625,0.19345394913256167,0.006386997623369097,-0.01444962770822458
1690839139953516800,5.887516845703125,0.19094810379147528,0.005056406606733799,-0.011444600673345849
1690839139963557600,5.8975576171875,0.1881587653338909,-0.00022321429662406443,-0.012687750868545844
1690839139973628000,5.9076279296875,0.17804945925176144,0.00231697170548141,-0.004811418869718909
1690839139983668700,5.917668701171875,0.1854670420318842,-0.00427175903506577,0.002543154277326539
1690839139993708800,5.927708740234375,0.16492109760940074,-0.007135550968348979,0.006464857765706255
1690839140003748600,5.93774853515625,0.17446809363365173,-0.007833762365579604,0.008278857518266887
1690839140013789700,5.947789794921875,0.1844762774288654,-0.012842457373067736,0.010645842377934605
1690839140023829800,5.957829833984375,0.17038345466852187,-0.011870324405282734,0.00044911374067887664
1690839140033869800,5.967869873046875,0.18322189345359802,-0.0157316029433161,-0.00945127143166028
1690839140043910000,5.977909912109375,0.17376082214713096,-0.014991525165736675,-0.008437582610780373
1690839140053950700,5.98795068359375,0.18491934502124785,-0.017559475957602263,-0.0055575656284810974
1690839140063990800,5.99799072265625,0.17271511248648166,-0.023232260897010564,-0.014005788364284672
1690839140074030600,6.008030517578125,0.17201777787208555,-0.024186200620979068,-0.01027948415041901
1690839140084071700,6.01807177734375,0.17010639129281044,-0.0260104934386909,-0.007576522501767612
1690839140094111700,6.02811181640625,0.17102058352828026,-0.01943615654967725,-0.002026742887520231
1690839140104151800,6.03815185546875,0.17446575554609298,-0.027734175426140425,0.008123758288100361
1690839140114192000,6.04819189453125,0.16982172913253307,-0.03888561097234487,0.012427757358644157
1690839140124232700,6.058232666015625,0.17159984472095965,-0.031705051818490024,0.010664734308072365
1690839140134303000,6.068302978515625,0.16558686804175377,-0.019450915727391837,0.00574250744106248
1690839140144343800,6.07834375,0.17482056033313273,-0.020030396115779874,-0.009723165441909805
1690839140154383600,6.088383544921875,0.18523732492923736,-0.024118249951303003,-0.007037401523231528
1690839140164423700,6.098423583984375,0.17334171995222566,-0.02141914706043899,-0.010465978599269874
1690839140174464800,6.10846484375,0.16965630943775176,-0.016315978702530265,-0.013058945101383142
1690839140184504800,6.1185048828125,0.17794015365839003,-0.019900413060560822,-0.017979847660986707
1690839140194545000,6.128544921875,0.18278525560200212,-0.01952405402883887,-0.013875394317111931
1690839140204585000,6.1385849609375,0.17850480180382727,-0.01849047319740057,0.002789023363753222
1690839140214625800,6.148625732421875,0.1778326016306877,-0.014348039630427956,0.0024123309718910605
1690839140224665600,6.15866552734375,0.1880985595792532,-0.01973177849538624,0.015738379743974656
1690839140234705700,6.16870556640625,0.17862287522554396,-0.01389832310155034,0.013640407384303398
1690839140244721000,6.178720947265625,0.17784253850281237,-0.008301891333982347,0.0047636296386597676
1690839140254761000,6.188760986328125,0.18455226527452467,-0.0010841419748961925,0.01253781187068671
1690839140264800800,6.19880078125,0.18168576992750166,0.003447144779190421,0.008759179247962311
1690839140274840800,6.2088408203125,0.18361586120724677,-0.008049889334291219,-0.006091284346114844
1690839140284882000,6.2188818359375,0.18046587274372577,0.0031694968815892933,-0.017730074151000006
1690839140294952000,6.228951904296875,0.18375439289510248,-0.0010899871937930584,-0.022240135453967375
1690839140304993000,6.238992919921875,0.181959326171875,-0.005542728818953037,-0.012599104470713064
1690839140315032800,6.24903271484375,0.17928747661411762,-0.011907003153860568,-0.0014251922312192619
1690839140325072600,6.25907275390625,0.18485387856960295,-0.01915894704349339,-0.0064402165147941556
1690839140335113700,6.26911376953125,0.18894786988496778,-0.014215499291941523,0.0002604045018553734
1690839140345153800,6.27915380859375,0.18318156144320963,-0.010858370883762836,0.016315275449631735
1690839140355193900,6.28919384765625,0.18417349509000777,-0.01942541595995426,0.013885856345621868
1690839140365234000,6.29923388671875,0.18292028015851974,-0.01708776679262519,0.016380559238186106
1690839140375275000,6.30927490234375,0.16983984931111334,-0.015621712828055023,0.0013008214994566513
1690839140385314800,6.319314697265625,0.1762023700803518,-0.01266439739242196,0.000294041909975931
1690839140395355000,6.32935498046875,0.17146832729578018,-0.01186637888252735,-0.0024259393721353262
1690839140405396000,6.33939599609375,0.17718670494258404,-0.011097951793298125,-0.021435093548242003
1690839140415435800,6.349435791015625,0.17330372602939606,-0.015922084014117717,-0.03203309646276757
1690839140425475800,6.359475830078125,0.17793313939571379,-0.02442782735712826,-0.01801681867050938
1690839140435516000,6.369515869140625,0.18166881879270075,-0.02911941923946142,-0.01943527976684272
1690839140445557000,6.379556884765625,0.18106091602742672,-0.02668525089509785,-0.015567023498751222
1690839140455628000,6.3896279296875,0.18345628673136233,-0.02783295962549746,-0.0074738064793869845
1690839140465667800,6.399667724609375,0.18002163610756397,-0.03008607231453061,0.004792604571394622
1690839140475707600,6.409707763671875,0.17748656467199325,-0.029629999110102653,0.009383740887092425
1690839140485747700,6.419747802734375,0.17509762370884419,-0.027603023327142,0.008913789854361675
1690839140495788800,6.429788818359375,0.18077976099848747,-0.021999431166425346,0.010121914401953107
1690839140505828900,6.439828857421875,0.18914485376179216,-0.0196970725081861,0.00462462759334594
1690839140515869000,6.449868896484375,0.17429682871997357,-0.022048457939922807,0.011388701201067306
1690839140525910000,6.459909912109375,0.16826397829651832,-0.01679864765293896,0.014435443919245153
1690839140535949800,6.46994970703125,0.16926935594677925,-0.016107450518384574,0.006208910243259743
1690839140545990000,6.479989990234375,0.1985626704484224,-0.027762159411609172,-0.00902639251651708
1690839140556029700,6.49002978515625,0.1964426095545292,-0.03507065579406917,-0.007881154304416849
1690839140566070800,6.50007080078125,0.17997078270316122,-0.03139576667360961,-0.011887668265728278
1690839140576110800,6.51011083984375,0.1802507686883211,-0.021089476714655754,-0.004457513698399998
1690839140586151000,6.52015087890625,0.17796178096830845,-0.003037029608339071,0.0031735885348170992
1690839140596192000,6.53019189453125,0.17565116593837737,0.012159224349260329,0.0051664976513944565
1690839140606231800,6.540231689453125,0.16791911038160323,0.019207535425573585,0.008591567596094682
1690839140616302800,6.550302734375,0.1709481028139591,0.018235256327316166,0.02059730928353965
1690839140626342700,6.5603427734375,0.181920163205266,-0.007731544100120663,0.01554361522370018
1690839140636382700,6.5703828125,0.17078209859728813,-0.017031506560742853,0.0043803294094977895
1690839140646422800,6.5804228515625,0.18723229813873768,-0.03090023824162781,0.00467314747676719
1690839140656464000,6.5904638671875,0.1887649145334959,-0.03161941936165094,-0.005760956413205713
1690839140666504000,6.60050390625,0.18135960671305656,-0.03212875712327659,-0.019630747540015727
1690839140676544000,6.6105439453125,0.188484928548336,-0.02126373730301857,-0.017285714217252095
1690839140686584800,6.620584716796875,0.19126374561190604,-0.0072851885721087455,-0.012105767995817586
1690839140696624600,6.630624755859375,0.17291911062598228,0.004255465487390756,-0.000705819314951077
1690839140706664700,6.640664794921875,0.17550035929083824,0.013178119068220256,0.013787483138218521
1690839140716704800,6.650704833984375,0.17670155177414415,0.008693155673891305,0.016185730785829945
1690839140726745900,6.660745849609375,0.16083295151293278,0.010672712118551135,0.015283987039979546
1690839140736786000,6.670785888671875,0.1716021828085184,-0.0038341713353991507,0.019972674579173327
1690839140746826000,6.680825927734375,0.18343933559656142,-0.013594079457968472,0.012588875337643548
1690839140756866800,6.69086669921875,0.17674772900342942,-0.037918373375386,-0.0020807106976164502
1690839140766907000,6.700906982421875,0.1841372547328472,-0.043249139944091436,-0.02418590379345696
1690839140776977700,6.710977783203125,0.19168577041625975,-0.0347312677718699,-0.02790675551407039
1690839140787017700,6.721017822265625,0.1951923172324896,-0.026467151165008543,-0.031171022573602384
1690839140797057800,6.731057861328125,0.18789982213675974,-0.022258812754973767,-0.018112954255053774
1690839140807097900,6.741097900390625,0.16965338682830333,-0.010715528346970676,0.0026490532040596006
1690839140817139000,6.751138916015625,0.1833966654986143,-0.002418020927160978,0.020798750139772892
1690839140827179000,6.761178955078125,0.16809388242661952,-0.005387611322477459,0.029386134751094504
1690839140837218800,6.77121875,0.15592355216145515,-0.016684227493032812,0.03744552256609313
1690839140847259600,6.781259765625,0.16440671834647655,-0.015752645731344817,0.027987355602765454
1690839140857299700,6.7912998046875,0.17798633088767526,-0.01786817658059299,0.011352835303242317
1690839140867339800,6.80133984375,0.1881377225458622,-0.020810148316621778,-0.010988212375086731
1690839140877379800,6.8113798828125,0.19411562791168688,-0.033903803971782324,-0.028058977800561113
1690839140887421000,6.8214208984375,0.1996446204662323,-0.028633316222950813,-0.04271237531942315
1690839140897461000,6.8314609375,0.1907996352314949,-0.0240041220523417,-0.0367375021609012
1690839140907501000,6.8415009765625,0.18420096761882304,-0.008350698911771178,-0.02463905895501375
1690839140917542000,6.8515419921875,0.18970424121022222,-0.006899111863970756,-0.011223459602799265
1690839140927581700,6.861581787109375,0.16601590710878372,-0.00507248095870018,-0.001544379897788167
1690839140937652700,6.87165283203125,0.16567396180331706,0.0007426350608468055,0.03028507461850531
1690839140947692800,6.88169287109375,0.1758072332829237,-0.0010036971498280764,0.041650317312171684
1690839140957732900,6.89173291015625,0.17937690846323967,-0.005344648963585496,0.03705278778830543
1690839140967774000,6.90177392578125,0.1801245119601488,-0.00702734135352075,0.016586041515297256
1690839140977814000,6.91181396484375,0.18193477625250815,-0.0115804746132344,0.0023242325633298605
1690839140987853800,6.921853759765625,0.18046119656860826,-0.016414032249525187,-0.02014203523013275
1690839140997894000,6.931893798828125,0.1851268502920866,-0.016590338664501905,-0.023127065223176032
1690839141007934700,6.941934814453125,0.19083704463243484,-0.017040201323851943,-0.03656893152780831
1690839141017974800,6.951974853515625,0.18291969563663005,-0.009386471700295806,-0.026623478804458863
1690839141028014800,6.962014892578125,0.17723405121564864,-0.007273132808133959,-0.006323449134174734
1690839141038056000,6.972055908203125,0.17633154941797255,-0.008869535154104232,0.010096117806993425
1690839141048096000,6.982095947265625,0.17438801413476465,-0.0022113193739205597,0.025388178555574268
1690839141058136000,6.992135986328125,0.172744338580966,-0.0014650310512632132,0.03319596622968092
1690839141068176000,7.00217578125,0.17410276745259762,-0.004089388205483556,0.01744623397463001
1690839141078216700,7.012216796875,0.17098434317111968,-0.011647402369603514,0.014429863561829551
1690839141088256800,7.0222568359375,0.18956746308803557,-0.01972469116747379,-0.001714137840969488
1690839141098327800,7.032327880859375,0.19138883329629897,-0.024647315326705572,-0.018461091839289293
1690839141108368000,7.042367919921875,0.18542495645582674,-0.02640110019147396,-0.030832557000010273
1690839141118408000,7.052407958984375,0.17976152386665342,-0.02342113453261554,-0.03617058899314143
1690839141128449000,7.062448974609375,0.18172142576277256,-0.01994301009327173,-0.028674287554156033
1690839141138488800,7.07248876953125,0.18111644560694692,-0.021107377697527407,-0.010449858581530861
1690839141148529000,7.08252880859375,0.1703302631765604,-0.015650938922539354,0.009877881079586223
1690839141158569000,7.09256884765625,0.1776584141075611,-0.01194528933763504,0.023783844064897856
1690839141168609800,7.10260986328125,0.16642682599723338,-0.013589111021906136,0.02274624921204522
1690839141178649900,7.11264990234375,0.1750964546650648,-0.013404548235237597,0.024815493234153836
1690839141188690000,7.12268994140625,0.16805413493812082,-0.01906213560551405,0.02206750970026478
1690839141198731000,7.13273095703125,0.1695493419319391,-0.021290186918526886,0.0017317282965872436
1690839141208771000,7.14277099609375,0.17972411446571349,-0.026166926109418273,-0.019354159088339654
1690839141218811000,7.152810791015625,0.18944822062253952,-0.021596403323486446,-0.01880546199728269
1690839141228851000,7.162850830078125,0.1892915687561035,-0.017610475492477417,-0.0258655228768941
1690839141238891800,7.172891845703125,0.18402970270514488,-0.016556144133955238,-0.008673190598096698
1690839141248928500,7.182928466796875,0.18340601784884927,-0.013421353239566086,-0.005555259506963193
1690839141258999600,7.19299951171875,0.1787351034283638,-0.014744199341163038,0.003967213997384533
1690839141269039400,7.203039306640625,0.1824514936029911,-0.007005202586948871,0.014703164077876136
1690839141279079400,7.213079345703125,0.1831833150088787,-0.012497443327680229,0.014862062700325623
1690839141289120500,7.22312060546875,0.17299860560297964,-0.016890709850564598,0.013591878367727621
1690839141299160600,7.23316064453125,0.17748013493120668,-0.016949819626659153,0.0021252074264688416
1690839141309200600,7.24320068359375,0.17808219247758386,-0.019371786076575515,-0.002666511228936724
1690839141319240400,7.253240478515625,0.18108429690301417,-0.01718216707780957,0.002171078695077449
1690839141329281500,7.263281494140625,0.18408406324088572,-0.01888232205919921,-0.0129867749143159
1690839141339321600,7.273321533203125,0.18738076669871806,-0.023721651849150656,-0.01817269878538791
1690839141349361400,7.283361328125,0.1827437545478344,-0.023207637912407517,-0.015958580099605022
1690839141359402500,7.293402587890625,0.19232640640735624,-0.01735525862239301,-0.009358537947176955
1690839141369442600,7.303442626953125,0.17692308557033537,-0.016554025242105124,0.0012385562184732406
1690839141379482600,7.313482666015625,0.1769353605300188,-0.014826470797136426,0.003096659974241629
1690839141389522400,7.3235224609375,0.19444880538880824,-0.00980864263512194,0.000770080190198496
1690839141399563500,7.3335634765625,0.18218670518696306,-0.012691796856001018,0.017704090326372532
1690839141409603600,7.343603515625,0.17547171771824358,-0.015270707433298229,0.009799897639662958
1690839141419674400,7.35367431640625,0.1789350099146366,-0.0074930591691285365,0.002834547572489828
1690839141429714400,7.36371435546875,0.17671382673382757,-0.009842983296141028,-0.0027077017558505756
1690839141439754500,7.37375439453125,0.18016542849242687,-0.015361089130491017,-0.014619248654088004
1690839141449795600,7.383795654296875,0.19259762456417082,-0.012156959326937795,-0.008509305273275822
1690839141459835600,7.393835693359375,0.18482289890944956,-0.018464169712364673,-0.01073482670248486
1690839141469875500,7.40387548828125,0.18601999973952768,-0.012571385346725583,-0.003501683411444537
1690839141479916500,7.41391650390625,0.17210077998042106,-0.010922083769738673,-0.0006002400486264378
1690839141489956400,7.423956298828125,0.1738900014847517,-0.014753332495689392,0.00917986147860065
1690839141499996400,7.433996337890625,0.1759761601090431,-0.0160765439234674,0.009198689476656727
1690839141510036500,7.444036376953125,0.17702537690103054,-0.008279679502174257,0.0083159107261803
1690839141520077600,7.45407763671875,0.17567396229207516,-0.018267331966012715,0.007863367485976777
1690839141530117600,7.46411767578125,0.16878128016889093,-0.01918919605128467,0.002451955162803642
1690839141540157400,7.474157470703125,0.17311667902469635,-0.013896934862062334,-0.00036620296388864516
1690839141550198500,7.484198486328125,0.178790633007884,-0.01589746102951467,-0.003820590334618464
1690839141560238600,7.494238525390625,0.18177227916717528,-0.011726897346600889,-0.0007409225943731144
1690839141570278400,7.5042783203125,0.18085048814713953,-0.016247078184783457,0.001343286101426929
1690839141580349400,7.514349365234375,0.17305530422627924,-0.010762728489562869,0.00266245154174976
1690839141590389500,7.524389404296875,0.1712491315871477,-0.015109306326508521,0.0056509110343176865
1690839141600429600,7.5344296875,0.1710883880674839,-0.012888269276171921,0.004275019571231678
1690839141610470700,7.544470703125,0.17332944499254227,-0.01609108390547335,0.0038561228723032396
1690839141620510500,7.554510498046875,0.18648937081694603,-0.009219590700790285,0.004612658594339155
1690839141630550300,7.56455029296875,0.17525719818472862,-0.012246829567477106,-0.004714607431739569
1690839141640591400,7.57459130859375,0.1807920359581709,-0.013637261012569069,-0.0066712168256519355
1690839141650631400,7.58463134765625,0.1812397797256708,-0.014570888600870966,-0.007984212820092216
1690839141660671500,7.59467138671875,0.18632161303460598,-0.01584960329979658,-0.008676008176268077
1690839141670711600,7.604711669921875,0.1827256343692541,-0.01231638767234981,-0.0031154012073297053
1690839141680752600,7.614752685546875,0.18391864354610443,-0.013567483711987733,-0.0054673665943788365
1690839141690792400,7.62479248046875,0.18451544039547443,-0.020312281797081232,0.006243186972197145
1690839141700832500,7.63483251953125,0.16835224110186098,-0.015541048807278274,0.0021762663268484173
1690839141710873600,7.64487353515625,0.17464052759110926,-0.012060513215139507,0.0011137790613342075
1690839141720913400,7.654913330078125,0.17165069812536238,-0.007703998506069183,-0.011351268967241049
1690839141730953500,7.664953369140625,0.19111527705192566,-0.0029175679471343755,-0.01044757072632201
1690839141741024500,7.6750244140625,0.1820014117479324,-0.010785159517079592,0.0008520502520725131
1690839141751064600,7.685064697265625,0.1823158845245838,-0.01668583492822945,-0.0012492420092690736
1690839141761104600,7.695104736328125,0.1841121202915907,-0.009952215824276208,0.0013429390415549277
1690839141771145500,7.7051455078125,0.19084990411400793,-0.006423895567655563,-0.001068624745355919
1690839141781185300,7.715185302734375,0.1865074909955263,-0.015131152832135557,0.005329433128144592
1690839141791225300,7.725225341796875,0.17274200049340724,-0.01166398817822337,-0.0022588346103439108
1690839141801266400,7.735266357421875,0.17977379882633684,-0.01226494974605739,0.006030959860468283
1690839141811306500,7.745306396484375,0.18620646222233772,-0.01513217574544251,0.010660117498459293
1690839141821346600,7.7553466796875,0.17499767046570777,-0.015085706255212425,-0.00013243074063211678
1690839141831386600,7.76538671875,0.1856231093764305,-0.017186989383399486,-0.003661440550419502
1690839141841427500,7.775427490234375,0.17993921852111816,-0.010872618604823947,0.003749159933067858
1690839141851467500,7.785467529296875,0.184443544203043,-0.01587619904577732,0.0022423492664238437
1690839141861507300,7.79550732421875,0.18818156168758868,-0.010828121875971555,-0.003318047639960423
1690839141871548400,7.80554833984375,0.17606325387060642,-0.009871551803499459,-0.004730846180487424
1690839141881588500,7.81558837890625,0.17889818503558635,-0.02060958424322307,-0.0030111827810294927
1690839141891628500,7.825628662109375,0.18786650438904762,-0.01566379840411246,-0.006890170505689457
1690839141901699600,7.835699462890625,0.18621523005068302,-0.01137983747459948,-0.0038250564471818504
1690839141911739600,7.84573974609375,0.17977672143578527,-0.0195174781575799,0.005968740245257504
1690839141921780500,7.855780517578125,0.16989537889063358,-0.016452026172354816,0.0058066404521465295
1690839141931820300,7.8658203125,0.17498481098413465,-0.018530220685899258,-0.0014242880489211528
1690839141941860400,7.8758603515625,0.17917641745507715,-0.013117401856929063,-0.002282886772789061
1690839141951900400,7.885900390625,0.18321663275659084,-0.013292539228126406,-0.006266668312484398
1690839141961941500,7.89594140625,0.18111703012883662,-0.01846767684370279,0.0005753111033467576
1690839141971981600,7.905981689453125,0.19772154344916343,-0.014942936783656477,0.0004450038211420178
1690839141982021600,7.916021728515625,0.17976327743232248,-0.01631831679008901,-0.0002928956990828737
1690839141992062500,7.9260625,0.17556816383004187,-0.013256956458091735,-0.0007226243192795664
1690839142002102500,7.9361025390625,0.18259587050974369,-0.012288695947825909,-0.002093894406175241
1690839142012142300,7.946142333984375,0.17631868993639946,-0.014718626508489251,-0.00040831593940965827
1690839142022182400,7.956182373046875,0.17302783169746397,-0.017106398427858948,0.0022179454775294286
1690839142032223500,7.966223388671875,0.1731716240823269,-0.015109744717925786,0.009302633908321149
1690839142042263600,7.976263671875,0.18334873470366,-0.017468436673283575,0.006902536796918138
1690839142052303600,7.9863037109375,0.1832049423187971,-0.013799173576012253,-0.0029131246674573047
1690839142062374700,7.996374755859375,0.1835059710919857,-0.010640563414618373,-0.003523370086867362
1690839142072414500,8.00641455078125,0.18291034328639505,-0.011186579924821853,-0.0014011674682376906
1690839142082455300,8.016455322265625,0.18096680800318718,-0.013550824838131666,-0.0053093082221457736
1690839142092495400,8.026495361328125,0.18844985723495483,-0.01637180054299533,-0.010404663166357204
1690839142102535400,8.036535400390624,0.1844113954991102,-0.01558152694813907,-0.002428524054866284
1690839142112575500,8.046575439453125,0.18561317250430584,-0.016706366259604692,-0.0004956928287632763
1690839142122616600,8.056616455078125,0.17468202864527702,-0.01159822946563363,-0.0017211886362638324
1690839142132656600,8.06665673828125,0.17184066773951054,-0.015173457603901624,0.0046718003364745525
1690839142142696400,8.076696533203124,0.17288930000960825,-0.014885215247049928,0.0002463303107302636
1690839142152737300,8.0867373046875,0.18456044858098028,-0.008165551603212952,-0.0028223456780426203
1690839142162777300,8.09677734375,0.1748316662490368,-0.010613163951039313,0.0004348705861950293
1690839142172817400,8.1068173828125,0.17318156095445156,-0.014416867082938552,0.0009023921998217701
1690839142182857500,8.116857421875,0.17767010454535484,-0.016371142955869434,-0.0037450865461491046
1690839142192898600,8.126898681640625,0.18020692954659462,-0.012882058731094001,0.004168225595355034
1690839142202938600,8.136938720703125,0.17885843754708766,-0.015155191294848918,-0.0012619507937924935
1690839142212978700,8.146978759765625,0.1917272714704275,-0.008122881505265831,0.004747792748711071
1690839142223049500,8.157049560546875,0.18394962320625782,-0.013308394384384154,0.0063970486599253485
1690839142233089500,8.167089599609374,0.18439970506131648,-0.022131898439675567,0.001280363233317621
1690839142243130400,8.17713037109375,0.17617022137641905,-0.0088159783359617,0.0005063238206319511
1690839142253170000,8.187169921875,0.17707272317409514,-0.010818623395264147,-0.002624576349928975
1690839142263210000,8.1972099609375,0.17557459357082844,-0.013103446396812796,-0.007777191606443375
1690839142273250000,8.20725,0.18724165048897265,-0.01871083794981241,-0.0067030595689080655
1690839142283291100,8.217291015625,0.1766074437499046,-0.019146891279518602,-0.005080024944338947
1690839142293331000,8.2273310546875,0.17929039922356604,-0.01856412295550108,0.0002821551093598828
1690839142303371000,8.23737109375,0.18331950860917567,-0.015454320371896028,0.003869589708652347
1690839142313411800,8.247411865234374,0.17299100681841373,-0.014450257895886897,0.0015284608094487339
1690839142323452000,8.257451904296875,0.18257424319982526,-0.015998510251194236,-0.0017856732737971468
1690839142333492000,8.267491943359374,0.18676643419265745,-0.019855624070763588,-0.008057227823953144
1690839142343532000,8.277531982421875,0.18138181854486465,-0.0121894002918154,-0.0007137788591207936
1690839142353573000,8.287572998046874,0.18587562283277512,-0.010179302578419447,-0.002754527439107187
1690839142363613000,8.297613037109375,0.18408230967521666,-0.021069164578989146,0.00400261867090594
1690839142373684000,8.30768408203125,0.17241817536652088,-0.012853855549916623,-0.00041983284726738925
1690839142383724000,8.31772412109375,0.17735913890004157,-0.016540435108169913,0.003505825297022238
1690839142393764000,8.32776416015625,0.16837269936800003,-0.02535173726901412,0.000871357740741223
1690839142403805000,8.337804931640624,0.1746469573318958,-0.021169410083070397,-0.0032329357729293405
1690839142413845000,8.347844970703125,0.18272738793492316,-0.015025354370102285,0.000874618276907131
1690839142423885000,8.357885009765624,0.17389701574742794,-0.014458295071870087,0.007953251426247879
1690839142433926100,8.367926025390625,0.1762853721886873,-0.012761939482763409,0.006550271026836708
1690839142443966000,8.377966064453124,0.18166998783648014,-0.016998115747794508,0.0024409908107947556
1690839142454006000,8.388006103515625,0.17508885588049888,-0.012482318823784588,0.000693498689495027
1690839142464046000,8.398046142578124,0.1736018321931362,-0.015765066821500657,-0.008421380394650622
1690839142474087000,8.4080869140625,0.17495909202098844,-0.02248546111769974,0.0006912884660996496
1690839142484127000,8.418126953125,0.17586100929677487,-0.01943338007070124,-0.0012312862274702638
1690839142494167000,8.4281669921875,0.18213994343578815,-0.007538286550343036,-0.0042350848530652
1690839142504208100,8.4382080078125,0.18033961601555346,-0.011777239294350147,-0.007126541111408732
1690839142514248000,8.448248046875,0.18616437664628027,-0.016589681077376007,-0.001547539969254285
1690839142524288000,8.4582880859375,0.18930267467200754,-0.023091171925887465,-0.007944081739103421
1690839142534359000,8.468359130859374,0.1857183864444494,-0.015056114834547041,-0.010425002701487392
1690839142544399000,8.478399169921875,0.17793840009272097,-0.01400127201937139,-0.0008314230225747451
1690839142554439200,8.488439208984374,0.1753968989163637,-0.008277049153670668,-0.0007910864456091075
1690839142564480000,8.49847998046875,0.1843769087076187,-0.014986118338257073,-0.001959061645902693
1690839142574520000,8.50852001953125,0.18601999973952768,-0.021771394564211368,0.0025427843845682216
1690839142584559900,8.518559814453125,0.17823533721268175,-0.02151683528125286,0.0014418511050753294
1690839142594601000,8.52860107421875,0.1780810234338045,-0.01081263204589486,-0.0045447216243948785
1690839142604641000,8.53864111328125,0.1789835252314806,-0.013725669948384166,0.005856516609014943
1690839142614681000,8.54868115234375,0.18197452374100684,-0.01194711596854031,-0.008740301017556339
1690839142624721200,8.55872119140625,0.18137363523840902,-0.01647211911231279,-0.003666331354668364
1690839142634762000,8.568761962890624,0.18810440479815005,-0.008896423161029815,0.00014852335890755056
1690839142644802000,8.578802001953125,0.18465806373655794,-0.0037342911574989555,-0.005239476122637279
1690839142654841900,8.588841796875,0.17851181606650351,-0.011534370449185372,0.001067072109086439
1690839142664883000,8.598883056640625,0.17581717015504836,-0.017398951633647082,-0.003920735373999923
1690839142674923000,8.608923095703124,0.17911095100343227,-0.013475640710070728,0.003696644294541329
1690839142684963000,8.618963134765625,0.18000936114788055,-0.015573855098336933,0.004359245522273704
1690839142695034000,8.6290341796875,0.18090718677043913,-0.014236030623316765,0.0021962770684156568
1690839142705074200,8.63907421875,0.17686697146892547,-0.012583514175936578,-0.001762406562641263
1690839142715115000,8.649114990234375,0.17492869688272475,-0.02055259335897863,-0.004346418006741442
1690839142725155000,8.659155029296874,0.1794230856925249,-0.01389744631871581,0.0009768045763252303
1690839142735195000,8.66919482421875,0.16819325114786624,-0.015047785397619008,0.003049998687766492
1690839142745235000,8.67923486328125,0.1767214255183935,-0.013997399561852216,-0.005360220992052927
1690839142755276000,8.689276123046875,0.18345628673136233,-0.0239926508102566,-0.0011407218671869487
1690839142765316000,8.699316162109374,0.18210428760051725,-0.010902575351670383,-0.00216474028583616
1690839142775356200,8.709356201171875,0.17342589110434053,-0.018519041704759,0.004191926131350919
1690839142785396200,8.719396240234374,0.18375497741699218,-0.02190371570698917,0.005390054441313259
1690839142795437000,8.72943701171875,0.17687807738482952,-0.011490969698876141,0.0071267146413447335
1690839142805476900,8.739476806640624,0.177929047742486,-0.010990765091776848,0.0049675866789650166
1690839142815517000,8.749516845703125,0.18316694839596748,-0.014882000376656651,0.0036729620248544957
1690839142825558000,8.75955810546875,0.18570844957232474,-0.016288140847533942,-0.004643085698643699
1690839142835598000,8.76959814453125,0.18420915092527865,-0.013956629160046577,-0.0022540488373721016
1690839142845638100,8.77963818359375,0.18839666574299335,-0.013989070124924181,-0.008511323700426145
1690839142855709200,8.789709228515624,0.1804693798750639,-0.018874577144160867,-0.005055310628190636
1690839142865749000,8.7997490234375,0.18031740418374537,-0.00859415227882564,-0.001162499874155037
1690839142875789800,8.809789794921874,0.18390929119586943,-0.015319807272031902,-0.008027335009188391
1690839142885830000,8.819829833984375,0.18345453316569327,-0.009407514488324522,0.0078575359668117
1690839142895870000,8.829869873046874,0.18270225349366664,-0.011559285694733261,0.01170295934858732
1690839142905910000,8.839909912109375,0.17715981693565844,-0.014784458286315201,0.008971671221172437
1690839142915951000,8.849951171875,0.17521335904300211,-0.017948913666605948,0.004658411131938919
1690839142925991200,8.8599912109375,0.17162147203087805,-0.026338337153568862,0.002602839442156255
1690839142936031000,8.870031005859374,0.1674316191256046,-0.018406886567175387,0.00033875783453695476
1690839142946072000,8.880072021484375,0.1740109975159168,-0.01459258897602558,-0.0066904558156616984
1690839142956112000,8.89011181640625,0.17939561316370964,-0.01194536240287125,0.0019177341216709465
1690839142966152000,8.90015185546875,0.18059446755945682,-0.006229030582681298,0.0005479801384266466
1690839142976192000,8.91019189453125,0.17655249869227407,-0.016570318789780138,0.0030227544878143817
1690839142986233000,8.920233154296875,0.18582476942837237,-0.018428148550912737,0.008525580554641784
1690839142996273200,8.930273193359374,0.1892611736178398,-0.008779884109273552,0.0038437246150337155
1690839143006313000,8.94031298828125,0.1843207946062088,-0.0186688985042274,0.000966808338696137
1690839143016384000,8.950384033203125,0.1793798310726881,-0.01616378381550312,0.006721599872596562
1690839143026423800,8.960423828125,0.17653554755747317,-0.008090294409915804,0.006514834387274459
1690839143036465000,8.97046484375,0.1732446893185377,-0.011531082513555883,0.009309515740256756
1690839143046505000,8.9805048828125,0.17758184174001215,-0.008420476212352514,0.0034904267984908074
1690839143056545000,8.990544921875,0.18910335270762443,-0.012784370510280132,-0.0030291522625600915
1690839143066585000,9.000585205078124,0.18161621182262896,-0.016017653343081473,0.0009699775433167814
1690839143076626200,9.010626220703125,0.1831131723821163,-0.01033931544572115,-0.0024800852787448093
1690839143086666000,9.020666015625,0.1781780540674925,-0.010282470691949128,-0.0053653081591241054
1690839143096705800,9.030705810546875,0.1777273876905441,-0.017038155497238038,-0.003755918467417359
1690839143106747000,9.040746826171874,0.17892565756440162,-0.020757468281313775,0.0006432115406729281
1690839143116787000,9.050786865234375,0.182664259570837,-0.019133520341292024,0.009179980209609494
1690839143126827000,9.060826904296874,0.17607962048351763,-0.009988310050964355,-0.0028304285197984424
1690839143136867000,9.0708671875,0.1768254704147577,-0.011517565444856881,0.006120464774826541
1690839143146908200,9.080908203125,0.17907295708060264,-0.011471534346044063,0.008967588701099156
1690839143156948000,9.090947998046875,0.17757891913056373,-0.016387436503544447,0.002451594403199851
1690839143166987800,9.10098779296875,0.17952537702322005,-0.01144281970821321,0.005589380972273648
1690839143177058800,9.111058837890624,0.1905991442233324,-0.008920023232325911,0.001774549091584049
1690839143187099000,9.121098876953125,0.18821254134774207,-0.01780161415040493,-0.002063955925637856
1690839143197140000,9.131139892578124,0.1792266863375902,-0.02165332114249468,0.0069077883607707915
1690839143207180000,9.141179931640625,0.17272855648994445,-0.018114990948513147,0.000749119600560516
1690839143217220000,9.15122021484375,0.43500119030475615,0.02517177759222686,0.014152215664228423
1690839143227261200,9.16126123046875,-0.052039399316906924,0.4814934768885374,-0.13193820787481964
1690839143237301000,9.171301025390624,0.3872749780118465,-0.24422106349132955,0.11246964689288287
1690839143247326200,9.181326171875,0.1553594885379076,-0.0362218716558069,-0.1660703407097608
1690839143257366300,9.1913662109375,-0.05141396089494228,-0.23916451075412332,0.274997803217452
1690839143267407000,9.201406982421876,0.1739507917612791,-0.2795912867538631,0.10559046357208862
1690839143277447200,9.211447265625,0.021802081963419914,-0.1859403586320579,0.12117260244158096
1690839143287487200,9.2214873046875,0.16324351978600024,-0.16802184010371565,0.05127389483712613
1690839143297527000,9.231527099609375,0.1588181045591831,-0.11240984299704432,-0.040050672696344554
1690839143307568000,9.241568115234376,0.17452011608183382,-0.06499649604558945,-0.06286320121078752
1690839143317608200,9.251608154296875,0.22151918314397334,-0.03572415126673877,-0.07841259772130288
1690839143327648300,9.261648193359376,0.1707657319843769,-0.04906783616021275,-0.036777541910344734
1690839143337719300,9.27171923828125,0.2072819834768772,0.008068228708580136,-0.03738593329938594
1690839143347759400,9.28175927734375,0.1803817015916109,-0.00450520246475935,0.010313852210901676
1690839143357800200,9.29180029296875,0.22296178316771983,0.010068901006504892,0.036184517053794114
1690839143367840000,9.301840087890625,0.1572632763326168,0.03435184000022709,0.05392195709391962
1690839143377880000,9.311880126953126,0.19623393523991106,0.02449249009117484,0.07417032507562543
1690839143387921200,9.321921142578125,0.1911392424494028,0.04395969936624169,0.06089081429243087
1690839143397961200,9.331961181640626,0.16069149721562861,0.03446501805111766,0.06842179431915282
1690839143408001300,9.342001220703125,0.23928806406855582,0.04643368826434016,0.046873011263366786
1690839143418041300,9.352041259765626,0.17911153552532194,0.05389379501193761,0.027834548794385044
1690839143428082200,9.362082275390625,0.23037235168516634,0.04254939417690039,0.019859934919700024
1690839143438122200,9.372122314453126,0.2130553061813116,0.057861675729602574,-0.004214932547602802
1690839143448162000,9.382162109375,0.21050795978605746,0.054331601907312864,-0.02094164747549221
1690839143458203100,9.392203125,0.2391793429970741,0.04903378776013851,-0.02496127664670348
1690839143468243200,9.4022431640625,0.19806699588596818,0.05547624189779162,-0.028304760122019795
1690839143478283300,9.412283203125,0.22902327516376972,0.04324037211574614,-0.02988704261109233
1690839143488323300,9.4223232421875,0.2141179669767618,0.046697819093242283,-0.012094305886887013
1690839143498394400,9.432394287109375,0.2034744078874588,0.04049392295181751,0.006073492961097509
1690839143508434200,9.44243408203125,0.2030605663895607,0.03354198492206633,0.022290797062125056
1690839143518475000,9.45247509765625,0.2146761853814125,0.03590608370490372,0.029316727343271485
1690839143528515000,9.46251513671875,0.17890286121070384,0.03563208906911313,0.04548020519809797
1690839143538555100,9.47255517578125,0.17862755140066147,0.02492642452903092,0.04451594044293743
1690839143548596200,9.48259619140625,0.16639409277141093,0.01894764238037169,0.040684330957382914
1690839143558636300,9.49263623046875,0.16718436636626718,0.012213000363111496,0.040618827973119914
1690839143568676400,9.50267626953125,0.18264029417335986,0.003634484044834971,0.02519247788696084
1690839143578716200,9.512716064453125,0.15168284585177896,-0.008151011621206999,0.010072873928723856
1690839143588757200,9.52275732421875,0.19611410825252532,-0.01903020609728992,0.004651186806708574
1690839143598797000,9.532797119140625,0.17555062817335126,-0.03335501098260283,-0.013964931197511032
1690839143608837000,9.542837158203126,0.16152093377709387,-0.03346965033821762,-0.013620145480986683
1690839143618878200,9.552878173828125,0.1809440116494894,-0.03654679276123643,-0.007380543271941133
1690839143628918300,9.562918212890626,0.15480828439593314,-0.0477470358852297,-0.004031031914637424
1690839143638958300,9.572958251953125,0.15913608446717262,-0.053390156338736415,0.007665191732486709
1690839143648998100,9.582998046875,0.1611497623771429,-0.06260192905925215,0.02359137653298676
1690839143659069200,9.593069091796876,0.152025960201025,-0.06563340570963919,0.03677423114182893
1690839143669110000,9.603110107421875,0.14732231255471706,-0.0640375148203224,0.04716974745392799
1690839143679150000,9.613150146484376,0.15227496652603148,-0.07192899872250855,0.04785025879768654
1690839143689190100,9.623190185546875,0.1475865164488554,-0.06479695488549768,0.04799474986887071
1690839143699230200,9.633230224609376,0.15330723218321798,-0.058677741352841255,0.03664045326090418
1690839143709271300,9.643271240234375,0.1543172860085964,-0.06799458188302815,0.019733180434606038
1690839143719311400,9.653311279296876,0.15451543892920017,-0.06564370790794491,0.016303804207546634
1690839143729351200,9.66335107421875,0.16424129865169523,-0.06232581553161144,0.008106898484844714
1690839143739392300,9.673392333984374,0.1613420700788498,-0.05290551462695002,-0.0016489042847650124
1690839143749432000,9.68343212890625,0.16992343594133852,-0.05089110606461763,-0.005635823063040152
1690839143759472000,9.69347216796875,0.16201543929576873,-0.04326061118617654,-0.003851387331681326
1690839143769512200,9.70351220703125,0.1662123064637184,-0.04000014808550477,0.01213881174889393
1690839143779553300,9.71355322265625,0.1763824028223753,-0.027718685596063733,0.020447799543943254
1690839143789593300,9.72359326171875,0.1705424446225166,-0.01866992141753435,0.0318047858659178
1690839143799633200,9.733633056640626,0.1792138268560171,-0.01785034866295755,0.02891352140381932
1690839143809673000,9.7436728515625,0.18520517622530458,-0.006792217423394322,0.03314115360279102
1690839143819744000,9.753743896484375,0.18164251530766487,-0.0044889819823205465,0.030189879748877137
1690839143829785000,9.76378515625,0.1858931584894657,0.0035134149484336375,0.02283480427833274
1690839143839825200,9.7738251953125,0.1910790366947651,0.010564356373250483,0.020030871039815247
1690839143849865200,9.783865234375,0.19181845688521862,0.012981573582813143,0.013743150806147604
1690839143859905300,9.7939052734375,0.1985807906270027,0.01383263745419681,0.015287306941649875
1690839143869946400,9.8039462890625,0.19730711742937565,0.021896336118131875,0.009431826945673674
1690839143879986000,9.81398583984375,0.20402152037620544,0.01816467530913651,-0.0030315862482413647
1690839143890026000,9.82402587890625,0.20420915190279482,0.016103651126101612,0.006222249215445481
1690839143900067000,9.834067138671875,0.18903379460275171,0.020690759720653294,0.0045776466464623805
1690839143910107100,9.844107177734376,0.19397358909249304,0.024477146391570566,0.0053872825289145105
1690839143920147200,9.854147216796875,0.19191431847512722,0.021384879464656115,0.014276070372760295
1690839143930187300,9.864187255859376,0.18526947363317012,0.023920170095935462,0.011991370668797753
1690839143940228000,9.87422802734375,0.19259119482338427,0.022186697366833687,0.017383626200351863
1690839143950268200,9.88426806640625,0.18888298795521258,0.024753040723502633,0.022472067346586844
1690839143960308000,9.894307861328125,0.1900064390271902,0.01997062875255942,0.021125516142416745
1690839143970349000,9.90434912109375,0.18727146110534668,0.018311024977266787,0.022116225946508347
1690839143980419000,9.914419189453126,0.18082067753076553,0.006538388792797923,0.018324797774292526
1690839143990460200,9.924460205078125,0.18591712388694284,0.000349324894323945,0.01337897540256381
1690839144000500200,9.934500244140626,0.17830255722999572,0.007634951857849955,0.020269282905571163
1690839144010540300,9.944540283203125,0.1769780306279659,0.003201864781230688,0.013913570903032087
1690839144020580000,9.954580078125,0.18598200581669808,-0.0011514350574463605,0.012172864715545437
1690839144030621000,9.964620849609375,0.18958967491984366,-0.00783785401880741,0.006535091724013909
1690839144040661000,9.974660888671876,0.1810650076806545,-0.016746479074284434,0.011370475991209968
1690839144050701000,9.984701171875,0.17311200284957884,-0.021676994279026984,0.009291527992417104
1690839144060742100,9.9947421875,0.16752981880307197,-0.020010814632475376,0.01959931122213602
1690839144070782200,10.0047822265625,0.16461656170487404,-0.026930896219238637,0.019459592224191875
1690839144080822300,10.014822265625,0.17453998982608318,-0.03489588374905288,0.025538811673177404
1690839144090862300,10.0248623046875,0.16483049671649933,-0.03684855218678713,0.025492579644965006
1690839144100903200,10.034903076171876,0.16525719769597053,-0.03877835120558738,0.006994151469971985
1690839144110943000,10.04494287109375,0.17178046198487282,-0.044988823218271135,0.013875736810406668
1690839144120983000,10.054983154296876,0.17257716532051562,-0.04218852497525513,0.015742781924456356
1690839144131024100,10.065024169921875,0.17363573446273803,-0.03799479961246252,0.01368401363058947
1690839144141094100,10.07509423828125,0.15550094283521174,-0.04394011788293719,0.022789997022226453
1690839144151135200,10.08513525390625,0.15902385626435278,-0.0431307742614299,0.019681550712068563
1690839144161175300,10.09517529296875,0.17104513344764707,-0.04619578785523772,0.013827052530203944
1690839144171215000,10.105215087890626,0.16896540456414222,-0.04242342970967292,0.01307718857754953
1690839144181256000,10.115255859375,0.18481120847165583,-0.04059248795546591,0.016623007958242668
1690839144191296000,10.1252958984375,0.16218085899055004,-0.03783822081126272,0.018859822533023544
1690839144201336000,10.135336181640625,0.16886252871155738,-0.024378727518394587,0.019268101939815097
1690839144211376000,10.145376220703126,0.183309571737051,-0.022491963923722505,0.0037480913539882747
1690839144221417200,10.155417236328125,0.17664485315084458,-0.023032792802155016,0.012730028240848332
1690839144231457300,10.165457275390626,0.1704302164196968,-0.02503931031897664,0.017587770470324903
1690839144241497300,10.175497314453125,0.18082886083722113,-0.01756298308894038,0.02069387412634678
1690839144251549000,10.185548828125,0.18657997170984744,-0.013037176227569579,0.021718317236681467
1690839144261590000,10.195590087890626,0.19204408233463763,-0.02344071601592004,0.011864387854840605
1690839144271630000,10.205630126953125,0.17268939352333545,-0.009586085925623773,0.01081080541498959
1690839144281670100,10.215670166015625,0.16845803956389427,-0.009516308625042437,0.007830985886603593
1690839144291711000,10.2257109375,0.1824906565696001,-0.004242240679636597,0.005136047714203596
1690839144301781200,10.23578125,0.1738023232012987,-0.0020661387495696545,0.008754914064798504
1690839144311822000,10.245822021484376,0.18789923761487007,-0.00007452654093503952,0.008290529689751564
1690839144321862100,10.255862060546875,0.18959376657307148,0.00036598376818001267,0.013748831628262995
1690839144331902000,10.26590185546875,0.18652619569599627,0.006245324130356312,0.012735763861890882
1690839144341943000,10.275943115234375,0.1936667151004076,0.012423282112926244,0.011323832971043885
1690839144351983000,10.285983154296876,0.19678280129432676,0.001595963954553008,0.016325367585383353
1690839144362023200,10.296023193359375,0.18692367058098316,0.012297025384753942,0.0088201202215394
1690839144372063200,10.306063232421875,0.18517185847759246,0.007501900062710046,0.024530557079240678
1690839144382104000,10.31610400390625,0.19227029230594633,0.00433656789958477,0.021141695525660177
1690839144392144100,10.32614404296875,0.18547814794778822,0.004800970540940762,0.008979041676875204
1690839144402184000,10.336183837890625,0.1875228055179119,0.003600289514288306,0.018076613433193413
1690839144412225000,10.34622509765625,0.1831657793521881,0.001047974682971835,0.01689483803641051
1690839144422265000,10.35626513671875,0.19213176061809062,-0.005917772676423192,0.01233461744878441
1690839144432305200,10.36630517578125,0.17417407912313937,0.001948138393089175,0.009781078774761408
1690839144442345200,10.37634521484375,0.1840548371464014,0.0007749298952519893,0.017902444176375865
1690839144452416300,10.386416259765625,0.17807400917112826,-0.010109233016893267,0.0204558549862355
1690839144462456300,10.396456298828125,0.18032324940264224,-0.010066782114654779,0.014569591692928223
1690839144472497200,10.4064970703125,0.17897534192502498,-0.013543664444983004,0.01954306925656274
1690839144482537000,10.416536865234375,0.17956570903360844,-0.014568477448076008,0.024564824675023553
1690839144492577000,10.426576904296875,0.1765560058236122,-0.019606763876229522,0.018685557378083466
1690839144502618000,10.4366181640625,0.18116437640190122,-0.020193989179655907,0.01474309422946535
1690839144512658200,10.446658203125,0.1796323445290327,-0.021911387556791305,0.005414426264166832
1690839144522698200,10.4566982421875,0.16790917350947857,-0.025338001004606484,0.009199995517753995
1690839144532738300,10.46673828125,0.17021920401751994,-0.02322203176394105,0.008522242386662401
1690839144542779100,10.476779052734376,0.17700667220056057,-0.022768442777544258,0.010399434435390867
1690839144552819000,10.48681884765625,0.17673837665319442,-0.030698943515866994,0.010978234403766692
1690839144562859000,10.49685888671875,0.16672084050774574,-0.03446881744340062,0.0156349604686955
1690839144572900000,10.506900146484375,0.17404373074173926,-0.02485840079411864,0.018113214549957773
1690839144582940200,10.516940185546876,0.16832710666060446,-0.029008287015184757,0.02127214893833734
1690839144592980200,10.526980224609375,0.17247078233659266,-0.028295024179294703,0.015619201210560277
1690839144603020300,10.537020263671875,0.17496259915232656,-0.031127763387188312,0.016853414614056237
1690839144613091300,10.54709130859375,0.18057108668386934,-0.034902386555075646,0.017611854598810896
1690839144623132200,10.557132080078125,0.17914134614169597,-0.025132979951798914,0.025752299160230904
1690839144633172000,10.567171875,0.1717120729237795,-0.032034429903328415,0.016963592423684896
1690839144643212000,10.5772119140625,0.1702595360279083,-0.01855250558294356,0.006113751906249671
1690839144653252000,10.587252197265625,0.1737456245779991,-0.02555434716902673,0.01119267173889093
1690839144663293200,10.597293212890625,0.17423253131210803,-0.01841536213457584,0.017877533497405236
1690839144673333200,10.607333251953126,0.18518237987160682,-0.01307458562850952,0.014185898738121613
1690839144683373300,10.617373291015625,0.19045710540413854,-0.013273980658128856,0.009222038386203349
1690839144693414100,10.6274140625,0.18555472031533718,-0.013484846929833292,0.007815231195045635
1690839144703454000,10.637453857421875,0.18409341559112072,-0.014455883919075131,0.008583827247633598
1690839144713494000,10.647493896484375,0.1865419777870178,-0.011857245728000999,0.012286586189130321
1690839144723534000,10.6575341796875,0.18495383181273936,-0.00758029906116426,0.019093115265667437
1690839144733575200,10.6675751953125,0.1808469810158014,-0.00027048750445246697,0.024240451558865606
1690839144743615200,10.677615234375,0.18153379423618315,-0.0005200052861124277,0.0132212823565118
1690839144753655300,10.6876552734375,0.182977563303709,0.0018988193586468695,0.018497998916730284
1690839144763695400,10.6976953125,0.18429624468684194,-0.008962693330273032,0.024240743819810447
1690839144773766100,10.70776611328125,0.1883113255470991,-0.01125190024599433,0.01078577600501012
1690839144783807000,10.717806884765626,0.18905542191267014,-0.0026272797636687755,0.004864208502881229
1690839144793847000,10.727846923828125,0.19399521640241144,0.00038388475105166435,0.011518533559236675
1690839144803887000,10.73788720703125,0.18473112897276878,-0.005417129677906632,0.011152458459511398
1690839144813927200,10.74792724609375,0.19284020114839076,-0.0009879881240427494,0.00853982370912563
1690839144823968300,10.75796826171875,0.18554361439943312,-0.00842814806215465,0.009999251570086926
1690839144834008300,10.76800830078125,0.1781201864004135,-0.008680953779444098,0.0051617484110407525
1690839144844048100,10.778048095703125,0.17250117747485635,-0.0026644699689000843,0.012661109456792474
1690839144854089000,10.7880888671875,0.18424714484810828,-0.005548062581196427,0.017316406183037907
1690839144864129000,10.79812890625,0.18312486281991003,-0.016200900955498216,0.015600939468084834
1690839144874169000,10.808169189453125,0.18051555710434913,-0.017896525892242787,0.011380458529107271
1690839144884209200,10.818209228515625,0.17490297791957854,-0.0062730889201164245,0.018299147309805266
1690839144894250200,10.828250244140625,0.17138707875311374,-0.013162044716253875,0.012502055570716038
1690839144904290300,10.838290283203126,0.1653273403227329,-0.020209552074968815,0.012626526767178438
1690839144914330000,10.848330078125,0.16733692657947538,-0.022912527423352,0.01407496744324453
1690839144924371000,10.858370849609376,0.17892039686739444,-0.024162527484446764,0.014108467854047194
1690839144934441200,10.868441162109375,0.1809358283430338,-0.024992475502565503,0.014547142399102448
1690839144944482000,10.87848193359375,0.1787438712567091,-0.01633088401071727,0.009616102037974633
1690839144954522000,10.888522216796876,0.17997779696583746,-0.02329144373834133,0.012019103492517023
1690839144964562200,10.898562255859375,0.1753665037781,-0.022749738077074286,0.017541264447476713
1690839144974602200,10.908602294921875,0.17448796737790107,-0.029074264923483133,0.012483958225022069
1690839144984643300,10.918643310546875,0.17988251989781856,-0.01669905973598361,0.0054916379525326185
1690839144994683100,10.92868310546875,0.17329963437616824,-0.016987886614724994,0.014404345528082922
1690839145004723200,10.93872314453125,0.178076347258687,-0.015506488950550555,0.014460076037002726
1690839145014764000,10.948763916015626,0.17401333560347557,-0.01567563497237861,0.017528386699594556
1690839145024804000,10.95880419921875,0.1690443150192499,-0.02148994727432728,0.01685830998488236
1690839145034844200,10.96884423828125,0.17350538608133792,-0.021274770153686402,0.018157830009819007
1690839145044884200,10.97888427734375,0.1712146447956562,-0.018752850460633633,0.021757649166649205
1690839145054925300,10.98892529296875,0.17446400198042392,-0.025625804970040914,0.013974310947209596
1690839145064965000,10.998965087890625,0.17366612960100172,-0.020476020991429686,0.012487469922937451
1690839145075005000,11.0090048828125,0.17346037789583205,-0.01271240125261247,0.017979445802187546
1690839145085046000,11.0190458984375,0.1814794337004423,-0.017305574261769652,0.012445174284325912
1690839145095116000,11.029115966796875,0.17842472230494022,-0.01965199125744402,0.02168226410918869
1690839145105157000,11.0391572265625,0.17102993587851523,-0.016764745383337137,0.014889297767123206
1690839145115197200,11.049197265625,0.17157003410458563,-0.015771642692759633,0.020725004483549855
1690839145125237200,11.0592373046875,0.1745090101659298,-0.01799815963581204,0.015650482264813036
1690839145135278300,11.0692783203125,0.17476386170983313,-0.01636434788890183,0.007335329590458422
1690839145145318100,11.079318115234376,0.17188275331556796,-0.011350976706296204,0.017102178910467773
1690839145155358000,11.08935791015625,0.17678046222925184,-0.004723813651502132,0.014296921364543958
1690839145165398000,11.09939794921875,0.18198036895990372,-0.0053743865147233005,0.012582518662093206
1690839145175439000,11.109439208984375,0.16953355984091759,-0.004254515639320016,0.017433790051587857
1690839145185479200,11.119479248046876,0.17549743668138978,-0.01202259235754609,0.013811247606296092
1690839145195519200,11.129519287109375,0.17803017002940177,-0.008136836965382099,0.009954955770634114
1690839145205560300,11.139560302734376,0.18207506150603292,-0.006274111833423376,0.015345361838396637
1690839145215600000,11.14960009765625,0.183583712503314,-0.005667451177164912,0.014550503399968146
1690839145225640000,11.159639892578125,0.1810527327209711,-0.008631780875474214,0.007611954574752599
1690839145235680000,11.169679931640625,0.17284429182410238,-0.006394158016517758,0.004657817476894706
1690839145245721000,11.17972119140625,0.18020517598092556,-0.009896686244755983,0.01080033881990239
1690839145255779600,11.189779541015625,0.1836795740932226,-0.011239479155838488,0.014860035140020772
1690839145265820400,11.1998203125,0.17997019818127155,-0.008554404790326953,0.01933189702418167
1690839145275860500,11.209860595703125,0.17087328401207924,-0.012311200040578842,0.016551221363665537
1690839145285900500,11.219900634765626,0.17105974649488925,-0.01105572008676827,0.013980676755914464
1690839145295941600,11.229941650390625,0.186058578184247,-0.0068230509530752895,0.020340265782549976
1690839145305981400,11.2399814453125,0.17772446508109568,-0.01412299870289862,0.018763262256793676
1690839145316021500,11.250021484375,0.1785124005883932,-0.014785481199622154,0.01247097544586286
1690839145326061600,11.2600615234375,0.18468495174348354,-0.01398183666653931,0.014293281802465207
1690839145336102400,11.270102294921875,0.17320260374248025,-0.014345701542869209,0.016684113328601233
1690839145346142500,11.280142578125,0.17742635891735553,-0.017016747383028268,0.0014112733037211
1690839145356182500,11.2901826171875,0.17371698300540447,-0.017923706160113215,0.005453844959102571
1690839145366223600,11.3002236328125,0.1692360381990671,-0.019299816818907856,0.005633201847691088
1690839145376263400,11.310263427734375,0.17493863375484942,-0.010991495744138956,0.010872344610188156
1690839145386303500,11.320303466796876,0.17734627941846848,-0.017383900194987655,0.01552207924532704
1690839145396343600,11.330343505859375,0.1680816074669361,-0.014655936535820363,0.0167881262589246
1690839145406384400,11.34038427734375,0.1721241608560085,-0.012080825350806117,0.01990462344479747
1690839145416454700,11.35045458984375,0.1745212851256132,-0.019516236048564315,0.02105943776941858
1690839145426495500,11.36049560546875,0.1751145748436451,-0.026919205781444907,0.019676650774665176
1690839145436535600,11.37053564453125,0.17165829690992832,-0.02218428621403873,0.00910856807436794
1690839145446575400,11.380575439453125,0.17343991962969302,-0.017155132940411568,0.006558020508452318
1690839145456616400,11.390616455078124,0.17820552659630776,-0.016577259987220167,0.010101620532595551
1690839145466656500,11.400656494140625,0.18655775987803935,-0.02459470835663378,0.008291840297426096
1690839145476696600,11.410696533203126,0.1763467469871044,-0.016263883189111948,0.003968456106400117
1690839145486736600,11.420736572265625,0.17286650365591047,-0.01693096879571676,0.011599197580013423
1690839145496777500,11.430777587890624,0.17686755599081516,-0.012074322544783352,0.013855283110844902
1690839145506817500,11.440817626953125,0.1741302399814129,-0.013117913313582539,0.00927280502563808
1690839145516857300,11.450857421875,0.1796323445290327,-0.011772490053996443,0.010798137729661539
1690839145526898400,11.4608984375,0.18947393958568573,-0.0037017040621489285,0.010485518983379006
1690839145536938500,11.4709384765625,0.17447101624310016,-0.008563245683908462,0.006460574316233396
1690839145546978600,11.480978515625,0.17863456566333769,-0.023744667398557066,0.01342086918237619
1690839145557018600,11.4910185546875,0.18175298994481562,-0.012705460055172443,0.012469258412811905
1690839145567059500,11.5010595703125,0.17470073334574698,-0.010431962165236473,0.017178335719485766
1690839145577130500,11.511130615234375,0.18126257607936858,-0.006843801480159163,0.006738185681216418
1690839145587170600,11.521170654296874,0.18214052795767782,-0.00951820832118392,0.013188266002899036
1690839145597210400,11.53121044921875,0.1741939528673887,-0.01766768557243049,0.020852708816714582
1690839145607250400,11.54125048828125,0.17717267641723156,-0.008436696694791317,0.012788685925793833
1690839145617291500,11.55129150390625,0.17911854978799818,-0.005577873197570443,0.008681465236097573
1690839145627331600,11.56133154296875,0.17119418652951715,-0.009068930183723569,0.008686086612287909
1690839145637371600,11.57137158203125,0.1810737755089998,-0.019337153154611587,0.008510574781754985
1690839145647412500,11.58141259765625,0.17240180875360964,-0.005753814286366105,0.00988522413582541
1690839145657452500,11.59145263671875,0.17959844225943086,-0.008850392062216996,0.015402480586804448
1690839145667492400,11.601492431640626,0.1863461629539728,-0.011050240194052457,0.01084246092857793
1690839145677532400,11.611532470703125,0.1761900951206684,-0.008540376264974475,0.005975475946720689
1690839145687573500,11.621573486328124,0.1784469341367483,-0.003276902778819203,0.011934192554885521
1690839145697613600,11.631613525390625,0.17486673756241797,-0.010607610993087291,0.008135649655293673
1690839145707653600,11.641653564453126,0.17173603832125664,-0.01509403569214046,0.016015077793505042
1690839145717694500,11.651694580078125,0.17205401822924613,-0.010491145006567238,0.009012414223514497
1690839145727734500,11.661734619140624,0.1743161179423332,-0.01997479347102344,0.013391090532043017
1690839145737805600,11.6718056640625,0.18077566934525965,-0.017831278636306524,0.014304985939990729
1690839145747845400,11.681845458984375,0.17166005047559738,-0.020355390286445618,0.004221809812961146
1690839145757885400,11.691885498046876,0.16778116321563719,-0.01704984593503177,0.013950765674840658
1690839145767925500,11.701925537109375,0.17333353664577006,-0.015938742887973784,0.013660386159829795
1690839145777966600,11.711966552734374,0.1802332330316305,-0.011542553755640983,0.012803600367135367
1690839145788006700,11.722006591796875,0.17724983330667018,-0.01291822602301836,0.009451677857036702
1690839145798046500,11.73204638671875,0.17635200768411158,-0.013216405251994728,0.008617094762995839
1690839145808087600,11.742087646484375,0.17650690598487853,-0.011952522796019912,0.009055079754884354
1690839145818127400,11.75212744140625,0.18293781581521032,-0.014087854324281215,0.007674635414266958
1690839145828167400,11.76216748046875,0.17320085017681122,-0.023665830008685586,0.006850441283499821
1690839145838207500,11.77220751953125,0.18007833473086357,-0.023299919305741785,0.01820622659565415
1690839145848248600,11.78224853515625,0.1839624826878309,-0.02427519407868385,0.01589125048443675
1690839145858288600,11.79228857421875,0.18005261576771736,-0.019440248202905058,0.01908176275459118
1690839145868328400,11.802328369140625,0.18123393450677394,-0.016814941200613973,0.02036984807006083
1690839145878369500,11.81236962890625,0.17927286356687544,-0.022716639525070786,0.01940573401194997
1690839145888409600,11.82240966796875,0.1693710627555847,-0.01933496119752526,0.01660497911120765
1690839145898480400,11.83248046875,0.17219722609221935,-0.012529665096849203,0.011014008970046415
1690839145908520400,11.8425205078125,0.17651392024755477,-0.016278861562535166,0.013091911222646012
1690839145918560500,11.852560546875,0.17709318144023417,-0.008913739622011781,0.013746411342313513
1690839145928600600,11.8626005859375,0.17661796514391898,-0.007494009017199278,0.013211528147477655
1690839145938641700,11.8726416015625,0.17479601041376588,-0.010396452460438013,0.011700840456737204
1690839145948681500,11.882681396484376,0.1741816779077053,-0.01943527976684272,0.01476592254920397
1690839145958721300,11.89272119140625,0.17326280949711798,-0.013133476208895444,0.01920945338802412
1690839145968762400,11.902762451171874,0.17982757484018802,-0.011440846946835517,0.013623890074342488
1690839145978802400,11.912802490234375,0.17561375653743744,-0.01102737077511847,0.012342471961677074
1690839145988842500,11.922842529296876,0.17649580006897447,-0.009443900975957513,0.011411200727242976
1690839145998882600,11.932882568359375,0.18216916953027248,-0.01694251310303807,0.0177378007997293
1690839146008923600,11.942923583984374,0.17543080118596552,-0.012812792887166143,0.014799395560543051
1690839146018963500,11.95296337890625,0.18575170419216155,-0.015553689093142748,0.010456343121244572
1690839146029003300,11.963003173828126,0.18066227209866045,-0.0164674429371953,0.01548336380328983
1690839146039044400,11.97304443359375,0.1814145517706871,-0.009831292858347296,0.015098501804703846
1690839146049084400,11.98308447265625,0.17707272317409514,-0.009112403999269008,0.007970764250052161
1690839146059155500,11.993155517578124,0.1748351733803749,0.00012114216163754463,0.0019449509221594779
1690839146069195500,12.003195556640625,0.16990473124086855,-0.01263414838463068,0.013029705307167024
1690839146079235600,12.013235595703126,0.15839432618916033,-0.016966697696223856,0.013461603051563725
1690839146089276700,12.023276611328125,0.1759206305295229,-0.014017784762755036,0.016861533988430162
1690839146099316500,12.03331640625,0.17878186517953873,-0.009862857040390373,0.011778390071820468
1690839146109356300,12.043356201171875,0.18330138843059537,-0.017085940161719916,0.01223136713686399
1690839146119396400,12.053396240234376,0.18301029652953146,-0.0076793755214661355,0.010605158741096965
1690839146129437400,12.0634375,0.1803250029683113,-0.010549012673646212,0.015735174006735905
1690839146139477500,12.0734775390625,0.17959142799675465,-0.010353928492963313,0.014861085452791302
1690839146149517600,12.083517578125,0.1776625057607889,-0.010135828762874007,0.010431980431545525
1690839146159558700,12.09355859375,0.18096154730618,-0.013639818295836447,0.014300154501246288
1690839146169598500,12.103598388671875,0.1761854189455509,-0.013767390198260544,0.012128884009923785
1690839146179638300,12.11363818359375,0.1784375817865133,-0.01754866230264306,0.008026462792931123
1690839146189678300,12.12367822265625,0.17186521765887736,-0.0182820911437273,0.0021933727252762764
1690839146199719400,12.133719482421874,0.1771054563999176,-0.015848215060308576,0.007495214593596756
1690839146209789400,12.14378955078125,0.17679799788594244,-0.017299436781927944,0.0029403551676776257
1690839146219830500,12.15383056640625,0.16751812836527824,-0.01583805899247527,0.012561366276210174
1690839146229870600,12.16387060546875,0.17604922534525394,-0.012968641036003828,0.010259756536642088
1690839146239910700,12.17391064453125,0.16961305481791494,-0.02227064932323992,0.01652983608234208
1690839146249933600,12.18393359375,0.17080547947287558,-0.013351722069457173,0.011628971663769335
1690839146259973600,12.1939736328125,0.16961130125224588,-0.010176306903734802,0.010517402825830503
1690839146270013700,12.204013671875,0.177235220259428,-0.00923946444503963,0.007017039155215025
1690839146280053500,12.214053466796875,0.17603227421045303,-0.012014847442507743,0.014062811214569955
1690839146290094600,12.224094482421876,0.17512626528143882,-0.017818273024260995,0.006200325078004971
1690839146300134400,12.234134521484375,0.18425357458889483,-0.020516937523707746,0.008961734349047765
1690839146310174500,12.244174560546876,0.1797498334288597,-0.015315277227386832,0.007311857383325696
1690839146320215600,12.254215576171875,0.1725660594046116,-0.012177563723549245,0.005669414805388078
1690839146330255600,12.264255615234376,0.16896715812981128,-0.012269479790702462,0.007743901258194819
