time,seconds_elapsed,z,y,x
1690839134179290600,0.11329052734375,-0.002019741339609027,0.025313878431916237,0.14395317435264587
1690839134189330700,0.12333056640625,-0.005151618737727404,0.017348630353808403,0.15413178503513336
1690839134199401700,0.133401611328125,-0.008419317193329334,0.0046631949953734875,0.15509158372879028
1690839134209441500,0.143441650390625,-0.008678975515067577,-0.007363906595855951,0.14764991402626038
1690839134219481600,0.153481689453125,-0.010522415861487389,-0.014636200852692127,0.1333569884300232
1690839134229522700,0.163522705078125,-0.008972189389169216,-0.020389162003993988,0.11214970797300339
1690839134239545900,0.1735458984375,-0.0075852153822779655,-0.01792627014219761,0.08450156450271606
1690839134249586000,0.1835859375,-0.005746036302298307,-0.007297860458493233,0.055036887526512146
1690839134259626800,0.193626708984375,-0.004178233444690704,-0.0012871057260781527,0.02022138237953186
1690839134269666800,0.203666748046875,-0.002383795566856861,0.008595085702836514,-0.016052203252911568
1690839134279707000,0.213706787109375,0.00012170646368758753,0.010909372940659523,-0.04903785139322281
1690839134289747000,0.223746826171875,-0.003875964554026723,0.009492837823927402,-0.08080137521028519
1690839134299788000,0.2337880859375,-0.004210990387946367,0.004649346694350243,-0.10910598188638687
1690839134309827800,0.243827880859375,-0.005075718741863966,-0.0007744472241029143,-0.13088291883468628
1690839134319868000,0.253867919921875,-0.005527923349291086,-0.006707170978188515,-0.14538516104221344
1690839134329908700,0.26390869140625,-0.0052203284576535225,-0.008576709777116776,-0.153842031955719
1690839134339948800,0.27394873046875,-0.004366518929600716,-0.012720588594675064,-0.1574932187795639
1690839134349988900,0.28398876953125,-0.0035958001390099525,-0.010459299199283123,-0.15288275480270386
1690839134360060000,0.294059814453125,-0.004849616438150406,-0.008757006376981735,-0.1436660885810852
1690839134370100000,0.304099853515625,-0.004508731886744499,-0.007546066772192717,-0.13177134096622467
1690839134380141000,0.31414111328125,-0.005373193882405758,-0.006697850301861763,-0.11427117884159088
1690839134390180900,0.324180908203125,-0.004933239426463842,-0.004957207944244146,-0.09683892875909805
1690839134400221000,0.334220947265625,-0.004311657976359129,-0.004519384354352951,-0.07542258501052856
1690839134410261000,0.344260986328125,-0.005899967160075903,-0.00700970645993948,-0.055571649223566055
1690839134420301800,0.3543017578125,-0.005188636481761932,-0.0036253612488508224,-0.03272678703069687
1690839134430342000,0.364341796875,-0.006420881487429142,0.00044528054422698915,-0.00996288564056158
1690839134440382000,0.3743818359375,-0.004007524810731411,-0.0014117417158558965,0.013256683014333248
1690839134450423000,0.384423095703125,-0.005262406077235937,0.0007648598402738571,0.03209135681390762
1690839134460462800,0.394462890625,-0.003078880487009883,0.003433347214013338,0.050162237137556076
1690839134470503000,0.4045029296875,-0.004809668753296137,0.005358013790100813,0.06380907446146011
1690839134480543000,0.41454296875,-0.0038160434924066067,0.007355917245149612,0.07425025850534439
1690839134490583800,0.424583740234375,-0.00458729499951005,0.008281898684799671,0.08146370202302933
1690839134500624000,0.434623779296875,-0.005881058517843485,0.007078149355947971,0.08617083728313446
1690839134510664000,0.444663818359375,-0.004285026341676712,0.0051625375635921955,0.08483339846134186
1690839134520735000,0.45473486328125,-0.006077333353459835,0.001648496720008552,0.07758160680532455
1690839134530774800,0.46477490234375,-0.00606348505243659,-0.0017590179340913892,0.06695293635129929
1690839134540816000,0.47481591796875,-0.004132160916924477,-0.005465338937938213,0.05254816263914108
1690839134550856000,0.48485595703125,-0.005000617355108261,-0.006204898934811354,0.03497236594557762
1690839134560896000,0.49489599609375,-0.0051750545389950275,-0.003311640815809369,0.01465644035488367
1690839134570936000,0.50493603515625,-0.006163087207823992,-0.004180363845080137,-0.003052248852327466
1690839134580977000,0.514976806640625,-0.0054211304523050785,-0.0006969492533244193,-0.02600044198334217
1690839134591017000,0.525016845703125,-0.004563859198242426,0.0017646105261519551,-0.04641064256429672
1690839134601056800,0.535056884765625,-0.003896737238392234,-0.0007643272401764989,-0.06351186335086823
1690839134611097900,0.545097900390625,-0.0038538603112101555,-0.0010101370280608535,-0.08163706958293915
1690839134621138000,0.555137939453125,-0.0026668894570320845,-0.00033662354690022767,-0.09126120060682297
1690839134631178000,0.565177978515625,-0.002758768619969487,-0.0033193640410900116,-0.09953271597623825
1690839134641218000,0.575218017578125,-0.005647499579936266,-0.005022189114242792,-0.10266965627670288
1690839134651259000,0.5852587890625,-0.004162786994129419,-0.007933024317026138,-0.10223928838968277
1690839134661299000,0.595298828125,-0.006174805108457804,-0.005568669643253088,-0.09878996014595032
1690839134671338800,0.6053388671875,-0.005306082312017679,-0.00692022405564785,-0.08907555043697357
1690839134681409800,0.615409912109375,-0.0060387179255485535,-0.005051750224083662,-0.07709744572639465
1690839134691449900,0.625449951171875,-0.005629656370729208,-0.00561154680326581,-0.06505090743303299
1690839134701491000,0.635490966796875,-0.004078897647559643,-0.007970042526721954,-0.051960933953523636
1690839134711531000,0.645531005859375,-0.005112470127642155,-0.008167648687958717,-0.03753778710961342
1690839134721571000,0.655571044921875,-0.00424135010689497,-0.0030421288684010506,-0.023632625117897987
1690839134731611100,0.665611083984375,-0.003979827743023634,-0.0002748382103163749,-0.01185319758951664
1690839134741652000,0.67565185546875,-0.004861067980527878,-0.0009387642494402826,0.0016879114555194974
1690839134751691800,0.68569189453125,-0.004809668753296137,0.0013164004776626825,0.012478240765631199
1690839134761731800,0.69573193359375,-0.005897836294025183,0.0036615801509469748,0.02484862506389618
1690839134771773000,0.70577294921875,-0.002341717481613159,0.002287921728566289,0.03183356299996376
1690839134781813000,0.71581298828125,-0.005526325665414333,0.003805124433711171,0.037570543587207794
1690839134791853000,0.72585302734375,-0.00580755528062582,0.0011616708943620324,0.04111041873693466
1690839134801893000,0.73589306640625,-0.0041542649269104,0.0002969424531329423,0.041973281651735306
1690839134811934000,0.745933837890625,-0.004927380476146936,0.0006018743733875453,0.038489069789648056
1690839134821973800,0.755973876953125,-0.004190484061837196,-0.0021382521372288465,0.03278244659304619
1690839134832013800,0.766013916015625,-0.005868275184184313,-0.003938282374292612,0.025131452828645706
1690839134842084900,0.7760849609375,-0.004938565660268068,-0.0032085764687508345,0.015499863773584366
1690839134852125000,0.786125,-0.005253884010016918,-0.0018916432745754719,0.0008173241512849927
1690839134862166000,0.796166015625,-0.005249356850981712,-0.0033625070936977863,-0.011591941118240356
1690839134872206000,0.8062060546875,-0.0064957160502672195,-0.00048363005043938756,-0.025133049115538597
1690839134882246100,0.81624609375,-0.004829908721148968,-0.0017310547409579158,-0.036263465881347656
1690839134892287000,0.826286865234375,-0.004487426485866308,0.0003534014686010778,-0.04838031530380249
1690839134902326800,0.836326904296875,-0.0046874298714101315,-0.001392566948197782,-0.05495193228125572
1690839134912366800,0.846366943359375,-0.0038274950347840786,-0.0034237599465996027,-0.06154458597302437
1690839134922407000,0.856406982421875,-0.0028969866689294577,-0.0029587720055133104,-0.06415554881095886
1690839134932448000,0.866447998046875,-0.0036996633280068636,-0.005706355441361666,-0.0663238987326622
1690839134942488000,0.876488037109375,-0.004688761197030544,-0.006168413441628218,-0.0637454241514206
1690839134952528000,0.88652783203125,-0.006798783782869577,-0.003763046581298113,-0.06211024150252342
1690839134962569000,0.89656884765625,-0.004834436345845461,-0.003512975759804249,-0.05710296705365181
1690839134972608800,0.90660888671875,-0.00552366254851222,0.0014234596164897084,-0.04982081800699234
1690839134982648800,0.91664892578125,-0.005278385244309902,-0.002406965009868145,-0.04424469172954559
1690839134992689000,0.92668896484375,-0.004593953024595976,-0.0034115093294531107,-0.03777560964226723
1690839135002760000,0.936760009765625,-0.00395852280780673,-0.003180080559104681,-0.027415113523602486
1690839135012800000,0.946800048828125,-0.0037473340053111315,-0.0023411849979311228,-0.020127905532717705
1690839135022841000,0.956841064453125,-0.005554022267460823,-0.0007195860962383449,-0.01127901952713728
1690839135032881000,0.966880859375,-0.003992078360170126,-0.002653839997947216,-0.0029145635198801756
1690839135042920700,0.976920654296875,-0.004514324478805065,-0.0025920546613633633,0.005664277356117964
1690839135052961800,0.9869619140625,-0.005897836294025183,-0.0011150655336678028,0.011769307777285576
1690839135063001900,0.997001953125,-0.007644870318472385,-0.0024623586796224117,0.013260943815112114
1690839135073042000,1.0070419921875,-0.005317800212651491,-0.0006652576266787946,0.01745302602648735
1690839135083082000,1.01708203125,-0.006119411438703537,-0.00029108350281603634,0.015358716249465942
1690839135093123000,1.027123046875,-0.006305832881480455,0.0004146541759837419,0.012136025354266167
1690839135103163000,1.037162841796875,-0.005768406670540571,-0.0010223875287920237,0.007558051031082869
1690839135113202700,1.04720263671875,-0.00481233187019825,-0.0018413095967844129,0.004759601317346096
1690839135123243800,1.057243896484375,-0.003951598424464464,-0.002189118415117264,-0.0014452975010499358
1690839135133283800,1.067283935546875,-0.004516188520938158,-0.004267449490725994,-0.007207845337688923
1690839135143324000,1.077323974609375,-0.005883987993001938,-0.0013670006301254034,-0.011453989893198013
1690839135153364000,1.087364013671875,-0.004989165812730789,-0.0024176177103072405,-0.020844561979174614
1690839135163405000,1.097405029296875,-0.006560963578522205,-0.0013148026773706079,-0.026867832988500595
1690839135173475000,1.10747509765625,-0.00526773277670145,-0.001927595934830606,-0.032532643526792526
1690839135183516000,1.117515869140625,-0.005653624422848225,0.0008631304954178631,-0.03930293023586273
1690839135193555700,1.1275556640625,-0.005465338937938213,0.00003888214996550232,-0.04399222508072853
1690839135203595800,1.137595703125,-0.004344947170466185,-0.0032173648942261934,-0.047139547765254974
1690839135213636900,1.147636962890625,-0.003692472819238901,0.0049470881931483746,-0.0423077754676342
1690839135223677000,1.157677001953125,-0.004327903036028147,-0.0038725025951862335,-0.049620550125837326
1690839135233717000,1.167717041015625,-0.004571582190692425,-0.0041425470262765884,-0.04793743044137955
1690839135243746800,1.177746826171875,-0.005102616734802723,-0.005658951122313738,-0.04339274764060974
1690839135253787600,1.18778759765625,-0.004342284053564072,-0.0035657063126564026,-0.0399564690887928
1690839135263827700,1.19782763671875,-0.0064893243834376335,-0.002368349116295576,-0.033780068159103394
1690839135273867800,1.20786767578125,-0.004542287439107895,-0.002406432293355465,-0.02894909307360649
1690839135283908900,1.217908935546875,-0.0037151097785681486,-0.001913214917294681,-0.022458171471953392
1690839135293949000,1.227948974609375,-0.0041558630764484406,-0.000666322885081172,-0.01780429668724537
1690839135303989000,1.237989013671875,-0.0041220407001674175,-0.0015456987312063575,-0.010730940848588943
1690839135314029000,1.248029052734375,-0.00512951472774148,-0.0009813748765736818,-0.008832640014588833
1690839135324070000,1.25806982421875,-0.004123372491449118,-0.0010064085945487022,-0.006145510356873274
1690839135334140700,1.268140625,-0.004188885912299156,-0.0012596751330420375,-0.003447728231549263
1690839135344180700,1.2781806640625,-0.004358529578894377,-0.0021257351618260145,-0.001148355077020824
1690839135354220800,1.288220703125,-0.004917527083307505,-0.0034581145737320185,0.0011821772204712033
1690839135364260900,1.2982607421875,-0.005282380152493715,-0.001615473534911871,0.0010615360224619508
1690839135374302000,1.308302001953125,-0.0038245655596256256,0.0015781891997903585,0.0014413028256967664
1690839135384342000,1.318342041015625,-0.00555056007578969,0.00048070057528093457,-0.002671150490641594
1690839135394381800,1.3283818359375,-0.004989165812730789,-0.002582201035693288,-0.0055004931055009365
1690839135404422700,1.338422607421875,-0.005758286919444799,-0.0015592807903885841,-0.009184443391859531
1690839135414462700,1.348462646484375,-0.004574245307594538,-0.0027856663800776005,-0.015983493998646736
1690839135424502800,1.358502685546875,-0.0038242992013692856,-0.00210682675242424,-0.019476762041449547
1690839135434542800,1.36854296875,-0.004530303180217743,-0.0025190841406583786,-0.025119734928011894
1690839135444584000,1.378583984375,-0.005270928610116243,-0.004327903036028147,-0.029519809409976006
1690839135454624000,1.3886240234375,-0.0041468082927167416,-0.0023899206425994635,-0.031990423798561096
1690839135464664000,1.3986640625,-0.0052320463582873344,-0.002528138691559434,-0.0338628925383091
1690839135474705000,1.408704833984375,-0.004583033733069897,-0.00022317290131468326,-0.037402763962745667
1690839135484744700,1.41874462890625,-0.0027366643771529198,-0.0007275756215676665,-0.03478514403104782
1690839135494815700,1.428815673828125,-0.004030694253742695,-0.0007187871960923076,-0.03622271865606308
1690839135504855800,1.438855712890625,-0.0026351979468017817,-0.0014245248166844249,-0.033551301807165146
1690839135514896000,1.448895751953125,-0.004697283264249563,-0.0019648801535367966,-0.03266393765807152
1690839135524936000,1.45893603515625,-0.003942543640732765,-0.0023646207991987467,-0.03154966980218887
1690839135534977000,1.46897705078125,-0.0038213697262108326,-0.004028031136840582,-0.029040971770882607
1690839135545016800,1.479016845703125,-0.00538304727524519,-0.00475560687482357,-0.02888384647667408
1690839135555057000,1.489056884765625,-0.0038187066093087196,-0.0018897791160270572,-0.023990821093320847
1690839135565097700,1.49909765625,-0.004502606578171253,-0.0021699436474591494,-0.019328957423567772
1690839135575137800,1.5091376953125,-0.005735650192946196,-0.0010375675046816468,-0.014483069069683552
1690839135585177900,1.519177734375,-0.004474110435694456,-0.00009321063407696784,-0.014165087603032589
1690839135595218000,1.529218017578125,-0.0043808999471366405,-0.0005701828049495816,-0.011393269523978233
1690839135605259000,1.539259033203125,-0.005642971955239773,0.0004114583716727793,-0.008496815338730812
1690839135615299000,1.549299072265625,-0.005634982604533434,-0.00043276368523947895,-0.004838164895772934
1690839135625339000,1.5593388671875,-0.005530852824449539,-0.0021843246649950743,-0.0076006618328392506
1690839135635379700,1.569379638671875,-0.004793956410139799,-0.0019499665359035134,-0.0059598879888653755
1690839135645419800,1.579419677734375,-0.005579322576522827,-0.00108284130692482,-0.009710684418678284
1690839135655490800,1.58949072265625,-0.0043867588974535465,-0.0005510080372914672,-0.009364207275211811
1690839135665531000,1.59953076171875,-0.004620051942765713,-0.00039601203752681613,-0.013624466024339199
1690839135675571000,1.609571044921875,-0.004896754398941994,0.00010865696822293103,-0.01543221902102232
1690839135685610800,1.61961083984375,-0.004580104257911444,-0.00101146858651191,-0.01973029598593712
1690839135695651800,1.62965185546875,-0.0046304380521178246,-0.0005480785621330142,-0.0203366968780756
1690839135705692000,1.63969189453125,-0.005557218100875616,0.0005227785441093147,-0.022225411608815193
1690839135715732000,1.64973193359375,-0.003153981640934944,-0.0033859428949654102,-0.025379126891493797
1690839135725772800,1.659772705078125,-0.00364666641689837,-0.0019598202779889107,-0.027757594361901283
1690839135735812900,1.669812744140625,-0.0048437574878335,-0.0007371630053967237,-0.030493460595607758
1690839135745853000,1.67985302734375,-0.003970507066696882,-0.0034756914246827364,-0.029978139325976372
1690839135755892700,1.689892822265625,-0.004434163216501474,-0.0026069683954119682,-0.028437767177820206
1690839135765934000,1.69993408203125,-0.0051659997552633286,-0.002204830991104245,-0.02972886711359024
1690839135775974000,1.709973876953125,-0.005636580288410187,-0.0027411917690187693,-0.027722440659999847
1690839135786014000,1.720013916015625,-0.0056949034333229065,-0.00024767397553659976,-0.027361050248146057
1690839135796054800,1.7300546875,-0.0052027516067028046,-0.0010759170399978757,-0.027776503935456276
1690839135806094800,1.7400947265625,-0.002886333968490362,-0.0018216022290289402,-0.024034496396780014
1690839135816166000,1.750165771484375,-0.0034442662727087736,-0.003563842037692666,-0.024019848555326462
1690839135826206000,1.7602060546875,-0.006677077617496252,-0.0017667410429567099,-0.01944267377257347
1690839135836245800,1.770245849609375,-0.005244562868028879,-0.002335592173039913,-0.019344935193657875
1690839135846286800,1.780286865234375,-0.004611796233803034,-0.003031476167961955,-0.01666153408586979
1690839135856327000,1.790326904296875,-0.004031759686768055,-0.003766775131225586,-0.014187191613018513
1690839135866367000,1.800366943359375,-0.004845887888222933,0.0014884406700730324,-0.012253737077116966
1690839135876406800,1.81040673828125,-0.005932724103331566,-0.0011179950088262558,-0.011589543893933296
1690839135886447900,1.82044775390625,-0.0049225869588553905,-0.0010905644157901406,-0.013494503684341908
1690839135896488000,1.830488037109375,-0.005191300064325333,-0.0021254688035696745,-0.015392005443572998
1690839135906527700,1.84052783203125,-0.005366802215576172,-0.00321816373616457,-0.01607217639684677
1690839135916568800,1.85056884765625,-0.004561728797852993,-0.00375958438962698,-0.016325443983078003
1690839135926609000,1.86060888671875,-0.005660016089677811,-0.001549959764815867,-0.01842135190963745
1690839135936649000,1.87064892578125,-0.004801679402589798,-0.0026695525739341974,-0.018078869208693504
1690839135946688800,1.880688720703125,-0.004679972771555185,0.0010660634143278003,-0.018871691077947617
1690839135956729900,1.890729736328125,-0.005667206831276417,-0.0007776430575177073,-0.01895132102072239
1690839135966770000,1.90077001953125,-0.004369981121271849,-0.0002537992550060153,-0.019821641966700554
1690839135976841000,1.910841064453125,-0.0037856835406273603,-0.0028690234757959843,-0.018457038328051567
1690839135986880800,1.920880859375,-0.004942294210195541,-0.002103098202496767,-0.01992630399763584
1690839135996920800,1.9309208984375,-0.005072789266705513,-0.005116198677569628,-0.02478311024606228
1690839136006962000,1.9409619140625,-0.006121009588241577,-0.004514324478805065,-0.025795910507440567
1690839136017002000,1.951001953125,-0.004789961501955986,-0.005294098053127527,-0.026338130235671997
1690839136027041800,1.961041748046875,-0.004719654098153114,-0.002454369328916073,-0.026329874992370605
1690839136037081900,1.971081787109375,-0.004194478504359722,-0.0005328985280357301,-0.027754666283726692
1690839136047123000,1.981123046875,-0.006116215605288744,-0.00023622238950338215,-0.02641935646533966
1690839136057162800,1.991162841796875,-0.004818457178771496,-0.0003832288784906268,-0.026071015745401382
1690839136067202800,2.001202880859375,-0.005374525208026171,-0.000017310547264060006,-0.02304300107061863
1690839136077244000,2.011243896484375,-0.004588626325130463,-0.0017710020765662193,-0.020119382068514824
1690839136087284000,2.021283935546875,-0.005014998838305473,-0.003425357863306999,-0.020796358585357666
1690839136097323800,2.03132373046875,-0.004312989301979542,-0.0007997472421266139,-0.02184031717479229
1690839136107363800,2.04136376953125,-0.0030951257795095444,-0.003269829088822007,-0.019816048443317413
1690839136117405000,2.051405029296875,-0.004477572627365589,-0.004803277086466551,-0.018579009920358658
1690839136127445000,2.061445068359375,-0.0065258098766207695,-0.0015981629258021712,-0.0158292967826128
1690839136137515800,2.071515869140625,-0.004860268905758858,-0.0014226606581360102,-0.017895642668008804
1690839136147555800,2.081555908203125,-0.0049470881931483746,0.00034461304312571883,-0.015723569318652153
1690839136157596000,2.091595947265625,-0.00395639194175601,-0.0006162554491311312,-0.01697685196995735
1690839136167637000,2.101636962890625,-0.005881058517843485,0.000014647385796706658,-0.018760638311505318
1690839136177676800,2.1116767578125,-0.0038213697262108326,-0.00013688647595699877,-0.016334764659404755
1690839136187716900,2.121716796875,-0.0032021848019212484,0.0009291769238188863,-0.016581906005740166
1690839136197756700,2.131756591796875,-0.005614742636680603,0.0005480785621330142,-0.01743944361805916
1690839136207797800,2.1417978515625,-0.00424268189817667,-0.0031121699139475822,-0.015380553901195526
1690839136217837800,2.151837890625,-0.003988882526755333,-0.004791825544089079,-0.018128138035535812
1690839136227878000,2.1618779296875,-0.0051657333970069885,-0.006880010478198528,-0.021455490961670876
1690839136237919000,2.1719189453125,-0.00777669670060277,-0.005554554983973503,-0.02172500267624855
1690839136247967700,2.1819677734375,-0.004831240512430668,-0.0030269487760961056,-0.020904749631881714
1690839136258007600,2.192007568359375,-0.00447038235142827,-0.0027379959356039762,-0.024564465507864952
1690839136268047600,2.202047607421875,-0.004474643152207136,0.0007163903210312128,-0.024450747296214104
1690839136278088400,2.21208837890625,-0.00375958438962698,0.0017867147689685225,-0.022289326414465904
1690839136288128500,2.22212841796875,-0.004235757514834404,0.0032469260040670633,-0.022701850160956383
1690839136298199600,2.232199462890625,-0.004917793441563845,0.0010764497565105557,-0.02305684983730316
1690839136308239600,2.242239501953125,-0.006820089183747768,-0.001683916780166328,-0.02328934334218502
1690839136318279400,2.252279541015625,-0.0033984598703682423,-0.0024506407789885998,-0.02263101004064083
1690839136328320500,2.262320556640625,-0.004879177547991276,-0.003079413203522563,-0.023060312494635582
1690839136338360600,2.272360595703125,-0.00628932099789381,-0.0065497783944010735,-0.02377190813422203
1690839136348400600,2.282400634765625,-0.00541394017636776,-0.004820853937417269,-0.020082365721464157
1690839136358441500,2.29244140625,-0.006668821442872286,-0.005775597412139177,-0.020486898720264435
1690839136368481500,2.3024814453125,-0.0037531929556280375,-0.0021225393284112215,-0.02064642310142517
1690839136378521600,2.312521484375,-0.0041217743419110775,-0.0022149509750306606,-0.019527629017829895
1690839136388561700,2.322561767578125,-0.0038717035204172134,0.0019883159548044205,-0.019704462960362434
1690839136398602800,2.332602783203125,-0.005939381662756205,0.0016413062112405896,-0.01732013374567032
1690839136408642600,2.342642578125,-0.0043715788051486015,0.0034903388004750013,-0.016710270196199417
1690839136418682600,2.3526826171875,-0.0036996633280068636,0.001430916483514011,-0.016531039029359818
1690839136428723500,2.362723388671875,-0.00447011599317193,-0.00021971078240312636,-0.01702319271862507
1690839136438763500,2.372763427734375,-0.004811000544577837,-0.002644518855959177,-0.017797373235225677
1690839136448803600,2.382803466796875,-0.0039145806804299355,-0.002142246812582016,-0.0197281651198864
1690839136458874600,2.39287451171875,-0.005309277679771185,-0.003180346917361021,-0.0184053722769022
1690839136468914400,2.40291455078125,-0.004043743945658207,-0.004627774935215712,-0.019836289808154106
1690839136478954500,2.41295458984375,-0.004773982334882021,-0.0035151063930243254,-0.019902868196368217
1690839136488995600,2.42299560546875,-0.004552141297608614,-0.003753991797566414,-0.02183366008102894
1690839136499035600,2.43303564453125,-0.004012318328022957,-0.0021667478140443563,-0.021321799606084824
1690839136509075700,2.44307568359375,-0.004192880820482969,-0.0007976167253218591,-0.022223014384508133
1690839136519116500,2.453116455078125,-0.004014182835817337,-0.0007352987886406481,-0.020298080518841743
1690839136529156600,2.463156494140625,-0.004293282050639391,0.0010793792316690087,-0.02075428143143654
1690839136539196700,2.47319677734375,-0.004172907210886478,0.000480434246128425,-0.022699985653162003
1690839136549236500,2.483236572265625,-0.00358807691372931,0.0003201119543518871,-0.022660572081804276
1690839136559277600,2.493277587890625,-0.004535363521426916,-0.0016674051294103265,-0.022058963775634766
1690839136569317600,2.503317626953125,-0.004729773849248886,-0.0011233213590458035,-0.021521270275115967
1690839136579357700,2.513357666015625,-0.0052197957411408424,-0.0026794064324349165,-0.024057665839791298
1690839136589398500,2.5233984375,-0.004244812298566103,-0.004334561061114073,-0.02088291198015213
1690839136599438600,2.5334384765625,-0.003681021276861429,-0.0049398974515497684,-0.020661335438489914
1690839136609478700,2.543478759765625,-0.00490181427448988,-0.006054962985217571,-0.021676532924175262
1690839136619549400,2.553549560546875,-0.005905027035623789,-0.009440906345844269,-0.02298973873257637
1690839136629589500,2.563589599609375,-0.00564030883833766,-0.006178267300128937,-0.025844113901257515
1690839136639630600,2.573630615234375,-0.00370126124471426,-0.003620833856984973,-0.022727416828274727
1690839136649670700,2.583670654296875,-0.004081028047949076,0.004542820155620575,-0.017312144860625267
1690839136659710700,2.593710693359375,-0.0046301716938614845,0.012232164852321148,-0.012080364860594273
1690839136669750800,2.603750732421875,-0.0029031119775027037,0.018028801307082176,-0.012553342618048191
1690839136679791600,2.61379150390625,-0.0026666230987757444,0.014109959825873375,-0.01375096570700407
1690839136689831700,2.623831787109375,-0.00213638786226511,0.003337739733979106,-0.016708672046661377
1690839136699871500,2.63387158203125,-0.004750014282763004,-0.015418371185660362,-0.023987891152501106
1690839136709911600,2.64391162109375,-0.006658701691776514,-0.03153448924422264,-0.02882685512304306
1690839136719952600,2.65395263671875,-0.006803577765822411,-0.0370568223297596,-0.028495557606220245
1690839136729992700,2.66399267578125,-0.007354851812124252,-0.032234370708465576,-0.028299281373620033
1690839136740032800,2.67403271484375,-0.006228334736078978,-0.015140603296458721,-0.026397785171866417
1690839136750073600,2.684073486328125,-0.005558549892157316,0.010217484086751938,-0.020659739151597023
1690839136760113700,2.69411376953125,-0.0048826392740011215,0.03159654140472412,-0.019634954631328583
1690839136770153500,2.704153564453125,-0.0015161376213654876,0.047208525240421295,-0.014123808592557907
1690839136780224500,2.714224609375,-0.00024714134633541107,0.040158070623874664,-0.01161830686032772
1690839136790264600,2.7242646484375,-0.0007470166892744601,0.02707209810614586,-0.011402856558561325
1690839136800305700,2.7343056640625,-0.001261273049749434,0.0016642092959955335,-0.011173292063176632
1690839136810345700,2.744345703125,-0.0016293219523504376,-0.02827371656894684,-0.017904965206980705
1690839136820385800,2.7543857421875,-0.007812116760760546,-0.05294763669371605,-0.021952969953417778
1690839136830425900,2.76442578125,-0.012678776867687702,-0.06366632878780365,-0.025555428117513657
1690839136840466700,2.774466796875,-0.011725365184247494,-0.05329731106758118,-0.027761323377490044
1690839136850506500,2.784506591796875,-0.01296560000628233,-0.026165291666984558,-0.028427911922335625
1690839136860546600,2.794546630859375,-0.007908789440989494,0.011041732504963875,-0.029517944902181625
1690839136870587600,2.804587646484375,-0.004600078333169222,0.04734008386731148,-0.02768116258084774
1690839136880627700,2.814627685546875,0.0003121224872302264,0.06975271552801132,-0.023137276992201805
1690839136890667800,2.824667724609375,0.005881591234356165,0.06738223880529404,-0.019152922555804253
1690839136900707800,2.834707763671875,0.0054240599274635315,0.045333925634622574,-0.01709483005106449
1690839136910748700,2.844748779296875,0.0031260184478014708,0.009704026393592358,-0.017460748553276062
1690839136920788500,2.85478857421875,-0.000663393409922719,-0.03131398186087608,-0.01732226461172104
1690839136930828500,2.86482861328125,-0.008087754249572754,-0.06327111274003983,-0.01769563928246498
1690839136940899600,2.874899658203125,-0.013018330559134483,-0.07879601418972015,-0.01896463707089424
1690839136950939600,2.884939697265625,-0.015916116535663605,-0.0730835348367691,-0.01942935772240162
1690839136960980700,2.894980712890625,-0.015969645231962204,-0.04014475643634796,-0.019094333052635193
1690839136971020800,2.905020751953125,-0.010528008453547955,0.004486361052840948,-0.020077038556337357
1690839136981060600,2.915060546875,-0.005682120565325022,0.04585244134068489,-0.01860084757208824
1690839136991100700,2.9251005859375,0.003409911412745714,0.06907787173986435,-0.018017083406448364
1690839137001141500,2.9351416015625,0.005270662251859903,0.07271894812583923,-0.019816581159830093
1690839137011181600,2.945181640625,0.008024370297789574,0.05591360107064247,-0.01726367510855198
1690839137021221600,2.9552216796875,0.005490372888743877,0.01932656019926071,-0.01793026365339756
1690839137031262700,2.9652626953125,-0.0011651329696178436,-0.02159903571009636,-0.021412614732980728
1690839137041302800,2.975302734375,-0.005506884306669235,-0.056474726647138596,-0.020374247804284096
1690839137051342800,2.9853427734375,-0.013398895971477032,-0.0768047645688057,-0.022894131019711494
1690839137061382700,2.995382568359375,-0.016811737790703773,-0.07221294194459915,-0.021520737558603287
1690839137071423500,3.005423583984375,-0.01818033494055271,-0.048336904495954514,-0.023572703823447227
1690839137081463600,3.015463623046875,-0.012268117628991604,-0.007421431131660938,-0.02286723256111145
1690839137091503600,3.025503662109375,-0.006433132104575634,0.03513908013701439,-0.022242721170186996
1690839137101574700,3.03557470703125,0.000291616132017225,0.061892397701740265,-0.019518574699759483
1690839137111614700,3.04561474609375,0.005628058221191168,0.06919638067483902,-0.01823120191693306
1690839137121655800,3.05565576171875,0.009678726084530354,0.055506400763988495,-0.017664214596152306
1690839137131695600,3.065695556640625,0.005054946057498455,0.02473810315132141,-0.017601629719138145
1690839137141735700,3.075735595703125,-0.00038642468280158937,-0.013962420634925365,-0.017421068623661995
1690839137151775500,3.085775390625,-0.0052019525319337845,-0.0476444847881794,-0.01763678342103958
1690839137161816600,3.095816650390625,-0.013200224377214909,-0.0670783668756485,-0.01932283118367195
1690839137171856600,3.105856689453125,-0.016624515876173973,-0.06424663215875626,-0.019459718838334084
1690839137181896700,3.115896728515625,-0.018555840477347374,-0.0449400432407856,-0.022717829793691635
1690839137191937800,3.125937744140625,-0.01254189107567072,-0.012329903431236744,-0.0201641246676445
1690839137201977900,3.135977783203125,-0.005939648021012545,0.023124493658542633,-0.021335115656256676
1690839137212017700,3.146017578125,0.0015270565636456013,0.04940563440322876,-0.024173246696591377
1690839137222057500,3.156057373046875,0.005525526590645313,0.057085923850536346,-0.024090155959129333
1690839137232098600,3.1660986328125,0.009062204509973526,0.04535496607422829,-0.023799605667591095
1690839137242115600,3.176115478515625,0.0065436530858278275,0.02219371870160103,-0.022611303254961967
1690839137252155600,3.18615576171875,-0.0004247741890139878,-0.005603823345154524,-0.022169750183820724
1690839137262226700,3.196226806640625,-0.00768801337108016,-0.03393133357167244,-0.023065904155373573
1690839137272266500,3.2062666015625,-0.012443353421986103,-0.05251993238925934,-0.021506091579794884
1690839137282307300,3.216307373046875,-0.016331834718585014,-0.055680304765701294,-0.02099156752228737
1690839137292347400,3.226347412109375,-0.01594647578895092,-0.038725290447473526,-0.02089116722345352
1690839137302387500,3.236387451171875,-0.01128088403493166,-0.011966114863753319,-0.01950152963399887
1690839137312428500,3.246428466796875,-0.006706372369080782,0.014948589727282524,-0.017965152859687805
1690839137322468600,3.256468505859375,0.00020453077740967274,0.036128442734479904,-0.019043466076254845
1690839137332508700,3.2665087890625,0.004566522315144539,0.043103527277708054,-0.017461813986301422
1690839137342548700,3.276548828125,0.004995024763047695,0.037158552557229996,-0.017705760896205902
1690839137352589600,3.286589599609375,0.004868790972977877,0.018373414874076843,-0.014791728928685188
1690839137362629400,3.29662939453125,-0.00166607357095927,-0.0036916739773005247,-0.012299543246626854
1690839137372669400,3.30666943359375,-0.0075998627580702305,-0.027470506727695465,-0.014615427702665329
1690839137382710500,3.31671044921875,-0.012414325028657913,-0.041119739413261414,-0.014786935411393642
1690839137392750600,3.32675048828125,-0.012752813287079334,-0.04030534625053406,-0.016955547034740448
1690839137402790700,3.336790771484375,-0.01426202617585659,-0.029952839016914368,-0.020145747810602188
1690839137412861700,3.34686181640625,-0.009825732558965683,-0.009256082586944103,-0.02105282060801983
1690839137422901500,3.356901611328125,-0.0056741307489573956,0.012510199099779129,-0.023241672664880753
1690839137432941300,3.36694140625,0.0002348908019484952,0.02623586542904377,-0.024815866723656654
1690839137442982400,3.376982421875,0.00361817074008286,0.03143169358372688,-0.028422053903341293
1690839137453022500,3.3870224609375,0.004502606578171253,0.027588484808802605,-0.025179389864206314
1690839137463062500,3.3970625,0.000544350128620863,0.013232714496552944,-0.02588486112654209
1690839137473103600,3.407103515625,-0.00344586418941617,-0.004569984506815672,-0.023623038083314896
1690839137483143700,3.417143798828125,-0.008984706364572048,-0.02394448034465313,-0.02400839701294899
1690839137493183500,3.42718359375,-0.010573281906545162,-0.032105207443237305,-0.024156467989087105
1690839137503223300,3.437223388671875,-0.012624981813132763,-0.03068574145436287,-0.02279985509812832
1690839137513264400,3.447264404296875,-0.010102701373398304,-0.021256286650896072,-0.02383529208600521
1690839137523304400,3.457304443359375,-0.008023837581276894,-0.009824933484196663,-0.024382038041949272
1690839137533344500,3.467344482421875,-0.003044259501621127,0.007558317389339209,-0.022668560966849327
1690839137543385600,3.477385498046875,-0.001019990653730929,0.020747089758515358,-0.020084494724869728
1690839137553425700,3.48742578125,0.00021385183208622038,0.025482190772891045,-0.02008875645697117
1690839137563465500,3.497465576171875,0.0010077401529997587,0.01949487254023552,-0.019041068851947784
1690839137573536500,3.50753662109375,-0.0013230583863332868,0.008592156693339348,-0.015037539415061474
1690839137583576300,3.517576416015625,-0.004732171073555946,-0.005091963801532984,-0.017058080062270164
1690839137593617400,3.527617431640625,-0.006128199864178896,-0.017258882522583008,-0.017117999494075775
1690839137603657500,3.537657470703125,-0.008383897133171558,-0.027163177728652954,-0.016578176990151405
1690839137613697500,3.547697509765625,-0.008029164746403694,-0.024766866117715836,-0.017005614936351776
1690839137623737600,3.557737548828125,-0.007714645005762577,-0.017740914598107338,-0.015566443093121052
1690839137633778700,3.56777880859375,-0.005587311927229166,-0.005412076134234667,-0.018924156203866005
1690839137643818500,3.577818603515625,-0.0036336169578135014,0.005898369010537863,-0.01913454569876194
1690839137653858300,3.5878583984375,-0.0016951019642874599,0.017597369849681854,-0.021880265325307846
1690839137663898400,3.5978984375,0.00046818371629342437,0.018743593245744705,-0.021319668740034103
1690839137673939500,3.607939453125,-0.00044767739018425345,0.014374145306646824,-0.02207334339618683
1690839137683979500,3.6179794921875,-0.001517469179816544,0.00544430036097765,-0.021443773061037064
1690839137694019600,3.62801953125,-0.005659483373165131,-0.006972155533730984,-0.020894896239042282
1690839137704060700,3.638060791015625,-0.006607036106288433,-0.01613156497478485,-0.02274259738624096
1690839137714100500,3.6481005859375,-0.008665126748383045,-0.01925119198858738,-0.02195722982287407
1690839137724140300,3.658140380859375,-0.007440872024744749,-0.01936863735318184,-0.022490395233035088
1690839137734211300,3.66821142578125,-0.0070704263634979725,-0.010513360612094402,-0.023498134687542915
1690839137744251400,3.67825146484375,-0.005483714863657951,-0.0011616708943620324,-0.02358575351536274
1690839137754292500,3.68829248046875,-0.0034993935842067003,0.00814927276223898,-0.022654978558421135
1690839137764332500,3.69833251953125,-0.0021632856223732233,0.011451059952378273,-0.02327735908329487
1690839137774372600,3.70837255859375,-0.0012061456218361855,0.014582404866814613,-0.02226908691227436
1690839137784412400,3.718412353515625,-0.0015957661671563983,0.008723184466362,-0.022490661591291428
1690839137794453500,3.72845361328125,-0.004200071096420288,0.00027057717670686543,-0.02226615697145462
1690839137804493300,3.738493408203125,-0.00660543842241168,-0.008741825819015503,-0.019720440730452538
1690839137814533400,3.748533447265625,-0.008783637546002865,-0.01709136925637722,-0.019088473170995712
1690839137824574500,3.758574462890625,-0.005781190004199743,-0.010310694575309753,-0.01594860665500164
1690839137834614500,3.768614501953125,-0.0062491074204444885,-0.011806858703494072,-0.018499648198485374
1690839137844654600,3.778654541015625,-0.005350024439394474,-0.006381732877343893,-0.019105518236756325
1690839137854694700,3.788694580078125,-0.005118062719702721,0.0007036071619950235,-0.020297015085816383
1690839137864735500,3.798735595703125,-0.0035776905715465546,0.007496265694499016,-0.020074108615517616
1690839137874775300,3.808775390625,-0.0023393207229673862,0.009761284105479717,-0.0191957987844944
1690839137884815400,3.8188154296875,-0.0018069547368213534,0.007665643002837896,-0.01938728056848049
1690839137894886400,3.828886474609375,-0.00510021997615695,0.005333246197551489,-0.015354721806943417
1690839137904926500,3.838926513671875,-0.004798217210918665,-0.00452790642157197,-0.018564896658062935
1690839137914967600,3.848967529296875,-0.006318349856883287,-0.008085357025265694,-0.016291888430714607
1690839137925007600,3.859007568359375,-0.0076243639923632145,-0.012043613009154797,-0.01925225742161274
1690839137935047400,3.86904736328125,-0.007501325570046902,-0.013054815120995045,-0.019993947818875313
1690839137945087500,3.87908740234375,-0.005331914871931076,-0.009007076732814312,-0.021377993747591972
1690839137955128300,3.88912841796875,-0.006458431947976351,-0.0033161682076752186,-0.022113824263215065
1690839137965168400,3.89916845703125,-0.004197407979518175,0.00307675008662045,-0.022582806646823883
1690839137975208400,3.90920849609375,-0.003291134489700198,0.004817125853151083,-0.02251409739255905
1690839137985249500,3.91924951171875,-0.0032988577149808407,0.007417968939989805,-0.022106101736426353
1690839137995289600,3.92928955078125,-0.0032836776226758957,0.004187021870166063,-0.02383342757821083
1690839138005329700,3.93932958984375,-0.0057162088342010975,0.001047154888510704,-0.020711136981844902
1690839138015369500,3.949369384765625,-0.005875465925782919,-0.002772350562736392,-0.020236030220985413
1690839138025410300,3.959410400390625,-0.006362824235111475,-0.010129333473742008,-0.020833643153309822
1690839138035450400,3.969450439453125,-0.0068448567762970924,-0.007568437606096268,-0.02201635204255581
1690839138045490400,3.979490478515625,-0.0064863949082791805,-0.008154598996043205,-0.02159743756055832
1690839138055561500,3.9895615234375,-0.0051984903402626514,-0.005714344792068005,-0.021138574928045273
1690839138065601500,3.9996015625,-0.0027859327383339405,-0.0014586133183911443,-0.02184591069817543
1690839138075642600,4.009642578125,-0.002639458980411291,0.001079911831766367,-0.02203366346657276
1690839138085682400,4.019682373046875,-0.004624579101800919,0.0041156490333378315,-0.02219931222498417
1690839138095722500,4.029722412109375,-0.00449994346126914,0.004807005636394024,-0.01937875710427761
1690839138105763300,4.039763427734375,-0.0032589102629572153,0.0037710361648350954,-0.021375862881541252
1690839138115803400,4.049803466796875,-0.005528722424060106,-0.0035143073182553053,-0.02004028670489788
1690839138125843500,4.059843505859375,-0.004199006129056215,-0.00523710623383522,-0.019569706171751022
1690839138135883500,4.069883544921875,-0.004997421521693468,-0.008836368098855019,-0.01883014664053917
1690839138145924600,4.079924560546875,-0.0041220407001674175,-0.00777696305885911,-0.019524965435266495
1690839138155964700,4.089964599609375,-0.005665342323482037,-0.005368932615965605,-0.019150525331497192
1690839138166004500,4.10000439453125,-0.005020857788622379,-0.004205664154142141,-0.022350046783685684
1690839138176044500,4.11004443359375,-0.004384894855320454,-0.002700977958738804,-0.019890617579221725
1690839138186085400,4.12008544921875,-0.005306880921125412,0.002174204681068659,-0.019403791055083275
1690839138196125400,4.13012548828125,-0.002752376953139901,0.0029862024821341038,-0.021882928907871246
1690839138206165500,4.14016552734375,-0.004283161833882332,0.0028929917607456446,-0.019168367609381676
1690839138216236500,4.150236572265625,-0.004188619554042816,-0.0009054747642949224,-0.01979154720902443
1690839138226276400,4.1602763671875,-0.004820321686565876,-0.0036764938849955797,-0.021887721493840218
1690839138236317400,4.1703173828125,-0.004738030023872852,-0.005958023946732283,-0.01895877718925476
1690839138246364700,4.18036474609375,-0.005218996666371822,-0.005453088786453009,-0.018862104043364525
1690839138256404700,4.19040478515625,-0.006629939656704664,-0.003855458227917552,-0.023684823885560036
1690839138266445600,4.200445556640625,-0.0035864789970219135,-0.005889314226806164,-0.021918615326285362
1690839138276485400,4.2104853515625,-0.0037092508282512426,-0.0024261397775262594,-0.01974148117005825
1690839138286525400,4.220525390625,-0.0036858150269836187,-0.0003531351685523987,-0.02160196378827095
1690839138296565500,4.2305654296875,-0.004614192992448807,0.0011086739832535386,-0.020963072776794434
1690839138306606600,4.240606689453125,-0.004083957523107529,-0.0011044129496440291,-0.020241621881723404
1690839138316646700,4.250646728515625,-0.004865062423050404,-0.0016306535108014941,-0.0205185916274786
1690839138326686700,4.260686767578125,-0.005247492343187332,-0.0034818167332559824,-0.018793927505612373
1690839138336727600,4.2707275390625,-0.005049886181950569,-0.003270095447078347,-0.019098326563835144
1690839138346767400,4.280767333984375,-0.004037352278828621,-0.0017177389236167073,-0.018802449107170105
1690839138356807400,4.290807373046875,-0.004927380476146936,-0.003483148291707039,-0.01985919289290905
1690839138366847500,4.300847412109375,-0.003870371961966157,-0.004823251161724329,-0.020410733297467232
1690839138376918500,4.31091845703125,-0.005629123654216528,-0.003861583536490798,-0.01895930990576744
1690839138386958600,4.32095849609375,-0.005036836490035057,-0.0021172130946069956,-0.021265340968966484
1690839138396999700,4.330999755859375,-0.0027443873696029186,-0.0015811186749488115,-0.01715981215238571
1690839138407039700,4.341039794921875,-0.004460262134671211,-0.0005848301807418466,-0.019658656790852547
1690839138417079600,4.35107958984375,-0.0038807583041489124,-0.0013781858142465353,-0.021164674311876297
1690839138427120400,4.361120361328125,-0.0057316552847623825,-0.0009853695519268513,-0.019703663885593414
1690839138437160400,4.371160400390625,-0.004795021377503872,-0.000943025341257453,-0.018922291696071625
1690839138447200500,4.381200439453125,-0.0043742419220507145,-0.002240251051262021,-0.020304473116993904
1690839138457240600,4.391240478515625,-0.003971838392317295,-0.003852528752759099,-0.022159630432724953
1690839138467281700,4.40128173828125,-0.004840828012675047,-0.0031670311000198126,-0.021568408235907555
1690839138477321700,4.41132177734375,-0.00478410255163908,-0.003032541600987315,-0.021767079830169678
1690839138487361500,4.421361572265625,-0.004670652095228434,-0.003736414946615696,-0.021160678938031197
1690839138497402400,4.43140234375,-0.006536728702485561,-0.0026402578223496675,-0.02070607803761959
1690839138507442400,4.4414423828125,-0.003980094101279974,-0.002144909929484129,-0.021526863798499107
1690839138517482500,4.451482421875,-0.004735899157822132,-0.0015941682504490018,-0.020654411986470222
1690839138527522600,4.4615224609375,-0.002892725635319948,-0.0013638047967106104,-0.018749985843896866
1690839138537593600,4.471593505859375,-0.0029084382113069296,0.001401355373673141,-0.020957212895154953
1690839138547634700,4.481634765625,-0.004006193019449711,-0.0024591628462076187,-0.020833909511566162
1690839138557674800,4.4916748046875,-0.003921770956367254,-0.0015986956423148513,-0.020959077402949333
1690839138567714600,4.501714599609375,-0.005393433850258589,-0.0020184097811579704,-0.021922875195741653
1690839138577754600,4.511754638671875,-0.003907389938831329,-0.003151052165776491,-0.019244268536567688
1690839138587795500,4.52179541015625,-0.006807838566601276,-0.004180896561592817,-0.02015000954270363
1690839138597835500,4.53183544921875,-0.0054541537538170815,-0.0027949875220656395,-0.019344668835401535
1690839138607875600,4.54187548828125,-0.004540423396974802,-0.003288471372798085,-0.020779047161340714
1690839138617916700,4.551916748046875,-0.003861050819978118,-0.0020178770646452904,-0.02050767093896866
1690839138627956700,4.561956787109375,-0.00452764006331563,-0.0022599585354328156,-0.020605675876140594
1690839138637996500,4.57199658203125,-0.006191583350300789,-0.00044821001938544214,-0.019655460491776466
1690839138648036400,4.582036376953125,-0.005299690645188093,0.00015526228526141495,-0.019412845373153687
1690839138658077400,4.592077392578125,-0.0033931334037333727,-0.0010703244479373097,-0.020012058317661285
1690839138668117500,4.602117431640625,-0.004029895178973675,-0.002662894781678915,-0.020769992843270302
1690839138678157600,4.612157470703125,-0.005560680292546749,-0.0049132658168673515,-0.020387830212712288
1690839138688197600,4.62219775390625,-0.004740959499031305,-0.0025683525018393993,-0.01907702162861824
1690839138698268700,4.6322685546875,-0.004054662771522999,-0.002907639369368553,-0.02057851105928421
1690839138708309800,4.642309814453125,-0.00566827179864049,-0.0037228327710181475,-0.020192086696624756
1690839138718349600,4.652349609375,-0.004795021377503872,-0.002974218223243952,-0.020805945619940758
1690839138728389400,4.662389404296875,-0.003760383464396,-0.00044554684427566826,-0.018755044788122177
1690839138738429400,4.672429443359375,-0.005351888481527567,0.0003028014034498483,-0.018929749727249146
1690839138748470500,4.682470458984375,-0.006765228230506182,-0.0010298443958163261,-0.02075348235666752
1690839138758510600,4.692510498046875,-0.004959871061146259,-0.0006535397260449827,-0.021941518411040306
1690839138768550700,4.702550537109375,-0.004117247182875872,0.0005795038305222988,-0.022039255127310753
1690839138778591700,4.712591796875,-0.005511411931365728,-0.002261822810396552,-0.022545255720615387
1690839138788631600,4.722631591796875,-0.004602208733558655,-0.0014066817238926888,-0.021826468408107758
1690839138798671400,4.73267138671875,-0.005374525208026171,-0.002436792477965355,-0.020926853641867638
1690839138808711400,4.74271142578125,-0.004191282670944929,-0.0034522556234151125,-0.021818745881319046
1690839138818752500,4.75275244140625,-0.005258145276457071,-0.004262122791260481,-0.02039502002298832
1690839138828792600,4.76279248046875,-0.004957207944244146,-0.0009566074586473405,-0.020790765061974525
1690839138838832600,4.77283251953125,-0.004915129859000444,0.0002724413643591106,-0.019061841070652008
1690839138848873700,4.782873779296875,-0.005650162696838379,-0.001422128058038652,-0.019653329625725746
1690839138858943500,4.792943603515625,-0.004647482186555862,-0.0022977753542363644,-0.01816648617386818
1690839138868984600,4.802984619140625,-0.005365204066038132,-0.00021971078240312636,-0.01991192251443863
1690839138879024400,4.8130244140625,-0.00367143377661705,-0.002782470779493451,-0.02143152244389057
1690839138889064400,4.823064453125,-0.004512726329267025,-0.0016130766598507762,-0.020187826827168465
1690839138899104500,4.8331044921875,-0.0057313889265060425,-0.00023702133330516517,-0.018680743873119354
1690839138909145600,4.8431455078125,-0.0042719766497612,-0.002775280037894845,-0.019843213260173798
1690839138919185700,4.853185546875,-0.004862399306148291,-0.0022919164039194584,-0.020926587283611298
1690839138929225500,4.8632255859375,-0.004760666750371456,-0.002365952357649803,-0.020303940400481224
1690839138939266600,4.8732666015625,-0.002980876248329878,-0.0017451694002375007,-0.018925221636891365
1690839138949306400,4.883306396484375,-0.0030157635919749737,-0.002313754288479686,-0.020796092227101326
1690839138959346400,4.893346435546875,-0.00475454144179821,-0.0014000238152220845,-0.02087731845676899
1690839138969386500,4.903386474609375,-0.004591023549437523,-0.0020122844725847244,-0.018868230283260345
1690839138979427600,4.913427490234375,-0.0049095372669398785,-0.002758768619969487,-0.020683174952864647
1690839138989467600,4.923467529296875,-0.004793690051883459,-0.003026149934157729,-0.021193701773881912
1690839138999507500,4.933507568359375,-0.0049465554766356945,-0.001844771672040224,-0.02172739990055561
1690839139009548500,4.943548583984375,-0.005546299275010824,-0.0018666095566004515,-0.02052178606390953
1690839139019618600,4.95361865234375,-0.00490234699100256,-0.001910285442136228,-0.01955639012157917
1690839139029659400,4.963659423828125,-0.00458836043253541,-0.00004953479583491571,-0.01900857873260975
1690839139039699500,4.973699462890625,-0.005477323196828365,-0.0018141453620046377,-0.019145997241139412
1690839139049739500,4.983739501953125,-0.0037944719661027193,-0.002110288944095373,-0.021335914731025696
1690839139059780600,4.993780517578125,-0.01564074493944645,0.058344531804323196,0.005543369799852371
1690839139069820700,5.003820556640625,-0.02496154233813286,-0.33704912662506104,0.010893394239246845
1690839139079860500,5.013860595703125,-0.009017730131745338,0.05727234482765198,-0.06376220285892487
1690839139089900500,5.023900634765625,0.002898051869124174,0.05363020673394203,-0.08649148046970367
1690839139099941400,5.03394140625,0.002311623888090253,0.11445360630750656,-0.12005210667848587
1690839139109981400,5.0439814453125,0.0035230957437306643,0.019686352461576462,-0.1137595847249031
1690839139120021500,5.054021484375,0.004211523104459047,-0.00282082031480968,-0.1206880658864975
1690839139130062600,5.0640625,0.001612277701497078,-0.021278923377394676,-0.11388368904590607
1690839139140102700,5.0741025390625,-0.0032794165890663862,-0.03606772422790527,-0.10477541387081146
1690839139150142500,5.084142578125,-0.00723500968888402,-0.03955353423953056,-0.0961102843284607
1690839139160182500,5.0941826171875,-0.010000968351960182,-0.03851037472486496,-0.0854073092341423
1690839139170223400,5.104223388671875,-0.012929114513099194,-0.027583690360188484,-0.07854807376861572
1690839139180293600,5.114293701171875,-0.015004782006144524,-0.014674549922347069,-0.06691325455904007
1690839139190334500,5.12433447265625,-0.011412178166210651,-0.0004575310740619898,-0.05770483985543251
1690839139200374500,5.13437451171875,-0.005117530468851328,0.011913917027413845,-0.04472539201378822
1690839139210414600,5.14441455078125,-0.001663144095800817,0.02075348235666752,-0.033000826835632324
1690839139220455700,5.15445556640625,0.0019526296528056264,0.02166508138179779,-0.017852766439318657
1690839139230495500,5.16449560546875,0.004759601317346096,0.017918545752763748,-0.006435528863221407
1690839139240535600,5.17453564453125,0.00318886898458004,0.010541324503719807,0.004698881413787603
1690839139250574800,5.184574951171875,0.00009880327706923708,0.00010918960470007733,0.01549613568931818
1690839139260616000,5.194615966796875,-0.003358778776600957,-0.00830906257033348,0.026187395676970482
1690839139270655700,5.20465576171875,-0.00717588746920228,-0.012871324084699154,0.03465278446674347
1690839139280695600,5.214695556640625,-0.012901151552796364,-0.015157381072640419,0.042149052023887634
1690839139290736600,5.224736572265625,-0.012866529636085033,-0.01194028276950121,0.04747191071510315
1690839139300776700,5.234776611328125,-0.010557036846876144,-0.005915147252380848,0.04717496782541275
1690839139310816800,5.244816650390625,-0.008710401132702827,0.00036218989407643676,0.045832470059394836
1690839139320856800,5.25485693359375,-0.003460777923464775,0.008419317193329334,0.04851560294628143
1690839139330898000,5.26489794921875,-0.001511876587755978,0.014255900867283344,0.04247528687119484
1690839139340967700,5.2749677734375,0.00013875069271307439,0.015468438155949116,0.0365753211081028
1690839139351008800,5.2850087890625,0.00024234765442088246,0.012951218523085117,0.02839941717684269
1690839139361048600,5.295048583984375,-0.0008000136003829539,0.007119428366422653,0.02070128358900547
1690839139371088600,5.305088623046875,-0.005868541542440653,0.00048629322554916143,0.009098157286643982
1690839139381129700,5.315129638671875,-0.005937783978879452,-0.008266718126833439,-0.0006748450105078518
1690839139391169800,5.325169677734375,-0.009035040624439716,-0.013439908623695374,-0.014875885099172592
1690839139401209900,5.3352099609375,-0.009711749851703644,-0.015673501417040825,-0.024404142051935196
1690839139411249700,5.345249755859375,-0.008282963186502457,-0.014122743159532547,-0.03616146743297577
1690839139421290800,5.355290771484375,-0.007552458439022303,-0.007949269376695156,-0.045583195984363556
1690839139431330600,5.36533056640625,-0.0036647759843617678,-0.0033372072502970695,-0.05668272078037262
1690839139441370600,5.37537060546875,-0.0016389093361794949,0.0032684975303709507,-0.06100316718220711
1690839139451411700,5.38541162109375,-0.0018841864075511694,0.007133809383958578,-0.06499471515417099
1690839139461451800,5.39545166015625,-0.00247540813870728,0.003949201665818691,-0.07048535346984863
1690839139471491800,5.405491943359375,-0.0043747746385633945,0.003939880523830652,-0.06921901553869247
1690839139481532000,5.415531982421875,-0.004032292403280735,0.00020905814017169178,-0.06981983035802841
1690839139491572700,5.42557275390625,-0.004721784498542547,-0.006189452484250069,-0.06857426464557648
1690839139501643800,5.435643798828125,-0.005715143866837025,-0.009323992766439915,-0.06628794223070145
1690839139511683600,5.44568359375,-0.0062792012467980385,-0.01239355280995369,-0.06224286928772926
1690839139521723600,5.4557236328125,-0.005613144487142563,-0.013101953081786633,-0.057266753166913986
1690839139531763700,5.465763671875,-0.006534065585583448,-0.01221325621008873,-0.05044826120138168
1690839139541804800,5.4758046875,-0.005072256550192833,-0.0086028091609478,-0.044441767036914825
1690839139551844900,5.485844970703125,-0.003624029690399766,-0.0043896883726119995,-0.038476817309856415
1690839139561884700,5.495884765625,-0.00566853815689683,-0.00009640643111197278,-0.0312252976000309
1690839139571925800,5.50592578125,-0.004077299498021603,0.004314587451517582,-0.026730148121714592
1690839139581965600,5.515965576171875,-0.0036858150269836187,0.00600462919101119,-0.01852867752313614
1690839139592005600,5.526005615234375,-0.004459196701645851,0.0062184808775782585,-0.00959963072091341
1690839139602045700,5.536045654296875,-0.00532658863812685,0.004316451493650675,-0.005848035216331482
1690839139612086800,5.546086669921875,-0.003751062322407961,0.0011883024126291275,0.0014503574930131435
1690839139622126800,5.556126953125,-0.004996090196073055,-0.001261273049749434,0.007059773895889521
1690839139632167000,5.5661669921875,-0.004087419714778662,-0.002201369032263756,0.010811102576553822
1690839139642206700,5.576206787109375,-0.004833903629332781,-0.0033302828669548035,0.016262592747807503
1690839139652247600,5.58624755859375,-0.005557218100875616,-0.00418329332023859,0.015796540305018425
1690839139662318600,5.596318603515625,-0.005354018881917,-0.0019017633749172091,0.01619628071784973
1690839139672358700,5.606358642578125,-0.005074653308838606,0.0004106594424229115,0.01561011839658022
1690839139682398700,5.616398681640625,-0.0054701329208910465,0.0015752597246319056,0.015442073345184326
1690839139692438800,5.626438720703125,-0.005548962391912937,0.0007432882557623088,0.011049721390008926
1690839139702480000,5.63647998046875,-0.004090615548193455,0.003308977698907256,0.00836765207350254
1690839139712519700,5.646519775390625,-0.004003529902547598,0.002481267089024186,0.0033574472181499004
1690839139722559700,5.656559814453125,-0.004573180340230465,0.0021584921050816774,-0.005155080929398537
1690839139732600600,5.6666005859375,-0.0035867453552782536,0.0013286510948091745,-0.0072991917841136456
1690839139742640600,5.676640625,-0.0046842340379953384,-0.0014588796766474843,-0.015426360070705414
1690839139752680700,5.6866806640625,-0.0065404572524130344,-0.0022362563759088516,-0.01914147101342678
1690839139762720800,5.696720703125,-0.005757487844675779,-0.0049068741500377655,-0.027149062603712082
1690839139772761900,5.706761962890625,-0.0054818508215248585,-0.005246693734079599,-0.029472405090928078
1690839139782801700,5.7168017578125,-0.003687146585434675,-0.00213665422052145,-0.03798440098762512
1690839139792841700,5.726841796875,-0.0037033918779343367,-0.004485296085476875,-0.041180193424224854
1690839139802882600,5.736882568359375,-0.0040975394658744335,-0.0024501082953065634,-0.04156022518873215
1690839139812952800,5.746952880859375,-0.005368133541196585,-0.0022082931827753782,-0.045948583632707596
1690839139822993700,5.75699365234375,-0.004728442523628473,-0.0015190670965239406,-0.0479707196354866
1690839139833033700,5.76703369140625,-0.003031742526218295,-0.0006849650526419282,-0.047678038477897644
1690839139843073800,5.77707373046875,-0.004284227266907692,-0.0007693872321397066,-0.04946422204375267
1690839139853113600,5.787113525390625,-0.003120692213997245,-0.002653839997947216,-0.04700106382369995
1690839139863154700,5.79715478515625,-0.004795554094016552,-0.002630670554935932,-0.043773047626018524
1690839139873194800,5.80719482421875,-0.003739344421774149,-0.003694869577884674,-0.042686477303504944
1690839139883234800,5.81723486328125,-0.004988633096218109,-0.005113801918923855,-0.03888747841119766
1690839139893275600,5.827275634765625,-0.003920705523341894,-0.004740426782518625,-0.03479126840829849
1690839139903315700,5.837315673828125,-0.004385693464428186,-0.003338272450491786,-0.028611138463020325
1690839139913355800,5.847355712890625,-0.004294347018003464,-0.005721002817153931,-0.025679796934127808
1690839139923395600,5.8573955078125,-0.005899434443563223,-0.004597414750605822,-0.02070128358900547
1690839139933436700,5.867436767578125,-0.0041151163168251514,-0.002376604825258255,-0.01842161826789379
1690839139943476700,5.877476806640625,-0.006327936891466379,0.00101173494476825,-0.015459383837878704
1690839139953516800,5.887516845703125,-0.006077866069972515,0.0013930995482951403,-0.011914982460439205
1690839139963557600,5.8975576171875,-0.0052046156488358974,0.0020591560751199722,-0.01013705600053072
1690839139973628000,5.9076279296875,-0.0046240463852882385,0.0006162554491311312,-0.00758042186498642
1690839139983668700,5.917668701171875,-0.003477289341390133,0.00018801917030941695,-0.005405950825661421
1690839139993708800,5.927708740234375,-0.005668005906045437,0.0005081311101093888,-0.0007651261985301971
1690839140003748600,5.93774853515625,-0.004364654887467623,-0.004740693140774965,-0.0005667206714861095
1690839140013789700,5.947789794921875,-0.005705023650079966,-0.001885784324258566,-0.000010386328540334944
1690839140023829800,5.957829833984375,-0.005558816250413656,-0.004603273700922728,-0.0002364887041039765
1690839140033869800,5.967869873046875,-0.006813431158661842,-0.0034437335561960936,-0.000023968450477696024
1690839140043910000,5.977909912109375,-0.005120992194861174,-0.002829342382028699,-0.0038043255917727947
1690839140053950700,5.98795068359375,-0.00598518829792738,0.0002764361270237714,-0.00794207863509655
1690839140063990800,5.99799072265625,-0.005468002520501614,0.00030866035376675427,-0.01056023221462965
1690839140074030600,6.008030517578125,-0.0049462891183793545,0.0020594224333763123,-0.010452374815940857
1690839140084071700,6.01807177734375,-0.005714344792068005,0.001425057533197105,-0.017715081572532654
1690839140094111700,6.02811181640625,-0.004108725115656853,0.0004695153038483113,-0.01696966215968132
1690839140104151800,6.03815185546875,-0.004593153949826956,-0.0006740460521541536,-0.020978784188628197
1690839140114192000,6.04819189453125,-0.005654423497617245,-0.002092179376631975,-0.022371884435415268
1690839140124232700,6.058232666015625,-0.004024568945169449,-0.005879194475710392,-0.023676566779613495
1690839140134303000,6.068302978515625,-0.0067697553895413876,-0.004052532371133566,-0.025316808372735977
1690839140144343800,6.07834375,-0.005051750224083662,-0.0041063278913497925,-0.027038009837269783
1690839140154383600,6.088383544921875,-0.004742557182908058,-0.005431783385574818,-0.03130199760198593
1690839140164423700,6.098423583984375,-0.005297559779137373,-0.0049215215258300304,-0.03436250239610672
1690839140174464800,6.10846484375,-0.003213636577129364,-0.0035635759122669697,-0.03580699861049652
1690839140184504800,6.1185048828125,-0.004608067683875561,-0.002543052425608039,-0.036491699516773224
1690839140194545000,6.128544921875,-0.004447212442755699,0.0004348942020442337,-0.03570260480046272
1690839140204585000,6.1385849609375,-0.005531651899218559,0.002597380895167589,-0.034387003630399704
1690839140214625800,6.148625732421875,-0.00458569684997201,0.0003355582884978503,-0.030485471710562706
1690839140224665600,6.15866552734375,-0.004686098080128431,-0.0011382350930944085,-0.028420189395546913
1690839140234705700,6.16870556640625,-0.005179582163691521,-0.0037593182642012835,-0.026669960469007492
1690839140244721000,6.178720947265625,-0.004995024763047695,-0.00643686018884182,-0.024478711187839508
1690839140254761000,6.188760986328125,-0.005833387840539217,-0.00512871565297246,-0.024342091754078865
1690839140264800800,6.19880078125,-0.005250155925750732,-0.006970025133341551,-0.02455620840191841
1690839140274840800,6.2088408203125,-0.005380117800086737,-0.005123921670019627,-0.023251792415976524
1690839140284882000,6.2188818359375,-0.005658951122313738,-0.004829908721148968,-0.021345768123865128
1690839140294952000,6.228951904296875,-0.004976915195584297,-0.002621349412947893,-0.022587334737181664
1690839140304993000,6.238992919921875,-0.006010221783071756,0.0006229133578017354,-0.01847488060593605
1690839140315032800,6.24903271484375,-0.003281813347712159,0.003371029393747449,-0.01630573719739914
1690839140325072600,6.25907275390625,-0.004005394410341978,0.004656536970287561,-0.012133894488215446
1690839140335113700,6.26911376953125,-0.0035633095540106297,0.0032985913567245007,-0.010206032544374466
1690839140345153800,6.27915380859375,-0.0031997880432754755,0.000660463934764266,-0.006186256650835276
1690839140355193900,6.28919384765625,-0.006629673298448324,-0.002466087229549885,-0.005424859002232552
1690839140365234000,6.29923388671875,-0.0041065942496061325,-0.003233610186725855,-0.005322593729943037
1690839140375275000,6.30927490234375,-0.005074919667094946,-0.0073322150856256485,-0.006370547693222761
1690839140385314800,6.319314697265625,-0.007110107224434614,-0.00794181227684021,-0.009604956954717636
1690839140395355000,6.32935498046875,-0.007667240686714649,-0.004066647030413151,-0.013489443808794022
1690839140405396000,6.33939599609375,-0.00515801040455699,-0.0038511971943080425,-0.017316939309239388
1690839140415435800,6.349435791015625,-0.006293848622590303,-0.0013451626291498542,-0.020068250596523285
1690839140425475800,6.359475830078125,-0.0047090016305446625,0.0007941546500660479,-0.020838169381022453
1690839140435516000,6.369515869140625,-0.003983822651207447,0.000594950164668262,-0.02201901562511921
1690839140445557000,6.379556884765625,-0.004284759983420372,0.0007784419576637447,-0.020435500890016556
1690839140455628000,6.3896279296875,-0.004800613969564438,0.0006572681595571339,-0.019288476556539536
1690839140465667800,6.399667724609375,-0.0030117689166218042,0.001791242160834372,-0.01847834326326847
1690839140475707600,6.409707763671875,-0.004959338344633579,-0.0005752427969127893,-0.01998888887465
1690839140485747700,6.419747802734375,-0.004225637763738632,-0.001969407545402646,-0.02010047435760498
1690839140495788800,6.429788818359375,-0.006588394287973642,-0.004706604406237602,-0.02148265577852726
1690839140505828900,6.439828857421875,-0.005292499903589487,-0.002799248555675149,-0.023201193660497665
1690839140515869000,6.449868896484375,-0.005315669346600771,-0.0024311996530741453,-0.02719353698194027
1690839140525910000,6.459909912109375,-0.004487959202378988,-0.0012397015234455466,-0.02630404196679592
1690839140535949800,6.46994970703125,-0.0047148605808615685,-0.002320145955309272,-0.02706943452358246
1690839140545990000,6.479989990234375,-0.004292216617614031,-0.005134041886776686,-0.024623587727546692
1690839140556029700,6.49002978515625,-0.004368915688246489,-0.007408647798001766,-0.024636371061205864
1690839140566070800,6.50007080078125,-0.005212604999542236,-0.00452817277982831,-0.021194234490394592
1690839140576110800,6.51011083984375,-0.005468002520501614,-0.001425057533197105,-0.025588184595108032
1690839140586151000,6.52015087890625,-0.006402239203453064,0.001541171339340508,-0.028781846165657043
1690839140596192000,6.53019189453125,-0.004779042676091194,0.0054877097718417645,-0.03236779198050499
1690839140606231800,6.540231689453125,-0.0046418895944952965,0.0027691549621522427,-0.037639252841472626
1690839140616302800,6.550302734375,-0.004999286029487848,-0.0006543386843986809,-0.03939880430698395
1690839140626342700,6.5603427734375,-0.0036184368655085564,-0.008012652397155762,-0.033244505524635315
1690839140636382700,6.5703828125,-0.0030466562602669,-0.009398561902344227,-0.02803456410765648
1690839140646422800,6.5804228515625,-0.003850398352369666,-0.010205233469605446,-0.020920727401971817
1690839140656464000,6.5904638671875,-0.004618453793227673,-0.009785785339772701,-0.012118182145059109
1690839140666504000,6.60050390625,-0.00618119677528739,-0.001086037140339613,-0.006859237793833017
1690839140676544000,6.6105439453125,-0.006195577792823315,0.003437075763940811,-0.003971572034060955
1690839140686584800,6.620584716796875,-0.007131412625312805,0.008505071513354778,-0.007129548583179712
1690839140696624600,6.630624755859375,-0.005142563953995705,0.009222527034580708,-0.010175672359764576
1690839140706664700,6.640664794921875,-0.005362807307392359,0.008375375531613827,-0.01575712487101555
1690839140716704800,6.650704833984375,-0.0033659692853689194,0.0019481023773550987,-0.021217403933405876
1690839140726745900,6.660745849609375,-0.0027742148377001286,-0.005419000051915646,-0.021042700856924057
1690839140736786000,6.670785888671875,-0.004286890383809805,-0.011656389571726322,-0.02106320671737194
1690839140746826000,6.680825927734375,-0.005008074454963207,-0.014028733596205711,-0.01774224452674389
1690839140756866800,6.69086669921875,-0.00555109279230237,-0.012649215757846832,-0.015127287246286869
1690839140766907000,6.700906982421875,-0.006223541218787432,-0.006208094768226147,-0.009923471137881279
1690839140776977700,6.710977783203125,-0.007546066772192717,0.0020421119406819344,-0.007345797028392553
1690839140787017700,6.721017822265625,-0.005853894166648388,0.009652893990278244,-0.010214021429419518
1690839140797057800,6.731057861328125,-0.005064000841230154,0.012551478110253811,-0.011983958072960377
1690839140807097900,6.741097900390625,-0.0033923345617949963,0.012732839211821556,-0.018159296363592148
1690839140817139000,6.751138916015625,-0.002731071785092354,0.006740194279700518,-0.024222781881690025
1690839140827179000,6.761178955078125,-0.0032410670537501574,-0.0038131140172481537,-0.027893150225281715
1690839140837218800,6.77121875,-0.002098038326948881,-0.011055580340325832,-0.02899356745183468
1690839140847259600,6.781259765625,-0.0043593281880021095,-0.0173781905323267,-0.029413549229502678
1690839140857299700,6.7912998046875,-0.006144977640360594,-0.019936157390475273,-0.025766616687178612
1690839140867339800,6.80133984375,-0.006599845830351114,-0.014843926765024662,-0.02467498555779457
1690839140877379800,6.8113798828125,-0.006770021747797728,-0.007078948430716991,-0.021524732932448387
1690839140887421000,6.8214208984375,-0.007528756279498339,0.0027507790364325047,-0.02304300107061863
1690839140897461000,6.8314609375,-0.006707703694701195,0.009955694898962975,-0.02123737707734108
1690839140907501000,6.8415009765625,-0.0046240463852882385,0.014882809482514858,-0.021403025835752487
1690839140917542000,6.8515419921875,-0.0017723336350172758,0.012592490762472153,-0.026214294135570526
1690839140927581700,6.861581787109375,-0.001784850494004786,0.005850166082382202,-0.027147464454174042
1690839140937652700,6.87165283203125,-0.002385925967246294,-0.002873817225918174,-0.02707396261394024
1690839140947692800,6.88169287109375,-0.0015241270884871483,-0.008627576753497124,-0.026336532086133957
1690839140957732900,6.89173291015625,-0.005574262235313654,-0.01444338820874691,-0.02365259826183319
1690839140967774000,6.90177392578125,-0.005247758701443672,-0.016952352598309517,-0.019145730882883072
1690839140977814000,6.91181396484375,-0.009002549573779106,-0.013937919400632381,-0.01840244233608246
1690839140987853800,6.921853759765625,-0.007111705373972654,-0.004652542527765036,-0.014736069366335869
1690839140997894000,6.931893798828125,-0.0075631109066307545,0.002298840554431081,-0.016461797058582306
1690839141007934700,6.941934814453125,-0.004054929129779339,0.007282147649675608,-0.016035424545407295
1690839141017974800,6.951974853515625,-0.0031156321056187153,0.010160758160054684,-0.018787803128361702
1690839141028014800,6.962014892578125,-0.0010783139150589705,0.011439608410000801,-0.018012290820479393
1690839141038056000,6.972055908203125,0.00007483482477255166,0.005899434443563223,-0.019904199987649918
1690839141048096000,6.982095947265625,-0.002814428647980094,-0.00006364954606397077,-0.01919606514275074
1690839141058136000,6.992135986328125,-0.00529729388654232,-0.009160208515822887,-0.019286079332232475
1690839141068176000,7.00217578125,-0.005930593237280846,-0.014545919373631477,-0.01890444941818714
1690839141078216700,7.012216796875,-0.0073111760430037975,-0.014692393131554127,-0.018577411770820618
1690839141088256800,7.0222568359375,-0.009848369285464287,-0.01179114542901516,-0.015920909121632576
1690839141098327800,7.032327880859375,-0.009976468048989773,-0.005653624422848225,-0.01840244233608246
1690839141108368000,7.042367919921875,-0.0060270000249147415,0.0024700819049030542,-0.016523050144314766
1690839141118408000,7.052407958984375,-0.003769438248127699,0.0076270271092653275,-0.015929166227579117
1690839141128449000,7.062448974609375,-0.0028999161440879107,0.0106531772762537,-0.017223462462425232
1690839141138488800,7.07248876953125,-0.0015893745003268123,0.010350109077990055,-0.0206309761852026
1690839141148529000,7.08252880859375,-0.003296460723504424,0.003751861397176981,-0.020976655185222626
1690839141158569000,7.09256884765625,-0.003231213428080082,-0.0009829727932810783,-0.02238493412733078
1690839141168609800,7.10260986328125,-0.002834668615832925,-0.006898918654769659,-0.0198056623339653
1690839141178649900,7.11264990234375,-0.005189169198274612,-0.013034841977059841,-0.023902403190732002
1690839141188690000,7.12268994140625,-0.007178550586104393,-0.014249509200453758,-0.022638199850916862
1690839141198731000,7.13273095703125,-0.008272044360637665,-0.009588711895048618,-0.021402493119239807
1690839141208771000,7.14277099609375,-0.006515157409012318,-0.005261074751615524,-0.02118571288883686
1690839141218811000,7.152810791015625,-0.005662945564836264,-0.00401657959446311,-0.02069462649524212
1690839141228851000,7.162850830078125,-0.0026101642288267612,0.005407282151281834,-0.021824073046445847
1690839141238891800,7.172891845703125,-0.0017222663154825568,0.004870655480772257,-0.023727700114250183
1690839141248928500,7.182928466796875,-0.0032551817130297422,0.005981992464512587,-0.0232296884059906
1690839141258999600,7.19299951171875,-0.0025094966404139996,0.0022775353863835335,-0.024599352851510048
1690839141269039400,7.203039306640625,-0.002642654813826084,-0.0003885551996063441,-0.02177267335355282
1690839141279079400,7.213079345703125,-0.003979561384767294,-0.0026144252624362707,-0.02208319865167141
1690839141289120500,7.22312060546875,-0.006695186719298363,-0.008822786621749401,-0.022913837805390358
1690839141299160600,7.23316064453125,-0.0067718857899308205,-0.010038252919912338,-0.02203179895877838
1690839141309200600,7.24320068359375,-0.006069876719266176,-0.008170577697455883,-0.020560402423143387
1690839141319240400,7.253240478515625,-0.005513275973498821,-0.006509564816951752,-0.019587283954024315
1690839141329281500,7.263281494140625,-0.00643686018884182,-0.00036192359402775764,-0.018876485526561737
1690839141339321600,7.273321533203125,-0.0037476003635674715,0.0034938009921461344,-0.018931079655885696
1690839141349361400,7.283361328125,-0.0026431872975081205,0.003744937013834715,-0.015838084742426872
1690839141359402500,7.293402587890625,-0.0026075011119246483,0.00586774293333292,-0.018072742968797684
1690839141369442600,7.303442626953125,-0.0030985879711806774,0.0013499563792720437,-0.018197646364569664
1690839141379482600,7.313482666015625,-0.005261341109871864,-0.0008428904693573713,-0.018577411770820618
1690839141389522400,7.3235224609375,-0.0060357884503901005,-0.0013342436868697405,-0.020328974351286888
1690839141399563500,7.3335634765625,-0.006618221756070852,-0.007170827593654394,-0.020246682688593864
1690839141409603600,7.343603515625,-0.0051873051561415195,-0.0036799560766667128,-0.01847381517291069
1690839141419674400,7.35367431640625,-0.006509032100439072,-0.004777710884809494,-0.01691506803035736
1690839141429714400,7.36371435546875,-0.0060115535743534565,0.000559530162718147,-0.016223710030317307
1690839141439754500,7.37375439453125,-0.004732437431812286,-0.0019595539197325706,-0.01799258217215538
1690839141449795600,7.383795654296875,-0.0038064562249928713,0.001734516816213727,-0.01792174205183983
1690839141459835600,7.393835693359375,-0.0028493159916251898,0.001490571303293109,-0.019761187955737114
1690839141469875500,7.40387548828125,-0.004562527406960726,0.0018796591321006417,-0.020625915378332138
1690839141479916500,7.41391650390625,-0.005149754695594311,0.0007890945998951793,-0.02107066474854946
1690839141489956400,7.423956298828125,-0.00407570181414485,-0.0057375142350792885,-0.023673636838793755
1690839141499996400,7.433996337890625,-0.004327370319515467,-0.0029640982393175364,-0.020213657990098
1690839141510036500,7.444036376953125,-0.004818989895284176,-0.0036826191935688257,-0.020178237929940224
1690839141520077600,7.45407763671875,-0.005043760873377323,-0.004151069093495607,-0.02148558385670185
1690839141530117600,7.46411767578125,-0.00381444557569921,-0.003905792022123933,-0.021757759153842926
1690839141540157400,7.474157470703125,-0.004581702407449484,-0.003894074121490121,-0.021974807605147362
1690839141550198500,7.484198486328125,-0.005708485841751099,-0.0025744778104126453,-0.0227348729968071
1690839141560238600,7.494238525390625,-0.0057681407779455185,-0.0008016114588826895,-0.022431273013353348
1690839141570278400,7.5042783203125,-0.004129231441766024,0.0009155947482213378,-0.023844879120588303
1690839141580349400,7.514349365234375,-0.0030043120495975018,-0.0009307747823186219,-0.02172979712486267
1690839141590389500,7.524389404296875,-0.0048767803236842155,-0.0021523667965084314,-0.022219818085432053
1690839141600429600,7.5344296875,-0.005711681675165892,-0.001832787413150072,-0.02082405611872673
1690839141610470700,7.544470703125,-0.0057375142350792885,-0.002689792774617672,-0.0225021131336689
1690839141620510500,7.554510498046875,-0.0054943677969276905,-0.006385461427271366,-0.022591860964894295
1690839141630550300,7.56455029296875,-0.005327919963747263,-0.005883455276489258,-0.021207816898822784
1690839141640591400,7.57459130859375,-0.006570284720510244,-0.003433080855756998,-0.019898606464266777
1690839141650631400,7.58463134765625,-0.003736148588359356,-0.0015787219163030386,-0.021200360730290413
1690839141660671500,7.59467138671875,-0.004923119675368071,-0.0001227717293659225,-0.019947076216340065
1690839141670711600,7.604711669921875,-0.0041425470262765884,-0.0014793860027566552,-0.019783558323979378
1690839141680752600,7.614752685546875,-0.004051200579851866,-0.0006085322820581496,-0.02136840485036373
1690839141690792400,7.62479248046875,-0.004232029430568218,-0.0017480988753959537,-0.019844278693199158
1690839141700832500,7.63483251953125,-0.004396346397697926,-0.0019060244085267186,-0.019894612953066826
1690839141710873600,7.64487353515625,-0.004047738388180733,-0.0034141724463552237,-0.019300727173686028
1690839141720913400,7.654913330078125,-0.005333512555807829,-0.005938849411904812,-0.019240006804466248
1690839141730953500,7.664953369140625,-0.0057463026605546474,-0.005814213305711746,-0.018079934641718864
1690839141741024500,7.6750244140625,-0.005201153457164764,0.00013848437811248004,-0.017072459682822227
1690839141751064600,7.685064697265625,-0.006551109720021486,-0.0027105652261525393,-0.02057105489075184
1690839141761104600,7.695104736328125,-0.005056543741375208,-0.002424009144306183,-0.0183478482067585
1690839141771145500,7.7051455078125,-0.002709766384214163,0.0007933556917123497,-0.02058090828359127
1690839141781185300,7.715185302734375,-0.005395031534135342,-0.0013883059145882726,-0.020253073424100876
1690839141791225300,7.725225341796875,-0.005212072748690844,-0.00026498452643863857,-0.021029917523264885
1690839141801266400,7.735266357421875,-0.003698065411299467,-0.0012309130979701877,-0.020538564771413803
1690839141811306500,7.745306396484375,-0.003891144646331668,-0.0028634308837354183,-0.01938461698591709
1690839141821346600,7.7553466796875,-0.0034645062405616045,-0.002674879040569067,-0.018918562680482864
1690839141831386600,7.76538671875,-0.0049308426678180695,-0.003933488857001066,-0.021859226748347282
1690839141841427500,7.775427490234375,-0.005736182443797588,-0.001157143502496183,-0.014054300263524055
1690839141851467500,7.785467529296875,-0.004157727118581533,-0.0028365328907966614,-0.02015187405049801
1690839141861507300,7.79550732421875,-0.004683967679738998,-0.00037736992817372084,-0.02063869871199131
1690839141871548400,7.80554833984375,-0.004005660768598318,-0.0008066715090535581,-0.019230153411626816
1690839141881588500,7.81558837890625,-0.005502357147634029,-0.0010167949367314577,-0.02081420086324215
1690839141891628500,7.825628662109375,-0.004056260455399752,0.00038482676609419286,-0.019932162016630173
1690839141901699600,7.835699462890625,-0.005772934295237064,0.002070873975753784,-0.01829724758863449
1690839141911739600,7.84573974609375,-0.005043228156864643,0.00018801917030941695,-0.021824073046445847
1690839141921780500,7.855780517578125,-0.004054396413266659,-0.002546248259022832,-0.021513814106583595
1690839141931820300,7.8658203125,-0.005215002223849297,0.00008548746700398624,-0.01744769886136055
1690839141941860400,7.8758603515625,-0.0057439059019088745,-0.0029137644451111555,-0.021151624619960785
1690839141951900400,7.885900390625,-0.0031755531672388315,-0.004862132947891951,-0.02082591876387596
1690839141961941500,7.89594140625,-0.005110872443765402,-0.0022365227341651917,-0.021216871216893196
1690839141971981600,7.905981689453125,-0.0049617355689406395,0.0003701793903019279,-0.02009461633861065
1690839141982021600,7.916021728515625,-0.005271194502711296,-0.0018767296569421887,-0.01973482221364975
1690839141992062500,7.9260625,-0.003998203668743372,-0.001573928166180849,-0.021085310727357864
1690839142002102500,7.9361025390625,-0.0027137610595673323,-0.002689792774617672,-0.019118567928671837
1690839142012142300,7.946142333984375,-0.00652660895138979,-0.001970472978428006,-0.01961711049079895
1690839142022182400,7.956182373046875,-0.0031473238486796618,-0.0029947245493531227,-0.020607274025678635
1690839142032223500,7.966223388671875,-0.005603291094303131,-0.002064482541754842,-0.019906597211956978
1690839142042263600,7.976263671875,-0.005623264703899622,-0.00138031633105129,-0.01890391670167446
1690839142052303600,7.9863037109375,-0.004971855320036411,-0.0044016726315021515,-0.020371317863464355
1690839142062374700,7.996374755859375,-0.00461685610935092,-0.0018253305461257696,-0.020473849028348923
1690839142072414500,8.00641455078125,-0.004862665664404631,0.00003355582884978503,-0.01931564137339592
1690839142082455300,8.016455322265625,-0.003727093804627657,-0.002031192881986499,-0.020686635747551918
1690839142092495400,8.026495361328125,-0.005024585872888565,-0.0004932174342684448,-0.021522602066397667
1690839142102535400,8.036535400390624,-0.00526746641844511,-0.0016703346045687795,-0.01870577782392502
1690839142112575500,8.046575439453125,-0.004599545616656542,-0.0013190637109801173,-0.020350279286503792
1690839142122616600,8.056616455078125,-0.0036938043776899576,-0.0041161817498505116,-0.020351877436041832
1690839142132656600,8.06665673828125,-0.005520466715097427,-0.0020325244404375553,-0.01895132102072239
1690839142142696400,8.076696533203124,-0.00492098880931735,-0.002305232221260667,-0.021799305453896523
1690839142152737300,8.0867373046875,-0.004740426782518625,-0.0017116136150434613,-0.019159313291311264
1690839142162777300,8.09677734375,-0.005407548509538174,-0.003057841444388032,-0.020688500255346298
1690839142172817400,8.1068173828125,-0.004866127856075764,-0.002663161139935255,-0.020169982686638832
1690839142182857500,8.116857421875,-0.005193696822971106,-0.0029198897536844015,-0.01967649906873703
1690839142192898600,8.126898681640625,-0.00341523764654994,-0.0027110979426652193,-0.02177240699529648
1690839142202938600,8.136938720703125,-0.004798483569175005,-0.0010881676571443677,-0.018910840153694153
1690839142212978700,8.146978759765625,-0.004549478180706501,-0.0037947380915284157,-0.02052977681159973
1690839142223049500,8.157049560546875,-0.006217149551957846,-0.0019475696608424187,-0.0186621006578207
1690839142233089500,8.167089599609374,-0.0036671727430075407,-0.003686880227178335,-0.02063523791730404
1690839142243130400,8.17713037109375,-0.0049034119583666325,-0.0032836776226758957,-0.020597686991095543
1690839142253170000,8.187169921875,-0.003683684393763542,-0.0021611552219837904,-0.02177507057785988
1690839142263210000,8.1972099609375,-0.004083158448338509,-0.0030397321097552776,-0.020713001489639282
1690839142273250000,8.20725,-0.005252552684396505,-0.001606418751180172,-0.022423284128308296
1690839142283291100,8.217291015625,-0.0044381581246852875,-0.0013643373968079686,-0.021574268117547035
1690839142293331000,8.2273310546875,-0.0057098171673715115,-0.00806405209004879,-0.027653731405735016
1690839142303371000,8.23737109375,-0.003762513864785433,-0.0011912320042029023,-0.020248014479875565
1690839142313411800,8.247411865234374,-0.004203000571578741,-0.0010897654574364424,-0.0190754234790802
1690839142323452000,8.257451904296875,-0.004304733593016863,-0.001178182428702712,-0.019328424707055092
1690839142333492000,8.267491943359374,-0.006841128226369619,-0.0022338596172630787,-0.019631758332252502
1690839142343532000,8.277531982421875,-0.004177967086434364,-0.0018634138396009803,-0.01883307658135891
1690839142353573000,8.287572998046874,-0.006057093385607004,-0.001651426195167005,-0.017885789275169373
1690839142363613000,8.297613037109375,-0.005910353269428015,-0.0014269216917455196,-0.02027970552444458
1690839142373684000,8.30768408203125,-0.004737763665616512,-0.0008644621120765805,-0.017783790826797485
1690839142383724000,8.31772412109375,-0.004364654887467623,-0.0021427792962640524,-0.020386498421430588
1690839142393764000,8.32776416015625,-0.0049164616502821445,-0.00034194986801594496,-0.02063683420419693
1690839142403805000,8.337804931640624,-0.004067711997777224,0.00017443705291952938,-0.021673070266842842
1690839142413845000,8.347844970703125,-0.005628857295960188,-0.002466087229549885,-0.020438695326447487
1690839142423885000,8.357885009765624,-0.0037502634804695845,-0.003425357863306999,-0.02081393450498581
1690839142433926100,8.367926025390625,-0.005347893573343754,-0.0033545177429914474,-0.021274128928780556
1690839142443966000,8.377966064453124,-0.005511678289622068,-0.0023315974976867437,-0.018977418541908264
1690839142454006000,8.388006103515625,-0.003900199430063367,-0.003343332326039672,-0.02009408362209797
1690839142464046000,8.398046142578124,-0.004633900243788958,-0.0019912454299628735,-0.017474863678216934
1690839142474087000,8.4080869140625,-0.002615490462630987,-0.0026668894570320845,-0.01920511946082115
1690839142484127000,8.418126953125,-0.003766775131225586,-0.0009262474486604333,-0.021530592814087868
1690839142494167000,8.4281669921875,-0.0036397422663867474,-0.0001584580895723775,-0.01998116448521614
1690839142504208100,8.4382080078125,-0.005658418405801058,-0.0013781858142465353,-0.02190503291785717
1690839142514248000,8.448248046875,-0.003689543344080448,-0.0037348170299082994,-0.021025124937295914
1690839142524288000,8.4582880859375,-0.004518585279583931,-0.0007792409160174429,-0.019122561439871788
1690839142534359000,8.468359130859374,-0.0028421254828572273,-0.001990446588024497,-0.018929217010736465
1690839142544399000,8.478399169921875,-0.00481313094496727,-0.0026437200140208006,-0.020869329571723938
1690839142554439200,8.488439208984374,-0.004845355171710253,-0.003028813051059842,-0.017777131870388985
1690839142564480000,8.49847998046875,-0.004013916477560997,-0.0015472965314984322,-0.021686919033527374
1690839142574520000,8.50852001953125,-0.005239502992480993,-0.00017443705291952938,-0.019899139180779457
1690839142584559900,8.518559814453125,-0.00321843009442091,-0.0005155879771336913,-0.019537216052412987
1690839142594601000,8.52860107421875,-0.005461877211928368,-0.0014889733865857124,-0.021260282024741173
1690839142604641000,8.53864111328125,-0.004494616761803627,-0.0014559502014890313,-0.019480224698781967
1690839142614681000,8.54868115234375,-0.00535455159842968,0.0003121224872302264,-0.020563865080475807
1690839142624721200,8.55872119140625,-0.005101284943521023,-0.0033571808598935604,-0.020351611077785492
1690839142634762000,8.568761962890624,-0.0041002025827765465,-0.0038067223504185677,-0.02046586014330387
1690839142644802000,8.578802001953125,-0.0048922267742455006,-0.0018959043081849813,-0.02058517001569271
1690839142654841900,8.588841796875,-0.004430701024830341,-0.003877029987052083,-0.023491477593779564
1690839142664883000,8.598883056640625,-0.0033838124945759773,-0.0013662016717717052,-0.0196077898144722
1690839142674923000,8.608923095703124,-0.004203533288091421,-0.002264752285555005,-0.018737202510237694
1690839142684963000,8.618963134765625,-0.005754824727773666,-0.0037864823825657368,-0.020426711067557335
1690839142695034000,8.6290341796875,-0.005014466121792793,-0.0021116205025464296,-0.01943921111524105
1690839142705074200,8.63907421875,-0.005775331053882837,-0.0009864348685368896,-0.018809108063578606
1690839142715115000,8.649114990234375,-0.006196909584105015,-0.002035187790170312,-0.019663715735077858
1690839142725155000,8.659155029296874,-0.0035052525345236063,-0.002323608146980405,-0.020361198112368584
1690839142735195000,8.66919482421875,-0.004005128052085638,-0.0014450311427935958,-0.021197430789470673
1690839142745235000,8.67923486328125,-0.00560968229547143,0.0002540655550546944,-0.020139889791607857
1690839142755276000,8.689276123046875,-0.005130579695105553,-0.001284708851017058,-0.019032014533877373
1690839142765316000,8.699316162109374,-0.0041614556685090065,0.0003299656673334539,-0.020133230835199356
1690839142775356200,8.709356201171875,-0.004431500099599361,-0.0006551376427523792,-0.02040993422269821
1690839142785396200,8.719396240234374,-0.0038069887086749077,-0.0025425199419260025,-0.019646938890218735
1690839142795437000,8.72943701171875,-0.004956408869475126,-0.0038075214251875877,-0.01967117376625538
1690839142805476900,8.739476806640624,-0.005389971658587456,-0.0010285128373652697,-0.018916433677077293
1690839142815517000,8.749516845703125,-0.004702343605458736,-0.003656253917142749,-0.01967490091919899
1690839142825558000,8.75955810546875,-0.0030533140525221825,-0.0041542649269104,-0.02135961689054966
1690839142835598000,8.76959814453125,-0.00498011102899909,-0.0019297265680506825,-0.020793695002794266
1690839142845638100,8.77963818359375,-0.0054458980448544025,-0.0013941648649051785,-0.019053319469094276
1690839142855709200,8.789709228515624,-0.003912183456122875,-0.0022857910953462124,-0.020482372492551804
1690839142865749000,8.7997490234375,-0.0049401638098061085,-0.002276470186188817,-0.021758824586868286
1690839142875789800,8.809789794921874,-0.005125786177814007,-0.001931058126501739,-0.02015533484518528
1690839142885830000,8.819829833984375,-0.0027057717088609934,-0.0007267766632139683,-0.020786505192518234
1690839142895870000,8.829869873046874,-0.005417935084551573,-0.0016682040877640247,-0.02064375951886177
1690839142905910000,8.839909912109375,-0.005583849735558033,-0.0024405207950621843,-0.02081606537103653
1690839142915951000,8.849951171875,-0.003662378992885351,-0.00333267985843122,-0.020318055525422096
1690839142925991200,8.8599912109375,-0.003564374754205346,-0.0018916432745754719,-0.020204337313771248
1690839142936031000,8.870031005859374,-0.004538026638329029,-0.0036940707359462976,-0.019725767895579338
1690839142946072000,8.880072021484375,-0.004774781409651041,-0.000461259507574141,-0.020231768488883972
1690839142956112000,8.89011181640625,-0.005742307752370834,-0.0035063179675489664,-0.021403824910521507
1690839142966152000,8.90015185546875,-0.005081844050437212,-0.0007432882557623088,-0.019400330260396004
1690839142976192000,8.91019189453125,-0.002757703186944127,0.00016644757124595344,-0.02100062370300293
1690839142986233000,8.920233154296875,-0.005298358853906393,0.00035233621019870043,-0.02178519032895565
1690839142996273200,8.930273193359374,-0.00185089698061347,-0.0024610271211713552,-0.019173428416252136
1690839143006313000,8.94031298828125,-0.0054972972720861435,-0.0022471752017736435,-0.020730845630168915
1690839143016384000,8.950384033203125,-0.003040264593437314,-0.0006079996819607913,-0.019904199987649918
1690839143026423800,8.960423828125,-0.00467651104554534,-0.002918558195233345,-0.020487964153289795
1690839143036465000,8.97046484375,-0.005772401578724384,-0.002169144805520773,-0.019455989822745323
1690839143046505000,8.9805048828125,-0.004136155359447002,-0.001998968655243516,-0.01968076080083847
1690839143056545000,8.990544921875,-0.0062429821118712425,-0.0029635655228048563,-0.0210669357329607
1690839143066585000,9.000585205078124,-0.005172391422092915,-0.003841343568637967,-0.021639248356223106
1690839143076626200,9.010626220703125,-0.0051657333970069885,-0.0005717806634493172,-0.019573701545596123
1690839143086666000,9.020666015625,-0.006110623013228178,-0.0016133430181071162,-0.020115921273827553
1690839143096705800,9.030705810546875,-0.0038892803713679314,-0.003556119045242667,-0.020984910428524017
1690839143106747000,9.040746826171874,-0.005179049447178841,-0.0014889733865857124,-0.020438695326447487
1690839143116787000,9.050786865234375,-0.005589975044131279,-0.0015813850332051516,-0.020069316029548645
1690839143126827000,9.060826904296874,-0.004173972178250551,-0.0016639430541545153,-0.02069356106221676
1690839143136867000,9.0708671875,-0.003978496417403221,-0.0031790153589099646,-0.019157448783516884
1690839143146908200,9.080908203125,-0.005131645128130913,-0.0036842171102762222,-0.019943080842494965
1690839143156948000,9.090947998046875,-0.005142297595739365,-0.0026788737159222364,-0.019830163568258286
1690839143166987800,9.10098779296875,-0.00484162662178278,-0.003433347214013338,-0.019754795357584953
1690839143177058800,9.111058837890624,-0.004991030320525169,-0.004038949962705374,-0.018788868561387062
1690839143187099000,9.121098876953125,-0.005703425966203213,-0.004474909510463476,-0.020847758278250694
1690839143197140000,9.131139892578124,-0.004883704707026482,0.00023329291434492916,-0.02190290205180645
1690839143207180000,9.141179931640625,-0.0028487835079431534,0.1720529943704605,-0.03702752664685249
1690839143217220000,9.15122021484375,0.007363107521086931,-0.2524290680885315,-0.007335943635553122
1690839143227261200,9.16126123046875,-0.010842260904610157,0.000928111607208848,0.032096948474645615
1690839143237301000,9.171301025390624,-0.006590524688363075,0.07203451544046402,0.014517157338559628
1690839143247326200,9.181326171875,-0.01691320352256298,-0.017789915204048157,-0.03995434194803238
1690839143257366300,9.1913662109375,-0.014852182939648628,-0.007645136676728725,-0.07066857814788818
1690839143267407000,9.201406982421876,-0.010951717384159565,-0.04155969247221947,-0.10566277801990509
1690839143277447200,9.211447265625,-0.010218548588454723,-0.043720051646232605,-0.12834492325782776
1690839143287487200,9.2214873046875,-0.00800093449652195,-0.039136748760938644,-0.14278724789619446
1690839143297527000,9.231527099609375,-0.0011147991754114628,-0.025371668860316277,-0.15014316141605377
1690839143307568000,9.241568115234376,0.003290335414931178,-0.006058691535145044,-0.15113306045532227
1690839143317608200,9.251608154296875,0.0038986015133559704,0.004751079250127077,-0.15519651770591736
1690839143327648300,9.261648193359376,0.004750280175358057,0.01817287877202034,-0.15223613381385803
1690839143337719300,9.27171923828125,0.00018349179299548268,0.01997397467494011,-0.14649729430675507
1690839143347759400,9.28175927734375,-0.00279072648845613,0.018065020442008972,-0.14016962051391602
1690839143357800200,9.29180029296875,-0.003695402294397354,0.012971192598342896,-0.12865757942199707
1690839143367840000,9.301840087890625,-0.008422247134149075,0.003136138431727886,-0.12057195603847504
1690839143377880000,9.311880126953126,-0.007131945341825485,-0.0046570696868002415,-0.10910571366548538
1690839143387921200,9.321921142578125,-0.007880293764173985,-0.015629293397068977,-0.09748128056526184
1690839143397961200,9.331961181640626,-0.007541539613157511,-0.02279612608253956,-0.08404643088579178
1690839143408001300,9.342001220703125,-0.006213687360286713,-0.026213228702545166,-0.07133010774850845
1690839143418041300,9.352041259765626,-0.004858671221882105,-0.02353515289723873,-0.05730190500617027
1690839143428082200,9.362082275390625,-0.003203516360372305,-0.01973402313888073,-0.043951746076345444
1690839143438122200,9.372122314453126,-0.0028751487843692303,-0.016279904171824455,-0.027289144694805145
1690839143448162000,9.382162109375,-0.0032051142770797014,-0.008564193733036518,-0.015807459130883217
1690839143458203100,9.392203125,-0.002831739140674472,0.0018895127577707171,-0.0020152139477431774
1690839143468243200,9.4022431640625,-0.005453088786453009,0.008386827073991299,0.011975969187915325
1690839143478283300,9.412283203125,-0.00401684595271945,0.015678828582167625,0.02304273471236229
1690839143488323300,9.4223232421875,-0.005085572600364685,0.01902082934975624,0.033250097185373306
1690839143498394400,9.432394287109375,-0.0036583843175321817,0.018272479996085167,0.04127473384141922
1690839143508434200,9.44243408203125,-0.004966262727975845,0.014949122443795204,0.0500091053545475
1690839143518475000,9.45247509765625,-0.004477572627365589,0.012287825345993042,0.058093395084142685
1690839143528515000,9.46251513671875,-0.002793123247101903,0.004070375580340624,0.06246550753712654
1690839143538555100,9.47255517578125,-0.0022189458832144737,-0.0016759273130446672,0.06611190736293793
1690839143548596200,9.48259619140625,-0.00430260319262743,-0.004308994393795729,0.0697372704744339
1690839143558636300,9.49263623046875,-0.005269863177090883,-0.011807656846940517,0.06995964050292969
1690839143568676400,9.50267626953125,-0.007605188991874456,-0.01014131773263216,0.07004939019680023
1690839143578716200,9.512716064453125,-0.006346046458929777,-0.006737531162798405,0.06599925458431244
1690839143588757200,9.52275732421875,-0.008171110413968563,-0.0030599720776081085,0.06263941526412964
1690839143598797000,9.532797119140625,-0.007485080510377884,0.003279150230810046,0.05609709024429321
1690839143608837000,9.542837158203126,-0.005513275973498821,0.00748987402766943,0.04807112365961075
1690839143618878200,9.552878173828125,-0.005596633069217205,0.012299010530114174,0.03989308699965477
1690839143628918300,9.562918212890626,-0.0035206989850848913,0.012437494471669197,0.03038400411605835
1690839143638958300,9.572958251953125,-0.002755040070042014,0.013001552782952785,0.020714865997433662
1690839143648998100,9.582998046875,-0.0022367890924215317,0.009109608829021454,0.009606022387742996
1690839143659069200,9.593069091796876,-0.003338272450491786,0.0018666095566004515,-0.0023374564480036497
1690839143669110000,9.603110107421875,-0.0018399780383333564,-0.0017835189355537295,-0.012202337384223938
1690839143679150000,9.613150146484376,-0.003294330323114991,-0.007698932196944952,-0.023624369874596596
1690839143689190100,9.623190185546875,-0.005593969952315092,-0.01116104144603014,-0.03309270739555359
1690839143699230200,9.633230224609376,-0.005863748025149107,-0.012013252824544907,-0.0435141883790493
1690839143709271300,9.643271240234375,-0.0057316552847623825,-0.01184946857392788,-0.055747952312231064
1690839143719311400,9.653311279296876,-0.007654990069568157,-0.00936154369264841,-0.0621187649667263
1690839143729351200,9.66335107421875,-0.006490123458206654,-0.0060325926169753075,-0.07082357257604599
1690839143739392300,9.673392333984374,-0.004433630499988794,-0.004057592246681452,-0.07716242969036102
1690839143749432000,9.68343212890625,-0.0017044231062754989,-0.0013704627053812146,-0.08453618735074997
1690839143759472000,9.69347216796875,-0.001341434195637703,-0.0031846079509705305,-0.08464618027210236
1690839143769512200,9.70351220703125,-0.003191798459738493,-0.0017369136912748218,-0.08703556656837463
1690839143779553300,9.71355322265625,-0.003471696749329567,-0.00304612354375422,-0.08666911721229553
1690839143789593300,9.72359326171875,-0.005394765175879002,-0.004521781112998724,-0.08700493723154068
1690839143799633200,9.733633056640626,-0.005441370885819197,-0.005907690152525902,-0.08469224721193314
1690839143809673000,9.7436728515625,-0.005386509466916323,-0.010040117427706718,-0.08430609107017517
1690839143819744000,9.753743896484375,-0.006120476871728897,-0.008303469978272915,-0.0770399197936058
1690839143829785000,9.76378515625,-0.005093828309327364,-0.00954050850123167,-0.07243824750185013
1690839143839825200,9.7738251953125,-0.0046450854279100895,-0.008537827990949154,-0.06709088385105133
1690839143849865200,9.783865234375,-0.004803543444722891,-0.009558884426951408,-0.06047133356332779
1690839143859905300,9.7939052734375,-0.004847219679504633,-0.008106129243969917,-0.05704784020781517
1690839143869946400,9.8039462890625,-0.004291151650249958,-0.0033606430515646935,-0.04811559617519379
1690839143879986000,9.81398583984375,-0.003668770659714937,-0.003198722843080759,-0.03856709972023964
1690839143890026000,9.82402587890625,-0.003728425595909357,-0.00026498452643863857,-0.03208256885409355
1690839143900067000,9.834067138671875,-0.003905525663867593,0.0009986853692680597,-0.02449841797351837
1690839143910107100,9.844107177734376,-0.002891926560550928,0.0013049489352852106,-0.017227988690137863
1690839143920147200,9.854147216796875,-0.003480485174804926,0.004348675720393658,-0.012320049107074738
1690839143930187300,9.864187255859376,-0.004914331249892712,0.0013273194199427962,-0.005081844050437212
1690839143940228000,9.87422802734375,-0.004862399306148291,0.0018985675415024161,0.0020482372492551804
1690839143950268200,9.88426806640625,-0.005258145276457071,-0.0016977651976048946,0.0072986590676009655
1690839143960308000,9.894307861328125,-0.0057015614584088326,-0.00256409146822989,0.014667092822492123
1690839143970349000,9.90434912109375,-0.006095975637435913,-0.0035547874867916107,0.01715395227074623
1690839143980419000,9.914419189453126,-0.005708219483494759,-0.0021995047573000193,0.01925092563033104
1690839143990460200,9.924460205078125,-0.005911152344197035,-0.0030003173742443323,0.023753533139824867
1690839144000500200,9.934500244140626,-0.003421096596866846,0.00007137271313695237,0.024215057492256165
1690839144010540300,9.944540283203125,-0.0062792012467980385,0.001190433045849204,0.02526407688856125
1690839144020580000,9.954580078125,-0.004595017991960049,-0.00030866035376675427,0.024391625076532364
1690839144030621000,9.964620849609375,-0.004254666157066822,0.0030834078788757324,0.024885907769203186
1690839144040661000,9.974660888671876,-0.00415399856865406,0.0024144218768924475,0.02245311066508293
1690839144050701000,9.984701171875,-0.004741758108139038,0.0023276028223335743,0.017199493944644928
1690839144060742100,9.9947421875,-0.004412591457366943,0.001898301183246076,0.01528894156217575
1690839144070782200,10.0047822265625,-0.003939347807317972,0.0003222425002604723,0.0121264373883605
1690839144080822300,10.014822265625,-0.0057590859942138195,0.0009765811264514923,0.007256315089762211
1690839144090862300,10.0248623046875,-0.00440939562395215,-0.002133724745362997,0.0007752461824566126
1690839144100903200,10.034903076171876,-0.006214220076799393,-0.0033427998423576355,-0.00458596320822835
1690839144110943000,10.04494287109375,-0.004366252571344376,-0.0027712853625416756,-0.011178618296980858
1690839144120983000,10.054983154296876,-0.004846686962991953,-0.0017449031583964825,-0.014933142811059952
1690839144131024100,10.065024169921875,-0.0057284594513475895,-0.00047111319145187736,-0.022240057587623596
1690839144141094100,10.07509423828125,-0.005328719038516283,-0.0028503811918199062,-0.026261964812874794
1690839144151135200,10.08513525390625,-0.006647250149399042,-0.0021971079986542463,-0.03351348638534546
1690839144161175300,10.09517529296875,-0.004728176165372133,-0.0017651431262493134,-0.03772047907114029
1690839144171215000,10.105215087890626,-0.0038834214210510254,-0.0026666230987757444,-0.0428534559905529
1690839144181256000,10.115255859375,-0.004322044085711241,-0.0022983080707490444,-0.04711691290140152
1690839144191296000,10.1252958984375,-0.003632019041106105,-0.0048887645825743675,-0.04898272082209587
1690839144201336000,10.135336181640625,-0.005086371209472418,-0.001275920425541699,-0.05007807910442352
1690839144211376000,10.145376220703126,-0.003917776048183441,-0.006030994467437267,-0.052500225603580475
1690839144221417200,10.155417236328125,-0.0046882289461791515,-0.0046149916015565395,-0.05462303012609482
1690839144231457300,10.165457275390626,-0.005140167195349932,-0.007098655682057142,-0.05332553759217262
1690839144241497300,10.175497314453125,-0.005073055624961853,-0.00392896169796586,-0.053945258259773254
1690839144251549000,10.185548828125,-0.0054094125516712666,-0.006202768534421921,-0.05337374284863472
1690839144261590000,10.195590087890626,-0.003704457078129053,-0.0062523032538592815,-0.051659464836120605
1690839144271630000,10.205630126953125,-0.004757737275213003,-0.004232561681419611,-0.046907320618629456
1690839144281670100,10.215670166015625,-0.006566289812326431,-0.005396096967160702,-0.04632595181465149
1690839144291711000,10.2257109375,-0.002680737990885973,-0.0029113676864653826,-0.044563207775354385
1690839144301781200,10.23578125,-0.004065048880875111,-0.0041372207924723625,-0.039925310760736465
1690839144311822000,10.245822021484376,-0.005060538649559021,-0.0018466358305886388,-0.03382214531302452
1690839144321862100,10.255862060546875,-0.0054632085375487804,-0.00012996226723771542,-0.03256140649318695
1690839144331902000,10.26590185546875,-0.004254399798810482,-0.0007294398383237422,-0.027830831706523895
1690839144341943000,10.275943115234375,-0.0036818201187998056,-0.0007448861724697053,-0.02460547722876072
1690839144351983000,10.285983154296876,-0.005569735076278448,-0.0020335898734629154,-0.021800637245178223
1690839144362023200,10.296023193359375,-0.004511661361902952,-0.003838680451735854,-0.016171513125300407
1690839144372063200,10.306063232421875,-0.00487331859767437,-0.0014618091518059373,-0.012005263939499855
1690839144382104000,10.31610400390625,-0.005524194799363613,-0.004579572007060051,-0.00974716991186142
1690839144392144100,10.32614404296875,-0.005258677992969751,-0.0028096348978579044,-0.00678307143971324
1690839144402184000,10.336183837890625,-0.004316185135394335,-0.000060986389144090936,-0.005042429082095623
1690839144412225000,10.34622509765625,-0.005338306538760662,-0.0019654128700494766,-0.0004964132094755769
1690839144422265000,10.35626513671875,-0.0056978329084813595,-0.0009123989730142057,0.000045806369598722085
1690839144432305200,10.36630517578125,-0.0048916940577328205,-0.0001853560097515583,0.0010809770319610834
1690839144442345200,10.37634521484375,-0.005244562868028879,-0.00009427589975530282,0.00227860058657825
1690839144452416300,10.386416259765625,-0.004543619230389595,0.0010207896120846272,0.0025217472575604916
1690839144462456300,10.396456298828125,-0.0038064562249928713,0.0023752732668071985,0.0010783139150589705
1690839144472497200,10.4064970703125,-0.004226702731102705,0.00010386328358436003,0.0007281082216650248
1690839144482537000,10.416536865234375,-0.003157177474349737,-0.0005198490689508617,-0.0012330436147749424
1690839144492577000,10.426576904296875,-0.004096208140254021,-0.0016732640797272325,-0.00038003307417966425
1690839144502618000,10.4366181640625,-0.004874383565038443,-0.0019648801535367966,-0.004028297495096922
1690839144512658200,10.446658203125,-0.005175320897251368,-0.002008556155487895,-0.0057287258096039295
1690839144522698200,10.4566982421875,-0.006718622520565987,-0.0033372072502970695,-0.008331965655088425
1690839144532738300,10.46673828125,-0.005441637244075537,0.00013129384024068713,-0.012295016087591648
1690839144542779100,10.476779052734376,-0.003915912006050348,0.0009137305896729231,-0.012633769772946835
1690839144552819000,10.48681884765625,-0.005378253757953644,0.001047421246767044,-0.0185257475823164
1690839144562859000,10.49685888671875,-0.005401955917477608,0.0005219795857556164,-0.02057691477239132
1690839144572900000,10.506900146484375,-0.0064834654331207275,-0.001535312389023602,-0.023153256624937057
1690839144582940200,10.516940185546876,-0.004367318004369736,-0.0009233179152943194,-0.025056617334485054
1690839144592980200,10.526980224609375,-0.004564391914755106,-0.0010482202051207423,-0.027483822777867317
1690839144603020300,10.537020263671875,-0.0028727517928928137,-0.0019137475173920393,-0.029141107574105263
1690839144613091300,10.54709130859375,-0.00472444761544466,-0.0035782232880592346,-0.03165087103843689
1690839144623132200,10.557132080078125,-0.0036487970501184464,-0.0034474621061235666,-0.03434306010603905
1690839144633172000,10.567171875,-0.005227518733590841,-0.0044232443906366825,-0.034514833241701126
1690839144643212000,10.5772119140625,-0.0057708038948476315,-0.003468500915914774,-0.03682885318994522
1690839144653252000,10.587252197265625,-0.006885336712002754,-0.0034996599424630404,-0.03509939834475517
1690839144663293200,10.597293212890625,-0.0054754591546952724,-0.0016969662392511964,-0.03825870528817177
1690839144673333200,10.607333251953126,-0.004692489746958017,-0.0021065603941679,-0.03794604912400246
1690839144683373300,10.617373291015625,-0.005358812864869833,-0.0025869945529848337,-0.03653137758374214
1690839144693414100,10.6274140625,-0.004571582190692425,-0.0036996633280068636,-0.03586985170841217
1690839144703454000,10.637453857421875,-0.0038003309164196253,-0.0015278555219992995,-0.03491057828068733
1690839144713494000,10.647493896484375,-0.005129780620336533,-0.0015691345324739814,-0.03340456262230873
1690839144723534000,10.6575341796875,-0.005642705596983433,-0.004055994097143412,-0.032408539205789566
1690839144733575200,10.6675751953125,-0.004809935111552477,-0.005589708685874939,-0.02966122329235077
1690839144743615200,10.677615234375,-0.0056831855326890945,-0.00469621829688549,-0.0284137986600399
1690839144753655300,10.6876552734375,-0.004533232655376196,-0.002108957152813673,-0.026322150602936745
1690839144763695400,10.6976953125,-0.005242166109383106,-0.002665025182068348,-0.02448244020342827
1690839144773766100,10.70776611328125,-0.004861867055296898,-0.0013960290234535933,-0.021400097757577896
1690839144783807000,10.717806884765626,-0.006791593506932259,-0.002540122950449586,-0.020667195320129395
1690839144793847000,10.727846923828125,-0.0054272557608783245,-0.0014498248929157853,-0.019124692305922508
1690839144803887000,10.73788720703125,-0.004653607495129108,-0.0013851100811734796,-0.017466075718402863
1690839144813927200,10.74792724609375,-0.0029348034877330065,-0.002433330286294222,-0.015181615948677063
1690839144823968300,10.75796826171875,-0.00518837058916688,-0.0016072177095338702,-0.013659886084496975
1690839144834008300,10.76800830078125,-0.005560413934290409,-0.0013283847365528345,-0.012463860213756561
1690839144844048100,10.778048095703125,-0.004799815360456705,-0.0006471481174230576,-0.009197493083775043
1690839144854089000,10.7880888671875,-0.0052376389503479,-0.0024796691723167896,-0.012057195417582989
1690839144864129000,10.79812890625,-0.0043899547308683395,-0.0013845774810761213,-0.00950775109231472
1690839144874169000,10.808169189453125,-0.005697034299373627,-0.0036599822342395782,-0.007232879288494587
1690839144884209200,10.818209228515625,-0.0035635759122669697,-0.0007896272582001984,-0.010118148289620876
1690839144894250200,10.828250244140625,-0.00401737866923213,-0.0022564963437616825,-0.009695770218968391
1690839144904290300,10.838290283203126,-0.0038032603915780783,-0.0008159925346262753,-0.00933011807501316
1690839144914330000,10.848330078125,-0.0036067189648747444,-0.002302302746102214,-0.011440940201282501
1690839144924371000,10.858370849609376,-0.005904494319111109,-0.0026913906913250685,-0.010520817711949348
1690839144934441200,10.868441162109375,-0.005477855913341045,0.00019734023953787982,-0.01092561800032854
1690839144944482000,10.87848193359375,-0.005189169198274612,0.00138031633105129,-0.014458834193646908
1690839144954522000,10.888522216796876,-0.0037763623986393213,0.00027297402266412973,-0.015244998969137669
1690839144964562200,10.898562255859375,-0.004283694550395012,-0.001157143502496183,-0.016204802319407463
1690839144974602200,10.908602294921875,-0.003871171036735177,-0.002085787709802389,-0.01894279755651951
1690839144984643300,10.918643310546875,-0.005623264703899622,-0.004884503781795502,-0.020301276817917824
1690839144994683100,10.92868310546875,-0.005148422904312611,-0.0020130835473537445,-0.02015027590095997
1690839145004723200,10.93872314453125,-0.0043715788051486015,-0.0024463797453790903,-0.023919181898236275
1690839145014764000,10.948763916015626,-0.005512743256986141,-0.004552940372377634,-0.023384418338537216
1690839145024804000,10.95880419921875,-0.005146292503923178,-0.0007507451227866113,-0.024709872901439667
1690839145034844200,10.96884423828125,-0.005733252968639135,-0.0004990763845853508,-0.025068335235118866
1690839145044884200,10.97888427734375,-0.005399825517088175,-0.0032232238445430994,-0.027691282331943512
1690839145054925300,10.98892529296875,-0.003061303636059165,-0.003063700394704938,-0.026577282696962357
1690839145064965000,10.998965087890625,-0.005271727219223976,-0.003483947366476059,-0.02743695117533207
1690839145075005000,11.0090048828125,-0.005363073665648699,-0.004701810888946056,-0.030363764613866806
1690839145085046000,11.0190458984375,-0.003674097126349807,-0.002560629276558757,-0.028373584151268005
1690839145095116000,11.029115966796875,-0.005505819339305162,-0.001478587044402957,-0.029035380110144615
1690839145105157000,11.0391572265625,-0.0057444386184215546,-0.002424808219075203,-0.028485970571637154
1690839145115197200,11.049197265625,-0.0046296389773488045,-0.003251453395932913,-0.028902754187583923
1690839145125237200,11.0592373046875,-0.006458698306232691,-0.0021204089280217886,-0.028175445273518562
1690839145135278300,11.0692783203125,-0.004959338344633579,-0.003960919566452503,-0.027176760137081146
1690839145145318100,11.079318115234376,-0.005306614562869072,-0.004220045171678066,-0.025247566401958466
1690839145155358000,11.08935791015625,-0.0030799456872045994,-0.0032842103391885757,-0.0265413299202919
1690839145165398000,11.09939794921875,-0.005682386923581362,-0.0030269487760961056,-0.024641696363687515
1690839145175439000,11.109439208984375,-0.004544151946902275,-0.003037867834791541,-0.0245498176664114
1690839145185479200,11.119479248046876,-0.0049252500757575035,-0.002239984693005681,-0.023197198286652565
1690839145195519200,11.129519287109375,-0.0057401773519814014,-0.0014327806420624256,-0.017707090824842453
1690839145205560300,11.139560302734376,-0.003856523660942912,-0.00440992834046483,-0.020017916336655617
1690839145215600000,11.14960009765625,-0.003915379289537668,-0.0007025419035926461,-0.01859419047832489
1690839145225640000,11.159639892578125,-0.004626443609595299,-0.001606152392923832,-0.017299095168709755
1690839145235680000,11.169679931640625,-0.004809136036783457,-0.0019630161114037037,-0.015956595540046692
1690839145245721000,11.17972119140625,-0.0054243262857198715,-0.003319896524772048,-0.01504046842455864
1690839145255779600,11.189779541015625,-0.003897269954904914,0.00016005597717594355,-0.015866314992308617
1690839145265820400,11.1998203125,-0.0027571707032620907,-0.0006964165950194001,-0.015807459130883217
1690839145275860500,11.209860595703125,-0.00549170421436429,-0.002156095113605261,-0.014532603323459625
1690839145285900500,11.219900634765626,-0.005393700208514929,0.0014828480780124664,-0.014460698701441288
1690839145295941600,11.229941650390625,-0.002724680118262768,-0.001680720946751535,-0.014503042213618755
1690839145305981400,11.2399814453125,-0.004012318328022957,-0.0011371697764843702,-0.014910772442817688
1690839145316021500,11.250021484375,-0.005304217804223299,-0.003287672298029065,-0.016273245215415955
1690839145326061600,11.2600615234375,-0.005555886775255203,-0.003469033632427454,-0.014326740987598896
1690839145336102400,11.270102294921875,-0.005269596818834543,-0.003820304526016116,-0.016343286260962486
1690839145346142500,11.280142578125,-0.0041670482605695724,-0.003094326937571168,-0.014495053328573704
1690839145356182500,11.2901826171875,-0.0049129994586110115,-0.00008122641156660393,-0.017781659960746765
1690839145366223600,11.3002236328125,-0.004699414130300283,-0.0018333201296627522,-0.019239207729697227
1690839145376263400,11.310263427734375,-0.005694371182471514,-0.002263420494273305,-0.01793425902724266
1690839145386303500,11.320303466796876,-0.004505003336817026,-0.0015214639715850353,-0.01835477165877819
1690839145396343600,11.330343505859375,-0.0041039311327040195,-0.0010165285784751177,-0.018761437386274338
1690839145406384400,11.34038427734375,-0.005620867945253849,-0.0018048242200165987,-0.02021738700568676
1690839145416454700,11.35045458984375,-0.004886367823928595,-0.00250550196506083,-0.021686919033527374
1690839145426495500,11.36049560546875,-0.0044104610569775105,-0.0011560781858861446,-0.021434985101222992
1690839145436535600,11.37053564453125,-0.005853894166648388,-0.004507666453719139,-0.023080019280314445
1690839145446575400,11.380575439453125,-0.004942027851939201,-0.0033044503070414066,-0.022175610065460205
1690839145456616400,11.390616455078124,-0.005118062719702721,-0.0023374564480036497,-0.024106668308377266
1690839145466656500,11.400656494140625,-0.0049675945192575455,-0.005120193585753441,-0.024141555652022362
1690839145476696600,11.410696533203126,-0.0065069012343883514,-0.002273540711030364,-0.025226792320609093
1690839145486736600,11.420736572265625,-0.004226702731102705,-0.001341966912150383,-0.024941036477684975
1690839145496777500,11.430777587890624,-0.005270928610116243,-0.0009017463307827711,-0.025623604655265808
1690839145506817500,11.440817626953125,-0.004052266012877226,-0.0001608549355296418,-0.02556554786860943
1690839145516857300,11.450857421875,-0.005018726922571659,0.0009110674145631492,-0.026691798120737076
1690839145526898400,11.4608984375,-0.0054184673354029655,-0.00038163099088706076,-0.024290692061185837
1690839145536938500,11.4709384765625,-0.003861050819978118,-0.002906573936343193,-0.026152508333325386
1690839145546978600,11.480978515625,-0.004385161213576794,-0.0033537186682224274,-0.02460627630352974
1690839145557018600,11.4910185546875,-0.005403819959610701,-0.0029318740125745535,-0.023973509669303894
1690839145567059500,11.5010595703125,-0.004537760280072689,-0.0009504822082817554,-0.0231734961271286
1690839145577130500,11.511130615234375,-0.005449360236525536,-0.0038045919500291348,-0.023807860910892487
1690839145587170600,11.521170654296874,-0.004760134033858776,-0.00478463526815176,-0.022067485377192497
1690839145597210400,11.53121044921875,-0.005285841878503561,-0.0012780509423464537,-0.022780679166316986
1690839145607250400,11.54125048828125,-0.005160939879715443,-0.003447994589805603,-0.021089572459459305
1690839145617291500,11.55129150390625,-0.0041398839093744755,0.00038056570338085294,-0.018803514540195465
1690839145627331600,11.56133154296875,-0.003796069882810116,-0.00020905814017169178,-0.02171275205910206
1690839145637371600,11.57137158203125,-0.00401578051969409,-0.0013480921043083072,-0.01948501728475094
1690839145647412500,11.58141259765625,-0.004525243304669857,0.0008170577930286527,-0.017910024151206017
1690839145657452500,11.59145263671875,-0.005697034299373627,-0.0032661007717251778,-0.017786188051104546
1690839145667492400,11.601492431640626,-0.004854409955441952,-0.0013765880139544606,-0.01776035502552986
1690839145677532400,11.611532470703125,-0.005489573813974857,-0.0017526262672618032,-0.018486332148313522
1690839145687573500,11.621573486328124,-0.003308444982394576,-0.00196354859508574,-0.018694858998060226
1690839145697613600,11.631613525390625,-0.004882107023149729,-0.00318913534283638,-0.018386730924248695
1690839145707653600,11.641653564453126,-0.005341236013919115,-0.0023313311394304037,-0.01852414943277836
1690839145717694500,11.651694580078125,-0.00418489146977663,0.0002764361270237714,-0.017292704433202744
1690839145727734500,11.661734619140624,-0.006070143077522516,-0.001970472978428006,-0.016650881618261337
1690839145737805600,11.6718056640625,-0.004671450704336166,-0.0008868326549418271,-0.016648484393954277
1690839145747845400,11.681845458984375,-0.0037875475827604532,-0.0028360001742839813,-0.019161976873874664
1690839145757885400,11.691885498046876,-0.005592904519289732,-0.0014628743520006537,-0.018455972895026207
1690839145767925500,11.701925537109375,-0.006013683974742889,-0.004658135119825602,-0.019241871312260628
1690839145777966600,11.711966552734374,-0.005643504671752453,-0.0038003309164196253,-0.01781867817044258
1690839145788006700,11.722006591796875,-0.0059846555814146996,-0.0016460998449474573,-0.0203380286693573
1690839145798046500,11.73204638671875,-0.005763346794992685,-0.003786748740822077,-0.020677581429481506
1690839145808087600,11.742087646484375,-0.00515880947932601,-0.0004599279200192541,-0.018862636759877205
1690839145818127400,11.75212744140625,-0.004582501482218504,-0.001781921018846333,-0.022344453260302544
1690839145828167400,11.76216748046875,-0.005339637864381075,-0.002785400254651904,-0.02388349547982216
1690839145838207500,11.77220751953125,-0.004858404863625765,-0.0035694348625838757,-0.020499149337410927
1690839145848248600,11.78224853515625,-0.005339105147868395,-0.00005699164830730297,-0.0225047767162323
1690839145858288600,11.79228857421875,-0.005602225661277771,-0.0002769687562249601,-0.02376232109963894
1690839145868328400,11.802328369140625,-0.004808071069419384,-0.0036448021419346333,-0.02299080230295658
