time,seconds_elapsed,z,y,x
1690839231068515300,0.195515380859375,0.19655892941057682,-0.14254782816190273,-0.00985759177680593
1690839231078555400,0.205555419921875,0.19866671534478664,-0.1291573449846357,0.0037558180027175694
1690839231088596200,0.21559619140625,0.21045184568464756,-0.10908252520523964,0.022759309623017906
1690839231098636300,0.22563623046875,0.21891396908164024,-0.08943367575295269,0.028179923599376343
1690839231108707300,0.235707275390625,0.22855974930524825,-0.07475519859176129,0.02212978868097998
1690839231118747400,0.245747314453125,0.2307365088224411,-0.05268186193890869,0.014155494466703384
1690839231128787200,0.255787109375,0.24746318721771238,-0.03373736136369407,0.010536057293950579
1690839231138827300,0.2658271484375,0.2611018364697695,-0.007649309176765382,-0.006331194049213082
1690839231148868400,0.275868408203125,0.2700117036342621,0.018890834159217773,-0.010714135540905409
1690839231158908400,0.285908447265625,0.2790653631836176,0.18120361243374644,-0.013792848866502753
1690839231168948500,0.295948486328125,0.2904670471638441,0.18151161893699316,-0.01414362593239639
1690839231178989300,0.3059892578125,0.2930500493943691,0.17968140783514827,-0.009449495033104903
1690839231189029400,0.316029296875,0.2810240960359573,0.1647101948050782,-0.010677296962123363
1690839231199069200,0.326069091796875,0.2668903567433357,0.1460778289189562,0.0006950147931464016
1690839231209109200,0.336109130859375,0.2674357156664133,0.1258547232426703,-0.00042513464346993714
1690839231219150300,0.346150390625,0.2531523387700319,0.0976367463549599,-0.0009121875080512836
1690839231229190400,0.3561904296875,0.24617022479772566,0.07511296252086758,-0.0034172062986530362
1690839231239230500,0.36623046875,0.2585340318083763,0.04597334074359387,-0.006950074866227805
1690839231249271300,0.376271240234375,0.22515257121026513,0.011140877619571983,-0.0010346128778997807
1690839231259311400,0.386311279296875,0.22679507772028445,-0.015146861857920885,-0.00800358424084261
1690839231269382400,0.39638232421875,0.21427286527752876,-0.03519143262952566,-0.0020148195542860777
1690839231279422200,0.406422119140625,0.20672201150655745,-0.05914028083067387,-0.003219208641676232
1690839231289462300,0.416462158203125,0.20443127022087573,-0.07888802408017218,-0.0020726689550559967
1690839231299503400,0.42650341796875,0.20801088227331638,-0.0977839362733066,0.0002144373351242393
1690839231309543400,0.43654345703125,0.19693243889808654,-0.09309351343475282,0.0021456519928760827
1690839231319583500,0.44658349609375,0.19067045589387416,-0.09953538305051624,0.006573446406447328
1690839231329623600,0.45662353515625,0.19312895496189594,-0.09635386693757027,-0.0023094277198426423
1690839231339665700,0.466665771484375,0.20548048701286314,-0.08153433733787387,-0.013989937774604186
1690839231349705500,0.47670556640625,0.19928981567919254,-0.0753270801955834,-0.0113291758664418
1690839231359745500,0.48674560546875,0.20479718092381952,-0.0670802069844678,-0.008042806572956033
1690839231369785600,0.49678564453125,0.2086895121872425,-0.04561495575997978,-0.007768926101597026
1690839231379826400,0.506826416015625,0.22459143019616604,-0.025918650436773896,-0.003580461435811594
1690839231389866500,0.516866455078125,0.23554887754023074,-0.01426726601179689,-0.00411747265565209
1690839231399906600,0.526906494140625,0.23038053499162195,0.006052431906759739,-0.005355069892900064
1690839231409947600,0.53694775390625,0.24288404273390768,0.0225526811350137,-0.0034350935817928983
1690839231419987700,0.54698779296875,0.2513397363901138,0.030455928540229795,0.004174253477342426
1690839231430058500,0.55705859375,0.23751754726469515,0.036830066682025785,-0.010082326743658632
1690839231440098600,0.5670986328125,0.2412111410856247,0.04864909929148852,-0.009296953086205758
1690839231450138600,0.577138671875,0.2519295189768076,0.041763467963598665,-0.004053764336253516
1690839231460179500,0.587179443359375,0.2445399932473898,0.044287762276828284,-0.008653184423106723
1690839231470219500,0.597219482421875,0.24463585483729838,0.04243826195262372,-0.003945376624912024
1690839231480259600,0.607259521484375,0.23753975909650324,0.03512527205813676,-0.0006320279929554089
1690839231490299400,0.61729931640625,0.2329793193131685,0.014063560133241115,0.0013530220441520214
1690839231500340500,0.627340576171875,0.22557108888328073,0.013710801172815262,0.00036931280300486833
1690839231510380500,0.637380615234375,0.22488602922856807,-0.005779642847366631,-0.00893546283005271
1690839231520420600,0.647420654296875,0.2150467722594738,-0.012511435320414602,-0.003722299325605854
1690839231530461400,0.65746142578125,0.21432254963815212,-0.020067111396975815,-0.006588456745911389
1690839231540501500,0.66750146484375,0.20623685833811758,-0.030826150092110035,0.0017753939083777366
1690839231550541600,0.67754150390625,0.20247078380286693,-0.04272602938544005,-0.00907593531324528
1690839231560581600,0.68758154296875,0.19867782126069067,-0.0426413467766717,-0.009080355760036036
1690839231570622700,0.697622802734375,0.20206629465520382,-0.052292095436342056,-0.0048804883508244525
1690839231580692500,0.7076923828125,0.19181261166632174,-0.055610024345293635,-0.0070517725418787446
1690839231590733600,0.717733642578125,0.20131752211451528,-0.0493564438432455,-0.005187220779014751
1690839231600773600,0.727773681640625,0.20423545538783072,-0.048086935364082456,-0.0008151660075178369
1690839231610813700,0.737813720703125,0.20445640466213225,-0.033003969055227934,-0.006264732083724811
1690839231620854500,0.7478544921875,0.20767887383997438,-0.025314693194255233,-0.009649807944754138
1690839231630894600,0.75789453125,0.21091420249938964,-0.025343553962558506,-0.008984937128121965
1690839231640934400,0.767934326171875,0.21251228534579275,-0.010768500643223523,-0.001125515164900571
1690839231650974500,0.777974365234375,0.2147229471325874,-0.0006833426216617226,0.00041443515294231474
1690839231661015600,0.788015625,0.21680092245042323,0.005392214432358741,0.00029632519860751927
1690839231671055600,0.7980556640625,0.22696984976530074,0.017831242103688416,0.0013503368967212736
1690839231681095700,0.808095703125,0.21666414432823658,0.022268530431389807,-0.00025948205324821173
1690839231691136500,0.818136474609375,0.21923545612096784,0.012479213551245628,-0.003007840046472847
1690839231701176600,0.828176513671875,0.22361820124983786,0.02171995663791895,-0.0029095490374602376
1690839231711216600,0.838216552734375,0.22906477621793744,0.023388510904647407,-0.006701689595729112
1690839231721256400,0.84825634765625,0.21805589094758032,0.008567593065463007,-0.006874109853454865
1690839231731297500,0.858297607421875,0.21931787370741365,0.007415500420890748,-0.005420741840521805
1690839231741368600,0.86836865234375,0.22073007859289645,0.0067242302211001515,0.0032532387754414228
1690839231751408600,0.87840869140625,0.21659107909202574,-0.00025021190140396354,-0.0053422378107905386
1690839231761448700,0.88844873046875,0.2088514247506857,-0.007418386497721075,-0.001977903343690559
1690839231771488800,0.89848876953125,0.20949439882934093,-0.007519399186782539,-0.001543786242743954
1690839231781529600,0.908529541015625,0.19994506471753118,-0.012611717357113956,-0.008510255121346563
1690839231791569400,0.9185693359375,0.19681494999825952,-0.02177713018525392,0.005733018093509599
1690839231801609500,0.928609375,0.1987719292849302,-0.028446999870613214,0.013723066999344155
1690839231811649500,0.9386494140625,0.197121823990345,-0.03423526441585272,-0.000364102338347584
1690839231821690600,0.948690673828125,0.20353812077343464,-0.026400807930529117,-0.003630232561402954
1690839231831730700,0.958730712890625,0.2017138279557228,-0.022536497185193002,0.000527362042083405
1690839231841770800,0.968770751953125,0.19687924740612506,-0.030242395387403666,-0.008012534732278436
1690839231851811600,0.9788115234375,0.19233634327948093,-0.026458602532371877,-0.010039177155098878
1690839231861851400,0.988851318359375,0.19048633149862287,-0.012207922329194843,-0.005898698083194904
1690839231871891500,0.998891357421875,0.2012076319992542,-0.01672167342659086,-0.004930232076952233
1690839231881931500,1.008931640625,0.20235680203437803,-0.017690591523982585,-0.0007294285194016992
1690839231891972600,1.01897265625,0.20426058982908724,-0.0006114098966121674,0.0015727657420560716
1690839231902043600,1.029043701171875,0.20782032813727855,-0.002486775314435363,0.004975185463530943
1690839231912083700,1.039083740234375,0.21407646592259405,0.002276055173203349,-0.004583688228181563
1690839231922123800,1.049123779296875,0.21077800889909265,0.0022888781221583484,-0.011690821386221796
1690839231932163600,1.05916357421875,0.21347674646377562,-0.0009198547912761568,-0.00627873320961371
1690839231942204400,1.069204345703125,0.212440973675251,-0.005019472129829228,-0.004914979708893224
1690839231952244500,1.079244384765625,0.21111761611700056,-0.0007888488227501511,-0.0076178180599585175
1690839231962284500,1.089284423828125,0.21010639324784278,-0.002400850596651435,-0.012386594231193884
1690839231972325600,1.09932568359375,0.1968161190420389,0.00882010652180761,-0.005662601472111418
1690839231982365700,1.10936572265625,0.20448387719094752,0.005108684783242642,-0.0007236837652046233
1690839231992405800,1.11940576171875,0.21184943752288818,-0.005100318813696503,-0.0028598190110642463
1690839232002445600,1.129445556640625,0.2018535286873579,-0.002248546111769974,0.002654752292484045
1690839232012486400,1.139486328125,0.1949988404870033,-0.004674056225642561,-0.010296914775832555
1690839232022526500,1.1495263671875,0.1939712510049343,-0.010700075049512087,-0.003483828094345517
1690839232032566500,1.15956640625,0.19233517423570154,-0.015284370632469653,0.0009346505016088485
1690839232042607600,1.169607666015625,0.20342004735171793,-0.013985526460967956,-0.005635969193512573
1690839232052647700,1.179647705078125,0.20356676234602927,-0.018363047425448892,-0.0032849399548023936
1690839232062718700,1.18971875,0.2011602857261896,-0.015741905141621826,-0.0034002094980794934
1690839232072758800,1.1997587890625,0.20833061574697492,-0.018516484421491623,0.00627272359393537
1690839232082798600,1.209798583984375,0.20098551368117332,-0.009204685392603277,0.007262474416801706
1690839232092838400,1.21983837890625,0.19274550860226153,-0.024121355223841963,0.006351752780051902
1690839232102879500,1.22987939453125,0.18540391366779804,-0.026928046675026414,-0.0010833291241433471
1690839232112919600,1.23991943359375,0.19497545961141585,-0.025905900553055108,-0.011132420318480581
1690839232122959600,1.249959716796875,0.19721125583946703,-0.02149071445930749,-0.015665707233408464
1690839232133000700,1.260000732421875,0.19988485896289349,-0.008866466414183378,-0.024211271130153908
1690839232143040800,1.270040771484375,0.19506722954809663,-0.010316592157259583,-0.020021281227562575
1690839232153080600,1.28008056640625,0.19039163895249367,-0.004967486214265227,-0.011701644174335524
1690839232163120400,1.290120361328125,0.1990221046537161,0.001743847992643714,0.0051554556675720955
1690839232173161500,1.300161376953125,0.1939057845532894,-0.003556779166124761,0.02806286852438934
1690839232183201500,1.310201416015625,0.19837971509695052,0.0021054843792691824,0.02718756526089273
1690839232193241600,1.32024169921875,0.19988135183155537,-0.0012150748781859875,0.02704898790726438
1690839232203282700,1.33028271484375,0.20962708529829976,-0.007738887156359851,0.02593611302822828
1690839232213322800,1.34032275390625,0.2217863096475601,-0.009816424082778394,-0.0033059873094083737
1690839232223393800,1.350393798828125,0.21375322531759738,-0.00775123518127948,-0.033208647614740766
1690839232233433600,1.36043359375,0.21724282099902628,-0.012745719000324606,-0.04636703450260684
1690839232243473400,1.370473388671875,0.20441431908607482,-0.008628054548427463,-0.05786644323626533
1690839232253514500,1.380514404296875,0.20204700543284415,-0.006482128560915589,-0.04892077410602942
1690839232263554600,1.390554443359375,0.1926338649213314,-0.01748392650336027,-0.018572050533629952
1690839232273594600,1.4005947265625,0.18051438806056974,-0.004710442713275552,0.009963120810780674
1690839232283634700,1.410634765625,0.1760159075975418,-0.006312398017197847,0.038620297399931586
1690839232293675800,1.42067578125,0.19111819966137408,-0.011105514045245945,0.05172447901568375
1690839232303715600,1.430715576171875,0.1768956130415201,-0.016863675713166593,0.04587411815281957
1690839232313755400,1.44075537109375,0.19096271683871746,-0.019940598940476773,0.024820963993715122
1690839232323795500,1.45079541015625,0.2050292361140251,-0.018523242955841124,-0.013768883469025604
1690839232333831400,1.46083154296875,0.2008423058182001,-0.014101919382251799,-0.033624361409316766
1690839232343871200,1.470871337890625,0.214309690156579,-0.013174465806409717,-0.05176147742467001
1690839232353911300,1.480911376953125,0.20786299823522567,-0.022436215148493647,-0.05163715692525729
1690839232363952400,1.490952392578125,0.1966197196871042,-0.01785692453421652,-0.03809225950441323
1690839232373992400,1.500992431640625,0.19524726229012013,-0.003071552932448685,-0.009702533645834774
1690839232384063500,1.5110634765625,0.19148527940809726,-0.008009776519611477,0.007250395819940604
1690839232394103600,1.521103515625,0.1857891135931015,0.0004894274847581983,0.03622988599890377
1690839232404143400,1.531143310546875,0.18743395819067954,-0.005621566208824515,0.025711026434926315
1690839232414184400,1.541184326171875,0.19028233335912226,-0.010020787548460065,0.01915280956365168
1690839232424224300,1.551224365234375,0.2034656400591135,-0.01601728801690042,0.010406553729344159
1690839232434264300,1.561264404296875,0.20034370864629744,-0.009875570391491055,-0.010573160734213887
1690839232444304400,1.571304443359375,0.2035048030257225,0.005304024692252278,-0.019494079015683383
1690839232454345500,1.581345458984375,0.200820093986392,-0.011039755332656205,-0.02876697993944399
1690839232464385500,1.591385498046875,0.19379589443802833,-0.010117927780002355,-0.020588440990494564
1690839232474425600,1.601425537109375,0.1921446200996637,-0.0006285071618855,-0.00846766722179018
1690839232484466400,1.611466552734375,0.2077086844563484,-0.004515504663065076,0.007611698846425861
1690839232494506200,1.62150634765625,0.1899099929153919,-0.008806625985726714,0.034688341945596037
1690839232504546300,1.63154638671875,0.19038228660225867,-0.01991498957518488,0.025962270382791756
1690839232514586400,1.64158642578125,0.1880155574709177,-0.023988924483209845,0.020221397776389493
1690839232524627500,1.65162744140625,0.1884773297637701,-0.008931677137501537,-0.007985299665480852
1690839232534697500,1.661697509765625,0.20286241346895695,-0.017910956276394427,-0.04049096380975097
1690839232544738600,1.671738525390625,0.1985200003504753,-0.01646521444749087,-0.04821648916103877
1690839232554778400,1.6817783203125,0.19700550413429735,-0.015079532242752611,-0.04324912167778239
1690839232564818400,1.691818359375,0.18305939636826515,-0.014613193372637032,-0.026809808856528252
1690839232574859300,1.701859375,0.19559388377070425,-0.005558693573065101,-0.002609853704832494
1690839232584899300,1.7118994140625,0.1708738685339689,-0.0018472353018820285,0.028846776310540733
1690839232594939400,1.721939453125,0.1882189710885286,-0.0060020168937742705,0.047781394812557845
1690839232604979500,1.7319794921875,0.1834229689836502,-0.008711348917707801,0.039799259785120375
1690839232615020500,1.7420205078125,0.17414952920377252,-0.011407857992686331,0.032232126166205854
1690839232625060600,1.752060546875,0.18388707936406135,-0.006466383002512156,0.0024804460383486
1690839232635100400,1.762100341796875,0.20993454381227492,-0.009686258364468812,-0.03957613225346431
1690839232645141200,1.772141357421875,0.20829262182414532,-0.005881532319262623,-0.05896751807965338
1690839232655181300,1.782181396484375,0.20618717397749423,-0.0025432912746444344,-0.0627337341787992
1690839232665221400,1.792221435546875,0.20152561190724372,-0.0036941783428192138,-0.044254243599716574
1690839232675261400,1.802261474609375,0.19731822334527968,-0.00277772108502686,-0.01426615633352194
1690839232685302500,1.812302490234375,0.1853402007818222,-0.00020038141030818222,0.007454051466146484
1690839232695373600,1.82237353515625,0.18773498696386812,-0.009433269984088838,0.03549953046431765
1690839232705413400,1.832413330078125,0.18506313740611074,-0.009405687857419251,0.049349580277618946
1690839232715453400,1.842453369140625,0.18180851952433585,-0.015700477152690292,0.03942894233511761
1690839232725493500,1.852493408203125,0.19711364068388937,-0.0065205974077805874,0.008782331794686614
1690839232735534300,1.862534423828125,0.20492811382710932,-0.007955598646961153,-0.01751818496598862
1690839232745574400,1.872574462890625,0.20061317323744296,-0.011531374774500726,-0.03549183121505193
1690839232755614500,1.882614501953125,0.203168118417263,-0.012144940095581114,-0.056936094450438395
1690839232765655600,1.892655517578125,0.192377259811759,0.0005036021405830979,-0.05709008856890723
1690839232775695600,1.902695556640625,0.185461781334877,-0.0020856471676379443,-0.03013910854286514
1690839232785735400,1.9127353515625,0.1875140376895666,-0.012531016803719102,-0.002666323999268934
1690839232795775500,1.922775390625,0.173410109013319,-0.005460640026070177,0.01985565603680443
1690839232805816300,1.93281640625,0.17082184608578682,0.0015261866539716719,0.04135774584007449
1690839232815856400,1.9428564453125,0.18081424778997898,-0.000031929508224129677,0.04853445080271922
1690839232825896400,1.952896484375,0.1869353610187769,-0.006326572673022747,0.023309477151953615
1690839232835936500,1.9629365234375,0.19576748677194117,-0.007317118080332875,0.004814067484531551
1690839232845977600,1.9729775390625,0.19801205082833767,-0.0007005494847893715,-0.00936578967187088
1690839232856048400,1.98304833984375,0.19951602565050125,-0.006106828975118697,-0.03295750413157511
1690839232866088400,1.99308837890625,0.20655834537744522,-0.007200871289521456,-0.038116982953716065
1690839232876128500,2.00312841796875,0.19818799191713332,0.0029803309850394725,-0.02919818813067395
1690839232886168600,2.01316845703125,0.19370763163268565,0.00462017061393708,-0.019072579367714934
1690839232896209400,2.02320947265625,0.18817571646869183,0.003954765507765114,-0.0033875281130196526
1690839232906249500,2.03324951171875,0.1855003597795963,-0.005463453037664294,0.005677187119890004
1690839232916289300,2.043289306640625,0.18731880737841128,-0.0066362962093204254,0.007675192536693066
1690839232926330400,2.053330322265625,0.1825567075431347,-0.017193017265386877,0.023829359140479935
1690839232936370400,2.063370361328125,0.18407997158765793,-0.018662103437259794,0.019955166321946306
1690839232946410500,2.073410400390625,0.1888958474367857,-0.013074877889454365,0.009428625775012188
1690839232956450600,2.083450439453125,0.18861819953918457,-0.02226582701765001,-0.0017376420141430571
1690839232966491400,2.093491455078125,0.18608195905983446,-0.02018028944786638,-0.01573769475738518
1690839232976531500,2.103531494140625,0.18278525560200212,-0.014887699465081094,-0.020464074825309216
1690839232986571500,2.113571533203125,0.18322189345359802,-0.013036080249026418,-0.016691342220408842
1690839232996612600,2.123612548828125,0.18782734142243862,-0.013839834379963577,-0.018653180345287547
1690839233006652400,2.13365234375,0.17911270456910133,-0.006017250995524227,-0.02110312164751813
1690839233016723500,2.143723388671875,0.17353168956637383,-0.005419321634992957,-0.0008759699837770313
1690839233026763500,2.153763427734375,0.1772270369529724,-0.011703845264576376,-0.0012825597569812088
1690839233036803600,2.163803466796875,0.18691431823074817,-0.005016659118235111,0.009751259025232866
1690839233046843600,2.17384375,0.18254384806156157,-0.004163111028820276,0.005357645442476496
1690839233056884500,2.183884521484375,0.19060265135467053,0.0001457286136224866,0.0074651893480913705
1690839233066924300,2.19392431640625,0.18819208308160304,0.00590871258713305,0.005945300004165619
1690839233076964400,2.20396435546875,0.2001578306853771,0.001761602845042944,0.01562600541068241
1690839233087005400,2.21400537109375,0.20137071360647676,-0.002846329341828823,0.010116703937295824
1690839233097045500,2.22404541015625,0.19183306993246077,-0.0011283464428037404,-0.0006674052670132369
1690839233107085600,2.23408544921875,0.20581541805565357,-0.01758585250787437,-0.0025570914711337536
1690839233117125600,2.244125732421875,0.19676994181275367,-0.019189415246993302,-0.003730811425624415
1690839233127166500,2.25416650390625,0.20374737960994244,-0.02863883264828473,-0.02881755934921093
1690839233137206500,2.26420654296875,0.1724047313630581,-0.02265752974897623,-0.04191948507579509
1690839233147246300,2.274246337890625,0.1859147857993841,-0.01488948956336826,-0.04665688429465517
1690839233157287400,2.284287353515625,0.17006664380431175,-0.0033473376665264366,-0.0454084231700981
1690839233167357400,2.294357421875,0.1919020435154438,-0.0042179830212146045,-0.04325264707542956
1690839233177398500,2.3043984375,0.178389650991559,-0.013355119602940975,-0.022063418047036973
1690839233187438600,2.3144384765625,0.1817757862985134,-0.02362418282404542,0.013294000532850622
1690839233197478700,2.324478759765625,0.1755985589683056,-0.027373671550676226,0.043798919313959774
1690839233207519500,2.33451953125,0.17452303869128227,-0.03667319561988115,0.07764185081082396
1690839233217559300,2.344559326171875,0.16972645206451414,-0.03807118931692093,0.06583810710203833
1690839233227599400,2.354599365234375,0.18334639661610125,-0.027080241562053558,0.049345118731632824
1690839233237639400,2.364639404296875,0.17272329579293727,-0.01881736706420779,0.017708780201221814
1690839233247680500,2.374680419921875,0.18333587522208689,-0.0111815018909052,-0.0300358856304083
1690839233257720600,2.384720458984375,0.17507365831136704,0.003807648654654622,-0.06153837321465835
1690839233267760600,2.3947607421875,0.19731939238905905,0.0013520721960812807,-0.08262720147534273
1690839233277801500,2.404801513671875,0.18902853390574453,0.0031438875162974,-0.06938881728698033
1690839233287841500,2.414841552734375,0.18582126229703425,0.011964943886175751,-0.04814205395164899
1690839233297881300,2.42488134765625,0.18501871374249457,0.008809512062557041,-0.004003157527022995
1690839233307921400,2.43492138671875,0.18693185388743877,-0.0012873729294165968,0.03328267639875412
1690839233317962500,2.44496240234375,0.18214286604523658,-0.0011114318406209348,0.048623124600015576
1690839233328032500,2.455032470703125,0.18665362146794795,0.0052111953096464275,0.06824360647434369
1690839233338075600,2.46507568359375,0.1901367874085903,0.005744973392784595,0.06414954209374263
1690839233348115700,2.47511572265625,0.18884324046671389,0.013812215720675885,0.037612239168817174
1690839233358155500,2.485155517578125,0.1896452044993639,0.014580606277287005,-0.004930583703401498
1690839233368196600,2.495196533203125,0.181461313521862,0.006023790334165096,-0.03095100031448528
1690839233378236400,2.505236328125,0.1963145992606878,0.0034281112851575015,-0.06864704530923627
1690839233388276500,2.5152763671875,0.19455986454784868,-0.007990852623432874,-0.0722021165754646
1690839233398316500,2.525316650390625,0.1884673928916454,-0.01644530417062342,-0.05369134037555195
1690839233408357600,2.535357666015625,0.19959435158371924,-0.02284176374208182,-0.016978502298449164
1690839233418397700,2.545397705078125,0.18558453093171118,-0.028020481554232535,0.015438931006519123
1690839233428437500,2.5554375,0.17560908036231992,-0.03300418825093657,0.043334845466166734
1690839233438478600,2.565478515625,0.16741349894702434,-0.02530461019165814,0.04983403475973755
1690839233448518400,2.575518310546875,0.15696458564698695,-0.01865439505483955,0.05210959674259647
1690839233458558500,2.585558349609375,0.15831190860271452,-0.023825623680278657,0.03701397188156843
1690839233468598500,2.5955986328125,0.16950374922454356,-0.018873956089653074,-0.0007808573125395923
1690839233478639600,2.6056396484375,0.17633096489608288,-0.016032850912213324,-0.03606018742122687
1690839233488709600,2.615709716796875,0.17640052300095557,-0.017587971399724484,-0.062227213995344935
1690839233498750700,2.625750732421875,0.18828385301828382,-0.01857475394736975,-0.07203377427123486
1690839233508790500,2.63579052734375,0.18714695794284342,-0.009495302369631826,-0.0605750263415277
1690839233518830600,2.64583056640625,0.18213000656366346,-0.009458221762254833,-0.031931467285775575
1690839233528871400,2.655871337890625,0.19014906236827372,-0.01563358592893928,-0.0003106185854412615
1690839233538911500,2.665911376953125,0.188768421664834,-0.00680799951441586,0.023787218765495343
1690839233548951600,2.67595166015625,0.1851701049119234,0.004236687721684575,0.046558524786983614
1690839233558991600,2.68599169921875,0.18293664677143096,0.005269793629087508,0.04151835692899767
1690839233569032700,2.69603271484375,0.19149463175833223,0.01288366616629064,0.030420820694230494
1690839233579072500,2.706072509765625,0.18195581904053687,0.008861790239065885,0.016455186243820936
1690839233589112600,2.716112548828125,0.17750702293813228,0.010445808027498423,-0.011747921868320554
1690839233599153400,2.7261533203125,0.19355916307270526,0.00882982419822365,-0.03033856750456616
1690839233609193500,2.736193359375,0.18626432988941669,0.0046647404080256815,-0.04222459636905696
1690839233619233500,2.746233642578125,0.19722937601804733,0.0003664221595972776,-0.056849959670100356
1690839233629273600,2.756273681640625,0.190685653463006,-0.00896842895131558,-0.043326853955956174
1690839233639314700,2.766314697265625,0.18264555487036704,-0.013923822868987917,-0.030016943467920644
1690839233649385500,2.776385498046875,0.17849720301926136,-0.01514919994547963,0.002958913737675175
1690839233659425500,2.786425537109375,0.16820786419510841,-0.016393025994114577,0.021036559217330067
1690839233669465600,2.796465576171875,0.17287644052803516,-0.018151888892799613,0.03460473248248454
1690839233679505700,2.806505615234375,0.17244272528588772,-0.015795169698819517,0.042700547884311525
1690839233689546500,2.81654638671875,0.16151859568953514,-0.013699074202403426,0.032818748681433495
1690839233699586600,2.826586669921875,0.17556933287382126,-0.01089106757696718,0.02137336255679838
1690839233709626600,2.836626708984375,0.17688859877884386,-0.018482326423563063,0.00563452615509741
1690839233719667700,2.846667724609375,0.17924831364750862,-0.020496004333533345,-0.02974195788486395
1690839233729707500,2.85670751953125,0.18204525088965892,-0.017567220872640607,-0.042987794727319846
1690839233739747600,2.86674755859375,0.18050445118844508,-0.018400639489479363,-0.049229584326874465
1690839233749787600,2.87678759765625,0.18794366127848625,-0.01842781975734979,-0.05043051194869913
1690839233759828500,2.886828369140625,0.19015198497772215,-0.0031745749155059457,-0.023584038043324835
1690839233769868500,2.89686865234375,0.1886287209331989,-0.0070274144187569615,-0.006791779031977057
1690839233779908600,2.90690869140625,0.17558803757429123,-0.0073855802066624164,0.027781631297059354
1690839233789948400,2.916948486328125,0.17408406275212765,-0.0030488661766052243,0.03831809044980909
1690839233800019500,2.92701953125,0.18231296191513538,-0.0012123349318280815,0.043825199966109354
1690839233810060500,2.937060546875,0.19040157582461834,0.004657470417022705,0.027533570253546347
1690839233820100600,2.9471005859375,0.18038696228861809,0.003676204294711351,0.009741541348816826
1690839233830140700,2.957140625,0.189531222730875,0.002827953434921801,-0.015997185943787916
1690839233840180700,2.9671806640625,0.1741378387659788,-0.004028634461574256,-0.048969883077917616
1690839233850221600,2.9772216796875,0.1880716715723276,-0.012003595396131276,-0.056075486432574685
1690839233860261600,2.98726171875,0.19243454295694826,-0.00001793751548975706,-0.05197798798587173
1690839233870301400,2.997301513671875,0.1873708298265934,-0.0006746478585526347,-0.04159408447975293
1690839233880342500,3.007342529296875,0.18813830706775186,-0.00815879306886345,-0.00535392824858427
1690839233890382600,3.017382568359375,0.1764864477187395,-0.010764189794287084,0.02017967295993585
1690839233900422700,3.027422607421875,0.17082067704200743,-0.007018463927321136,0.03863587399497628
1690839233910462700,3.037462646484375,0.173977095246315,-0.005922741112485527,0.04659787041668314
1690839233920503600,3.047503662109375,0.17443652945160865,-0.006927570773474872,0.028879783530998973
1690839233930543600,3.057543701171875,0.17295125932991504,-0.005235745229013264,0.007008892381377518
1690839233940583400,3.06758349609375,0.18807050252854823,-0.009166143480502069,-0.012720073102414606
1690839233950624500,3.07762451171875,0.19120763151049613,-0.015040551939234136,-0.03307322576600127
1690839233960694500,3.087694580078125,0.19463292978405952,-0.011771028749272227,-0.046874993157899
1690839233970735600,3.097735595703125,0.19161562778949737,-0.01485701206587255,-0.04925403378154151
1690839233980775700,3.107775634765625,0.18694880502223968,-0.01827796295788139,-0.03791601245494094
1690839233990815700,3.117815673828125,0.18512509672641753,-0.009297478242591023,-0.014236409649229608
1690839234000855800,3.127855712890625,0.182703422537446,-0.006947517582960427,0.010167223981558345
1690839234010896600,3.137896728515625,0.17804302951097487,-0.0008032426742836833,0.028150140382465903
1690839234020936400,3.1479365234375,0.17339315787851808,-0.010666647703945636,0.03871551510244608
1690839234030976500,3.1579765625,0.17324176670908928,-0.008550459267571567,0.03205224868780933
1690839234041017600,3.168017578125,0.18401801226735115,-0.008791428416594863,0.014431123937154188
1690839234051057700,3.1780576171875,0.1870218702584505,-0.0077668711418285965,-0.00653302306451369
1690839234061097700,3.18809765625,0.1812012012809515,-0.008105638109520077,-0.01983298298069276
1690839234071137800,3.1981376953125,0.1804687953531742,-0.008815649542398751,-0.035313195845671
1690839234081178600,3.2081787109375,0.1855710869282484,-0.0066120385508984325,-0.04405012672920711
1690839234091218400,3.218218505859375,0.19290508307814597,-0.008252097375504672,-0.026911643529497084
1690839234101258500,3.228258544921875,0.1849830579072237,-0.005099770824424922,-0.013152724332059733
1690839234111299600,3.238299560546875,0.1683826362401247,-0.004980455293692648,0.002064161421614699
1690839234121369600,3.24836962890625,0.17347849807441235,-0.006105404203012585,0.016174688802007585
1690839234131410700,3.25841064453125,0.17902093463242053,-0.006622779140621423,0.02537325954765547
1690839234141450800,3.26845068359375,0.18472060757875441,-0.011543357473239303,0.013008073430671356
1690839234151490600,3.278490478515625,0.17679507527649402,-0.017220124468021094,0.012218105796491727
1690839234161531600,3.28853173828125,0.17619360225200653,-0.015730397366918624,-0.00852060298542492
1690839234171571500,3.298571533203125,0.18396189816594122,-0.010947656602412462,-0.020813116591842845
1690839234181611500,3.308611572265625,0.17391747401356697,-0.011033471722342073,-0.027828160152793862
1690839234191651600,3.318651611328125,0.18273264863193034,-0.010179850567691027,-0.027503471942804752
1690839234201692700,3.328692626953125,0.1878103902876377,-0.011798647408559917,-0.023307627688162028
1690839234211732700,3.338732666015625,0.18870938495397566,-0.010215871729142963,-0.011049536941153928
1690839234221772500,3.3487724609375,0.18257658128738402,-0.013576945660077035,-0.0024251539208460598
1690839234231813600,3.358813720703125,0.17884090189039706,-0.008092669030092656,0.016523520505987106
1690839234241853400,3.368853515625,0.178848500674963,-0.001992963915504515,0.018490509730018673
1690839234251893500,3.3788935546875,0.17809446743726728,0.002624649415165186,0.011512569609330966
1690839234261933600,3.38893359375,0.1761333964973688,0.007199775310978293,-0.004080487946397625
1690839234271974700,3.398974609375,0.1879360624939203,0.003361220061406493,-0.0054818928766530006
1690839234282044700,3.409044677734375,0.19016893611252306,-0.0022750687925145027,-0.0026432536509353667
1690839234292085800,3.419085693359375,0.1773006867110729,-0.017396467415615915,-0.007036241612606682
1690839234302125600,3.42912548828125,0.18241525324583052,-0.026537366857007146,-0.0066437853960320346
1690839234312165400,3.439165283203125,0.18680092098414897,-0.029608408332802354,-0.006216321798157878
1690839234322206500,3.44920654296875,0.17862755140066147,-0.02719553850479424,-0.010913489471329375
1690839234332246500,3.45924658203125,0.17463526689410208,-0.017951799743436275,-0.008703955629118718
1690839234342269700,3.469269775390625,0.18274024741649628,-0.0005103241423144937,-0.014172568899090401
1690839234352309500,3.4793095703125,0.1737543924063444,0.004569974796660244,-0.01058066818723455
1690839234362350300,3.489350341796875,0.16532909388840197,0.004198182342201471,0.00198778085031081
1690839234372390400,3.499390380859375,0.15987199752628803,0.006480009669065475,-0.0014104878524318337
1690839234382430500,3.509430419921875,0.168626381868124,0.001742532818391919,0.0014012907658237962
1690839234392471600,3.519471435546875,0.17753917164206504,-0.006403619964607059,0.0041897067748010155
1690839234402511600,3.52951171875,0.1809387509524822,-0.011064341784641146,-0.008305667893378995
1690839234412551700,3.5395517578125,0.18975567913651464,-0.022573577792569993,-0.009795883618248626
1690839234422591700,3.549591796875,0.1944154876410961,-0.028428368235379455,-0.014042024154867976
1690839234432662500,3.55966259765625,0.19819909783303735,-0.01584547511395067,-0.021891258084215222
1690839234442702600,3.56970263671875,0.1933130793571472,-0.013523425374552606,-0.01520394407371059
1690839234452743400,3.579743408203125,0.1870744772285223,-0.0006829407628625631,-0.011193785983743145
1690839234462783500,3.589783447265625,0.17423545392155645,0.005209149483032524,-0.009886758505785838
1690839234472823600,3.599823486328125,0.18083412153422831,0.012124883688241243,-0.006715087933419272
1690839234482864600,3.60986474609375,0.17305121257305145,0.007589249552600086,-0.000072416782239452
1690839234492904700,3.61990478515625,0.17768588663637638,0.00162986622415483,-0.0037498266533482817
1690839234502944500,3.629944580078125,0.17857552895247936,-0.0030598259620368477,-0.0011301822068635373
1690839234512984600,3.639984619140625,0.18141513629257677,-0.013795264585874973,0.0004602196565829217
1690839234523025400,3.650025390625,0.18277005803287028,-0.01782327799294144,-0.016394834358710794
1690839234533065500,3.6600654296875,0.17559972801208495,-0.023546879804134366,-0.012930099123902618
1690839234543105500,3.67010546875,0.19851064800024032,-0.015559461246803402,-0.007457248070230707
1690839234553146600,3.680146728515625,0.18205694132745265,-0.014668138430267572,-0.014733906276011838
1690839234563186700,3.690186767578125,0.16768763971328735,-0.01157609069906175,-0.0074718611174728715
1690839234573226500,3.7002265625,0.17740122447609902,-0.0019678660068660975,-0.009742719525750726
1690839234583266600,3.7102666015625,0.17288930000960825,-0.0020176964979618786,-0.005150907356617972
1690839234593337600,3.720337646484375,0.1698679063618183,-0.004424282715655863,0.002526276207761839
1690839234603378400,3.73037841796875,0.17911913430988788,-0.002459193187765777,0.005054223782802
1690839234613418500,3.74041845703125,0.17954817337691784,-0.004685417869873344,-0.011485896231536752
1690839234623458600,3.75045849609375,0.1889607293665409,-0.012752075675874948,-0.007305770135833881
1690839234633498600,3.76049853515625,0.191360776245594,-0.011870689731463789,-0.005242713825916871
1690839234643539700,3.770539794921875,0.1871913816064596,-0.015773761584609747,-0.005293667695019394
1690839234653579500,3.78057958984375,0.18452070109248161,-0.008991992489993572,-0.004219581323256716
1690839234663619600,3.79061962890625,0.1683826362401247,-0.0038567484933882948,0.0033679694626014677
1690839234673660400,3.800660400390625,0.17917174127995966,-0.010272095428407192,0.0006758077691774815
1690839234683700500,3.810700439453125,0.1730436137884855,-0.0038564562324434515,-0.002829012880846858
1690839234693740500,3.820740478515625,0.17334347351789473,-0.005974434767104685,0.0018882111996645107
1690839234703780600,3.830780517578125,0.16795184360742568,-0.00787599407210946,-0.005942514392035082
1690839234713821700,3.84082177734375,0.16838906598091125,-0.011422799833491443,-0.0073953709483146664
1690839234723861500,3.850861572265625,0.16629589309394358,-0.017970029519870877,-0.01184521736348979
1690839234733901600,3.860901611328125,0.1761725594639778,-0.010604249992221593,-0.0073836165784392505
1690839234743942400,3.8709423828125,0.18979542662501334,-0.015840324014797805,-0.00125458490466699
1690839234754012700,3.8810126953125,0.18636019147932528,-0.01673639607168734,-0.009765543278912082
1690839234764053500,3.891053466796875,0.17619184868633747,-0.008318952066637575,-0.00017280841679312287
1690839234774093600,3.901093505859375,0.18307751654684543,-0.009610051323100924,0.004013016767334193
1690839234784133600,3.911133544921875,0.17364450229108333,-0.009635478025302291,-0.0004996337849413976
1690839234794173400,3.92117333984375,0.17048340791165828,-0.007057078904658555,-0.0007586637470405549
1690839234804214500,3.931214599609375,0.18722937552928923,0.0008577128078788519,-0.003070073361415416
1690839234814254600,3.941254638671875,0.18481763821244238,-0.004796623159386218,-0.005326218257751316
1690839234824294700,3.951294677734375,0.1780681639522314,-0.004682056869007647,-0.014188168327021411
1690839234834335500,3.96133544921875,0.17940730360150337,-0.01334123720806092,-0.015575663462933152
1690839234844375600,3.97137548828125,0.18435002070069312,-0.014392426761426031,-0.007521837739041075
1690839234854415600,3.98141552734375,0.1855576429247856,-0.01127641363274306,0.0035109672630205748
1690839234864455400,3.991455322265625,0.19125848491489886,-0.0076436831535771485,-0.0010704605094157158
1690839234874496500,4.00149658203125,0.1893307317227125,-0.002310688095167279,0.00958467028667219
1690839234884536600,4.01153662109375,0.17497136698067187,-0.003410319900140166,0.0092748736851383
1690839234894576600,4.02157666015625,0.16405542069077492,-0.005254596059955656,0.004882182550989091
1690839234904647700,4.031647705078125,0.16779577626287936,-0.00559493393022567,0.005848753427667543
1690839234914687700,4.041687744140625,0.17617022137641905,-0.006784070649556815,-0.003349410892603919
1690839234924728600,4.051728515625,0.1864846946418285,-0.00869257115200162,-0.01594573888434097
1690839234934768600,4.0617685546875,0.17600538620352743,-0.011022548469528555,-0.012917203109711407
1690839234944808400,4.071808349609375,0.18468378269970415,-0.015645824356004596,-0.014263895877776666
1690839234954848500,4.0818486328125,0.1878326021194458,-0.014434183543920516,-0.01871761931704823
1690839234964889600,4.0918896484375,0.18215806361436843,-0.017580226484686136,-0.00345085283992812
1690839234974929700,4.1019296875,0.17798223923444748,-0.012603059126622974,-0.0021140056124422696
1690839234984969700,4.1119697265625,0.1784434270054102,-0.016511282078921795,0.002261250329716131
1690839234995010600,4.122010498046875,0.17156068175435066,-0.009324658510461449,0.006234684005333111
1690839235005050600,4.132050537109375,0.17455460287332533,-0.01561871715337038,0.002697614186676219
1690839235015090400,4.14209033203125,0.17858897295594214,-0.014422456573508678,-0.006063839216763153
1690839235025130500,4.152130615234375,0.1736415796816349,0.002099639160372317,-0.006463172698696143
1690839235035171600,4.162171630859375,0.17797347140610217,-0.004358268274739384,-0.011121396600967273
1690839235045211600,4.172211669921875,0.18530279138088226,-0.007263086338154971,-0.022993387806951066
1690839235055251700,4.182251708984375,0.1791658960610628,-0.004849741586111486,-0.01723626275206916
1690839235065322800,4.19232275390625,0.17288170122504234,-0.0152610628221184,-0.013076613188814371
1690839235075362600,4.202362548828125,0.16900047587752343,-0.019531506682932374,-0.01024753637588583
1690839235085403600,4.212403564453125,0.175894327044487,-0.012113375913538038,0.006623838586546481
1690839235095443500,4.222443359375,0.17171324196755886,-0.002967763764411211,0.012529203872545622
1690839235105483500,4.2324833984375,0.17844050439596176,-0.010311660253815353,0.008514237176720053
1690839235115524600,4.242524658203125,0.18322423154115675,-0.006862177387066185,0.007067171040410176
1690839235125564700,4.252564697265625,0.18531623538434505,-0.0017399755351245403,-0.011008401213167235
1690839235135604700,4.262604736328125,0.18710779497623442,-0.011870324405282734,-0.014783106579445301
1690839235145644500,4.27264453125,0.18471476235985754,-0.011546024354360997,-0.025986135315569116
1690839235155685600,4.282685546875,0.18814999750554562,-0.011359086947515607,-0.016012954335077666
1690839235165725400,4.292725341796875,0.18276655090153215,-0.007480199687555432,-0.013292740157525986
1690839235175765500,4.302765625,0.1791787555426359,-0.0056933162707835435,-0.007184481843723915
1690839235185806600,4.312806640625,0.18112872056663035,-0.010629457498714327,-0.0034284674781840294
1690839235195846700,4.3228466796875,0.17544716779887676,-0.01486026346888393,-0.0008161660879384726
1690839235205886700,4.33288671875,0.17395663698017597,-0.013865151484310625,0.011475982192298397
1690839235215926500,4.342926513671875,0.16378420253396034,-0.00515950165502727,0.006036266223248094
1690839235225997600,4.35299755859375,0.17335984013080596,-0.004793737082555889,-0.0026710549733135846
1690839235236037400,4.363037353515625,0.17620061651468277,-0.005200966176576912,-0.00815561473108828
1690839235246078500,4.373078369140625,0.17769231637716293,-0.007711451160162687,-0.009807820651214568
1690839235256118500,4.383118408203125,0.1767868919700384,-0.013385953132621944,-0.011756835827138275
1690839235266158600,4.39315869140625,0.17050269713401794,-0.016043116577900945,-0.018979608421213923
1690839235276199700,4.40319970703125,0.1788870791196823,-0.004691336154006421,-0.012727918482152744
1690839235286239700,4.41323974609375,0.18084405840635298,-0.009784275378845632,-0.011220655724359676
1690839235296279600,4.423279541015625,0.17696341758072376,-0.010287694856338202,-0.004161010403279215
1690839235306319400,4.4333193359375,0.1790659428179264,-0.006526917550712824,0.0011858305173926055
1690839235316360400,4.4433603515625,0.17996902913749216,-0.015407923946902154,0.009465080761304125
1690839235326400500,4.453400390625,0.1814618980437517,-0.010712569204904139,0.00794465712783858
1690839235336442000,4.463442138671875,0.17098142056167126,-0.006654270257428288,-0.0018265213074162602
1690839235346483200,4.473483154296875,0.16873685650527476,-0.01011336120273918,-0.008942901784414425
1690839235356523300,4.483523193359375,0.17501286803483962,-0.004459682822600007,-0.009666384620219468
1690839235366563300,4.493563232421875,0.18084113579690456,-0.0017672654008492827,-0.01842710737129673
1690839235376603400,4.503603271484375,0.18024492346942425,-0.011585991038568317,-0.023876997674489392
1690839235386674400,4.51367431640625,0.1832359219789505,-0.005307604888826608,-0.014352752338163554
1690839235396715500,4.523715576171875,0.18084464292824268,-0.004448467308841645,-0.005726469621714204
1690839235406755300,4.53375537109375,0.182350955837965,-0.008533179339207709,-0.002573869075998664
1690839235416795100,4.543795166015625,0.18280103769302367,-0.005065028304606676,-0.004495612652506679
1690839235426835200,4.553835205078125,0.17143091789484022,-0.0051852936834096905,0.0062217879911419
1690839235436876300,4.563876220703125,0.17158172454237938,-0.007577084190770984,0.0013333035635296254
1690839235446916400,4.573916259765625,0.16993045020401476,-0.007261588500812649,-0.005707189532509073
1690839235456956400,4.583956298828125,0.17292027966976165,0.005234539652615785,-0.009508527177385985
1690839235466996500,4.59399658203125,0.17710837900936602,-0.0012407573087140917,-0.009544667069846764
1690839235477037300,4.604037353515625,0.17576047153174876,-0.008610518891736864,-0.012147269049985334
1690839235487077000,4.6140771484375,0.1714227345883846,-0.001520049174129963,-0.017218252171343193
1690839235497117200,4.6241171875,0.18758710292577743,-0.01084894546829164,-0.004380790633801371
1690839235507158300,4.634158203125,0.1805640724211931,-0.007464563727006316,-0.005787351229786872
1690839235517198300,4.6441982421875,0.17458908966481684,-0.00497216238938272,-0.0032567733062431213
1690839235527238400,4.65423828125,0.1771405277132988,-0.009446933183260262,0.0009483411002438515
1690839235537309400,4.664309326171875,0.18252397431731224,-0.005938157877326012,-0.0072518251586239785
1690839235547349200,4.674349365234375,0.1798281593620777,-0.009749131000228225,-0.003378326459834352
1690839235557390300,4.684390380859375,0.18012568100392817,-0.0047055473424494265,-0.0004720470916945487
1690839235567430100,4.69443017578125,0.17398995472788809,-0.008753178765438496,-0.012884259821334853
1690839235577470200,4.70447021484375,0.1747393117904663,-0.012001732232607901,-0.020793352445447815
1690839235587510300,4.71451025390625,0.18386895918548107,-0.00041343963909894226,-0.01786938215699047
1690839235597551400,4.72455126953125,0.18731120859384537,-0.00981518197376281,-0.018151331770373508
1690839235607591400,4.73459130859375,0.16846271573901175,-0.005932093462720513,-0.011205576886236667
1690839235617631500,4.744631591796875,0.17759353217780588,-0.013946107766032218,-0.009960851221880875
1690839235627672300,4.75467236328125,0.1799853957504034,-0.014267704403214156,-0.008606089311791583
1690839235637712100,4.764712158203125,0.1859679772913456,-0.00773570881858468,-0.0028248938281554728
1690839235647752200,4.774752197265625,0.1799596767872572,-0.00869034266229719,0.004102704344782978
1690839235657792300,4.784792236328125,0.2342132450222969,-0.03410440457779914,-0.021780331355915405
1690839235667833300,4.794833251953125,0.17308745293021202,-0.15151804721150547,-0.3879454976845532
1690839235677873400,4.804873291015625,-0.01804769786596298,0.31458708721343426,0.6229879600726068
1690839235687913500,4.81491357421875,0.3416962991416454,-0.14468969902880488,-0.06428107778523116
1690839235697984300,4.824984375,0.14499240830242632,-0.014284144081361591,-0.11184840972200036
1690839235708024300,4.8350244140625,0.1471679987758398,-0.10553915350995957,0.1575639945785515
1690839235718065200,4.845065185546875,0.09597907880842685,-0.019369228793308137,0.05585874754250981
1690839235728105200,4.855105224609375,0.18448972143232822,-0.13044164917413145,0.0015774875829461961
1690839235738145300,4.865145263671875,0.13380232124626637,-0.07005630018580704,-0.025729977730568496
1690839235748185300,4.875185302734375,0.20074819779396055,-0.03939929611552506,-0.10424187110788188
1690839235758226400,4.885226318359375,0.18040566698908805,0.006630889381840825,-0.09414508658060804
1690839235768266200,4.895266357421875,0.24081717333197591,0.02170753554776311,-0.049439400285808364
1690839235778306300,4.905306396484375,0.17182722373604772,0.03688665570747107,0.02162128203641623
1690839235788347100,4.91534716796875,0.22231647100150584,0.06054569064918905,0.07506224611378275
1690839235798387200,4.92538720703125,0.1747089166522026,0.0714534901652485,0.1130762253507506
1690839235808427300,4.93542724609375,0.22429390855431555,0.06026592385973781,0.11197727853236719
1690839235818467300,4.94546728515625,0.1395557702064514,0.0648733445899561,0.07621606492456048
1690839235828508400,4.95550830078125,0.2468400868833065,0.05257986286915838,0.0210305404684972
1690839235838548500,4.965548583984375,0.1697930875599384,0.048621005708165466,-0.013516287814290262
1690839235848588300,4.97558837890625,0.2120265476554632,0.028425116832368074,-0.04512324498659
1690839235858659300,4.985659423828125,0.18572890783846377,0.02369596941862255,-0.04999461388261989
1690839235868699400,4.995699462890625,0.2046113029628992,0.017200104593299327,-0.03931584191604052
1690839235878740200,5.005740234375,0.18892215092182157,0.01276153762396425,-0.008765184297063387
1690839235888780300,5.0157802734375,0.1631885747283697,-0.00001315174251794815,0.03216765522840433
1690839235898820400,5.0258203125,0.1712532232403755,-0.008053213802538811,0.05618964173099957
1690839235908861400,5.035861328125,0.1592448055386543,-0.029954920215532182,0.06954193005603737
1690839235918901200,5.0459013671875,0.13268646895885466,-0.03335402460191399,0.05941477778996341
1690839235928941300,5.05594140625,0.14723580331504343,-0.03933569282740354,0.04020787255205214
1690839235938981400,5.0659814453125,0.16069851147830486,-0.0491350196449086,0.015601702086487784
1690839235949022200,5.076022216796875,0.15720774675309657,-0.048899566921219224,-0.01711214774863329
1690839235959062300,5.086062255859375,0.15742051272094248,-0.04263528236206621,-0.01604680180575233
1690839235969102300,5.096102294921875,0.1839326720714569,-0.03349109498504549,-0.015775871343305332
1690839235979142400,5.106142333984375,0.14713058937489987,-0.029462679719179867,-0.011041024841135368
1690839235989183500,5.11618359375,0.1721206537246704,-0.023362572745792565,0.006823014420457184
1690839235999223300,5.126223388671875,0.16763561726510523,-0.02185344682447612,0.029030640410888008
1690839236009294300,5.13629443359375,0.16959493463933467,-0.010445661897026002,0.03565916430570651
1690839236019334400,5.14633447265625,0.16662556343972681,-0.00023844839837402105,0.03767774671965744
1690839236029374500,5.15637451171875,0.17624504017829895,0.007668561866506934,0.03085596070848405
1690839236039415300,5.166415283203125,0.20265432367622851,0.012777538910694419,0.025237942730193023
1690839236049455400,5.176455322265625,0.18119710962772367,0.02666391584612429,0.014869798482209443
1690839236059495200,5.1864951171875,0.1944815386146307,0.03585731265973299,-0.0006025781361851841
1690839236069536300,5.196536376953125,0.20165596028864383,0.03764876265376806,0.001911331780347973
1690839236079576300,5.206576416015625,0.20302257246673105,0.03017371406536549,0.005975813873438165
1690839236089616400,5.216616455078125,0.1954343092948198,0.02707483473457396,0.0034918607037514445
1690839236099656400,5.226656494140625,0.1931131728708744,0.01753638734295964,0.006720193366799503
1690839236109697300,5.236697265625,0.17824761217236518,0.014914952798187732,0.022645090392511336
1690839236119737300,5.2467373046875,0.18822715439498425,0.015990655738301576,0.03373083115820773
1690839236129777400,5.25677734375,0.18684008395075796,0.010722469544410704,0.0222797048459528
1690839236139818500,5.266818603515625,0.18350363300442696,0.012733918964676558,0.017383544001961126
1690839236149858300,5.2768583984375,0.1774585076212883,0.007427775380574166,0.016382093608146533
1690839236159898400,5.2868984375,0.1749918252468109,-0.004428849292919039,0.01042330393474549
1690839236169969400,5.296969482421875,0.16936580205857754,-0.007639080043695867,0.002924025087384507
1690839236180009500,5.307009521484375,0.17808219247758386,-0.014167568496987222,0.007293760037631727
1690839236190049500,5.317049560546875,0.16328852797150611,-0.02463770724814385,0.015915133683523163
1690839236200090400,5.32709033203125,0.17780571362376213,-0.03174903709068894,0.01829882308281958
1690839236210130200,5.337130126953125,0.15818915900588035,-0.025617219804786144,0.017554489255230874
1690839236220170200,5.347170166015625,0.1521738442391157,-0.029091362188756464,0.014361775894835591
1690839236230211300,5.35721142578125,0.15901275034844875,-0.024347638260386884,0.019999745249189436
1690839236240251400,5.36725146484375,0.1775099455475807,-0.021829444894380868,0.008752649042475968
1690839236250291500,5.37729150390625,0.1701069758147001,-0.01806154372822493,0.0065339409465435885
1690839236260331500,5.38733154296875,0.16554069081246853,-0.019653489094786345,0.010419906401261687
1690839236270372400,5.397372314453125,0.17458441348969936,-0.0055344359146431085,0.016925530002196317
1690839236280412400,5.407412353515625,0.1689706652611494,-0.0036538828650489446,0.015340786127978935
1690839236290452200,5.4174521484375,0.17847616023123264,-0.00033325054235756397,0.018434843153180554
1690839236300493300,5.427493408203125,0.18500643878281114,0.004108567829988897,0.018959963005827737
1690839236310533400,5.437533447265625,0.1807826836079359,0.004592917280830442,0.016557445608475243
1690839236320573400,5.447573486328125,0.18540683627724647,0.009814999310672283,0.014394974911538884
1690839236330644500,5.45764453125,0.19378478852212427,0.011569953219220042,0.015332328826887532
1690839236340667100,5.467667236328125,0.1975438487946987,0.02033036544304341,0.0064935404374962665
1690839236350708200,5.477708251953125,0.1773667376846075,0.02052614374347031,0.009657781188655644
1690839236360748300,5.487748291015625,0.1815893238157034,0.017007431565411388,0.008886276226351037
1690839236370788000,5.4977880859375,0.185070151668787,0.013931348588317632,0.0064525006076321
1690839236380828200,5.507828125,0.18511457533240316,0.015162315155379474,0.0013963679955340921
1690839236390869200,5.517869140625,0.17154314609766005,0.00849302999190986,0.01082508053551428
1690839236400909300,5.527909423828125,0.1804202800363302,0.0065056920995935795,0.02084391815548297
1690839236410949000,5.53794921875,0.1813707126289606,-0.004953128895349801,0.013861667185858823
1690839236420989200,5.5479892578125,0.16120879908800123,-0.003369476433098316,0.015518352918280288
1690839236431030300,5.5580302734375,0.16438918268978595,-0.007073262854479253,0.013235301748709752
1690839236441070000,5.568070068359375,0.17339140431284902,-0.01179360590726137,0.015761285695526747
1690839236451110100,5.578110107421875,0.17235270891487597,-0.01160133473817259,0.016458017521724103
1690839236461151200,5.588151123046875,0.16307167035043238,-0.013921850107610224,0.012181810640404
1690839236471191000,5.59819091796875,0.16679975096285343,-0.012098214877024293,0.014695958018954843
1690839236481231000,5.608231201171875,0.17186054148375987,-0.017748386125825345,0.005402028006897308
1690839236491302100,5.61830224609375,0.16988661106228828,-0.013553455186635255,0.0010751366845332085
1690839236501342200,5.62834228515625,0.17314356703162193,-0.008148162076994776,0.008837646745075471
1690839236511383300,5.63838330078125,0.1717588346749544,-0.012824629455432295,0.00853982370912563
1690839236521423000,5.648423095703125,0.163197342556715,-0.0006172916481271386,0.0055509121254086495
1690839236531463200,5.658463134765625,0.17723814286887646,0.00006440700571984052,0.014300542660313657
1690839236541503200,5.668503173828125,0.17929916705191135,-0.001059336327202618,0.007117165928287431
1690839236551544000,5.6785439453125,0.17597382202148437,0.00036207477804273364,0.014301515341270714
1690839236561584000,5.688584228515625,0.17698796750009058,0.000427796958014369,0.017662858700263313
1690839236571624200,5.698624267578125,0.17979951778948305,0.007722082152031361,0.015353024555044248
1690839236581665300,5.708665283203125,0.1788788958132267,0.007856668317131698,0.01564127604505047
1690839236591705000,5.718705078125,0.18186112649440764,0.0035979148941114544,0.015473974920436739
1690839236601745200,5.7287451171875,0.18634499391019343,-0.004164645398780704,0.01326234045268502
1690839236611785200,5.73878515625,0.17812369353175161,0.0060565235599875445,0.008850529059534892
1690839236621826000,5.748825927734375,0.1741068591058254,0.0016037454022094606,0.010910420731408521
1690839236631866000,5.7588662109375,0.17593056740164756,0.0035273704085499046,0.004384014637349173
1690839236641937200,5.768937255859375,0.17940204290449618,0.003690123222209513,0.006317005693656392
1690839236651977200,5.778977294921875,0.18272271175980567,0.00579772649332881,0.01408022814025171
1690839236662017000,5.78901708984375,0.1821545564830303,0.0065947586225345725,0.01077890330622904
1690839236672058000,5.79905810546875,0.17140286084413528,-0.0064200961753726,0.012827291769976728
1690839236682098200,5.80909814453125,0.18040157533586024,-0.009277056509070097,0.018685817672987468
1690839236692138200,5.81913818359375,0.16710019521415231,-0.007291143388859927,0.012842384307831524
1690839236702178300,5.82917822265625,0.18147183491587637,-0.007173910217359662,0.013910707659088074
1690839236712219100,5.83921923828125,0.1768389144182205,-0.009773973180539906,0.016384153134492225
1690839236722259200,5.84925927734375,0.16576164008677005,-0.0113563470011577,0.008072210763953626
1690839236732299000,5.859299072265625,0.17308920649588108,-0.012649747812561691,0.00552276374315843
1690839236742340000,5.869340087890625,0.17786591937839985,-0.003152874540351331,-0.0003986439287662506
1690839236752380200,5.879380126953125,0.17590134130716323,-0.007580116398073732,-0.001587397055607289
1690839236762420200,5.889420166015625,0.16765256839990614,-0.015283859175816178,0.01083882593307644
1690839236772460300,5.899460205078125,0.1813958470702171,-0.011855199901387095,0.014487754061794839
1690839236782501000,5.909501220703125,0.18196634043455123,-0.012713497231155634,0.009760273448750375
1690839236792541200,5.919541259765625,0.17191840915083884,0.0009020999388769269,0.019066135927196592
1690839236802612200,5.9296123046875,0.1747434034436941,-0.004715886073373258,0.021419731582328676
1690839236812652000,5.939652099609375,0.17741992917656899,-0.010021920059621334,0.019444170892774126
1690839236822692000,5.949692138671875,0.17411445789039134,-0.0010131225652992724,0.021174428751482628
1690839236832733200,5.959733154296875,0.1765039833754301,0.003993891941756009,0.01660184643920511
1690839236842773200,5.969773193359375,0.17949498188495636,0.004411130973137915,0.017160558034200222
1690839236852813300,5.979813232421875,0.18757307440042495,0.008567154674045742,0.01643183276769705
1690839236862854100,5.989854248046875,0.17530688254535198,0.011948796468973158,0.011472287831292487
1690839236872894200,5.999894287109375,0.1808475655376911,0.008917027557641267,0.006952239423850551
1690839236882934000,6.00993408203125,0.18518822509050367,0.00791055392883718,0.011452354721538723
1690839236892974000,6.01997412109375,0.18070611124038696,0.0013180968612432479,0.013538522478984669
1690839236903015200,6.03001513671875,0.17787819433808325,-0.0018104834880679846,0.01573739336328581
1690839236913055200,6.04005517578125,0.1840373014897108,-0.002966521655395627,0.009906536351912654
1690839236923095300,6.05009521484375,0.17462474550008772,-0.01015340095218271,-0.0019392518337350338
1690839236933135400,6.06013525390625,0.18062661626338958,-0.010877952367067336,-0.004179294978640973
1690839236943176200,6.07017626953125,0.18887422012686728,-0.003174721045978367,0.004806176439020782
1690839236953216000,6.080216064453125,0.187388365483284,-0.004137063272111117,0.007236965516209602
1690839236963287000,6.090287109375,0.18021043667793274,-0.00610584259442985,0.0026803342583123593
1690839236973327000,6.1003271484375,0.17123042688667772,-0.008204714569821954,0.014200520918518304
1690839236983367200,6.1103671875,0.1661380721837282,-0.007667575485818087,0.018260345102800054
1690839236993408300,6.120408203125,0.16777940964996813,-0.01299059713948518,0.023457785881729795
1690839237003448300,6.1304482421875,0.17121289122998715,-0.006284560162201524,0.0152997051989194
1690839237013488400,6.14048828125,0.17374445553421974,-0.004913600602559745,0.01839220045469701
1690839237023529200,6.150529296875,0.159372231310606,-0.007472783566080034,0.01860071037253365
1690839237033569000,6.160569091796875,0.17208675145506858,-0.006395582788623869,0.009395358259649947
1690839237043609000,6.170609130859375,0.17716741572022437,-0.0076032780779525634,0.0140442161119543
1690839237053649200,6.180649169921875,0.17401275108158587,-0.0077084554854780435,0.004776594151509926
1690839237063690200,6.190690185546875,0.17684183702766895,-0.00885777165107429,0.005655870337225496
1690839237073730300,6.200730224609375,0.1790788022994995,-0.0006111907009035348,0.005369993467396125
1690839237083770400,6.210770263671875,0.18879414062798022,0.001149425763450563,0.009029164428915827
1690839237093811200,6.220811279296875,0.17846388527154922,0.0007661620669066905,0.0067893176468322046
1690839237103851000,6.23085107421875,0.17860884670019148,-0.0008141293944790959,0.018978092317562548
1690839237113891000,6.24089111328125,0.1757680703163147,-0.0018208952842280269,0.018287360973889007
1690839237123962000,6.250962158203125,0.17816402554214,-0.002406184358894825,0.01521694055260159
1690839237134002200,6.261002197265625,0.17367723551690578,0.0018033230949193238,0.015458498790091833
1690839237144042200,6.271042236328125,0.17592589122653007,-0.0008219839073717594,0.015403366502793505
1690839237154083300,6.281083251953125,0.18236264627575874,0.00039345629699528214,0.009944845368573442
1690839237164123400,6.291123291015625,0.17667641733288764,-0.00036554537676274773,0.00006589570990763605
1690839237174163200,6.3011630859375,0.18939970530569553,0.0030291750954464076,-0.000013069544127210974
1690839237184204000,6.3112041015625,0.18536358165740965,0.00001125204637646675,-0.003213436488015577
1690839237194244000,6.321244140625,0.17623218069672583,-0.0037576720330864187,0.0002856759404297918
1690839237204284200,6.3312841796875,0.17309563623666763,-0.003462159685231745,0.009435461941175163
1690839237214324200,6.34132421875,0.18162556417286396,0.00045559828039258717,0.012429319128068163
1690839237224365300,6.351365234375,0.17923779225349426,-0.00017941168751567602,0.022423241502488964
1690839237234405400,6.3614052734375,0.17085925548672676,-0.003011529840901494,0.021458821483701467
1690839237244445200,6.371445068359375,0.17490765409469602,-0.004220942163281142,0.02248593604173511
1690839237254486000,6.381486083984375,0.18359072676599025,-0.006858816386200488,0.011635300939856097
1690839237264526000,6.391526123046875,0.18508885636925695,-0.005045154560357332,0.00941415429166518
1690839237274597000,6.40159716796875,0.1738642825216055,0.0018056977150961756,-0.0014581903185229748
1690839237284637200,6.41163720703125,0.16967326057255266,-0.004335873779840767,-0.005620072938059456
1690839237294677200,6.42167724609375,0.18058745329678058,-0.008075608297437429,0.00016428718362003565
1690839237304718300,6.43171826171875,0.18356851493418216,-0.006486329811997711,0.0034054153961595147
1690839237314758400,6.44175830078125,0.17966683132052422,-0.009082154991477727,0.010109164518234319
1690839237324798200,6.451798095703125,0.1693324843108654,0.0006156842129305005,0.011847308855876326
1690839237334838300,6.46183837890625,0.17606500743627548,-0.0007488821385428309,0.012098753733141347
1690839237344873200,6.471873291015625,0.16349252611100673,-0.008443710957467555,0.02097382357888855
1690839237354913300,6.481913330078125,0.17441782475113868,-0.0020007088305428623,0.02012502472982742
1690839237364953300,6.491953369140625,0.17546645702123642,-0.0023010434839874504,0.009320028001116589
1690839237374994200,6.501994140625,0.16603578085303305,0.0003054126873612404,0.010301116026914678
1690839237385034000,6.512033935546875,0.1718593724399805,-0.003684899057820439,0.0024169706143904474
1690839237395074000,6.522073974609375,0.1767915681451559,0.0027978870902210474,-0.001562495509791188
1690839237405114000,6.532114013671875,0.171550744882226,0.003189005299657583,0.0034053605972323565
1690839237415155200,6.5421552734375,0.1693061808258295,-0.006366722020320594,0.005271341698779724
1690839237425195300,6.5521953125,0.171550744882226,0.0014386910336092113,0.006598101357091218
1690839237435266300,6.562266357421875,0.18038345515727996,-0.005663761382736265,0.013300425707059912
1690839237445306400,6.572306396484375,0.17619944747090338,-0.0018000351592898367,0.017933264006325042
1690839237455346200,6.58234619140625,0.17470833213031292,0.00041285511720925565,0.018206532556330784
1690839237465387000,6.592386962890625,0.17501111446917056,-0.00835011438988149,0.009298592487443238
1690839237475427000,6.602427001953125,0.1865413932651281,-0.005955839664489031,0.011522004157956688
1690839237485467100,6.612467041015625,0.18325345763564108,-0.004836845571920275,0.007122230262472294
1690839237495507200,6.622507080078125,0.16979074947237968,-0.00863134248405695,0.01176871806117706
1690839237505548300,6.63254833984375,0.1705348458379507,0.0014720087813213467,0.013823312503425403
1690839237515588400,6.64258837890625,0.173977095246315,-0.00015544629003852605,0.006423064450593665
1690839237525628200,6.652628173828125,0.17037994753718375,-0.00806819217596203,0.0067622789428569375
1690839237535669000,6.6626689453125,0.17471534639298913,-0.0020144085623323917,0.004072866328945384
1690839237545709000,6.672708984375,0.17291209636330604,-0.004993716634064912,0.013349511846061795
1690839237555749000,6.6827490234375,0.181138657438755,0.0019689254527911542,0.011347113381931558
1690839237565789200,6.6927890625,0.17814473631978034,-0.00449413308147341,0.002348905780282803
1690839237575830300,6.702830322265625,0.1818885990232229,-0.010273410602658987,0.014958285049838014
1690839237585870300,6.712870361328125,0.18353402814269065,-0.006839417565986513,0.00855719040245749
1690839237595941400,6.72294140625,0.18264029417335986,-0.0007715323617681861,0.012112512830435298
1690839237605981200,6.732981201171875,0.18533435556292532,-0.00509246430080384,0.003971424381621182
1690839237616021200,6.743021240234375,0.18413550116717814,-0.005266797954402863,0.007230371378641575
1690839237626062000,6.75306201171875,0.18323358389139174,-0.001470364813506603,0.008769581910967826
1690839237636102100,6.76310205078125,0.17619126416444778,-0.0016587635250762103,0.006656316084042191
1690839237646142200,6.77314208984375,0.17783961589336394,-0.0035503494253382086,0.006565450329659506
1690839237656182300,6.783182373046875,0.1775450168609619,0.002701477511040866,0.009577226765733212
1690839237666223400,6.793223388671875,0.1739554679363966,-0.0015897899420931935,0.0018395817183889448
1690839237676263200,6.80326318359375,0.18054595224261283,-0.0062354237908497446,0.012166521739726885
1690839237686303200,6.81330322265625,0.1738198588579893,0.0005251198526471853,0.014716946008056401
1690839237696344000,6.823343994140625,0.1706792227447033,0.00101067487988621,0.0051374816194642335
1690839237706384100,6.833384033203125,0.17038579275608062,-0.011895787640102207,0.008026892051193862
1690839237716424200,6.843424072265625,0.17517653416395187,-0.0025865458944812417,0.006468095468985848
1690839237726464300,6.85346435546875,0.17278116346001623,-0.0017181290294975041,0.003110889428993687
1690839237736505300,6.86350537109375,0.1847521717607975,0.0012850348418578506,0.006050495678000152
1690839237746545200,6.873545166015625,0.18444880490005014,-0.005540025405213237,0.012316355706308967
1690839237756616200,6.8836162109375,0.17711247066259383,-0.004114705309830605,0.0058278476369567215
1690839237766656300,6.89365625,0.1732230620086193,-0.004396664056368172,-0.0015845657777041197
1690839237776696300,6.9036962890625,0.17531681941747665,-0.005164250895380974,-0.00029988712887279686
1690839237786737200,6.913737060546875,0.17965923253595828,-0.0076499302312731735,0.004042863916326314
1690839237796777200,6.923777099609375,0.16694237430393694,-0.007750869855098426,0.00791798831662163
1690839237806817300,6.9338173828125,0.17667466376721858,-0.006727445091493428,0.00569980994365178
1690839237816858400,6.9438583984375,0.18026596625745295,-0.003135302351042628,0.010915288702771067
1690839237826898200,6.953898193359375,0.17457973731458187,0.0019390417711809276,0.014470305170072242
1690839237836938200,6.963938232421875,0.17756898225843906,0.002139094387926161,0.008092705562710762
1690839237846978300,6.973978271484375,0.18235797010064125,-0.00803308432996273,0.005251837847288698
1690839237857019100,6.98401904296875,0.1784644697934389,-0.004813208968006074,0.004386476022494025
1690839237867059200,6.99405908203125,0.17621815217137335,-0.000951565103791654,-0.0005735347047913819
1690839237877099300,7.004099365234375,0.1690349626690149,-0.006934731166623532,-0.004771141658257693
1690839237887140400,7.014140380859375,0.1742728633224964,0.0002742138314992189,0.0077665103822248055
1690839237897180200,7.02418017578125,0.17382219694554804,-0.004226129795052111,0.002102178177330643
1690839237907251200,7.034251220703125,0.17337386865615845,-0.007646094306372106,-0.0013378153418656439
1690839237917291300,7.044291259765625,0.1744213318824768,-0.004347966076433658,0.011291414839052594
1690839237927331300,7.054331298828125,0.17621873669326305,-0.0026534736508503553,0.014989086613478139
1690839237937371100,7.06437109375,0.1670885047763586,0.00028531974740326403,0.0044058520098216826
1690839237947412200,7.074412109375,0.17771335916519165,-0.0016604440255090593,0.011064268719404935
1690839237957452300,7.084452392578125,0.17262392707169055,-0.002599551506526768,0.005108168760011904
1690839237967492000,7.0944921875,0.177557876342535,-0.00447948350161314,0.0019771681247511877
1690839237977533200,7.104533203125,0.18100187931656836,0.006501162054948508,0.011612280823872424
1690839237987573200,7.1145732421875,0.18234803322851656,0.005460347765125334,0.003796209378610365
1690839237997613300,7.12461328125,0.17755436921119688,-0.0019566139604896304,0.003529270104691386
1690839238007653000,7.134653076171875,0.17455927904844282,-0.004682129934243858,0.012802399357315152
1690839238017694200,7.144694091796875,0.18099661861956118,-0.006272942789644002,0.01172039910715539
1690839238027734300,7.154734375,0.18399112426042555,-0.001152896362170577,0.003655449201050214
1690839238037774000,7.164774169921875,0.17441490214169025,0.0006533493421971798,0.012429255195986479
1690839238047815200,7.174815185546875,0.17591303174495695,-0.00035257629733532667,0.007314286802429706
1690839238057855200,7.184855224609375,0.18085457980036734,0.005398863368853926,-0.00005533321669790893
1690839238067926300,7.19492626953125,0.1811532704859972,-0.0034248233495280146,0.0014607841344084589
1690839238077966300,7.20496630859375,0.17906126664280891,-0.004413395995460451,0.0003311864494346082
1690839238088006100,7.215006103515625,0.1771218230128288,-0.004617394134961069,-0.00161307491955813
1690839238098046200,7.225046142578125,0.17622341286838053,-0.0014836261538788676,0.00513486040411517
1690839238108087300,7.23508740234375,0.1769698473215103,-0.0028627690199762583,0.009685587077611125
1690839238118127000,7.245127197265625,0.174730543962121,-0.0019974574275314805,0.0038064978771843016
1690839238128167200,7.255167236328125,0.16874620885550976,-0.003772686939127743,0.010387442603497766
1690839238138208300,7.265208251953125,0.1694932278305292,-0.00020608049873262644,0.007710852938541211
1690839238148248300,7.275248291015625,0.16874503981173036,0.0006936813525855541,0.013170328487409278
1690839238158288100,7.2852880859375,0.17488076608777045,-0.0031948139859363433,0.004258917819801718
1690839238168328200,7.295328125,0.17517828772962094,0.007379881118237972,0.006124611226981505
1690839238178369300,7.305369384765625,0.17876842117607591,-0.00012070377022027969,0.009702999436715617
1690839238188409000,7.3154091796875,0.18175649707615374,-0.0026095979765057564,0.0078545722581679
1690839238198449200,7.32544921875,0.17441899379491804,-0.005850114267691969,0.008786848139599896
1690839238208490200,7.335490234375,0.18025602938532828,-0.0065511752091348165,0.0036344338124850765
1690839238218530300,7.3455302734375,0.17696458662450312,-0.0036983430612832304,0.003855150191346183
1690839238228601300,7.355601318359375,0.18564765929579732,-0.0015250906754285096,0.0009522957561537622
1690839238238641200,7.36564111328125,0.17756313703954218,-0.001449577753804624,0.005365180294960737
1690839238248681200,7.37568115234375,0.17426643358170985,0.0029379166154190894,0.006572674654889851
1690839238258722300,7.385722412109375,0.17815759580135346,-0.002579239370860159,0.006888494571833871
1690839238268762000,7.39576220703125,0.17485855425596236,-0.0031568200631067155,0.007117385123996064
1690839238278802200,7.40580224609375,0.1763508386403322,-0.00039217765536159275,0.0049157697267597535
1690839238288842200,7.41584228515625,0.18622165979146957,0.0032493937173858284,0.009839604028966277
1690839238298883000,7.425883056640625,0.17514555450379848,0.004980784087255597,0.010254491273057647
1690839238308923100,7.435923095703125,0.16870763041079043,-0.0012194222597405313,0.0027680490743834524
1690839238318963200,7.445963134765625,0.1788829874664545,-0.0007637874467298388,-0.0016260028997901826
1690839238329004300,7.45600439453125,0.17918401623964308,0.0015164689775556326,0.010444862746004946
1690839238339050000,7.466050048828125,0.1796370207041502,-0.0019751725304871797,0.014401386386016382
1690839238349090000,7.476090087890625,0.17829495844542978,-0.0069721040349453684,0.005630662830732763
1690839238359129900,7.4861298828125,0.17799919036924838,-0.0031552126279100774,0.0018319738006684929
1690839238369171000,7.4961708984375,0.17381050650775431,-0.0023847031794488427,0.010674383485829457
1690839238379211000,7.5062109375,0.17111644511818885,-0.0025371903274208304,0.007466910947719589
1690839238389282000,7.516281982421875,0.1753098051548004,0.00605433160290122,0.008827792071341536
1690839238399322000,7.526322021484375,0.1760550705641508,-0.0058215457603335375,0.004471117532067001
1690839238409362200,7.536362060546875,0.18727613728046416,-0.007509096988476812,0.005978905446245335
1690839238419403000,7.546403076171875,0.1851829643934965,-0.010000658075883984,0.016525219272729007
1690839238429442800,7.55644287109375,0.1747042404770851,-0.007398987677507102,0.009708415397349745
1690839238439483000,7.56648291015625,0.17523673991858957,-0.007457512931711971,0.010572685810178518
1690839238449523000,7.57652294921875,0.40777766781449315,0.021340528866276142,-0.03955146360308863
1690839238459564000,7.58656396484375,0.170856917399168,0.2713628625148907,-0.141919247934781
1690839238469604000,7.59660400390625,0.1107119530379772,-0.15956172600071877,0.2928355115945451
1690839238479644200,7.60664404296875,0.18210370307862758,-0.008668313493579625,-0.04413586878390051
1690839238489685000,7.61668505859375,0.05574994427263737,-0.16401749983318148,0.1349982530325651
1690839238499725000,7.62672509765625,0.17657003434896468,-0.06982070133164525,-0.04309055184889585
1690839238509764900,7.636764892578125,0.20758944199085233,0.0113860480196774,-0.12520258861002512
1690839238519805000,7.646804931640625,0.19415479087829587,-0.027777393513359127,-0.10903795541115105
1690839238529846000,7.656845947265625,0.19957213975191115,-0.0009853212429210543,-0.0823272686806973
1690839238539886000,7.666885986328125,0.17386135991215704,-0.00433967317212373,-0.04148603926170617
1690839238549957000,7.67695703125,0.17243629554510115,0.005184636096283793,0.007100570986513048
1690839238559997200,7.6869970703125,0.17178396911621094,0.014642309869267046,0.06052608633299823
1690839238570037000,7.697037109375,0.16353811881840227,0.020683928121067584,0.08937276674541644
1690839238580077800,7.707077880859375,0.1642868913590908,0.024166801800765095,0.09123224960751831
1690839238590118000,7.717117919921875,0.19048866958618163,0.0262312600499019,0.05814600909631699
1690839238600158000,7.727157958984375,0.1662824490904808,0.023961342356540263,0.013725377687439321
1690839238610198000,7.737197998046875,0.19012158983945845,0.018453136861696837,-0.02608141238358803
1690839238620239000,7.747239013671875,0.21665245389044283,0.012899009865894913,-0.053769958569714796
1690839238630279200,7.757279052734375,0.18093816643059252,0.01669007271192968,-0.06972666637264191
1690839238640319000,7.767319091796875,0.2136164471954107,0.007599113359488547,-0.060764342935127204
1690839238650359800,7.77735986328125,0.17611995249390602,0.013475129253417253,-0.03316289964371826
1690839238660399900,7.78739990234375,0.18471417783796787,0.004428374368883669,-0.00761948942723684
1690839238670440000,7.79743994140625,0.17011515912115574,0.005928805527091026,0.020531249176850543
1690839238680480000,7.80747998046875,0.1591062738507986,0.012073043903149663,0.04401786842742003
1690839238690521000,7.81752099609375,0.17233751134574413,0.007184248948283493,0.04048357508773915
1690839238700592000,7.827592041015625,0.14755027609169483,-0.007578910821676253,0.04069284305740148
1690839238710632200,7.837632080078125,0.16689502803087233,-0.008229629815369843,0.026422864498710258
1690839238720672000,7.847672119140625,0.18217910640239715,-0.0052269043354317545,-0.008040418253047391
1690839238730712000,7.857712158203125,0.17605156343281267,-0.016048085013963282,-0.025951502393605184
1690839238740753000,7.8677529296875,0.1613718806952238,-0.013963643422722816,-0.03307337189647369
1690839238750793000,7.87779296875,0.1896311759740114,-0.011229871077276765,-0.04082769865056034
1690839238760833000,7.8878330078125,0.17178864529132842,-0.012620704381167887,-0.032317434396059254
1690839238770874000,7.8978740234375,0.17488953391611575,-0.012469934266246855,-0.01282798588972073
1690839238780914200,7.9079140625,0.1745429124355316,-0.010081102900952101,0.006247278625424951
1690839238790954000,7.9179541015625,0.17090017201900481,-0.011875877363234758,0.013057049971818923
1690839238800993800,7.927993896484375,0.1681552572250366,-0.0013003785414621232,0.013327071685390546
1690839238811035000,7.938034912109375,0.16346914523541928,-0.0002464490417391062,0.021397145291185006
1690839238821075000,7.948074951171875,0.18272738793492316,-0.005440218292549252,0.018552907441742716
1690839238831115000,7.958114990234375,0.17789514547288418,-0.00028181261606514453,0.008019329799246043
1690839238841156000,7.968156005859375,0.17636837429702282,0.011317512828111649,0.005188910412602127
1690839238851196200,7.978196044921875,0.19550269835591316,0.007749152822047471,-0.005776391444355249
1690839238861267200,7.98826708984375,0.17813363040387628,0.0024397213023155924,-0.007651382402842864
1690839238871307000,7.99830712890625,0.18381810578107832,0.017715433704294264,-0.012196688549127428
1690839238881346800,8.008346923828125,0.18112872056663035,0.01737334226835519,-0.010705705639277583
1690839238891387000,8.018386962890625,0.17844810318052767,0.013508045142330229,-0.01159454880435951
1690839238901428000,8.028427978515625,0.18370003235936164,0.004857815294712782,-0.004975893283006735
1690839238911468000,8.038468017578126,0.18641338297128676,0.007390183316543698,0.002796736312750727
1690839238921508000,8.048508056640625,0.18075579560101032,0.009186967072822154,0.0019654046217212453
1690839238931549200,8.058549072265626,0.18124504042267797,0.006747976422868669,0.01591279102938715
1690839238941589000,8.068589111328125,0.17515081520080567,-0.0007949497699737549,0.01303693419897463
1690839238951628800,8.07862890625,0.17279577650725841,-0.003147979169525206,0.009100503498921171
1690839238961668900,8.0886689453125,0.17508125709593295,-0.0021476430205628273,-0.008361119841085746
1690839238971710000,8.0987099609375,0.17346973024606704,-0.011025690274685621,-0.007604218792868778
1690839238981750000,8.10875,0.1764940465033054,-0.008564633923396467,-0.00598766870801337
1690839238991790000,8.1187900390625,0.1784597936183214,-0.004538629810325801,-0.01409595543234609
1690839239001831200,8.1288310546875,0.1715840626299381,-0.0018107757490128278,-0.01069455862417817
1690839239011871000,8.13887109375,0.16993629542291164,-0.009903006387688219,-0.0054842492305207996
1690839239021942000,8.14894189453125,0.17426584905982018,-0.007249277008511126,-0.0037812858041143043
1690839239031981800,8.15898193359375,0.16945874103903769,-0.007758176378719508,0.001073364852555096
1690839239042022000,8.16902197265625,0.16883447166085241,-0.011277071219868958,0.003106313718575984
1690839239052062000,8.17906201171875,0.1870645403563976,-0.005663103795610368,0.010144907118473202
1690839239062103000,8.18910302734375,0.1801549070984125,0.003970693729259073,0.00907481193523854
1690839239072143000,8.19914306640625,0.1671095475643873,-0.012778707954473792,-0.003958793228911236
1690839239082183000,8.209182861328125,0.16528934639990328,-0.00895282952338457,-0.003902222469775006
1690839239092224000,8.21922412109375,0.1799199292987585,-0.0014361337503418325,0.0013209327057236804
1690839239102263800,8.229263916015626,0.18168635444939135,-0.004756875670887529,0.0028354563213651997
1690839239112303900,8.239303955078125,0.17073650588989256,-0.00005713701471686363,-0.0016559687797911464
1690839239122344000,8.249343994140625,0.18987258351445196,0.0019738208236172792,-0.009305816812673583
1690839239132385000,8.259385009765625,0.18417349509000777,-0.0036793095672503114,-0.0006285162950400262
1690839239142425000,8.269425048828126,0.17638357186615466,0.004521094153635203,-0.005489258765778504
1690839239152465000,8.27946484375,0.18281798882782457,0.0063331120116636155,-0.013067279104888438
1690839239162506000,8.289506103515626,0.1760907263994217,0.003047733665443957,-0.002247865691757761
1690839239172545800,8.2995458984375,0.17505846074223516,0.004580898049473763,0.007316821252810768
1690839239182616800,8.309616943359375,0.17686697146892547,0.0032057372387498616,-0.007071952246804721
1690839239192657000,8.319656982421876,0.18871055399775505,0.008452076927013694,-0.0030997835130896416
1690839239202697000,8.329697021484375,0.17810440430939198,0.004174911064468324,0.009574432020448147
1690839239212738000,8.339738037109376,0.18186404910385606,0.009365757705830037,-0.00096574889277108
1690839239222778000,8.349778076171875,0.177244572609663,0.008569821555167436,-0.009935739613510668
1690839239232818000,8.35981787109375,0.1796627396672964,-0.002475267539732158,-0.0072400525224395095
1690839239242858000,8.36985791015625,0.17773907812833786,0.0036513986470177767,-0.017637491363566366
1690839239252898800,8.37989892578125,0.17177227867841718,0.0025657588347792622,-0.012495908957719803
1690839239262939000,8.38993896484375,0.17492752783894538,-0.002090579071082175,-0.013381432221131398
1690839239272979000,8.39997900390625,0.17478490449786185,0.0036077056357637044,-0.011738505586003884
1690839239283020000,8.41002001953125,0.18286591962277887,-0.0011170578638091684,-0.010327597608463837
1690839239293060000,8.42006005859375,0.1622206064790487,-0.003540376020595431,0.00264209374031052
1690839239303100000,8.430099853515625,0.18241876037716864,-0.0038972996994853016,0.0004221435353625566
1690839239313140000,8.440139892578125,0.16206512365639208,-0.0008418941842392087,-0.0014020670839585362
1690839239323180800,8.450180908203125,0.15995441511273384,-0.004941000066138804,-0.0036457178249023853
1690839239333220900,8.460220947265626,0.16937047823369503,-0.003991261593252421,-0.004115015837084502
1690839239343266600,8.4702666015625,0.18087503806650637,-0.0070713631583377715,-0.009378991646738723
1690839239353306600,8.480306640625,0.17981237727105617,0.006379216175712645,-0.011041390167316421
1690839239363346700,8.4903466796875,0.16767478023171423,0.006343852601386606,-0.014217892178427427
1690839239373387500,8.500387451171875,0.1708002187758684,-0.005200710448250174,-0.0076009262906620275
1690839239383427600,8.510427490234376,0.1876934859097004,0.0006415127739310264,-0.0054061881587840616
1690839239393467600,8.520467529296875,0.1740729568362236,0.009263795168697833,0.0003711577002191916
1690839239403507500,8.530507568359376,0.17690730347931383,0.004312383306398987,-0.0016685725330375133
1690839239413548500,8.540548583984375,0.18917057272493837,-0.0018279826121404767,-0.000018088212539441884
1690839239423588600,8.550588623046876,0.17840192595124243,0.0051389703236520284,0.006466981224133633
1690839239433628700,8.560628662109375,0.16927344760000704,0.007639006978459656,0.011991603564238175
1690839239443669500,8.57066943359375,0.18125147016346455,0.002984386105649173,0.00764490699628368
1690839239453709600,8.58070947265625,0.1636065078794956,0.001563997913710773,0.003172341859224252
1690839239463749600,8.59074951171875,0.19010054705142973,0.0036918402552604673,-0.012883236908027902
1690839239473789400,8.60078955078125,0.18128186530172824,0.0037525939991697667,-0.005864106260426342
1690839239483830500,8.61083056640625,0.1771007802248001,-0.0014443901220336556,-0.004336727729788981
1690839239493901600,8.620901611328126,0.1863894175738096,0.005274506336823106,-0.008163542309217155
1690839239503941600,8.630941650390625,0.18355273284316062,-0.001593041345104575,-0.006044650459103286
1690839239513981700,8.640981689453126,0.17787819433808325,0.0004733896654099226,0.0027234610139857977
1690839239524021500,8.651021484375,0.16607260573208332,-0.0015745193077251313,0.01098116614636965
1690839239534062600,8.6610625,0.17326982375979422,-0.0045803865928202864,0.004596789738349616
1690839239544102700,8.6711025390625,0.17641688961386678,-0.001660772819072008,0.0052100079995580015
1690839239554142500,8.681142578125,0.17806991751790047,-0.007517462958022952,0.002937176829902455
1690839239564182500,8.6911826171875,0.17028993116617203,-0.011995521687529981,0.0009322028161957859
1690839239574223600,8.7012236328125,0.1653454605013132,-0.0033138007231056687,-0.009758373752608894
1690839239584263700,8.711263671875,0.18045009065270423,0.0054975379703566425,-0.011910966942925006
1690839239594303500,8.721303466796876,0.17789689903855324,-0.006793970989063381,-0.009118422748101875
1690839239604344600,8.731344482421875,0.1783382130652666,-0.010227306438609958,-0.009627075523138046
1690839239614384600,8.741384521484376,0.17578560597300527,0.0057764645095914596,-0.007561037238268181
1690839239624424400,8.751424560546875,0.17457739922702312,-0.0014740180753171443,-0.0007439319687895477
1690839239634464500,8.761464599609376,0.17830489531755447,-0.003405314931459725,0.0037335787714458998
1690839239644505600,8.771505615234375,0.18144260882139204,0.0030513503946363926,0.0037838796199997885
1690839239654576600,8.78157666015625,0.17784370754659176,-0.0026688173504546284,0.008015763302403502
1690839239664616700,8.79161669921875,0.1749959169000387,0.0012849617766216397,0.010321756956144235
1690839239674656500,8.801656494140625,0.17155132940411566,-0.0048981838377192615,0.0057560610423795875
1690839239684696600,8.811696533203126,0.17259528549909592,-0.0021392039857804773,-0.006122391870431601
1690839239694737700,8.821737548828125,0.18964988067448138,0.003611103169247508,-0.007036506474087946
1690839239704777500,8.831777587890626,0.18246493760645388,0.003570734626241028,-0.0069136609791312365
1690839239714817500,8.841817626953125,0.1809656389594078,0.006348967167921364,-0.005437994369422086
1690839239724858600,8.851858642578126,0.18590426440536975,0.0007007321478798985,-0.010055274339951575
1690839239734898700,8.861898681640625,0.17797814758121966,-0.0053100160416215654,-0.004717073383461684
1690839239744938500,8.8719384765625,0.17469021195173262,-0.0008736044967547059,-0.004543132455507293
1690839239754978600,8.881978515625,0.17843991987407207,0.005461772537231445,-0.0043485871309414505
1690839239765019600,8.89201953125,0.17036650353372096,0.0005154387088492512,-0.0017977518706582486
1690839239775059500,8.9020595703125,0.17097615986466408,-0.0028502017993479963,-0.0021010319664375855
1690839239785099500,8.912099609375,0.1717284395366907,-0.004259849401563405,-0.0009930022258777171
1690839239795140600,8.922140625,0.1838584377914667,-0.004809701836667955,-0.008237045936845242
1690839239805180700,8.9321806640625,0.18057576285898685,0.00016103578060865402,-0.009894649551296606
1690839239815251700,8.942251708984376,0.16876374451220036,0.00035926176644861696,-0.010571343236463145
1690839239825291500,8.95229150390625,0.17549743668138978,-0.002007357767038047,-0.0035401568248867987
1690839239835331600,8.96233154296875,0.1810351970642805,-0.007652049123123288,-0.0010264387045986949
1690839239845371400,8.972371337890625,0.18073299924731254,-0.0009643880527466534,-0.005292087659286335
1690839239855412500,8.98241259765625,0.18462357694506645,-0.0039511853111907835,-0.006088946258556097
1690839239865452500,8.99245263671875,0.17265023055672646,0.0004839841246604919,-0.002316953439172357
1690839239875492600,9.00249267578125,0.18327216233611104,0.0032610476225614546,0.005122631110204384
1690839239885533700,9.01253369140625,0.1795323912858963,-0.0072031363118439905,-0.0004648684322368353
1690839239895573500,9.022573486328126,0.1817716946452856,-0.0039017932115122675,-0.006068058734154328
1690839239905613600,9.032613525390625,0.180717217156291,-0.010175722381845116,-0.006838970041414722
1690839239915653400,9.0426533203125,0.17966449323296546,-0.005199249143525958,-0.008170949297538027
1690839239925694500,9.052694580078125,0.1829524288624525,0.00040934798587113615,-0.009548201600648462
1690839239935734500,9.062734619140626,0.17785948963761328,0.00403656203970313,-0.008637260768190026
1690839239945774600,9.072774658203125,0.17321137157082556,-0.006638707362115383,-0.0010009937360882758
1690839239955815700,9.082815673828126,0.17499883950948714,-0.004552987129241228,0.00009171513775363565
1690839239965855500,9.09285546875,0.1725999616742134,-0.0016399492267519234,-0.0005990436053834855
1690839239975926500,9.102926513671875,0.17320026565492153,-0.00070796560626477,0.004339088650234043
1690839239985966600,9.112966552734376,0.17410393649637698,0.004032945310510695,0.0024159842337016014
1690839239996006400,9.12300634765625,0.16512977192401884,0.0024644538847729564,-0.0030642190093640234
1690839240006047500,9.133047607421876,0.17411328884661198,-0.0031374577755108476,-0.004707483571209013
1690839240016087600,9.143087646484375,0.1793535275876522,-0.003837824597209692,-0.004917961683846079
1690839240026127600,9.153127685546876,0.17515958302915094,-0.00197652423735708,-0.008765846450766548
1690839240036167700,9.163167724609375,0.1814449469089508,0.0019184739071875809,-0.008684241715073584
1690839240046208500,9.17320849609375,0.1733668543934822,-0.0013222981123253703,-0.009959083956480026
1690839240056248600,9.18324853515625,0.17755670729875564,-0.0027947087524458764,-0.009212064981460572
1690839240066288400,9.193288330078126,0.18324527432918547,0.006393463896773755,-0.00409350725817494
1690839240076328400,9.203328369140625,0.17352292173802852,0.0030395503589883445,0.009539378973376006
1690839240086369500,9.21336962890625,0.17263503298759458,-0.004229052404500544,-0.001890964845754206
1690839240096409600,9.22340966796875,0.17128946359753608,-0.0077884619191288945,-0.0025355372264515607
1690839240106449700,9.23344970703125,0.17323416792452334,-0.00840410959944129,-0.0004038954926189035
1690839240116490500,9.243490478515625,0.17817454693615437,0.003005611556768417,-0.004681134420400485
1690839240126530600,9.253530517578126,0.17547873198091982,-0.004383256585523486,-0.0001264211249537766
1690839240136601600,9.2636015625,0.17548107006847857,-0.007320588679052889,-0.01140467965491116
1690839240146641400,9.273641357421875,0.18041618838310242,0.002633526841364801,-0.0008083298413548619
1690839240156681500,9.283681396484376,0.18220833249688148,-0.00101999069750309,0.0030946780797094105
1690839240166722600,9.29372265625,0.1796633241891861,0.005100245748460293,-0.003965807491587475
1690839240176762600,9.3037626953125,0.17637012786269188,-0.0007539601724594831,-0.0015297896834323183
1690839240186802700,9.313802734375,0.17682079423964023,0.0037919030962511894,-0.0061828579199733205
1690839240196842800,9.3238427734375,0.17966449323296546,0.003525616842880845,-0.000584951147949323
1690839240206883600,9.333883544921875,0.17173253118991852,0.00486124936081469,0.0014240962526760994
1690839240216923400,9.34392333984375,0.17038696179986,-0.001539849853143096,-0.0010945811705198138
1690839240226963500,9.35396337890625,0.17891630521416663,-0.001373845636472106,-0.005666711391648278
1690839240237004500,9.364004638671876,0.18041560386121272,0.004667991811037064,0.0025925189775414764
1690839240247044600,9.374044677734375,0.17458324444592,0.006375014924630522,-0.003956847866997123
1690839240257084700,9.384084716796876,0.1819189941614866,0.0035935675125569103,-0.008169579324359074
1690839240267124700,9.394124755859375,0.17937281681001185,0.004587291257642209,-0.005299814308015629
1690839240277165600,9.40416552734375,0.1783253535836935,-0.000209770293161273,-0.003570259702205658
1690839240287235600,9.414235595703126,0.1781727933704853,0.0043744887571781875,-0.008713550007948651
1690839240297276400,9.4242763671875,0.17457915279269218,0.00957234966121614,-0.014009190464345737
1690839240307316500,9.43431640625,0.178917474257946,0.003283003726042807,-0.008498098892671987
1690839240317356500,9.4443564453125,0.17173603832125664,0.005252915559522807,-0.0034003464953973887
1690839240327397600,9.454397705078126,0.18056641050875186,-0.002178586148098111,-0.0043811194273643194
1690839240337437700,9.464437744140625,0.1724859799057245,0.0023127704543992877,-0.009345847428962589
1690839240347471400,9.474471435546874,0.1747299594402313,0.0018518749443814158,-0.005667209148569964
1690839240357511400,9.484511474609375,0.17398177142143248,0.0026217633383348584,-0.00980761972181499
1690839240367552500,9.494552490234375,0.17577859171032906,-0.0033444150570780037,0.0005310746693983673
1690839240377592300,9.50459228515625,0.17248773347139357,-0.005557268800958991,-0.001317448407271877
1690839240387632400,9.51463232421875,0.17264263177216052,-0.0000773030199110508,-0.004517084698798135
1690839240397673500,9.524673583984375,0.17428689184784887,0.0033226416166871786,-0.013308668379019945
1690839240407713500,9.534713623046875,0.17054186010062694,0.00428903896342963,-0.0037518176810350267
1690839240417753300,9.54475341796875,0.1687444552898407,-0.004133117749355733,-0.0007222133273258805
1690839240427793400,9.55479345703125,0.18115853118300437,0.004301752314530313,-0.011131949961022474
1690839240437834500,9.56483447265625,0.18235212488174438,0.004978226803988218,-0.008580324682872741
1690839240447905500,9.574905517578125,0.17875906882584094,0.004960837277770042,-0.0020840671319048852
1690839240457945300,9.5849453125,0.18338965123593806,0.007165434649959206,-0.00214806314567104
1690839240467985400,9.5949853515625,0.18667524877786634,-0.0031646380433812734,-0.0016702712997794151
1690839240478025500,9.605025390625,0.17500000855326653,0.0006437777962535619,0.0028659564909059554
1690839240488066600,9.615066650390625,0.17559154470562935,-0.005943235911242664,0.004276079017156735
1690839240498106400,9.6251064453125,0.1785819586932659,-0.00014653233122080564,-0.0038708500839769837
1690839240508146400,9.635146484375,0.1830658261090517,0.0013790698008611798,-0.005561533984122798
1690839240518187500,9.6451875,0.1826134061664343,0.003394172482937574,-0.012405225866427644
1690839240528227300,9.655227294921875,0.17976970717310906,0.0048965398699045174,-0.0051798046575393525
1690839240538267400,9.665267333984374,0.17768413307070732,0.00044997225720435377,0.0013773893004283308
1690839240548307500,9.675307373046875,0.1781383065789938,0.002822802335768938,0.0022949882025364784
1690839240558348500,9.6853486328125,0.17469839525818823,-0.0017807824695482849,0.0019973478296771642
1690839240568388400,9.695388427734375,0.17365268559753894,0.0009715484458953142,-0.0007123951862100512
1690839240578428400,9.705428466796874,0.17035832022726535,0.0018243293503299354,-0.0019115509760566055
1690839240588468500,9.715468505859375,0.17110358563661573,-0.002148921662196517,-0.003912282639485783
1690839240598509600,9.725509521484375,0.1782902822703123,-0.009843239024467767,-0.002129463476478122
1690839240608580400,9.735580322265625,0.1769435438364744,-0.0041473289377987384,-0.007247642173850909
1690839240618620400,9.745620361328125,0.18367431339621543,0.0019236615389585494,-0.011743670384888537
1690839240628660500,9.755660400390624,0.17947803075015545,-0.00196322636436671,-0.0073184926200890905
1690839240638700500,9.765700439453125,0.17005319980084896,0.0022797449676319956,-0.007033570164907723
1690839240648741400,9.775741455078125,0.17080489495098589,-0.007352116328477859,-0.003444952822104096
1690839240658781400,9.785781494140625,0.17588731278181075,-0.005931289745122194,-0.009230340423667802
1690839240668821200,9.7958212890625,0.18322013988792896,0.0026061639104038477,-0.0027782690742984414
1690839240678862300,9.8058623046875,0.18741233088076115,0.00417231724858284,-0.00005083513809368014
1690839240688902400,9.81590234375,0.17782967902123928,0.005084536722674966,-0.005191677758423611
1690839240698942500,9.8259423828125,0.18141572081446647,0.014695574426464736,-0.0050240935060195625
1690839240708982500,9.835982421875,0.17423136226832867,0.005360723315551877,-0.0023490564773324877
1690839240719023400,9.8460234375,0.16884733114242553,-0.0008768193671479821,-0.0022621956112096084
1690839240729063400,9.8560634765625,0.1794704319655895,-0.0037424013987183567,-0.01020715413314756
1690839240739103500,9.866103515625,0.18036825758814812,-0.0020572978559881445,-0.004605685430858284
1690839240749144600,9.87614453125,0.18111936821639538,-0.0034777225805446505,-0.0037379672521958124
1690839240759184400,9.886184326171875,0.17992577451765537,-0.003990129082091153,-0.006943197600869462
1690839240769255400,9.89625537109375,0.17484160312116145,0.00013845862261950968,-0.00328873021393083
1690839240779295500,9.90629541015625,0.1706523347377777,-0.005543569069169462,-0.008687305888417176
1690839240789335600,9.91633544921875,0.17245850737690924,-0.004715009290538728,-0.018113082119217142
1690839240799375600,9.926375732421874,0.1800941168218851,-0.0023857260927557943,-0.006924785161344334
1690839240809416400,9.93641650390625,0.17920272094011305,0.0017680325858294964,-0.009603018794115632
1690839240819456300,9.946456298828124,0.17591770792007444,0.0011581570591777562,-0.0002250043949112296
1690839240829496300,9.956496337890625,0.17816227197647094,0.000719765641912818,-0.0034662604716140773
1690839240839537400,9.966537353515625,0.1871387746363878,0.0024807108998298644,-0.010506315176235511
1690839240849577500,9.976577392578125,0.18803543121516703,0.002306961768120527,-0.00935342794721946
1690839240859617500,9.986617431640624,0.17770926751196384,-0.0018890651496127247,-0.0038096031497232615
1690839240869657600,9.99665771484375,0.17590835556983947,-0.006337313262745737,-0.00847333434417378
1690839240879698400,10.006698486328125,0.17440964144468307,-0.007570910178311169,-0.006245725989155471
1690839240889738500,10.016738525390625,0.18429098398983476,-0.0010394991155713797,-0.00459045589568559
1690839240899778300,10.0267783203125,0.17800912724137305,0.0018595102615654468,0.003287661634851247
1690839240909819400,10.0368193359375,0.17187515453100202,-0.00005764847137033939,0.0011089704554760828
1690839240919859500,10.046859375,0.18099895670711993,-0.0034392902662977575,-0.010684498454467393
1690839240929930500,10.056930419921875,0.1790484071612358,0.0010720496783033014,-0.006503312912839464
1690839240939970600,10.066970458984375,0.1820329759299755,0.0005884308798238634,-0.00759260598688852
1690839240950010600,10.0770107421875,0.17424597531557082,0.002690371595136821,-0.01365053148609586
1690839240960051500,10.087051513671875,0.16721125437319279,0.00008935878388583659,-0.007405764478165656
1690839240970091300,10.09709130859375,0.17917349484562872,-0.004124094192683696,-0.006846523160208016
1690839240980131300,10.10713134765625,0.17109364876449107,0.001278495503216982,-0.003557327155396342
1690839240990171400,10.11717138671875,0.16391396639347075,-0.005855594160407781,-0.0044062447354663165
1690839241000212500,10.12721240234375,0.17678747649192808,-0.006816292418725788,-0.00353692368818447
1690839241010252500,10.13725244140625,0.18487258327007292,-0.0022582272555679082,-0.004572102821664884
1690839241020292600,10.147292724609375,0.1901198362737894,-0.004616773080453276,-0.0035025647608563303
1690839241030332400,10.15733251953125,0.17516016755104064,-0.0034768457977101203,-0.004759798280335963
1690839241040373200,10.167373291015625,0.18219722658097742,0.0018548706190660595,-0.00825946783120744
1690839241050413300,10.177413330078124,0.1748649839967489,0.003813968797586858,-0.004923738404083997
1690839241060453400,10.187453369140625,0.18294950625300407,0.004802322247810661,-0.00032779804910533126
1690839241070494500,10.197494384765625,0.17502105134129523,0.005449241849221288,-0.0037231852415949103
1690839241080564500,10.207564453125,0.17322481557428837,-0.0021903496511280537,-0.004064801753498614
1690839241090605600,10.21760546875,0.174721191611886,-0.003990165614709258,-0.009563015577290206
1690839241100645600,10.227645751953125,0.1862415335357189,-0.0028324469469487665,-0.0050912039254792036
1690839241110685400,10.237685546875,0.17472002256810665,0.003170885121077299,-0.006575697729038074
1690839241120726300,10.247726318359375,0.17173253118991852,0.0007417217453941702,-0.00782413602070883
1690839241130766300,10.257766357421875,0.174721191611886,-0.0009923720382153988,-0.005596203438704833
1690839241140806400,10.267806396484374,0.1830962212473154,-0.005273775684460997,0.000544938797969371
1690839241150846500,10.277846435546875,0.18009937751889227,-0.005360540652461349,-0.005803201819467358
1690839241160887600,10.287887451171875,0.17111936772763728,-0.004179148848168552,-0.014043946683895773
1690839241170927600,10.297927734375,0.17844459604918955,0.006740816029720008,-0.00711758148681838
1690839241180967400,10.307967529296874,0.18502455896139144,0.005611958130262792,-0.0009823255682364107
1690839241191008300,10.31800830078125,0.1805330927610397,0.0015283420784398913,-0.007411025175172835
1690839241201048300,10.32804833984375,0.17470307143330574,0.0017818053828552365,-0.011523620726307854
1690839241211088400,10.33808837890625,0.1729050821006298,0.005762180255912244,-0.008425910439295694
1690839241221128400,10.34812841796875,0.16736498363018035,0.004508417335152626,-0.0029720198144204913
1690839241231169500,10.35816943359375,0.17739187212586402,-0.0012992094976827502,-0.006376489929086528
1690839241241239600,10.368239501953125,0.18307810106873512,0.0034967560745775696,-0.007843123848969116
1690839241251280600,10.37828076171875,0.18786007464826107,0.0008162117537111043,-0.005605555788939819
1690839241261320400,10.388320556640625,0.18352058413922787,-0.0005294672342017292,-0.006659138228790835
1690839241271360500,10.398360595703124,0.16511574339866636,0.0026151509344577786,-0.001936539286840707
1690839241281401300,10.4084013671875,0.17005261527895926,0.003772504276037216,-0.004822972310194746
1690839241291441400,10.41844140625,0.18082652274966238,-0.006415821859054267,-0.003227620276995003
1690839241301481500,10.4284814453125,0.17604571821391582,-0.003272555397264659,-0.0038106762953801078
1690839241311521500,10.438521484375,0.17529519210755823,0.008180310780927538,-0.012476752166100776
1690839241321562600,10.448562744140625,0.18621756813824175,0.003797638717293739,-0.004412642510212026
1690839241331602400,10.4586025390625,0.18561667963564396,0.006891549612022936,-0.0012342727690003812
1690839241341643300,10.468643310546875,0.1809779139190912,0.006719371382892131,-0.0049895473490236325
1690839241351684400,10.478684326171875,0.18785656751692295,0.004966463300958276,-0.00982447039191611
1690839241361724400,10.488724365234376,0.18187515501976012,-0.005717427798733115,-0.005846429039840586
1690839241371764500,10.498764404296875,0.179034963157773,-0.00565711244624108,-0.007044963775179348
1690839241381804500,10.508804443359375,0.16362228997051714,-0.00026701690573245287,-0.008349475069064647
1690839241391845400,10.518845458984375,0.17903262507021425,-0.003766841720230877,-0.0035111864587292073
1690839241401916400,10.52891650390625,0.17094985637962817,-0.006073584292642772,-0.001031069213943556
1690839241411956500,10.53895654296875,0.17439327483177183,0.000845291717723012,-0.00040034269550815225
1690839241421996300,10.548996337890625,0.17872925820946692,0.005399776684306561,-0.002584563999949023
1690839241432036400,10.559036376953125,0.17379238632917404,0.0067779697023332116,0.006530680410377681
1690839241442077400,10.569077392578125,0.1815717881590128,0.0039024873312562703,-0.005378802394936792
1690839241452117500,10.579117431640626,0.17468202864527702,0.002736548824422061,-0.003073260832345113
1690839241462157600,10.589157470703125,0.17811843283474443,-0.0024614582100883123,-0.005029345069872215
1690839241472198400,10.599198486328126,0.1829039135456085,0.0004693710774183273,-0.005863403007527813
1690839241482238500,10.609238525390625,0.17511574388742446,-0.0002860869323834777,-0.008022444204939529
1690839241492278300,10.6192783203125,0.1739122133165598,-0.0017719781085848807,0.0019855843266472217
1690839241502318300,10.629318359375,0.16673194642364977,0.0008329071601852774,-0.004491183072561398
1690839241512359400,10.639359375,0.16658873856067657,0.0076939885687083,-0.0067351900065317745
1690839241522399500,10.6493994140625,0.16988719558417797,0.015012531421147286,-0.004193095175130292
1690839241532439600,10.659439453125,0.17647534180283544,0.0034364041894674297,-0.0064719268273096524
1690839241542479600,10.669479736328125,0.16689385898709297,-0.002625453132763505,-0.005473362510325387
1690839241552520400,10.6795205078125,0.16404899094998834,0.0004929346160963177,-0.007482994432840496
1690839241562591500,10.689591552734376,0.17467267629504202,-0.0017526158209890126,-0.006255799858598038
1690839241572631300,10.69963134765625,0.16868191144764422,-0.003795702488534152,-0.010208190746186301
1690839241582671400,10.70967138671875,0.1710749440640211,-0.0005439706835895777,-0.011925534324394539
1690839241592711400,10.71971142578125,0.17436638682484626,-0.003395414591953158,-0.00684688848638907
1690839241602752500,10.72975244140625,0.1806517507046461,-0.003370170552842319,-0.0036699846164789047
1690839241612792600,10.73979248046875,0.1845505117088556,0.0039979105297476055,-0.001882165051368065
1690839241622832600,10.74983251953125,0.1758715306907892,-0.0018404037022963166,-0.008153317742724903
1690839241632873500,10.75987353515625,0.1718324844330549,-0.003150536452792585,-0.013247092651203274
1690839241642913300,10.769913330078126,0.18469898026883602,-0.0023021029299125076,-0.002106712788552977
1690839241652953300,10.779953369140625,0.18799100755155085,0.0011509236007928847,0.0021890527431853114
1690839241662993400,10.789993408203125,0.1846907969623804,-0.003370791607350111,-0.011660102020972408
1690839241673034500,10.800034423828125,0.18154606919586658,-0.0011829627068713306,0.0010189221184235065
1690839241683074600,10.810074462890626,0.175415019094944,-0.0025912951348349453,-0.00814524860070087
1690839241693114600,10.820114501953125,0.18409341559112072,-0.000368321855738759,-0.007893319666245952
1690839241703155500,10.830155517578126,0.17316928599476814,-0.00038545565363019705,-0.010153081291774287
1690839241713195500,10.840195556640625,0.1837929713398218,-0.0051837593134492635,0.0010875121089164168
1690839241723266300,10.850266357421875,0.18348668186962602,-0.005914703936502337,-0.0008007127904798835
1690839241733306400,10.860306396484376,0.1831879911839962,-0.000655504766665399,0.0005927873945329338
1690839241743346400,10.870346435546875,0.1852829176366329,-0.006640387862548232,-0.006495047407993115
1690839241753386500,10.880386474609375,0.1715098283499479,0.00311904533598572,-0.006757360739144496
1690839241763427600,10.890427490234375,0.176138657194376,0.00007792407441884279,-0.007064577224524691
1690839241773467600,10.900467529296876,0.17015256852209568,0.002318140749260783,-0.009079424178274348
1690839241783507500,10.910507568359375,0.17149463078081606,-0.0031911972567439076,-0.008019923454290255
1690839241793548300,10.92054833984375,0.1735807894051075,0.0007963380094617604,-0.009475519956927745
1690839241803588400,10.93058837890625,0.18585691813230512,-0.0014670038126409052,-0.006998453185753897
1690839241813628400,10.94062841796875,0.17643091813921927,0.0014004413824528455,-0.004957850736239925
1690839241823668500,10.95066845703125,0.17643150266110896,-0.0030820377938449383,-0.007898041507136076
1690839241833709600,10.96070947265625,0.18107085289955138,-0.002914097348414361,-0.006744414492603391
1690839241843749600,10.97074951171875,0.1713414860457182,0.001527173034660518,-0.013232050345698371
1690839241853789400,10.98078955078125,0.17358254297077655,-0.000041062662750482553,-0.0014270645278971642
1690839241863830300,10.990830322265625,0.188846747598052,-0.0029944691082462666,-0.003548399496846832
1690839241873870300,11.000870361328126,0.18316519483029842,-0.00200670017991215,-0.00007412924871314316
1690839241883941400,11.01094140625,0.17075053441524504,-0.006095102004706859,0.0018580398236867038
1690839241893981400,11.0209814453125,0.18048340840041635,-0.0049401598159223795,-0.005612661383161321
1690839241904021500,11.031021484375,0.174348266646266,-0.00466061222217977,0.0005281063941773026
1690839241914062600,11.0410625,0.16971242353916166,-0.004911591308563948,-0.011675938910921103
1690839241924102700,11.0511025390625,0.17464987994134426,-0.002958740207739174,-0.008903693152032792
1690839241934142500,11.061142578125,0.16701660858392714,-0.003759827457554638,-0.005088189984485507
1690839241944182300,11.071182373046875,0.1735971560180187,0.00021568857729434965,-0.00600106704570353
1690839241954223400,11.081223388671875,0.17509060944616794,-0.00029269933626055716,-0.013640923407534136
1690839241964263400,11.091263427734376,0.16805471946001052,-0.0027316899862140417,-0.012861847060127184
1690839241974303500,11.101303466796875,0.1759855124592781,-0.004824497547000647,-0.003840633042226545
1690839241984344600,11.111344482421876,0.170896080365777,-0.005458922993019223,-0.004052271065488457
1690839241994384600,11.121384521484375,0.17283377043008805,-0.005319916381128132,0.002506923053320497
1690839242004424400,11.131424560546876,0.1698375112235546,-0.004930186411179602,-0.004799034312181175
1690839242014464300,11.14146435546875,0.17372458178997038,-0.0028909722011536357,0.003337610856955871
1690839242024505300,11.15150537109375,0.18165654383301733,-0.00015847849734127521,-0.008283414962375536
1690839242034575400,11.161575439453125,0.18105448628664014,0.0005053922388702631,-0.0022876131802564486
1690839242044616400,11.171616455078125,0.183300219386816,0.0026424773328006267,0.0018029577687382697
1690839242054656500,11.181656494140626,0.18135493053793905,-0.0058721434364095325,-0.008469548651622609
1690839242064696600,11.191696533203125,0.1779062513887882,-0.001971300072968006,-0.009692532841628416
1690839242074737700,11.201737548828126,0.1764122134387493,0.0021099413586780427,-0.005014841620484367
1690839242084777500,11.211777587890625,0.1741723255574703,-0.0011052578281611203,-0.005970813471334986
1690839242094817300,11.2218173828125,0.1716319934248924,0.0012217968799173831,-0.0017900069556199014
1690839242104857300,11.231857421875,0.17178163102865218,-0.005514306442067027,-0.001240816674218513
1690839242114898400,11.2418984375,0.17806991751790047,-0.005735949836112558,-0.0031644462471362204
1690839242124938500,11.2519384765625,0.17927169452309608,-0.000864836668409407,0.004676344080851413
1690839242134978600,11.261978515625,0.18181845639646052,-0.004828296939283609,0.007151095597352832
1690839242145019600,11.27201953125,0.1774836420625448,0.002741078869067132,-0.005390721161593683
1690839242155059500,11.2820595703125,0.17837971411943435,-0.004016396034508944,-0.003064045479428023
1690839242165099300,11.292099365234375,0.1809217998176813,-0.001502403919585049,0.004337641045241617
1690839242175139300,11.302139404296875,0.1776326951444149,-0.00638586511220783,0.0009351573916850611
1690839242185180400,11.312180419921875,0.1717939059883356,-0.005711546047218144,-0.0013450716331368311
1690839242195250400,11.32225048828125,0.17852642911374567,0.0026498203890398145,0.0028085957139031958
1690839242205291500,11.33229150390625,0.18046645726561544,-0.0055478799181059,-0.01203504084716551
1690839242215331600,11.34233154296875,0.17507716544270516,-0.00815959678646177,-0.009202721764380112
1690839242225371400,11.352371337890625,0.16983984931111334,0.0015672493167221545,-0.0013038308738730848
1690839242235412500,11.36241259765625,0.17836627011597156,0.0028633170092478392,-0.0009474277847912162
1690839242245452300,11.372452392578126,0.17312603137493132,-0.006173135676980019,-0.0033901858609868213
1690839242255492400,11.382492431640625,0.17342589110434053,-0.006151325703971087,-0.004045544497179799
1690839242265532400,11.392532470703125,0.1744698471993208,0.0018846812354400752,0.0020689426280092447
1690839242275573500,11.402573486328125,0.17596505419313907,0.0002132408918812871,-0.004550900203431956
1690839242285613600,11.412613525390626,0.1728261716455221,-0.007496237506903708,0.004591656905505806
1690839242295653400,11.4226533203125,0.17806173421144483,-0.0031886034408584235,-0.003922306276578456
1690839242305694500,11.432694580078126,0.1660913104325533,-0.003931238501705229,-0.009282381138158961
1690839242315734300,11.442734375,0.17028408594727515,0.006454436836391687,-0.009413231843058019
1690839242325774300,11.4527744140625,0.17387480391561985,0.005084390592202544,-0.0023459466382162644
1690839242335814400,11.462814453125,0.17357903583943843,0.007556151000596582,0.0026978014163440093
1690839242345853200,11.472853271484375,0.18599603434205053,-0.0038677813440561293,-0.0034847368432208894
1690839242355924200,11.48292431640625,0.18690028970539568,-0.003874320682696998,-0.011178277887357398
1690839242365964300,11.49296435546875,0.18346388551592827,0.0017768369467929005,-0.006022936384216882
1690839242376004000,11.503004150390625,0.1746305907189846,0.002132883842848241,-0.004328411992592737
1690839242386044000,11.5130439453125,0.172686470913887,-0.00037800299953669306,-0.00878209433266893
1690839242396085000,11.5230849609375,0.17912439500689506,0.0009031959174200892,-0.001848728572647087
1690839242406125000,11.533125,0.18152444188594816,0.00044624593015760183,-0.006332481824001297
1690839242416165000,11.5431650390625,0.17494097184240817,-0.0005862754553556442,-0.011909300142223946
1690839242426206200,11.553206298828124,0.16506839712560176,-0.0036607144646346565,-0.011096052097156642
1690839242436246300,11.563246337890625,0.17015899826288222,-0.004048398607969284,-0.007529842948983423
1690839242446286000,11.5732861328125,0.17509937727451325,0.0009181742908433079,-0.00826099306801334
1690839242456326000,11.583325927734375,0.17629764714837073,0.0013746858866885304,-0.001100746049825102
1690839242466367000,11.593366943359374,0.17375731501579283,-0.00556833818424493,-0.004626938281441107
1690839242476407000,11.603406982421875,0.17974924890697003,-0.0006493307542055845,-0.005418906076462008
1690839242486447000,11.613447021484374,0.17675941944122314,0.003741195822320878,-0.008888915708009154
1690839242496488200,11.62348828125,0.1793061813145876,0.0005260331680998206,-0.007820382294198498
1690839242506528300,11.6335283203125,0.1787087999433279,-0.002606565769203007,-0.006631875762529671
1690839242516599300,11.643599365234374,0.18559096067249775,-0.006080708153173327,-0.012997711866861208
1690839242526639000,11.65363916015625,0.18139760063588617,0.0004344458945095539,-0.006183921932475641
1690839242536679000,11.663678955078124,0.17106325362622737,-0.0063272302601486445,-0.010050890425778924
1690839242546719000,11.673718994140625,0.1725567070543766,0.0021242256123572586,-0.0012609324470628052
1690839242556760000,11.683760009765624,0.1713537610054016,0.005271729857847094,-0.003951016347832046
1690839242566800100,11.693800048828125,0.17703356020748615,-0.001008811716362834,-0.006990274445875548
1690839242576840200,11.703840087890624,0.17912790213823318,0.0012237696412950754,-0.0026621364479186014
1690839242586881300,11.71388134765625,0.18286708866655826,0.0025199469316750764,-0.009748724574851804
1690839242596921000,11.723921142578124,0.17583587485551833,-0.009268800137378274,-0.011139845573110506
1690839242606961000,11.7339609375,0.17688918330073355,-0.005859576215781271,-0.005109479367686435
1690839242617001000,11.7440009765625,0.18107786716222762,-0.004224485827237367,-0.013445802694233134
1690839242627042000,11.7540419921875,0.17344284223914144,-0.0025099004616960883,-0.0035678713822970163
1690839242637082000,11.76408203125,0.18107085289955138,-0.008271934587135911,-0.003830910799233243
1690839242647122200,11.7741220703125,0.17568389916419982,-0.0007902735948562622,-0.009468989751441404
1690839242657163300,11.784163330078124,0.17703239116370678,-0.0012104717683047055,-0.010234279602090827
1690839242667203000,11.794203125,0.17301263412833212,-0.0008109145240858197,0.0015284516762942074
1690839242677274000,11.804274169921875,0.5185235231220722,0.031675460397824644,0.046536203357321206
1690839242687314000,11.81431396484375,-0.26762977693378925,0.1733500859217718,-0.10760359349278732
1690839242697354000,11.82435400390625,0.4270990388780832,0.02860635515078902,0.12674080362850798
1690839242707394000,11.83439404296875,0.31998247998356816,0.0030366277495399116,0.2313029470661655
1690839242717435100,11.84443505859375,-0.20221827034652232,-0.15436905272845178,0.22627752011958507
1690839242727475200,11.85447509765625,0.21923896325230596,-0.20479151836801318,-0.020337507569883017
1690839242737515300,11.864515380859375,0.0452303038239479,-0.12655888945665209,-0.07964266923922114
1690839242747556000,11.87455615234375,0.24124387431144714,0.038118389459513125,0.025001115466747433
1690839242757596000,11.884595947265625,0.19541502007246017,-0.029222441222518682,-0.21355960244163869
1690839242767636000,11.894635986328124,0.20354513503611085,-0.031457835591770705,-0.22302628150498494
1690839242777676000,11.904676025390625,0.22572306457459926,-0.07746420182213187,-0.1832583530064672
1690839242787717000,11.914717041015624,0.16454758812189102,0.003871946062520146,-0.03538648941074498
1690839242797757200,11.924757080078125,0.17506839761435986,-0.016750862988457082,-0.03975398217155598
1690839242807797200,11.93479736328125,0.1528442908465862,-0.004563800784200429,0.08492980672875419
1690839242817838000,11.944838134765625,0.1984510267674923,0.004872209146246313,0.16459573811255396
1690839242827878000,11.9548779296875,0.09745148944854735,0.026534042388759553,0.2110104294154793
1690839242837949000,11.964948974609374,0.17785598250627516,0.021312873674370347,0.18752629438294097
1690839242847989000,11.974989013671875,0.21985563384592532,0.044029878525622186,0.1500492533005774
1690839242858029000,11.985029052734374,0.1284194591641426,0.04580423125438392,0.06403833680422977
1690839242868070100,11.995070068359375,0.25906770029366016,0.03739226714204997,-0.012329585080640389
1690839242878110200,12.005110107421874,0.1788952624261379,0.027860395621694622,-0.06679821170531212
1690839242888150300,12.015150390625,0.23057693434655666,0.00845967571157962,-0.10445413475222885
1690839242898190000,12.025190185546874,0.21299685399234294,0.016225231679156422,-0.1339646356685087
1690839242908231000,12.03523095703125,0.19333236857950686,0.022386238526925444,-0.12127212642645463
1690839242918271000,12.04527099609375,0.2526817986488342,0.008848346235603094,-0.08268612858834676
1690839242928311000,12.05531103515625,0.1466968741327524,0.026968159489706156,-0.01776708169314079
1690839242938352000,12.06535205078125,0.19351941558420657,0.029428704384341833,0.024410154703119767
1690839242948392200,12.07539208984375,0.19935411308705805,0.04042133263964206,0.07625139196626841
1690839242958432300,12.085432373046874,0.14489537766873836,-0.00871708453875035,0.1242022433279082
1690839242968472000,12.09547216796875,0.1339917063385248,0.0003866612300276756,0.12574380108094774
1690839242978513000,12.105512939453124,0.18802607886493206,0.0033105858527123925,0.10493329657129943
1690839242988583200,12.115583251953124,0.14223521854877472,-0.010729812600649893,0.07490268077105283
1690839242998624000,12.1256240234375,0.169301504650712,-0.009484050323255359,0.020282498580170793
1690839243008664000,12.1356640625,0.18211890064775943,-0.028268684161640703,-0.015764363568602127
1690839243018704100,12.1457041015625,0.16512977192401884,-0.019566943322494625,-0.057183128014067185
1690839243028745200,12.1557451171875,0.19987667565643785,-0.02771017349604517,-0.07157039454318583
1690839243038785300,12.165785400390625,0.15962708285450936,-0.030209004574455318,-0.06703937265058048
1690839243048825000,12.1758251953125,0.19087094690203665,-0.029888284720107912,-0.05157753569250926
1690839243058865200,12.185865234375,0.17674948256909845,-0.026021891615539788,-0.030874478179286232
1690839243068906000,12.195906005859374,0.13088847962617872,-0.027878406202420592,0.011002071937080473
1690839243078946000,12.205946044921875,0.1837713440299034,-0.034218203683197494,0.03891124773710035
