time,seconds_elapsed,z,y,x
1690839230988193300,0.115193359375,-0.0065380604937672615,-0.006117014680057764,0.07077004015445709
1690839230998233300,0.1252333984375,-0.00609384523704648,-0.008674714714288712,0.055331166833639145
1690839231008273400,0.1352734375,-0.006215019151568413,-0.011406585574150085,0.0420001819729805
1690839231018314200,0.145314208984375,-0.00621182331815362,-0.012329370714724064,0.025140507146716118
1690839231028354300,0.155354248046875,-0.004920190200209618,-0.007965780794620514,0.0010010822443291545
1690839231038394400,0.165394287109375,-0.0027742148377001286,-0.00358834327198565,-0.019722038879990578
1690839231048434200,0.17543408203125,-0.0034914042335003614,0.00227939966134727,-0.03875032439827919
1690839231058475300,0.185475341796875,-0.004740959499031305,0.007459247950464487,-0.05806782841682434
1690839231068515300,0.195515380859375,-0.003897003596648574,0.004323109518736601,-0.07546892762184143
1690839231078555400,0.205555419921875,-0.0031129689887166023,0.0024442493449896574,-0.08721692860126495
1690839231088596200,0.21559619140625,-0.005015797447413206,-0.00037736992817372084,-0.0943230390548706
1690839231098636300,0.22563623046875,-0.003825897118076682,-0.004602741450071335,-0.09591880440711975
1690839231108707300,0.235707275390625,-0.005801163613796234,-0.007506918627768755,-0.09776198118925095
1690839231118747400,0.245747314453125,-0.004489556886255741,-0.0046701193787157536,-0.09134668856859207
1690839231128787200,0.255787109375,-0.003870638320222497,-0.006266417913138866,-0.08154519647359848
1690839231138827300,0.2658271484375,-0.005256813485175371,-0.0023007048293948174,-0.06969998776912689
1690839231148868400,0.275868408203125,-0.00467651104554534,0.00014141385327093303,-0.05420571565628052
1690839231158908400,0.285908447265625,-0.00672155199572444,0.0020849888678640127,-0.04035834223031998
1690839231168948500,0.295948486328125,-0.004056526813656092,0.0017148094484582543,-0.024823591113090515
1690839231178989300,0.3059892578125,-0.0035233621019870043,-0.001401355373673141,-0.009394034743309021
1690839231189029400,0.316029296875,-0.0052261874079704285,-0.0008247809601016343,0.0067716194316744804
1690839231199069200,0.326069091796875,-0.00498144282028079,-0.0026080335956066847,0.017045030370354652
1690839231209109200,0.336109130859375,-0.005125786177814007,-0.003037601476535201,0.02810726873576641
1690839231219150300,0.346150390625,-0.004963333252817392,-0.001933454885147512,0.03573376312851906
1690839231229190400,0.3561904296875,-0.00609357887879014,-0.003225088119506836,0.03604269027709961
1690839231239230500,0.36623046875,-0.004308994393795729,-0.001407480682246387,0.035405393689870834
1690839231249271300,0.376271240234375,-0.004174504894763231,-0.0006197175825946033,0.03339124470949173
1690839231259311400,0.386311279296875,-0.0043774377554655075,-0.0023161512799561024,0.026274479925632477
1690839231269382400,0.39638232421875,-0.0027622305788099766,-0.0022985744290053844,0.018380338326096535
1690839231279422200,0.406422119140625,-0.0049430932849645615,-0.00259418529458344,0.007084008306264877
1690839231289462300,0.416462158203125,-0.004833104554563761,-0.0019180085510015488,-0.006105829495936632
1690839231299503400,0.42650341796875,-0.0033342777751386166,-0.003727626521140337,-0.015600265003740788
1690839231309543400,0.43654345703125,-0.005864014383405447,-0.0031515848822891712,-0.027533091604709625
1690839231319583500,0.44658349609375,-0.004541488364338875,-0.0028184233233332634,-0.037225399166345596
1690839231329623600,0.45662353515625,-0.005678924731910229,-0.002205097349360585,-0.04679946228861809
1690839231339665700,0.466665771484375,-0.004333229269832373,-0.0033475933596491814,-0.05627552419900894
1690839231349705500,0.47670556640625,-0.005258145276457071,-0.000621848099399358,-0.06100529804825783
1690839231359745500,0.48674560546875,-0.003859186777845025,-0.000483363721286878,-0.06536808609962463
1690839231369785600,0.49678564453125,-0.0032237565610557795,-0.0018730012234300375,-0.0644487664103508
1690839231379826400,0.506826416015625,-0.005300489254295826,-0.0011779161868616939,-0.060084909200668335
1690839231389866500,0.516866455078125,-0.004190750420093536,-0.000441818410763517,-0.05381209775805473
1690839231399906600,0.526906494140625,-0.002475142013281584,-0.0017504957504570484,-0.04685831815004349
1690839231409947600,0.53694775390625,-0.005372394807636738,-0.0036762275267392397,-0.03762540593743324
1690839231419987700,0.54698779296875,-0.005648298189043999,-0.0026027073618024588,-0.029141373932361603
1690839231430058500,0.55705859375,-0.005653624422848225,-0.0020474381744861603,-0.021932195872068405
1690839231440098600,0.5670986328125,-0.005118861794471741,-0.0009009473724290729,-0.014139254577457905
1690839231450138600,0.577138671875,-0.00660570478066802,-0.001023186487145722,-0.0051923650316894054
1690839231460179500,0.587179443359375,-0.005702094174921513,-0.000871652620844543,0.0009536779834888875
1690839231470219500,0.597219482421875,-0.004138285759836435,-0.0024525050539523363,0.006627276539802551
1690839231480259600,0.607259521484375,-0.00555056007578969,-0.0023784691002219915,0.009789779782295227
1690839231490299400,0.61729931640625,-0.00552366254851222,-0.00004953479583491571,0.013834056444466114
1690839231500340500,0.627340576171875,-0.005875998642295599,-0.0027513117529451847,0.010889398865401745
1690839231510380500,0.637380615234375,-0.004259193316102028,-0.0021201425697654486,0.009900035336613655
1690839231520420600,0.647420654296875,-0.004916728008538485,-0.0016506272368133068,0.00407490273937583
1690839231530461400,0.65746142578125,-0.004068511072546244,-0.0012785836588591337,-0.0006056028068996966
1690839231540501500,0.66750146484375,-0.0036677054595202208,-0.00039601203752681613,-0.006591323763132095
1690839231550541600,0.67754150390625,-0.005727127660065889,-0.0035393410362303257,-0.013917413540184498
1690839231560581600,0.68758154296875,-0.0027241474017500877,-0.0026735474821180105,-0.0210669357329607
1690839231570622700,0.697622802734375,-0.006813963875174522,-0.002660231664776802,-0.027342941612005234
1690839231580692500,0.7076923828125,-0.004853078629821539,-0.002180596347898245,-0.03462029621005058
1690839231590733600,0.717733642578125,-0.0041369544342160225,-0.0016221314435824752,-0.03790610283613205
1690839231600773600,0.727773681640625,-0.003692472819238901,-0.00013315805699676275,-0.04114610329270363
1690839231610813700,0.737813720703125,-0.006299707572907209,-0.0034850125666707754,-0.04163239896297455
1690839231620854500,0.7478544921875,-0.005294364411383867,-0.0016250609187409282,-0.04289979487657547
1690839231630894600,0.75789453125,-0.004868524614721537,-0.0021941782906651497,-0.04301351308822632
1690839231640934400,0.767934326171875,-0.004774515051394701,0.0015701997326686978,-0.0391780287027359
1690839231650974500,0.777974365234375,-0.004588892683386803,-0.0016708672046661377,-0.038420360535383224
1690839231661015600,0.788015625,-0.004262122791260481,-0.0009587379754520953,-0.035812858492136
1690839231671055600,0.7980556640625,-0.004543885588645935,-0.0017097494564950466,-0.028652416542172432
1690839231681095700,0.808095703125,-0.0051715923473238945,-0.0029438582714647055,-0.023143403232097626
1690839231691136500,0.818136474609375,-0.005679723806679249,-0.0027563716284930706,-0.01925997994840145
1690839231701176600,0.828176513671875,-0.0033513219095766544,-0.004022438544780016,-0.013670538552105427
1690839231711216600,0.838216552734375,-0.005052549298852682,-0.004576908424496651,-0.009489108808338642
1690839231721256400,0.84825634765625,-0.0049795787781476974,-0.001859685406088829,-0.004037618637084961
1690839231731297500,0.858297607421875,-0.004624579101800919,0.00013182646944187582,-0.003210174385458231
1690839231741368600,0.86836865234375,-0.005287173669785261,0.00018801917030941695,-0.001588575541973114
1690839231751408600,0.87840869140625,-0.0046610645949840546,-0.0014314490836113691,-0.004542553797364235
1690839231761448700,0.88844873046875,-0.005621400196105242,-0.0013888385146856308,-0.004804608877748251
1690839231771488800,0.89848876953125,-0.005005944054573774,-0.0022628880105912685,-0.005923935677856207
1690839231781529600,0.908529541015625,-0.00580835435539484,-0.0022746059112250805,-0.008319981396198273
1690839231791569400,0.9185693359375,-0.002689526416361332,-0.0016021577175706625,-0.011827897280454636
1690839231801609500,0.928609375,-0.003944141324609518,-0.004120443016290665,-0.01612810418009758
1690839231811649500,0.9386494140625,-0.002639725338667631,-0.0009392969077453017,-0.019688483327627182
1690839231821690600,0.948690673828125,-0.0056983656249940395,-0.0016937704058364034,-0.02185096964240074
1690839231831730700,0.958730712890625,-0.0026823359075933695,-0.0015659386990591884,-0.02755626104772091
1690839231841770800,0.968770751953125,-0.0037441381718963385,-0.002921754028648138,-0.0330176055431366
1690839231851811600,0.9788115234375,-0.005089034326374531,-0.002270611235871911,-0.03196405991911888
1690839231861851400,0.988851318359375,-0.00444055488333106,-0.0033965955954045057,-0.03395610302686691
1690839231871891500,0.998891357421875,-0.003608849598094821,-0.0015443670563399792,-0.033782199025154114
1690839231881931500,1.008931640625,-0.005425658077001572,-0.003111637430265546,-0.03524800017476082
1690839231891972600,1.01897265625,-0.004808603785932064,-0.003822701284661889,-0.0320250429213047
1690839231902043600,1.029043701171875,-0.005712214391678572,-0.003081277245655656,-0.030438866466283798
1690839231912083700,1.039083740234375,-0.005435245577245951,-0.00301762786693871,-0.029118737205863
1690839231922123800,1.049123779296875,-0.006398244295269251,-0.0030924626626074314,-0.024271251633763313
1690839231932163600,1.05916357421875,-0.005352154839783907,-0.0020652813836932182,-0.020134562626481056
1690839231942204400,1.069204345703125,-0.006690393202006817,-0.0003653856983873993,-0.018733207136392593
1690839231952244500,1.079244384765625,-0.005369465332478285,-0.002445048186928034,-0.01555206160992384
1690839231962284500,1.089284423828125,-0.0028301412239670753,-0.00024767397553659976,-0.012587697245180607
1690839231972325600,1.09932568359375,-0.005499161314219236,0.0011318434262648225,-0.012289955280721188
1690839231982365700,1.10936572265625,-0.004249606281518936,-0.001148088718764484,-0.011899536475539207
1690839231992405800,1.11940576171875,-0.005204349290579557,-0.002186721656471491,-0.010528807528316975
1690839232002445600,1.129445556640625,-0.0032778186723589897,-0.004168645944446325,-0.011443869210779667
1690839232012486400,1.139486328125,-0.005173456855118275,-0.0037023264449089766,-0.014621819369494915
1690839232022526500,1.1495263671875,-0.006611563730984926,-0.003976898267865181,-0.014663098379969597
1690839232032566500,1.15956640625,-0.004622981417924166,-0.0008215851848945022,-0.015990417450666428
1690839232042607600,1.169607666015625,-0.003742540255188942,0.00009640643111197278,-0.01714649610221386
1690839232052647700,1.179647705078125,-0.005251220893114805,-0.00012170646368758753,-0.018128937110304832
1690839232062718700,1.18971875,-0.005357214715331793,0.001725462032482028,-0.021881330758333206
1690839232072758800,1.1997587890625,-0.005440571811050177,-0.003317499766126275,-0.021159080788493156
1690839232082798600,1.209798583984375,-0.005705290008336306,-0.0037729002069681883,-0.022012624889612198
1690839232092838400,1.21983837890625,-0.0036464000586420298,-0.004340952727943659,-0.02215004339814186
1690839232102879500,1.22987939453125,-0.006804642733186483,-0.007325024344027042,-0.02406938374042511
1690839232112919600,1.23991943359375,-0.005203816574066877,-0.0070917317643761635,-0.021763885393738747
1690839232122959600,1.249959716796875,-0.0036903421860188246,-0.0011584750609472394,-0.025103222578763962
1690839232133000700,1.260000732421875,-0.00427171029150486,0.0015781891997903585,-0.02624678425490856
1690839232143040800,1.270040771484375,-0.0036549223586916924,0.005302353762090206,-0.027645209804177284
1690839232153080600,1.28008056640625,-0.0044983453117311,0.006529804784804583,-0.02696637064218521
1690839232163120400,1.290120361328125,-0.0034019220620393753,0.0020178770646452904,-0.031033016741275787
1690839232173161500,1.300161376953125,-0.0028216191567480564,0.0015600797487422824,-0.027701135724782944
1690839232183201500,1.310201416015625,-0.0030799456872045994,-0.005666141398251057,-0.02532905898988247
1690839232193241600,1.32024169921875,-0.0051923650316894054,-0.014985873363912106,-0.022003835067152977
1690839232203282700,1.33028271484375,-0.005935120861977339,-0.01350568886846304,-0.014890000224113464
1690839232213322800,1.34032275390625,-0.004915129859000444,-0.01188142690807581,-0.01251925341784954
1690839232223393800,1.350393798828125,-0.00606268597766757,-0.007669371087104082,-0.010528274811804295
1690839232233433600,1.36043359375,-0.006340453866869211,0.003127083647996187,-0.009765811264514923
1690839232243473400,1.370473388671875,-0.0037923413328826427,0.00820999313145876,-0.009239038452506065
1690839232253514500,1.380514404296875,-0.003227484878152609,0.01284762192517519,-0.012456935830414295
1690839232263554600,1.390554443359375,-0.004605670925229788,0.011114968918263912,-0.013490241952240467
1690839232273594600,1.4005947265625,-0.003043194068595767,0.005642971955239773,-0.019099125638604164
1690839232283634700,1.410634765625,-0.0027329358272254467,-0.0028421254828572273,-0.021517276763916016
1690839232293675800,1.42067578125,-0.005420864559710026,-0.009218531660735607,-0.024044083431363106
1690839232303715600,1.430715576171875,-0.005399825517088175,-0.015527560375630856,-0.023839285597205162
1690839232313755400,1.44075537109375,-0.007160973735153675,-0.014087855815887451,-0.022586269304156303
1690839232323795500,1.45079541015625,-0.0068448567762970924,-0.010907242074608803,-0.02143152244389057
1690839232333831400,1.46083154296875,-0.005891178734600544,-0.0023156185634434223,-0.02172553539276123
1690839232343871200,1.470871337890625,-0.003964381758123636,0.004314853344112635,-0.02165762521326542
1690839232353911300,1.480911376953125,-0.003480485174804926,0.008170045912265778,-0.021038172766566277
1690839232363952400,1.490952392578125,-0.0016900419723242521,0.010536530055105686,-0.0235868189483881
1690839232373992400,1.500992431640625,-0.003187004942446947,0.0070946612395346165,-0.023663250729441643
1690839232384063500,1.5110634765625,-0.004496214911341667,0.0009038768475875258,-0.02304140292108059
1690839232394103600,1.521103515625,-0.004972920753061771,-0.005557750817388296,-0.023677898570895195
1690839232404143400,1.531143310546875,-0.006882407236844301,-0.008793758228421211,-0.021888254210352898
1690839232414184400,1.541184326171875,-0.006208094768226147,-0.010611631907522678,-0.020166520029306412
1690839232424224300,1.551224365234375,-0.006361226551234722,-0.008352738805115223,-0.01889406330883503
1690839232434264300,1.561264404296875,-0.005092762876302004,-0.0031558459158986807,-0.019571837037801743
1690839232444304400,1.571304443359375,-0.0038804919458925724,0.0017590179340913892,-0.01555552426725626
1690839232454345500,1.581345458984375,-0.0033683660440146923,0.005564408842474222,-0.01600692979991436
1690839232464385500,1.591385498046875,-0.002624811604619026,0.006375873927026987,-0.017887387424707413
1690839232474425600,1.601425537109375,-0.003019491909071803,0.00621049152687192,-0.01792280748486519
1690839232484466400,1.611466552734375,-0.004278101958334446,0.0030429279431700706,-0.017962222918868065
1690839232494506200,1.62150634765625,-0.004540956113487482,-0.00621208967640996,-0.01648683100938797
1690839232504546300,1.63154638671875,-0.005416070576757193,-0.01107528805732727,-0.01660747267305851
1690839232514586400,1.64158642578125,-0.006675745826214552,-0.012006063014268875,-0.016894826665520668
1690839232524627500,1.65162744140625,-0.00782356783747673,-0.011861985549330711,-0.016894293949007988
1690839232534697500,1.661697509765625,-0.00657667638733983,-0.005122323986142874,-0.018803780898451805
1690839232544738600,1.671738525390625,-0.004233627114444971,0.005065864883363247,-0.023395603522658348
1690839232554778400,1.6817783203125,-0.002273007994517684,0.00711756432428956,-0.022368155419826508
1690839232564818400,1.691818359375,-0.0025297366082668304,0.012867328710854053,-0.02556687965989113
1690839232574859300,1.701859375,-0.0032344090286642313,0.007123689632862806,-0.02786651812493801
1690839232584899300,1.7118994140625,-0.003835218260064721,0.001868473831564188,-0.025551699101924896
1690839232594939400,1.721939453125,-0.004286890383809805,-0.007442736066877842,-0.024279240518808365
1690839232604979500,1.7319794921875,-0.005828061606734991,-0.013021525926887989,-0.021942317485809326
1690839232615020500,1.7420205078125,-0.006440322380512953,-0.016640761867165565,-0.02238147146999836
1690839232625060600,1.752060546875,-0.0070949275977909565,-0.01404551137238741,-0.021141771227121353
1690839232635100400,1.762100341796875,-0.006843524985015392,-0.00577746145427227,-0.020834442228078842
1690839232645141200,1.772141357421875,-0.005155347287654877,0.003306048223748803,-0.020311929285526276
1690839232655181300,1.782181396484375,-0.0026967169251292944,0.011265969835221767,-0.021628862246870995
1690839232665221400,1.792221435546875,-0.0015880429418757558,0.012749084271490574,-0.02172340452671051
1690839232675261400,1.802261474609375,-0.003622697899118066,0.009017995558679104,-0.021930865943431854
1690839232685302500,1.812302490234375,-0.002537992550060153,0.004542820155620575,-0.018614696338772774
1690839232695373600,1.82237353515625,-0.0029941920656710863,-0.008582835085690022,-0.018560368567705154
1690839232705413400,1.832413330078125,-0.0067545752972364426,-0.013374661095440388,-0.015300393104553223
1690839232715453400,1.842453369140625,-0.008555937558412552,-0.013141901232302189,-0.013945376500487328
1690839232725493500,1.852493408203125,-0.007084541022777557,-0.013538711704313755,-0.013292902149260044
1690839232735534300,1.862534423828125,-0.005286374595016241,-0.0075689698569476604,-0.014750183559954166
1690839232745574400,1.872574462890625,-0.005241101142019033,-0.0017116136150434613,-0.015145396813750267
1690839232755614500,1.882614501953125,-0.005315402988344431,0.005768673028796911,-0.01907968521118164
1690839232765655600,1.892655517578125,-0.0038245655596256256,0.008107461035251617,-0.022638732567429543
1690839232775695600,1.902695556640625,-0.0033635725267231464,0.008231830783188343,-0.026979420334100723
1690839232785735400,1.9127353515625,-0.0032810145057737827,0.0038274950347840786,-0.026979686692357063
1690839232795775500,1.922775390625,-0.0028935244772583246,-0.001284975209273398,-0.02984418161213398
1690839232805816300,1.93281640625,-0.005536179058253765,-0.005450691562145948,-0.02852192334830761
1690839232815856400,1.9428564453125,-0.005912750028073788,-0.010145844891667366,-0.026326412335038185
1690839232825896400,1.952896484375,-0.007868842221796513,-0.010997789911925793,-0.02304166927933693
1690839232835936500,1.9629365234375,-0.005160939879715443,-0.01010989211499691,-0.020852817222476006
1690839232845977600,1.9729775390625,-0.005953230429440737,-0.0040855552069842815,-0.01992443948984146
1690839232856048400,1.98304833984375,-0.005032575689256191,-0.0006671218434348702,-0.018736403435468674
1690839232866088400,1.99308837890625,-0.002656769473105669,0.005402222275733948,-0.016929714009165764
1690839232876128500,2.00312841796875,-0.0041156490333378315,0.0033665020018815994,-0.017546502873301506
1690839232886168600,2.01316845703125,-0.003343332326039672,0.004064782522618771,-0.016835438087582588
1690839232896209400,2.02320947265625,-0.004412591457366943,0.0035270904190838337,-0.017477527260780334
1690839232906249500,2.03324951171875,-0.00455640209838748,-0.00037950044497847557,-0.01453153882175684
1690839232916289300,2.043289306640625,-0.005053347907960415,-0.004742823541164398,-0.014220747165381908
1690839232926330400,2.053330322265625,-0.004820588044822216,-0.003997404593974352,-0.015843678265810013
1690839232936370400,2.063370361328125,-0.005115932319313288,-0.006089051254093647,-0.013479323126375675
1690839232946410500,2.073410400390625,-0.0049532135017216206,-0.005055478774011135,-0.01607404090464115
1690839232956450600,2.083450439453125,-0.004501008428633213,-0.00583844818174839,-0.015242869034409523
1690839232966491400,2.093491455078125,-0.0035444011446088552,0.00008122641156660393,-0.018616294488310814
1690839232976531500,2.103531494140625,-0.0026109630707651377,-0.0008215851848945022,-0.021037107333540916
1690839232986571500,2.113571533203125,-0.004816593136638403,-0.003054911969229579,-0.025522669777274132
1690839232996612600,2.123612548828125,-0.004058124963194132,-0.00001997370782191865,-0.026933345943689346
1690839233006652400,2.13365234375,-0.006324208807200193,-0.0012141350889578462,-0.02876533567905426
1690839233016723500,2.143723388671875,-0.004825381562113762,0.00030599720776081085,-0.030953122302889824
1690839233026763500,2.153763427734375,-0.004530303180217743,0.0005161206354387105,-0.027937890961766243
1690839233036803600,2.163803466796875,-0.0032711606472730637,-0.0002561961009632796,-0.030073214322328568
1690839233046843600,2.17384375,-0.003406715579330921,-0.002055427758023143,-0.02564251236617565
1690839233056884500,2.183884521484375,-0.0033633061684668064,-0.0037318875547498465,-0.023867515847086906
1690839233066924300,2.19392431640625,-0.0052229915745556355,-0.0016162724932655692,-0.024646224454045296
1690839233076964400,2.20396435546875,-0.005583050660789013,0.002210956299677491,-0.019002186134457588
1690839233087005400,2.21400537109375,-0.0052200620993971825,-0.0008831042214296758,-0.013433783315122128
1690839233097045500,2.22404541015625,-0.005579322576522827,-0.007765777874737978,-0.010035590268671513
1690839233107085600,2.23408544921875,-0.005767341703176498,0.00042264367220923305,-0.0032226911280304193
1690839233117125600,2.244125732421875,-0.005545233841985464,-0.007457383442670107,-0.0014857775531709194
1690839233127166500,2.25416650390625,-0.00589597225189209,-0.008584166876971722,-0.0011230550007894635
1690839233137206500,2.26420654296875,-0.006173207424581051,-0.003960120491683483,-0.00628905463963747
1690839233147246300,2.274246337890625,-0.004891428165137768,-0.00436065997928381,-0.014172011986374855
1690839233157287400,2.284287353515625,-0.004625111818313599,0.0038607846945524216,-0.019105251878499985
1690839233167357400,2.294357421875,-0.004107393324375153,0.007221694104373455,-0.023327693343162537
1690839233177398500,2.3043984375,-0.0031531827989965677,0.012474512681365013,-0.028312863782048225
1690839233187438600,2.3144384765625,-0.0005909554311074317,0.010928281582891941,-0.030897196382284164
1690839233197478700,2.324478759765625,-0.00401524780318141,0.001913214917294681,-0.027463847771286964
1690839233207519500,2.33451953125,-0.004230963997542858,-0.007803328335285187,-0.02654053084552288
1690839233217559300,2.344559326171875,-0.006448045372962952,-0.01684342883527279,-0.023022495210170746
1690839233227599400,2.354599365234375,-0.007982824929058552,-0.023301593959331512,-0.023000657558441162
1690839233237639400,2.364639404296875,-0.007139401976019144,-0.018854381516575813,-0.022607307881116867
1690839233247680500,2.374680419921875,-0.0038637141697108746,-0.009369267150759697,-0.027037477120757103
1690839233257720600,2.384720458984375,-0.004797152243554592,-0.0008921589469537139,-0.030497988685965538
1690839233267760600,2.3947607421875,-0.0033838124945759773,0.009379653260111809,-0.032224513590335846
1690839233277801500,2.404801513671875,-0.004050934221595526,0.013392770662903786,-0.03476810082793236
1690839233287841500,2.414841552734375,-0.0030514500103890896,0.01293124444782734,-0.0329587496817112
1690839233297881300,2.42488134765625,-0.0026764769572764635,0.00896659679710865,-0.02973046526312828
1690839233307921400,2.43492138671875,-0.004581436049193144,0.003010703483596444,-0.024516794830560684
1690839233317962500,2.44496240234375,-0.0036938043776899576,-0.0034791536163538694,-0.019218701869249344
1690839233328032500,2.455032470703125,-0.005923935677856207,-0.0116148442029953,-0.014881211332976818
1690839233338075600,2.46507568359375,-0.006136721931397915,-0.013442039489746094,-0.011178884655237198
1690839233348115700,2.47511572265625,-0.006357764359563589,-0.014126737602055073,-0.01167556457221508
1690839233358155500,2.485155517578125,-0.007607319392263889,-0.01031735260039568,-0.00908777117729187
1690839233368196600,2.495196533203125,-0.007531952112913132,-0.004295146092772484,-0.011091266758739948
1690839233378236400,2.505236328125,-0.004714061506092548,0.0017803232185542583,-0.00902651809155941
1690839233388276500,2.5152763671875,-0.004455468617379665,0.009457417763769627,-0.009574064053595066
1690839233398316500,2.525316650390625,-0.0014242585748434067,0.012862535193562508,-0.007107710465788841
1690839233408357600,2.535357666015625,-0.002121740486472845,0.010483266785740852,-0.005858421791344881
1690839233418397700,2.545397705078125,-0.002240517409518361,0.005048820748925209,-0.003728159237653017
1690839233428437500,2.5554375,-0.005696235224604607,-0.0018080200534313917,-0.00869255792349577
1690839233438478600,2.565478515625,-0.007066697813570499,-0.010969560593366623,-0.013353888876736164
1690839233448518400,2.575518310546875,-0.006699714343994856,-0.011605257168412209,-0.0181659534573555
1690839233458558500,2.585558349609375,-0.006616623606532812,-0.01498214527964592,-0.02442704513669014
1690839233468598500,2.5955986328125,-0.00621022516861558,-0.014077203348279,-0.03224422410130501
1690839233478639600,2.6056396484375,-0.0055151404812932014,-0.00526746641844511,-0.03783126920461655
1690839233488709600,2.615709716796875,-0.005571865476667881,0.00028815402765758336,-0.0392209067940712
1690839233498750700,2.625750732421875,-0.0022189458832144737,0.008581237867474556,-0.04121161997318268
1690839233508790500,2.63579052734375,-0.0030506509356200695,0.009894974529743195,-0.037452299147844315
1690839233518830600,2.64583056640625,-0.002793389605358243,0.011063037440180779,-0.034692201763391495
1690839233528871400,2.655871337890625,-0.003762513864785433,0.0060088904574513435,-0.030311033129692078
1690839233538911500,2.665911376953125,-0.004333229269832373,-0.00029401297797448933,-0.025292307138442993
1690839233548951600,2.67595166015625,-0.005556153133511543,-0.004677576012909412,-0.022007031366229057
1690839233558991600,2.68599169921875,-0.005801163613796234,-0.009852364659309387,-0.017613613978028297
1690839233569032700,2.69603271484375,-0.005478388629853725,-0.010371946729719639,-0.016800817102193832
1690839233579072500,2.706072509765625,-0.004099403973668814,-0.011592473834753036,-0.015007711946964264
1690839233589112600,2.716112548828125,-0.004346811678260565,-0.007723699789494276,-0.012087022885680199
1690839233599153400,2.7261533203125,-0.004905809182673693,-0.0049585397355258465,-0.013430055230855942
1690839233609193500,2.736193359375,-0.004382497631013393,-0.0012658004416152835,-0.010601777583360672
1690839233619233500,2.746233642578125,-0.004822718445211649,0.0030397321097552776,-0.010757306590676308
1690839233629273600,2.756273681640625,-0.003215766977518797,0.008143147453665733,-0.010692059062421322
1690839233639314700,2.766314697265625,-0.003299123840406537,0.00845500361174345,-0.008146343752741814
1690839233649385500,2.776385498046875,-0.003102582646533847,0.004982774145901203,-0.00926433876156807
1690839233659425500,2.786425537109375,-0.004173972178250551,0.0005896238726563752,-0.010890197940170765
1690839233669465600,2.796465576171875,-0.004195810295641422,-0.002082591876387596,-0.013400227762758732
1690839233679505700,2.806505615234375,-0.0054664043709635735,-0.007756989449262619,-0.017892980948090553
1690839233689546500,2.81654638671875,-0.005697300657629967,-0.011896872892975807,-0.02334367111325264
1690839233699586600,2.826586669921875,-0.005115665961056948,-0.009759154170751572,-0.02576448582112789
1690839233709626600,2.836626708984375,-0.005538043566048145,-0.007334079127758741,-0.026984479278326035
1690839233719667700,2.846667724609375,-0.0044014062732458115,-0.0019065570086240768,-0.028796760365366936
1690839233729707500,2.85670751953125,-0.00424161646515131,0.0005371595616452396,-0.03014165721833706
1690839233739747600,2.86674755859375,-0.003930293023586273,0.002859169617295265,-0.0293714702129364
1690839233749787600,2.87678759765625,-0.004853877238929272,0.004954811185598373,-0.028858279809355736
1690839233759828500,2.886828369140625,-0.004126834217458963,0.006958839949220419,-0.025004951283335686
1690839233769868500,2.89686865234375,-0.005532450973987579,0.006385994143784046,-0.02550775744020939
1690839233779908600,2.90690869140625,-0.004147074185311794,0.00202320353128016,-0.022705845534801483
1690839233789948400,2.916948486328125,-0.005088767968118191,-0.004792890977114439,-0.02178998477756977
1690839233800019500,2.92701953125,-0.0036701022181659937,-0.00794287770986557,-0.020966799929738045
1690839233810060500,2.937060546875,-0.006768157705664635,-0.013738448731601238,-0.021565213799476624
1690839233820100600,2.9471005859375,-0.0049026133492589,-0.012402873486280441,-0.018937738612294197
1690839233830140700,2.957140625,-0.005686914082616568,-0.010457434691488743,-0.01745036244392395
1690839233840180700,2.9671806640625,-0.005239502992480993,-0.003816842334344983,-0.015569105744361877
1690839233850221600,2.9772216796875,-0.0031017838045954704,0.0032527849543839693,-0.01558188907802105
1690839233860261600,2.98726171875,-0.004063983913511038,0.0075729647651314735,-0.013610084541141987
1690839233870301400,2.997301513671875,-0.0017124125733971596,0.009400691837072372,-0.012291287072002888
1690839233880342500,3.007342529296875,-0.0037388119380921125,0.008249940350651741,-0.013735786080360413
1690839233890382600,3.017382568359375,-0.0025395904667675495,0.0026146916206926107,-0.015043663792312145
1690839233900422700,3.027422607421875,-0.004920722916722298,-0.007577492389827967,-0.014858840964734554
1690839233910462700,3.037462646484375,-0.006411027628928423,-0.011230017989873886,-0.01829272136092186
1690839233920503600,3.047503662109375,-0.006101834587752819,-0.0142905218526721,-0.01877741515636444
1690839233930543600,3.057543701171875,-0.004415520932525396,-0.013275858014822006,-0.01902216114103794
1690839233940583400,3.06758349609375,-0.006156695540994406,-0.008840363472700119,-0.02105868048965931
1690839233950624500,3.07762451171875,-0.004739361349493265,-0.004821386653929949,-0.02377190813422203
1690839233960694500,3.087694580078125,-0.004116448108106852,0.003168629016727209,-0.024519458413124084
1690839233970735600,3.097735595703125,-0.002344646956771612,0.008824650198221207,-0.02345872111618519
1690839233980775700,3.107775634765625,-0.004471980035305023,0.007995874620974064,-0.024950623512268066
1690839233990815700,3.117815673828125,-0.0034493261482566595,0.004682902246713638,-0.025302426889538765
1690839234000855800,3.127855712890625,-0.004608866758644581,0.0015249260468408465,-0.026215093210339546
1690839234010896600,3.137896728515625,-0.003722033929079771,-0.0029385320376604795,-0.023625435307621956
1690839234020936400,3.1479365234375,-0.005884254351258278,-0.007759119849652052,-0.021526597440242767
1690839234030976500,3.1579765625,-0.00595456175506115,-0.006184658966958523,-0.021811556071043015
1690839234041017600,3.168017578125,-0.005517803598195314,-0.010212689638137817,-0.020235231146216393
1690839234051057700,3.1780576171875,-0.006746053230017424,-0.007183078210800886,-0.018204836174845695
1690839234061097700,3.18809765625,-0.005381449591368437,-0.0049401638098061085,-0.01842401549220085
1690839234071137800,3.1981376953125,-0.0037350833881646395,0.00098217383492738,-0.016115587204694748
1690839234081178600,3.2081787109375,-0.0041244374588131905,0.004765992984175682,-0.016983777284622192
1690839234091218400,3.218218505859375,-0.0033752904273569584,0.006095442920923233,-0.017557688057422638
1690839234101258500,3.228258544921875,-0.005387574899941683,0.004552674014121294,-0.018672486767172813
1690839234111299600,3.238299560546875,-0.004230697639286518,0.00021172130072955042,-0.017733989283442497
1690839234121369600,3.24836962890625,-0.004461860284209251,-0.002141980454325676,-0.017727065831422806
1690839234131410700,3.25841064453125,-0.005336442030966282,-0.005972937680780888,-0.019596338272094727
1690839234141450800,3.26845068359375,-0.006473878398537636,-0.008101868443191051,-0.017722804099321365
1690839234151490600,3.278490478515625,-0.006244313903152943,-0.006400641519576311,-0.021820876747369766
1690839234161531600,3.28853173828125,-0.004344680812209845,-0.006850981619209051,-0.023745276033878326
1690839234171571500,3.298571533203125,-0.003822701284661889,-0.0038578552193939686,-0.02509550005197525
1690839234181611500,3.308611572265625,-0.003602457931265235,0.0019028285751119256,-0.023454459384083748
1690839234191651600,3.318651611328125,-0.0035742283798754215,0.0031641016248613596,-0.02268587052822113
1690839234201692700,3.328692626953125,-0.003841609926894307,0.002039981307461858,-0.01967729814350605
1690839234211732700,3.338732666015625,-0.004811266902834177,0.0021949773654341698,-0.018821625038981438
1690839234221772500,3.3487724609375,-0.005017661955207586,-0.0011712582781910896,-0.020650150254368782
1690839234231813600,3.358813720703125,-0.006542854011058807,-0.004382497631013393,-0.02004002034664154
1690839234241853400,3.368853515625,-0.005327120888978243,-0.004923918284475803,-0.019819511100649834
1690839234251893500,3.3788935546875,-0.004801679402589798,-0.005579588934779167,-0.023484820500016212
1690839234261933600,3.38893359375,-0.0054999603889882565,-0.004826713353395462,-0.024634506553411484
1690839234271974700,3.398974609375,-0.003328684950247407,-0.0027316042687743902,-0.02526407688856125
1690839234282044700,3.409044677734375,-0.004062119405716658,-0.0015699334908276796,-0.021142037585377693
1690839234292085800,3.419085693359375,-0.0049494849517941475,-0.0024029703345149755,-0.018262892961502075
1690839234302125600,3.42912548828125,-0.004203266929835081,-0.0023366576060652733,-0.013089437037706375
1690839234312165400,3.439165283203125,-0.006414756178855896,-0.0026735474821180105,-0.008875783532857895
1690839234322206500,3.44920654296875,-0.006918360013514757,-0.0019014970166608691,-0.006281331647187471
1690839234332246500,3.45924658203125,-0.003998203668743372,0.00005406216951087117,-0.012220446951687336
1690839234342269700,3.469269775390625,-0.00384453940205276,-0.00293400464579463,-0.017734788358211517
1690839234352309500,3.4793095703125,-0.005095692351460457,-0.0019864519126713276,-0.02550322934985161
1690839234362350300,3.489350341796875,-0.0054818508215248585,-0.001469798618927598,-0.03286953270435333
1690839234372390400,3.499390380859375,-0.002579271560534835,0.0010775149567052722,-0.036555614322423935
1690839234382430500,3.509430419921875,-0.006673615425825119,-0.0033920682035386562,-0.0374821275472641
1690839234392471600,3.519471435546875,-0.005524727515876293,-0.006082660052925348,-0.03238537162542343
1690839234402511600,3.52951171875,-0.006414489820599556,-0.004502606578171253,-0.02869742549955845
1690839234412551700,3.5395517578125,-0.005411543417721987,-0.00544323492795229,-0.018985142931342125
1690839234422591700,3.549591796875,-0.004363323096185923,-0.0011582087026908994,-0.012880911119282246
1690839234432662500,3.55966259765625,-0.0057479003444314,-0.00015233281010296196,-0.009833189658820629
1690839234442702600,3.56970263671875,-0.003891144646331668,0.002039981307461858,-0.008294681087136269
1690839234452743400,3.579743408203125,-0.0038400120101869106,0.00010066748654935509,-0.012139753438532352
1690839234462783500,3.589783447265625,-0.005604622419923544,-0.000746750389225781,-0.01375256385654211
1690839234472823600,3.599823486328125,-0.004624845460057259,-0.002226402750238776,-0.018558770418167114
1690839234482864600,3.60986474609375,-0.004160656593739986,-0.003882356220856309,-0.020915668457746506
1690839234492904700,3.61990478515625,-0.004954278469085693,-0.0032562471460551023,-0.023184947669506073
1690839234502944500,3.629944580078125,-0.0036791570018976927,-0.005299424286931753,-0.02190609835088253
1690839234512984600,3.639984619140625,-0.004525243304669857,-0.0036751623265445232,-0.021563615649938583
1690839234523025400,3.650025390625,-0.006322610657662153,-0.003572896821424365,-0.01931670680642128
1690839234533065500,3.6600654296875,-0.005270928610116243,-0.0008375641773454845,-0.016049806028604507
1690839234543105500,3.67010546875,-0.00410419749096036,-0.00119575927965343,-0.01679176278412342
1690839234553146600,3.680146728515625,-0.004027498420327902,0.0006173207075335085,-0.01955559104681015
1690839234563186700,3.690186767578125,-0.004223507363349199,0.0009395632077939808,-0.021950040012598038
1690839234573226500,3.7002265625,-0.004988899454474449,-0.002183525823056698,-0.024029169231653214
1690839234583266600,3.7102666015625,-0.0037055222783237696,-0.005246161017566919,-0.026374349370598793
1690839234593337600,3.720337646484375,-0.004441886208951473,-0.00355798308737576,-0.027783960103988647
1690839234603378400,3.73037841796875,-0.004826180636882782,-0.003468767274171114,-0.026520824059844017
1690839234613418500,3.74041845703125,-0.0054450989700853825,0.001276186783798039,-0.025068601593375206
1690839234623458600,3.75045849609375,-0.0037984666414558887,-0.0020362529903650284,-0.02149011194705963
1690839234633498600,3.76049853515625,-0.005251220893114805,-0.001258343574590981,-0.018429607152938843
1690839234643539700,3.770539794921875,-0.00552312983199954,-0.0006348976166918874,-0.01571664586663246
1690839234653579500,3.78057958984375,-0.0028091021813452244,-0.002416019793599844,-0.015079350210726261
1690839234663619600,3.79061962890625,-0.004638161510229111,-0.0015691345324739814,-0.015867646783590317
1690839234673660400,3.800660400390625,-0.004279699642211199,-0.0015712650492787361,-0.0178730059415102
1690839234683700500,3.810700439453125,-0.002870887517929077,-0.003058906877413392,-0.01884186454117298
1690839234693740500,3.820740478515625,-0.003973170183598995,-0.0028961875941604376,-0.019476229324936867
1690839234703780600,3.830780517578125,-0.004073038697242737,-0.0018285263795405626,-0.025129321962594986
1690839234713821700,3.84082177734375,-0.004555070772767067,-0.003371029393747449,-0.021079985424876213
1690839234723861500,3.850861572265625,-0.005292499903589487,-0.0018844527658075094,-0.019221898168325424
1690839234733901600,3.860901611328125,-0.005389971658587456,-0.001418665866367519,-0.019632823765277863
1690839234743942400,3.8709423828125,-0.004114051349461079,-0.0016197345685213804,-0.01787993125617504
1690839234754012700,3.8810126953125,-0.004960137419402599,-0.0005097290268167853,-0.019603794440627098
1690839234764053500,3.891053466796875,-0.0036826191935688257,0.0006378270918503404,-0.01884213089942932
1690839234774093600,3.901093505859375,-0.006184925325214863,-0.005854426883161068,-0.021350562572479248
1690839234784133600,3.911133544921875,-0.0051960935816168785,-0.005851763766258955,-0.023815050721168518
1690839234794173400,3.92117333984375,-0.004010187927633524,-0.0034820830915123224,-0.02474050037562847
1690839234804214500,3.931214599609375,-0.004085821565240622,-0.004179831128567457,-0.023995613679289818
1690839234814254600,3.941254638671875,-0.0038535939529538155,-0.0033931334037333727,-0.023272832855582237
1690839234824294700,3.951294677734375,-0.004327103961259127,0.0011057445080950856,-0.023796675726771355
1690839234834335500,3.96133544921875,-0.0030479878187179565,-0.000431432097684592,-0.02057398483157158
1690839234844375600,3.97137548828125,-0.004071440547704697,0.0010431602131575346,-0.01804930716753006
1690839234854415600,3.98141552734375,-0.004047472029924393,0.002394714392721653,-0.014949122443795204
1690839234864455400,3.991455322265625,-0.004145210143178701,-0.0008000136003829539,-0.017582455649971962
1690839234874496500,4.00149658203125,-0.004524177871644497,-0.002264752285555005,-0.01762879453599453
1690839234884536600,4.01153662109375,-0.006058957893401384,-0.004060255363583565,-0.019477294757962227
1690839234894576600,4.02157666015625,-0.0056829191744327545,-0.004701011814177036,-0.019767578691244125
1690839234904647700,4.031647705078125,-0.005087436642497778,-0.005648830905556679,-0.021645374596118927
1690839234914687700,4.041687744140625,-0.005650694947689772,-0.004186222795397043,-0.023193202912807465
1690839234924728600,4.051728515625,-0.003963049966841936,-0.0013542174128815532,-0.02231649123132229
1690839234934768600,4.0617685546875,-0.004354001954197884,-0.0011728560784831643,-0.020318055525422096
1690839234944808400,4.071808349609375,-0.005765743553638458,-0.0007890945998951793,-0.018921492621302605
1690839234954848500,4.0818486328125,-0.003906324505805969,-0.0004572647449094802,-0.018040252849459648
1690839234964889600,4.0918896484375,-0.004005926661193371,0.001985120354220271,-0.017001086845993996
1690839234974929700,4.1019296875,-0.006066414527595043,0.0019057580502703786,-0.016114521771669388
1690839234984969700,4.1119697265625,-0.005238703917711973,-0.0014567491598427296,-0.016339026391506195
1690839234995010600,4.122010498046875,-0.005276521202176809,-0.003352387109771371,-0.020891966298222542
1690839235005050600,4.132050537109375,-0.00657587731257081,-0.007177751511335373,-0.021470671519637108
1690839235015090400,4.14209033203125,-0.005922071170061827,-0.0020634171087294817,-0.02274525910615921
1690839235025130500,4.152130615234375,-0.004381699021905661,-0.0044043357484042645,-0.022644592449069023
1690839235035171600,4.162171630859375,-0.003907123580574989,-0.0012072109384462237,-0.02123657986521721
1690839235045211600,4.172211669921875,-0.005544701125472784,-0.0009092031978070736,-0.021019531413912773
1690839235055251700,4.182251708984375,-0.004829110112041235,0.0007643272401764989,-0.02034814842045307
1690839235065322800,4.19232275390625,-0.005676261615008116,0.0021318604703992605,-0.019230153411626816
1690839235075362600,4.202362548828125,-0.005408081226050854,-0.0013235911028459668,-0.017559818923473358
1690839235085403600,4.212403564453125,-0.005422728601843119,-0.0021291973534971476,-0.018788602203130722
1690839235095443500,4.222443359375,-0.005638178437948227,-0.002118811011314392,-0.020777184516191483
1690839235105483500,4.2324833984375,-0.006271744146943092,-0.004652808886021376,-0.021815549582242966
1690839235115524600,4.242524658203125,-0.008710933849215508,-0.0046693203039467335,-0.022827284410595894
1690839235125564700,4.252564697265625,-0.006506368983536959,-0.0031108383554965258,-0.020744159817695618
1690839235135604700,4.262604736328125,-0.004144144710153341,-0.001984587637707591,-0.022048044949769974
1690839235145644500,4.27264453125,-0.00461579067632556,-0.0012905678013339639,-0.02243899554014206
1690839235155685600,4.282685546875,-0.004563592839986086,0.0020013656467199326,-0.022338328883051872
1690839235165725400,4.292725341796875,-0.003686081152409315,0.003736148588359356,-0.019471170380711555
1690839235175765500,4.302765625,-0.004165450111031532,0.0009571401169523597,-0.018736137077212334
1690839235185806600,4.312806640625,-0.005115399602800608,-0.0010458233300596476,-0.019119098782539368
1690839235195846700,4.3228466796875,-0.005258411634713411,-0.002487658755853772,-0.019244534894824028
1690839235205886700,4.33288671875,-0.00529463030397892,-0.004033357370644808,-0.019903667271137238
1690839235215926500,4.342926513671875,-0.005154281854629517,-0.004169711377471685,-0.01998196355998516
1690839235225997600,4.35299755859375,-0.005308745428919792,-0.005597964394837618,-0.022518359124660492
1690839235236037400,4.363037353515625,-0.004876514431089163,-0.004090615548193455,-0.02159211039543152
1690839235246078500,4.373078369140625,-0.00529569573700428,-0.001207477180287242,-0.021496502682566643
1690839235256118500,4.383118408203125,-0.004536961205303669,0.0014359764754772186,-0.020123377442359924
1690839235266158600,4.39315869140625,-0.0036812876351177692,-0.00011904330312972888,-0.020112724974751472
1690839235276199700,4.40319970703125,-0.005403819959610701,-0.0003067961661145091,-0.016936905682086945
1690839235286239700,4.41323974609375,-0.003668504301458597,0.0002812298189383,-0.016993097960948944
1690839235296279600,4.423279541015625,-0.003914314322173595,-0.001178182428702712,-0.019338544458150864
1690839235306319400,4.4333193359375,-0.0057479003444314,-0.001609081868082285,-0.017675399780273438
1690839235316360400,4.4433603515625,-0.005419000051915646,-0.0033750240691006184,-0.02026985213160515
1690839235326400500,4.453400390625,-0.006746852304786444,-0.003245860803872347,-0.021706894040107727
1690839235336442000,4.463442138671875,-0.004698615055531263,-0.003691940102726221,-0.02160622552037239
1690839235346483200,4.473483154296875,-0.005094626918435097,-0.0007760451408103108,-0.02111087739467621
1690839235356523300,4.483523193359375,-0.004126834217458963,-0.0021992383990436792,-0.024402812123298645
1690839235366563300,4.493563232421875,-0.003966778516769409,-0.0010745854815468192,-0.02143072336912155
1690839235376603400,4.503603271484375,-0.005507683381438255,-0.001136370818130672,-0.02124909497797489
1690839235386674400,4.51367431640625,-0.0027949875220656395,-0.00017070861940737814,-0.020606208592653275
1690839235396715500,4.523715576171875,-0.004973187111318111,0.002282062778249383,-0.018625615164637566
1690839235406755300,4.53375537109375,-0.003936418332159519,-0.0010277138790115714,-0.01907009817659855
1690839235416795100,4.543795166015625,-0.00606428412720561,-0.0019289276096969843,-0.021942850202322006
1690839235426835200,4.553835205078125,-0.004020041786134243,-0.003920705523341894,-0.018856246024370193
1690839235436876300,4.563876220703125,-0.004883971065282822,-0.004792890977114439,-0.021574534475803375
1690839235446916400,4.573916259765625,-0.0034045851789414883,-0.0034437335561960936,-0.022234732285141945
1690839235456956400,4.583956298828125,-0.005077849142253399,-0.0009741843095980585,-0.021588915959000587
1690839235466996500,4.59399658203125,-0.0049532135017216206,-0.0016623451374471188,-0.020552679896354675
1690839235477037300,4.604037353515625,-0.0043990095146000385,-0.0025036376900970936,-0.021015269681811333
1690839235487077000,4.6140771484375,-0.0018937737913802266,-0.0009898969437927008,-0.02033882774412632
1690839235497117200,4.6241171875,-0.002698048483580351,0.00021172130072955042,-0.018034394830465317
1690839235507158300,4.634158203125,-0.00458836043253541,-0.0007299724384211004,-0.018143583089113235
1690839235517198300,4.6441982421875,-0.0067452541552484035,0.0008522115531377494,-0.018870094791054726
1690839235527238400,4.65423828125,-0.003096990054473281,-0.0021174794528633356,-0.019527895376086235
1690839235537309400,4.664309326171875,-0.003004844533279538,-0.002367816399782896,-0.02171488292515278
1690839235547349200,4.674349365234375,-0.004744155332446098,-0.0034061830956488848,-0.021640846505761147
1690839235557390300,4.684390380859375,-0.005245095584541559,-0.002751844236627221,-0.020432304590940475
1690839235567430100,4.69443017578125,-0.004748149774968624,-0.0018996327416971326,-0.01984853856265545
1690839235577470200,4.70447021484375,-0.005514075048267841,0.0010460896883159876,-0.01936996914446354
1690839235587510300,4.71451025390625,-0.0034852789249271154,0.00003302319601061754,-0.019027220085263252
1690839235597551400,4.72455126953125,-0.0043683829717338085,-0.0014413028256967664,-0.01985519751906395
1690839235607591400,4.73459130859375,-0.003951332066208124,-0.00017230652156285942,-0.020005133002996445
1690839235617631500,4.744631591796875,-0.00509915454313159,0.00010253170330543071,-0.019059976562857628
1690839235627672300,4.75467236328125,-0.002927080262452364,-0.0019201391842216253,-0.019885556772351265
1690839235637712100,4.764712158203125,-0.005736981518566608,-0.0022295983508229256,-0.021200627088546753
1690839235647752200,4.774752197265625,-0.004778509959578514,0.03791755437850952,-0.03310229256749153
1690839235657792300,4.784792236328125,0.04802824556827545,-0.45221832394599915,0.11783182621002197
1690839235667833300,4.794833251953125,-0.0008663262706249952,-0.12293977290391922,0.021096495911478996
1690839235677873400,4.804873291015625,-0.00088949577184394,-0.01607404090464115,-0.0116135124117136
1690839235687913500,4.81491357421875,-0.016205601394176483,0.006572415120899677,-0.01679389365017414
1690839235697984300,4.824984375,-0.03193476423621178,0.06384608894586563,-0.016740897670388222
1690839235708024300,4.8350244140625,-0.029209816828370094,-0.0607304573059082,-0.03147963061928749
1690839235718065200,4.845065185546875,-0.019112441688776016,-0.017912155017256737,-0.06254593282938004
1690839235728105200,4.855105224609375,-0.007551925722509623,-0.01895584724843502,-0.07277727127075195
1690839235738145300,4.865145263671875,0.006207828409969807,0.004797152243554592,-0.07856485247612
1690839235748185300,4.875185302734375,0.016826650127768517,0.017374463379383087,-0.07300576567649841
1690839235758226400,4.885226318359375,0.01786395162343979,0.028009263798594475,-0.06602881848812103
1690839235768266200,4.895266357421875,0.008351407013833523,0.026035329326987267,-0.05806117132306099
1690839235778306300,4.905306396484375,-0.0030858046375215054,0.018551314249634743,-0.046966709196567535
1690839235788347100,4.91534716796875,-0.012349077500402927,0.0004743089957628399,-0.03416329622268677
1690839235798387200,4.92538720703125,-0.018852517008781433,-0.01242151577025652,-0.020897824317216873
1690839235808427300,4.93542724609375,-0.017976870760321617,-0.024280305951833725,-0.008447812870144844
1690839235818467300,4.94546728515625,-0.012271313928067684,-0.02701936662197113,0.001574194524437189
1690839235828508400,4.95550830078125,-0.006759369280189276,-0.019026953727006912,0.009170595556497574
1690839235838548500,4.965548583984375,0.0009214537567459047,-0.010545851662755013,0.01588522270321846
1690839235848588300,4.97558837890625,0.002880475018173456,0.0023699470330029726,0.01974121481180191
1690839235858659300,4.985659423828125,0.002633600030094385,0.011811385862529278,0.021156949922442436
1690839235868699400,4.995699462890625,-0.000368847802747041,0.016232233494520187,0.019698070362210274
1690839235878740200,5.005740234375,-0.006167614832520485,0.016038887202739716,0.019024822860956192
1690839235888780300,5.0157802734375,-0.010118413716554642,0.007920773699879646,0.013390906155109406
1690839235898820400,5.0258203125,-0.009781790897250175,-0.00267727579921484,0.009868609718978405
1690839235908861400,5.035861328125,-0.008714661933481693,-0.010508833453059196,0.0010998855577781796
1690839235918901200,5.0459013671875,-0.005959355738013983,-0.014512363821268082,-0.006160157732665539
1690839235928941300,5.05594140625,-0.003567836945876479,-0.01649322360754013,-0.016816264018416405
1690839235938981400,5.0659814453125,-0.0021254688035696745,-0.011715245433151722,-0.026273682713508606
1690839235949022200,5.076022216796875,-0.0010902981739491224,-0.0016652746126055717,-0.03326581045985222
1690839235959062300,5.086062255859375,-0.002517752582207322,0.003451456781476736,-0.041729871183633804
1690839235969102300,5.096102294921875,-0.005915679503232241,0.009726130403578281,-0.04814835265278816
1690839235979142400,5.106142333984375,-0.00595509447157383,0.007559915538877249,-0.05155294016003609
1690839235989183500,5.11618359375,-0.007127418182790279,0.006527940277010202,-0.050158243626356125
1690839235999223300,5.126223388671875,-0.0062762717716395855,-0.0003757720405701548,-0.05062536150217056
1690839236009294300,5.13629443359375,-0.00512871565297246,-0.008580971509218216,-0.05052735656499863
1690839236019334400,5.14633447265625,-0.00440966198220849,-0.010905644856393337,-0.04602421820163727
1690839236029374500,5.15637451171875,-0.005398493725806475,-0.011721104383468628,-0.04175649955868721
1690839236039415300,5.166415283203125,-0.0038900794461369514,-0.007268831599503756,-0.034875158220529556
1690839236049455400,5.176455322265625,-0.004741758108139038,-0.004596616141498089,-0.03209375590085983
1690839236059495200,5.1864951171875,-0.005742041394114494,-0.0013273194199427962,-0.02460521087050438
1690839236069536300,5.196536376953125,-0.006281331647187471,0.0006157228490337729,-0.020561734214425087
1690839236079576300,5.206576416015625,-0.00421205535531044,0.005023254547268152,-0.014226073399186134
1690839236089616400,5.216616455078125,-0.0034437335561960936,0.00376064982265234,-0.008025968447327614
1690839236099656400,5.226656494140625,-0.00424135010689497,0.0013795174891129136,-0.002058357233181596
1690839236109697300,5.236697265625,-0.0034581145737320185,-0.0007344998302869499,0.0017214673571288586
1690839236119737300,5.2467373046875,-0.003847202518954873,-0.004449609667062759,0.004061587154865265
1690839236129777400,5.25677734375,-0.0038450718857347965,-0.0063037024810910225,0.003953995183110237
1690839236139818500,5.266818603515625,-0.005844307132065296,-0.003569700988009572,0.0016386429779231548
1690839236149858300,5.2768583984375,-0.004494883120059967,-0.0019036275334656239,-0.0007278419216163456
1690839236159898400,5.2868984375,-0.004984105937182903,-0.0004644552827812731,-0.004441886208951473
1690839236169969400,5.296969482421875,-0.005592371802777052,-0.00035606464371085167,-0.00999244675040245
1690839236180009500,5.307009521484375,-0.004024568945169449,0.0005840312223881483,-0.012493154965341091
1690839236190049500,5.317049560546875,-0.002653307281434536,-0.001142496126703918,-0.017545171082019806
1690839236200090400,5.32709033203125,-0.0035172367934137583,-0.0014583469601348042,-0.019328957423567772
1690839236210130200,5.337130126953125,-0.0029675604309886694,-0.003706587478518486,-0.023548202589154243
1690839236220170200,5.347170166015625,-0.004405933897942305,-0.0019765980541706085,-0.028142422437667847
1690839236230211300,5.35721142578125,-0.005226986017078161,-0.00439048744738102,-0.031829833984375
1690839236240251400,5.36725146484375,-0.0054794540628790855,-0.002859169617295265,-0.032166190445423126
1690839236250291500,5.37729150390625,-0.006447779480367899,-0.0009779128013178706,-0.0377361923456192
1690839236260331500,5.38733154296875,-0.005103681702166796,-0.00123783724848181,-0.03831356763839722
1690839236270372400,5.397372314453125,-0.002868490759283304,0.0000125168571685208,-0.03804298862814903
1690839236280412400,5.407412353515625,-0.004534031730145216,-0.002445048186928034,-0.03699477016925812
1690839236290452200,5.4174521484375,-0.004032026045024395,-0.0013318468118086457,-0.033239178359508514
1690839236300493300,5.427493408203125,-0.00439048744738102,-0.003082076320424676,-0.029742449522018433
1690839236310533400,5.437533447265625,-0.004773183725774288,-0.005818740464746952,-0.026802053675055504
1690839236320573400,5.447573486328125,-0.004881840664893389,-0.003410177771002054,-0.022290658205747604
1690839236330644500,5.45764453125,-0.005928462836891413,-0.0011406318517401814,-0.01877022534608841
1690839236340667100,5.467667236328125,-0.006243781186640263,-0.000990962260402739,-0.017005614936351776
1690839236350708200,5.477708251953125,-0.005063468124717474,-0.0022895196452736855,-0.014394652098417282
1690839236360748300,5.487748291015625,-0.006711698602885008,-0.002570483135059476,-0.0128145981580019
1690839236370788000,5.4977880859375,-0.0052046156488358974,0.000005326322025211994,-0.010361294262111187
1690839236380828200,5.507828125,-0.004148405976593494,-0.00040000680019147694,-0.011778095737099648
1690839236390869200,5.517869140625,-0.0026256104465574026,-0.000618918624240905,-0.011038536205887794
1690839236400909300,5.527909423828125,-0.005620335228741169,0.001722532557323575,-0.006686132401227951
1690839236410949000,5.53794921875,-0.004867193289101124,-0.0011342403013259172,-0.008125570602715015
1690839236420989200,5.5479892578125,-0.005889580585062504,-0.002103364560753107,-0.011746138334274292
1690839236431030300,5.5580302734375,-0.004822984803467989,-0.0009685916593298316,-0.014182131737470627
1690839236441070000,5.568070068359375,-0.005066131241619587,0.0010823087068274617,-0.014192517846822739
1690839236451110100,5.578110107421875,-0.004339354578405619,-0.002290052128955722,-0.0190232265740633
1690839236461151200,5.588151123046875,-0.0030309436842799187,-0.002573412610217929,-0.0203942209482193
1690839236471191000,5.59819091796875,-0.004254666157066822,-0.002629871480166912,-0.024415593594312668
1690839236481231000,5.608231201171875,-0.0022540995851159096,-0.00187992537394166,-0.024115456268191338
1690839236491302100,5.61830224609375,-0.0037758296821266413,-0.002653307281434536,-0.028052406385540962
1690839236501342200,5.62834228515625,-0.005662679206579924,-0.0013590110465884209,-0.02781059220433235
1690839236511383300,5.63838330078125,-0.005730856209993362,-0.00404507527127862,-0.027578897774219513
1690839236521423000,5.648423095703125,-0.005694371182471514,-0.001948368619196117,-0.026437733322381973
1690839236531463200,5.658463134765625,-0.003953728824853897,-0.0025188177824020386,-0.025738919153809547
1690839236541503200,5.668503173828125,-0.004358795937150717,-0.001204547705128789,-0.02882632240653038
1690839236551544000,5.6785439453125,-0.004433364141732454,0.00003222424857085571,-0.026646791025996208
1690839236561584000,5.688584228515625,-0.005570267792791128,-0.0015534218400716782,-0.026811107993125916
1690839236571624200,5.698624267578125,-0.004840028937906027,-0.001722532557323575,-0.026818031445145607
1690839236581665300,5.708665283203125,-0.004055994097143412,-0.0026759442407637835,-0.0237593911588192
1690839236591705000,5.718705078125,-0.003591272747144103,-0.0031558459158986807,-0.022885873913764954
1690839236601745200,5.7287451171875,-0.0055002267472445965,-0.005270395893603563,-0.01883707009255886
1690839236611785200,5.73878515625,-0.005964681971818209,-0.0005392901366576552,-0.01600692979991436
1690839236621826000,5.748825927734375,-0.004985969979315996,-0.0025920546613633633,-0.01446735579520464
1690839236631866000,5.7588662109375,-0.004532434046268463,-0.0014096111990511417,-0.014127003960311413
1690839236641937200,5.768937255859375,-0.004633633885532618,-0.0018402442801743746,-0.013854829594492912
1690839236651977200,5.778977294921875,-0.005630987696349621,0.0010804444318637252,-0.013132579624652863
1690839236662017000,5.78901708984375,-0.003891411004588008,-0.0009182579233311117,-0.013879329897463322
1690839236672058000,5.79905810546875,-0.005717806983739138,-0.0012242551892995834,-0.014610900543630123
1690839236682098200,5.80909814453125,-0.0046386937610805035,-0.0010359697043895721,-0.015663115307688713
1690839236692138200,5.81913818359375,-0.006656038574874401,-0.00285011506639421,-0.01830364018678665
1690839236702178300,5.82917822265625,-0.004700745455920696,-0.0033390712924301624,-0.0181712806224823
1690839236712219100,5.83921923828125,-0.004090881906449795,-0.004603540059179068,-0.020111393183469772
1690839236722259200,5.84925927734375,-0.005172391422092915,-0.002234125742688775,-0.020442690700292587
1690839236732299000,5.859299072265625,-0.0031816784758120775,-0.0025987126864492893,-0.02317829057574272
1690839236742340000,5.869340087890625,-0.0027201527263969183,-0.0028573055751621723,-0.022485867142677307
1690839236752380200,5.879380126953125,-0.0032288164366036654,-0.0012189288390800357,-0.023153522983193398
1690839236762420200,5.889420166015625,-0.005087969359010458,-0.0021196098532527685,-0.02468057908117771
1690839236772460300,5.899460205078125,-0.003852262394502759,-0.0006993460701778531,-0.02641429752111435
1690839236782501000,5.909501220703125,-0.00666482700034976,-0.002299639629200101,-0.026511235162615776
1690839236792541200,5.919541259765625,-0.005496498197317123,-0.0023438481148332357,-0.02496819943189621
1690839236802612200,5.9296123046875,-0.003695402294397354,-0.004583033733069897,-0.024875255301594734
1690839236812652000,5.939652099609375,-0.004596349783241749,-0.0025840650778263807,-0.023002255707979202
1690839236822692000,5.949692138671875,-0.004748149774968624,-0.0010671286145225167,-0.02172553539276123
1690839236832733200,5.959733154296875,-0.004767591133713722,-0.0007829693495295942,-0.02153804898262024
1690839236842773200,5.969773193359375,-0.004327636677771807,-0.003019491909071803,-0.017837319523096085
1690839236852813300,5.979813232421875,-0.005209409166127443,-0.0012426309986039996,-0.021282652392983437
1690839236862854100,5.989854248046875,-0.0031433289404958487,-0.001335575245320797,-0.019519638270139694
1690839236872894200,5.999894287109375,-0.004786232952028513,-0.0014018879737704992,-0.018675683066248894
1690839236882934000,6.00993408203125,-0.0057106162421405315,-0.00045566685730591416,-0.018996860831975937
1690839236892974000,6.01997412109375,-0.004791825544089079,-0.003367300843819976,-0.017474330961704254
1690839236903015200,6.03001513671875,-0.004730040207505226,0.0008317052270285785,-0.013835388235747814
1690839236913055200,6.04005517578125,-0.004284493625164032,-0.003858654061332345,-0.0169728584587574
1690839236923095300,6.05009521484375,-0.005282113794237375,-0.004451740067452192,-0.016637831926345825
1690839236933135400,6.06013525390625,-0.0037923413328826427,-0.0034525219816714525,-0.01624075509607792
1690839236943176200,6.07017626953125,-0.004816060420125723,-0.0014498248929157853,-0.016318252310156822
1690839236953216000,6.080216064453125,-0.003486344125121832,0.001252484624274075,-0.01865757443010807
1690839236963287000,6.090287109375,-0.004210457671433687,0.0014282532501965761,-0.018809907138347626
1690839236973327000,6.1003271484375,-0.0049614692106842995,0.0006162554491311312,-0.020987574011087418
1690839236983367200,6.1103671875,-0.0040735709480941296,-0.0013510215794667602,-0.020330306142568588
1690839236993408300,6.120408203125,-0.006499710958451033,-0.001663410454057157,-0.021759890019893646
1690839237003448300,6.1304482421875,-0.005507949739694595,-0.0019624833948910236,-0.023898674175143242
1690839237013488400,6.14048828125,-0.006482400465756655,-0.004780640359967947,-0.022828083485364914
1690839237023529200,6.150529296875,-0.006391586735844612,-0.004501008428633213,-0.022176941856741905
1690839237033569000,6.160569091796875,-0.003180879633873701,-0.0046512107364833355,-0.020140156149864197
1690839237043609000,6.170609130859375,-0.0054666707292199135,-0.0044168527238070965,-0.02178492397069931
1690839237053649200,6.180649169921875,-0.00515774404630065,-0.00040559942135587335,-0.02316763624548912
1690839237063690200,6.190690185546875,-0.003820304526016116,-0.00009853696246864274,-0.023569241166114807
1690839237073730300,6.200730224609375,-0.0026913906913250685,0.0014439659425988793,-0.020860539749264717
1690839237083770400,6.210770263671875,-0.005594502668827772,0.0022176143247634172,-0.02154151163995266
1690839237093811200,6.220811279296875,-0.003097256412729621,-0.002153698354959488,-0.021024325862526894
1690839237103851000,6.23085107421875,-0.004268514458090067,-0.0025632926262915134,-0.02095135487616062
1690839237113891000,6.24089111328125,-0.004422445315867662,-0.0022650184109807014,-0.019431222230196
1690839237123962000,6.250962158203125,-0.0051771849393844604,-0.004393683280795813,-0.020789435133337975
1690839237134002200,6.261002197265625,-0.005679457448422909,-0.003242132253944874,-0.020017649978399277
1690839237144042200,6.271042236328125,-0.0028069717809557915,-0.0049737198278307915,-0.02063683420419693
1690839237154083300,6.281083251953125,-0.004781173076480627,-0.006374542135745287,-0.021385982632637024
1690839237164123400,6.291123291015625,-0.00481339730322361,0.0014479606179520488,-0.019408052787184715
1690839237174163200,6.3011630859375,-0.00469621829688549,-0.00028628981090150774,-0.01846183091402054
1690839237184204000,6.3112041015625,-0.006298908498138189,0.0016847157385200262,-0.020371584221720695
1690839237194244000,6.321244140625,-0.005396896041929722,0.0019859191961586475,-0.01913934014737606
1690839237204284200,6.3312841796875,-0.003014432033523917,-0.0006578007596544921,-0.0193108469247818
1690839237214324200,6.34132421875,-0.0044317664578557014,-0.0012799152173101902,-0.018632007762789726
1690839237224365300,6.351365234375,-0.005781190004199743,-0.0036972665693610907,-0.01956544630229473
1690839237234405400,6.3614052734375,-0.005619003437459469,-0.0046301716938614845,-0.018762502819299698
1690839237244445200,6.371445068359375,-0.0041542649269104,-0.004863997455686331,-0.01906690187752247
1690839237254486000,6.381486083984375,-0.005231247283518314,-0.003907389938831329,-0.019815515726804733
1690839237264526000,6.391526123046875,-0.006223274860531092,-0.002846386516466737,-0.02081952802836895
1690839237274597000,6.40159716796875,-0.0036647759843617678,0.002472478663548827,-0.01968448795378208
1690839237284637200,6.41163720703125,-0.003519633784890175,0.00004261057620169595,-0.021413147449493408
1690839237294677200,6.42167724609375,-0.004049336537718773,0.0024056334514170885,-0.022410500794649124
1690839237304718300,6.43171826171875,-0.003375822911038995,0.00170788518153131,-0.023266440257430077
1690839237314758400,6.44175830078125,-0.004251203965395689,-0.0006865629111416638,-0.022650716826319695
1690839237324798200,6.451798095703125,-0.004748948849737644,-0.0046879625879228115,-0.022273879498243332
1690839237334838300,6.46183837890625,-0.005312739871442318,-0.0000029294772048160667,-0.021105285733938217
1690839237344873200,6.471873291015625,-0.004328169394284487,-0.0035691685043275356,-0.019403791055083275
1690839237354913300,6.481913330078125,-0.004858138505369425,-0.005855492316186428,-0.020540961995720863
1690839237364953300,6.491953369140625,-0.005687446799129248,-0.004840295296162367,-0.02171754650771618
1690839237374994200,6.501994140625,-0.00404614070430398,-0.0019539613276720047,-0.020708739757537842
1690839237385034000,6.512033935546875,-0.004897287115454674,0.0018511632224544883,-0.020066652446985245
1690839237395074000,6.522073974609375,-0.00390339526347816,-0.0016881778137758374,-0.021131649613380432
1690839237405114000,6.532114013671875,-0.005694637540727854,-0.0007933556917123497,-0.01936677284538746
1690839237415155200,6.5421552734375,-0.003261040663346648,-0.0006311691831797361,-0.019960658624768257
1690839237425195300,6.5521953125,-0.0057345847599208355,-0.002046639332547784,-0.019889818504452705
1690839237435266300,6.562266357421875,-0.005935120861977339,-0.0023284016642719507,-0.019093267619609833
1690839237445306400,6.572306396484375,-0.005253884010016918,-0.0009707222343422472,-0.02016332559287548
1690839237455346200,6.58234619140625,-0.005120459944009781,-0.0026019082870334387,-0.019347865134477615
1690839237465387000,6.592386962890625,-0.004554804414510727,-0.0009259810904040933,-0.019332418218255043
1690839237475427000,6.602427001953125,-0.003783819265663624,-0.0031997880432754755,-0.01798699051141739
1690839237485467100,6.612467041015625,-0.005041896365582943,-0.0019710054621100426,-0.018871691077947617
1690839237495507200,6.622507080078125,-0.0026373283471912146,-0.0012274509062990546,-0.020899156108498573
1690839237505548300,6.63254833984375,-0.0037505298387259245,-0.002424009144306183,-0.020261062309145927
1690839237515588400,6.64258837890625,-0.0038932752795517445,-0.002424808219075203,-0.02051699347794056
1690839237525628200,6.652628173828125,-0.006706904619932175,-0.0012402341235429049,-0.020303141325712204
1690839237535669000,6.6626689453125,-0.004364654887467623,-0.0009369000908918679,-0.021264009177684784
1690839237545709000,6.672708984375,-0.004177700728178024,-0.0008093346259556711,-0.019726833328604698
1690839237555749000,6.6827490234375,-0.004058124963194132,-0.0017235978739336133,-0.020810473710298538
1690839237565789200,6.6927890625,-0.0039292280562222,-0.001275920425541699,-0.01792467199265957
1690839237575830300,6.702830322265625,-0.0048767803236842155,-0.004596349783241749,-0.021643243730068207
1690839237585870300,6.712870361328125,-0.004911934491246939,-0.0004977448261342943,-0.017357951030135155
1690839237595941400,6.72294140625,-0.005847236607223749,-0.001019990653730929,-0.022249910980463028
1690839237605981200,6.732981201171875,-0.003737214021384716,-0.0022887205705046654,-0.018977951258420944
1690839237616021200,6.743021240234375,-0.004319114610552788,-0.002141980454325676,-0.02268933318555355
1690839237626062000,6.75306201171875,-0.003930559381842613,-0.0030980552546679974,-0.021157482638955116
1690839237636102100,6.76310205078125,-0.006643255241215229,-0.0004546015989035368,-0.020355071872472763
1690839237646142200,6.77314208984375,-0.004176901653409004,-0.0002069276088150218,-0.019027220085263252
1690839237656182300,6.783182373046875,-0.005566006526350975,-0.002176867797970772,-0.018873555585741997
1690839237666223400,6.793223388671875,-0.004013916477560997,-0.000004793690095539205,-0.019543074071407318
1690839237676263200,6.80326318359375,-0.006007825024425983,-0.0004881574132014066,-0.01896277256309986
1690839237686303200,6.81330322265625,-0.0052237906493246555,-0.0006825681775808334,-0.018854647874832153
1690839237696344000,6.823343994140625,-0.004058657679706812,-0.0032945964485406876,-0.019774770364165306
1690839237706384100,6.833384033203125,-0.004299940075725317,-0.0019648801535367966,-0.019300727173686028
1690839237716424200,6.843424072265625,-0.004584099166095257,-0.0026967169251292944,-0.020007796585559845
1690839237726464300,6.85346435546875,-0.0044048684649169445,0.00034674355993047357,-0.020327109843492508
1690839237736505300,6.86350537109375,-0.004042412154376507,-0.00177899154368788,-0.021325262263417244
1690839237746545200,6.873545166015625,-0.005791842471808195,-0.0013630058383569121,-0.020319651812314987
1690839237756616200,6.8836162109375,-0.0052083441987633705,-0.0019776634871959686,-0.021754564717411995
1690839237766656300,6.89365625,-0.005389172583818436,-0.0028064390644431114,-0.019332151859998703
1690839237776696300,6.9036962890625,-0.004024568945169449,-0.0023875238839536905,-0.020963605493307114
1690839237786737200,6.913737060546875,-0.004197407979518175,0.00035206988104619086,-0.0184027086943388
1690839237796777200,6.923777099609375,-0.002888997085392475,-0.004750546533614397,-0.018748121336102486
1690839237806817300,6.9338173828125,-0.005644835997372866,-0.002020540414378047,-0.02009754441678524
1690839237816858400,6.9438583984375,-0.005393167492002249,-0.0018751317402347922,-0.019269302487373352
1690839237826898200,6.953898193359375,-0.0054626758210361,-0.0036940707359462976,-0.02190529927611351
1690839237836938200,6.963938232421875,-0.005529787857085466,-0.003534813644364476,-0.019339609891176224
1690839237846978300,6.973978271484375,-0.0054458980448544025,-0.0027571707032620907,-0.019214173778891563
1690839237857019100,6.98401904296875,-0.005459214095026255,0.00023968449386302382,-0.02100355178117752
1690839237867059200,6.99405908203125,-0.004305799026042223,-0.0017670074012130499,-0.020061591640114784
1690839237877099300,7.004099365234375,-0.004269313532859087,-0.0006982808117754757,-0.02004268392920494
1690839237887140400,7.014140380859375,-0.004636829718947411,-0.0005201153689995408,-0.019653862342238426
1690839237897180200,7.02418017578125,-0.005144162103533745,-0.000740625080652535,-0.020050140097737312
1690839237907251200,7.034251220703125,-0.0034855452831834555,0.000472977408207953,-0.01889006793498993
1690839237917291300,7.044291259765625,-0.0033595776185393333,-0.0021371867042034864,-0.020833376795053482
1690839237927331300,7.054331298828125,-0.004036819562315941,-0.002368349116295576,-0.020727116614580154
1690839237937371100,7.06437109375,-0.003069559345021844,-0.0029577065724879503,-0.020111659541726112
1690839237947412200,7.074412109375,-0.005571066867560148,-0.00219524372369051,-0.021757492795586586
1690839237957452300,7.084452392578125,-0.004580903332680464,-0.0028301412239670753,-0.020059196278452873
1690839237967492000,7.0944921875,-0.005456816870719194,-0.0002849582233466208,-0.020014720037579536
1690839237977533200,7.104533203125,-0.00529542937874794,0.0012580773327499628,-0.020417390391230583
1690839237987573200,7.1145732421875,-0.005124188028275967,-0.00012729909212794155,-0.021079452708363533
1690839237997613300,7.12461328125,-0.004926847759634256,0.00005885586142539978,-0.02178572304546833
1690839238007653000,7.134653076171875,-0.005285043269395828,0.00012836436508223414,-0.019416041672229767
1690839238017694200,7.144694091796875,-0.004993959795683622,-0.003323092358186841,-0.020683441311120987
1690839238027734300,7.154734375,-0.0037859496660530567,-0.005656288005411625,-0.018974490463733673
1690839238037774000,7.164774169921875,-0.004175303969532251,-0.003058374160900712,-0.020911406725645065
1690839238047815200,7.174815185546875,-0.005375057924538851,0.00021252025908324867,-0.019630426540970802
1690839238057855200,7.184855224609375,-0.004875448998063803,-0.0038629150949418545,-0.020311929285526276
1690839238067926300,7.19492626953125,-0.004027498420327902,-0.0016490293201059103,-0.019812321290373802
1690839238077966300,7.20496630859375,-0.005497829522937536,-0.0035183019936084747,-0.01944427192211151
1690839238088006100,7.215006103515625,-0.0038192393258213997,-0.0026525084394961596,-0.01774357631802559
1690839238098046200,7.225046142578125,-0.00427117757499218,-0.002019208623096347,-0.02165709249675274
1690839238108087300,7.23508740234375,-0.004798483569175005,-0.0018335863715037704,-0.02004428207874298
1690839238118127000,7.245127197265625,-0.00452737370505929,-0.0026636936236172915,-0.0200424175709486
1690839238128167200,7.255167236328125,-0.005316202063113451,-0.0001675128296483308,-0.020545488223433495
1690839238138208300,7.265208251953125,-0.005576126743108034,-0.003290335414931178,-0.01967383548617363
1690839238148248300,7.275248291015625,-0.005539108533412218,-0.0001651159836910665,-0.02075747586786747
1690839238158288100,7.2852880859375,-0.003213103860616684,-0.002871153876185417,-0.020128704607486725
1690839238168328200,7.295328125,-0.004773716442286968,-0.0019518306944519281,-0.019175026565790176
1690839238178369300,7.305369384765625,-0.002754773711785674,-0.003067695302888751,-0.021871477365493774
1690839238188409000,7.3154091796875,-0.004097007215023041,-0.0010567422723397613,-0.021694643422961235
1690839238198449200,7.32544921875,-0.0056954361498355865,0.0002822950773406774,-0.01985386572778225
1690839238208490200,7.335490234375,-0.005474127363413572,-0.002624545246362686,-0.020544689148664474
1690839238218530300,7.3455302734375,-0.004792358260601759,-0.0057769292034208775,-0.020179037004709244
1690839238228601300,7.355601318359375,-0.004598213825374842,-0.0016785904299467802,-0.01997157745063305
1690839238238641200,7.36564111328125,-0.005578257143497467,-0.0028072381392121315,-0.021377194672822952
1690839238248681200,7.37568115234375,-0.004846420604735613,0.00002210423735959921,-0.019748404622077942
1690839238258722300,7.385722412109375,-0.004765460267663002,-0.0015414375811815262,-0.020687701180577278
1690839238268762000,7.39576220703125,-0.0046911584213376045,0.00007936220208648592,-0.020313527435064316
1690839238278802200,7.40580224609375,-0.0030181603506207466,-0.0019712718203663826,-0.021082116290926933
1690839238288842200,7.41584228515625,-0.004896221682429314,-0.0019259981345385313,-0.02117106504738331
1690839238298883000,7.425883056640625,-0.0049343048594892025,-0.0004191815387457609,-0.021813685074448586
1690839238308923100,7.435923095703125,-0.005352154839783907,-0.002499909373000264,-0.019526297226548195
1690839238318963200,7.445963134765625,-0.005380117800086737,-0.0007515440811403096,-0.020001139491796494
1690839238329004300,7.45600439453125,-0.005815810989588499,-0.002686330582946539,-0.021614480763673782
1690839238339050000,7.466050048828125,-0.0043505397625267506,-0.0025276062078773975,-0.01859205961227417
1690839238349090000,7.476090087890625,-0.004375040996819735,-0.00213532242923975,-0.019703663885593414
1690839238359129900,7.4861298828125,-0.006565757095813751,-0.0034237599465996027,-0.019160645082592964
1690839238369171000,7.4961708984375,-0.003968109842389822,-0.00042024682625196874,-0.021756960079073906
1690839238379211000,7.5062109375,-0.005001416429877281,-0.0010226538870483637,-0.0196091216057539
1690839238389282000,7.516281982421875,-0.0036759611684828997,-0.0027169568929821253,-0.02112259529531002
1690839238399322000,7.526322021484375,-0.004237888380885124,-0.001525991247035563,-0.02075454592704773
1690839238409362200,7.536362060546875,-0.005518602207303047,-0.0021558289881795645,-0.020541494712233543
1690839238419403000,7.546403076171875,-0.003920173272490501,-0.001353152096271515,-0.020598752424120903
1690839238429442800,7.55644287109375,-0.004275438841432333,-0.0037526602391153574,-0.02101314067840576
1690839238439483000,7.56648291015625,-0.003608316881582141,0.009241967462003231,0.0529676117002964
1690839238449523000,7.57652294921875,0.007898136973381042,0.31414327025413513,0.04126328229904175
1690839238459564000,7.58656396484375,-0.011998339556157589,-0.0685897096991539,0.03448314219713211
1690839238469604000,7.59660400390625,-0.005888515617698431,-0.037703704088926315,0.009547432884573936
1690839238479644200,7.60664404296875,-0.005872536450624466,-0.03741421550512314,-0.025441976264119148
1690839238489685000,7.61668505859375,-0.007564176339656115,-0.0299626924097538,-0.04122200608253479
1690839238499725000,7.62672509765625,-0.0060059609822928905,-0.009190835058689117,-0.040043823421001434
1690839238509764900,7.636764892578125,-0.0038895467296242714,0.011748002842068672,-0.045571211725473404
1690839238519805000,7.646804931640625,-0.0019387812353670597,0.030527016147971153,-0.04279433563351631
1690839238529846000,7.656845947265625,-0.0003206445835530758,0.03347380459308624,-0.04080282151699066
1690839238539886000,7.666885986328125,-0.00037763622822239995,0.027426565065979958,-0.037761759012937546
1690839238549957000,7.67695703125,-0.0010178601369261742,0.01624741218984127,-0.03388020396232605
1690839238559997200,7.6869970703125,-0.0017089504981413484,-0.0035987296141684055,-0.029629530385136604
1690839238570037000,7.697037109375,-0.00711862975731492,-0.017677530646324158,-0.02557060681283474
1690839238580077800,7.707077880859375,-0.007799067068845034,-0.025827335193753242,-0.023266706615686417
1690839238590118000,7.717117919921875,-0.009786051698029041,-0.0308668352663517,-0.019232816994190216
1690839238600158000,7.727157958984375,-0.008267783559858799,-0.022904517129063606,-0.01458906289190054
1690839238610198000,7.737197998046875,-0.006193181034177542,-0.011274226009845734,-0.012105931527912617
1690839238620239000,7.747239013671875,-0.003978230059146881,0.0006101301987655461,-0.009622001089155674
1690839238630279200,7.757279052734375,-0.0016261261189356446,0.011806059628725052,-0.008358597755432129
1690839238640319000,7.767319091796875,-0.0017947042360901833,0.01919792965054512,-0.003062102710828185
1690839238650359800,7.77735986328125,-0.0013853764394298196,0.016872456297278404,-0.004314054735004902
1690839238660399900,7.78739990234375,-0.0032503881957381964,0.010119479149580002,-0.003007774008437991
1690839238670440000,7.79743994140625,-0.003413107246160507,0.0025648903101682663,-0.00586667750030756
1690839238680480000,7.80747998046875,-0.00526746641844511,-0.0017004283145070076,-0.005122590344399214
1690839238690521000,7.81752099609375,-0.006651244591921568,-0.012161591090261936,-0.008674181997776031
1690839238700592000,7.827592041015625,-0.007130613550543785,-0.017043698579072952,-0.011832957156002522
1690839238710632200,7.837632080078125,-0.0057558901607990265,-0.013685185462236404,-0.014021010138094425
1690839238720672000,7.847672119140625,-0.005614209920167923,-0.010759703814983368,-0.018153702840209007
1690839238730712000,7.857712158203125,-0.004692756105214357,-0.003722300287336111,-0.02063976414501667
1690839238740753000,7.8677529296875,-0.0030120352748781443,0.0011355718597769737,-0.022282402962446213
1690839238750793000,7.87779296875,-0.004547880031168461,0.005343632772564888,-0.024527447298169136
1690839238760833000,7.8878330078125,-0.0029923277907073498,0.0070158313028514385,-0.026561303064227104
1690839238770874000,7.8978740234375,-0.004295412451028824,0.005534847732633352,-0.02935788780450821
1690839238780914200,7.9079140625,-0.005515672732144594,0.002867958042770624,-0.029416212812066078
1690839238790954000,7.9179541015625,-0.005270928610116243,-0.0025888588279485703,-0.03214328736066818
1690839238800993800,7.927993896484375,-0.005052815657109022,-0.004186222795397043,-0.03197391331195831
1690839238811035000,7.938034912109375,-0.004082093480974436,-0.0062736086547374725,-0.031329426914453506
1690839238821075000,7.948074951171875,-0.0057380469515919685,-0.006980943959206343,-0.030043119564652443
1690839238831115000,7.958114990234375,-0.005007808096706867,-0.006482400465756655,-0.030008232221007347
1690839238841156000,7.968156005859375,-0.0037886130157858133,-0.004252535756677389,-0.026441194117069244
1690839238851196200,7.978196044921875,-0.005531385540962219,-0.0022884542122483253,-0.02400653250515461
1690839238861267200,7.98826708984375,-0.004630704410374165,0.00036139096482656896,-0.021769477054476738
1690839238871307000,7.99830712890625,-0.0068089039996266365,0.001406947965733707,-0.018971294164657593
1690839238881346800,8.008346923828125,-0.00526560191065073,0.0014327806420624256,-0.017763817682862282
1690839238891387000,8.018386962890625,-0.0037822213489562273,0.0020897823851555586,-0.017131848260760307
1690839238901428000,8.028427978515625,-0.00376064982265234,0.0003203782835043967,-0.015913719311356544
1690839238911468000,8.038468017578126,-0.004372910596430302,-0.0010751180816441774,-0.015304920263588428
1690839238921508000,8.048508056640625,-0.004728176165372133,0.0020120181143283844,-0.011433483101427555
1690839238931549200,8.058549072265626,-0.004357197787612677,-0.002433063928037882,-0.01065237820148468
1690839238941589000,8.068589111328125,-0.003907123580574989,-0.004516987595707178,-0.011918445117771626
1690839238951628800,8.07862890625,-0.005007009021937847,-0.004204865079373121,-0.011688880622386932
1690839238961668900,8.0886689453125,-0.004093278665095568,-0.003215500619262457,-0.012821256183087826
1690839238971710000,8.0987099609375,-0.005035505164414644,-0.0009123989730142057,-0.010932808741927147
1690839238981750000,8.10875,-0.004308728501200676,-0.004007791168987751,-0.01432008296251297
1690839238991790000,8.1187900390625,-0.0048890309408307076,-0.00044794369023293257,-0.016439693048596382
1690839239001831200,8.1288310546875,-0.004221642855554819,0.000251402409048751,-0.01913001947104931
1690839239011871000,8.13887109375,-0.004560929723083973,-0.0010908307740464807,-0.02044881507754326
1690839239021942000,8.14894189453125,-0.0043864925391972065,0.0008370315190404654,-0.022300511598587036
1690839239031981800,8.15898193359375,-0.004372910596430302,-0.0000018642127770363004,-0.02382783405482769
1690839239042022000,8.16902197265625,-0.0062248725444078445,-0.0030740867368876934,-0.02610856667160988
1690839239052062000,8.17906201171875,-0.004357996862381697,0.0010703244479373097,-0.02665291540324688
1690839239062103000,8.18910302734375,-0.004293282050639391,-0.0025217472575604916,-0.02588352933526039
1690839239072143000,8.19914306640625,-0.00390286254696548,-0.0027542412281036377,-0.026444923132658005
1690839239082183000,8.209182861328125,-0.003961984533816576,-0.0014679343439638615,-0.02605796605348587
1690839239092224000,8.21922412109375,-0.00501206936314702,-0.0026407905388623476,-0.02888171561062336
1690839239102263800,8.229263916015626,-0.004282629117369652,-0.002740659052506089,-0.02576608397066593
1690839239112303900,8.239303955078125,-0.0054301852360367775,-0.0030069751664996147,-0.026327477768063545
1690839239122344000,8.249343994140625,-0.004864796530455351,-0.0007832356495782733,-0.02339933253824711
1690839239132385000,8.259385009765625,-0.00370179396122694,-0.0015427692560479045,-0.022469623014330864
1690839239142425000,8.269425048828126,-0.005673065781593323,-0.0008665926288813353,-0.02256815880537033
1690839239152465000,8.27946484375,-0.0044410875998437405,0.0005009406013414264,-0.018763035535812378
1690839239162506000,8.289506103515626,-0.004614192992448807,0.002484729280695319,-0.01780296489596367
1690839239172545800,8.2995458984375,-0.005018460564315319,-0.0010410296963527799,-0.01846609264612198
1690839239182616800,8.309616943359375,-0.0043952809646725655,-0.001755289500579238,-0.015629027038812637
1690839239192657000,8.319656982421876,-0.005380117800086737,-0.003212571144104004,-0.01679655723273754
1690839239202697000,8.329697021484375,-0.0054152715019881725,-0.0028913940768688917,-0.015782425180077553
1690839239212738000,8.339738037109376,-0.005314071662724018,-0.00005379585491027683,-0.016265522688627243
1690839239222778000,8.349778076171875,-0.003171558491885662,-0.0031672974582761526,-0.015739282593131065
1690839239232818000,8.35981787109375,-0.004553206264972687,-0.003968376200646162,-0.016577377915382385
1690839239242858000,8.36985791015625,-0.004462126176804304,-0.0036996633280068636,-0.014912370592355728
1690839239252898800,8.37989892578125,-0.0054634748958051205,0.001323857344686985,-0.016233298927545547
1690839239262939000,8.38993896484375,-0.004525243304669857,-0.0031156321056187153,-0.017674867063760757
1690839239272979000,8.39997900390625,-0.00421285443007946,-0.00013448962999973446,-0.017835723236203194
1690839239283020000,8.41002001953125,-0.0035486621782183647,0.0018698053900152445,-0.020560136064887047
1690839239293060000,8.42006005859375,-0.004455734975636005,-0.003471164032816887,-0.0181752759963274
1690839239303100000,8.430099853515625,-0.005391569808125496,-0.0022082931827753782,-0.021078120917081833
1690839239313140000,8.440139892578125,-0.005379851907491684,-0.0029997846577316523,-0.02256815880537033
1690839239323180800,8.450180908203125,-0.005602758377790451,-0.005061071366071701,-0.023601200431585312
1690839239333220900,8.460220947265626,-0.004879177547991276,-0.002261290093883872,-0.022426744922995567
1690839239343266600,8.4702666015625,-0.006535663735121489,-0.003732952754944563,-0.024287495762109756
1690839239353306600,8.480306640625,-0.005509547423571348,-0.00021225394448265433,-0.022065354511141777
1690839239363346700,8.4903466796875,-0.0036647759843617678,0.0015717976493760943,-0.02502945251762867
1690839239373387500,8.500387451171875,-0.004222175572067499,0.002145442645996809,-0.022670958191156387
1690839239383427600,8.510427490234376,-0.004805141594260931,-0.0016900419723242521,-0.022366559132933617
1690839239393467600,8.520467529296875,-0.005313006229698658,-0.0005083974683657289,-0.021339910104870796
1690839239403507500,8.530507568359376,-0.004999286029487848,-0.0005664543714374304,-0.022877618670463562
1690839239413548500,8.540548583984375,-0.004211789462715387,-0.0036693033762276173,-0.02177240699529648
1690839239423588600,8.550588623046876,-0.006493052933365107,-0.005276254843920469,-0.02009035460650921
1690839239433628700,8.560628662109375,-0.004830175079405308,-0.003965446725487709,-0.019406987354159355
1690839239443669500,8.57066943359375,-0.005533249583095312,-0.0046695866622030735,-0.019628828391432762
1690839239453709600,8.58070947265625,-0.004040548112243414,-0.0033300165086984634,-0.017071926966309547
1690839239463749600,8.59074951171875,-0.003750795964151621,-0.0004849616379942745,-0.01848074048757553
1690839239473789400,8.60078955078125,-0.006007025949656963,-0.0020809939596801996,-0.018607240170240402
1690839239483830500,8.61083056640625,-0.004834436345845461,-0.0006245112745091319,-0.016927585005760193
1690839239493901600,8.620901611328126,-0.003571032779291272,0.0033688987605273724,-0.01684289611876011
1690839239503941600,8.630941650390625,-0.003976898267865181,-0.0004215783847030252,-0.019654927775263786
1690839239513981700,8.640981689453126,-0.0046362970024347305,-0.0008426241693086922,-0.016890034079551697
1690839239524021500,8.651021484375,-0.003561445279046893,-0.002008023438975215,-0.017106547951698303
1690839239534062600,8.6610625,-0.0040855552069842815,-0.0025510420091450214,-0.02051992155611515
1690839239544102700,8.6711025390625,-0.005322860088199377,-0.003995540551841259,-0.019153188914060593
1690839239554142500,8.681142578125,-0.005503954831510782,-0.003242664970457554,-0.01962297037243843
1690839239564182500,8.6911826171875,-0.006117813754826784,-0.004048537462949753,-0.021084245294332504
1690839239574223600,8.7012236328125,-0.004595817066729069,-0.002416019793599844,-0.022940469905734062
1690839239584263700,8.711263671875,-0.00526640098541975,-0.0009680590592324734,-0.021931132301688194
1690839239594303500,8.721303466796876,-0.0043715788051486015,-0.0007291734800674021,-0.02202008105814457
1690839239604344600,8.731344482421875,-0.003151052165776491,0.0014066817238926888,-0.021213410422205925
1690839239614384600,8.741384521484376,-0.0037766287568956614,-0.002263420494273305,-0.02148691564798355
1690839239624424400,8.751424560546875,-0.004791026934981346,-0.0002993392990902066,-0.024273646995425224
1690839239634464500,8.761464599609376,-0.0057042245753109455,-0.004960403777658939,-0.02250291220843792
1690839239644505600,8.771505615234375,-0.0057708038948476315,-0.004882373381406069,-0.02263207547366619
1690839239654576600,8.78157666015625,-0.006162288598716259,-0.0021638183388859034,-0.021980132907629013
1690839239664616700,8.79161669921875,-0.00370179396122694,-0.00016351809608750045,-0.01878354139626026
1690839239674656500,8.801656494140625,-0.005659749731421471,-0.002426672261208296,-0.020984910428524017
1690839239684696600,8.811696533203126,-0.006038185209035873,-0.001029311795718968,-0.02046639285981655
1690839239694737700,8.821737548828125,-0.005071457475423813,-0.0033396040089428425,-0.01997211016714573
1690839239704777500,8.831777587890626,-0.004172640852630138,-0.002001631772145629,-0.02044961415231228
1690839239714817500,8.841817626953125,-0.00549197057262063,-0.0024884575977921486,-0.020112991333007812
1690839239724858600,8.851858642578126,-0.005305549595504999,-0.0024322650860995054,-0.018788335844874382
1690839239734898700,8.861898681640625,-0.0036842171102762222,0.00019441076437942684,-0.01895291917026043
1690839239744938500,8.8719384765625,-0.003712446428835392,-0.0009691243176348507,-0.01835477165877819
1690839239754978600,8.881978515625,-0.005095958709716797,-0.00373108871281147,-0.01853267103433609
1690839239765019600,8.89201953125,-0.0038903458043932915,-0.0008764463127590716,-0.017884990200400352
1690839239775059500,8.9020595703125,-0.005306614562869072,-0.003186738584190607,-0.018495652824640274
1690839239785099500,8.912099609375,-0.005023254547268152,-0.0006213154993019998,-0.019337212666869164
1690839239795140600,8.922140625,-0.004918059334158897,-0.0034610440488904715,-0.017600830644369125
1690839239805180700,8.9321806640625,-0.0057558901607990265,-0.0005211806274019182,-0.01828712783753872
1690839239815251700,8.942251708984376,-0.0052142031490802765,-0.0008237157016992569,-0.019330289214849472
1690839239825291500,8.95229150390625,-0.002740659052506089,0.0025015072897076607,-0.021376928314566612
1690839239835331600,8.96233154296875,-0.006435528863221407,-0.0002918824611697346,-0.018246648833155632
1690839239845371400,8.972371337890625,-0.004816326778382063,0.00017550231132190675,-0.021041102707386017
1690839239855412500,8.98241259765625,-0.006383863277733326,-0.0016524913953617215,-0.0187838077545166
1690839239865452500,8.99245263671875,-0.003171025775372982,-0.0025457157753407955,-0.020961740985512733
1690839239875492600,9.00249267578125,-0.004720985423773527,-0.0037233654875308275,-0.020548151805996895
1690839239885533700,9.01253369140625,-0.003716174978762865,-0.003715375903993845,-0.0210682675242424
1690839239895573500,9.022573486328126,-0.004811533261090517,-0.0033952640369534492,-0.022938072681427002
1690839239905613600,9.032613525390625,-0.005244030617177486,-0.0034416031558066607,-0.021290641278028488
1690839239915653400,9.0426533203125,-0.004793157335370779,-0.0002878876985050738,-0.021090105175971985
1690839239925694500,9.052694580078125,-0.0057257963344454765,-0.0022266688756644726,-0.019451461732387543
1690839239935734500,9.062734619140626,-0.003894606838002801,-0.002499909373000264,-0.02268214337527752
1690839239945774600,9.072774658203125,-0.0026522420812398195,-0.00042450788896530867,-0.022832611575722694
1690839239955815700,9.082815673828126,-0.005594768561422825,-0.0008884305134415627,-0.020662134513258934
1690839239965855500,9.09285546875,-0.0051710596308112144,-0.0017321199411526322,-0.020264258608222008
1690839239975926500,9.102926513671875,-0.0047835698351264,-0.0032535837963223457,-0.01877422071993351
1690839239985966600,9.112966552734376,-0.005494900047779083,-0.0025619608350098133,-0.019651997834444046
1690839239996006400,9.12300634765625,-0.005438707303255796,-0.003631752682849765,-0.021526331081986427
1690839240006047500,9.133047607421876,-0.006766825914382935,-0.0026674221735447645,-0.017076455056667328
1690839240016087600,9.143087646484375,-0.004122573416680098,-0.0010183927370235324,-0.020558005198836327
1690839240026127600,9.153127685546876,-0.004433097783476114,-0.003712712787091732,-0.020371850579977036
1690839240036167700,9.163167724609375,-0.0041374871507287025,-0.0004191815387457609,-0.01979900524020195
1690839240046208500,9.17320849609375,-0.005461877211928368,0.00018455706594977528,-0.018799521028995514
1690839240056248600,9.18324853515625,-0.004238420631736517,-0.0007685882737860084,-0.021390242502093315
1690839240066288400,9.193288330078126,-0.004844556096941233,-0.00213612150400877,-0.018791530281305313
1690839240076328400,9.203328369140625,-0.004785700235515833,-0.002228799508884549,-0.0176951065659523
1690839240086369500,9.21336962890625,-0.004574511665850878,-0.000011717908819264267,-0.018984077498316765
1690839240096409600,9.22340966796875,-0.005819006823003292,-0.002273540711030364,-0.019515378400683403
1690839240106449700,9.23344970703125,-0.005631786771118641,-0.0017957695527002215,-0.020444288849830627
1690839240116490500,9.243490478515625,-0.004232828039675951,-0.003349457634612918,-0.019535085186362267
1690839240126530600,9.253530517578126,-0.0036815537605434656,-0.001979261403903365,-0.02028130367398262
1690839240136601600,9.2636015625,-0.0046394928358495235,-0.0008761800127103925,-0.020003534853458405
1690839240146641400,9.273641357421875,-0.004245877731591463,-0.0029401297215372324,-0.020195282995700836
1690839240156681500,9.283681396484376,-0.005365736782550812,-0.00008681904728291556,-0.019964121282100677
1690839240166722600,9.29372265625,-0.005404619034379721,-0.001446096459403634,-0.019708722829818726
1690839240176762600,9.3037626953125,-0.005621133837848902,-0.0013374395202845335,-0.020804081112146378
1690839240186802700,9.313802734375,-0.005172657780349255,0.00024447820032946765,-0.019184347242116928
1690839240196842800,9.3238427734375,-0.005072522908449173,-0.000990429543890059,-0.02111327461898327
1690839240206883600,9.333883544921875,-0.004969991277903318,-0.0008594020619057119,-0.019274095073342323
1690839240216923400,9.34392333984375,-0.005588377360254526,0.00021997711155563593,-0.020228572189807892
1690839240226963500,9.35396337890625,-0.004233627114444971,-0.00276169809512794,-0.019177954643964767
1690839240237004500,9.364004638671876,-0.005172657780349255,-0.001320927869528532,-0.01962110586464405
1690839240247044600,9.374044677734375,-0.0046791741624474525,-0.001907089608721435,-0.019596338272094727
1690839240257084700,9.384084716796876,-0.005071990191936493,-0.004012318328022957,-0.02056785859167576
1690839240267124700,9.394124755859375,-0.004634699318557978,-0.002282062778249383,-0.020411266013979912
1690839240277165600,9.40416552734375,-0.0051689292304217815,-0.0008466189028695226,-0.01882561855018139
1690839240287235600,9.414235595703126,-0.0057553574442863464,-0.0023664848413318396,-0.02173006348311901
1690839240297276400,9.4242763671875,-0.005602225661277771,-0.0007129282457754016,-0.02003016695380211
1690839240307316500,9.43431640625,-0.005425125360488892,-0.0015102786710485816,-0.019424032419919968
1690839240317356500,9.4443564453125,-0.004172640852630138,-0.0024173513520509005,-0.019224559888243675
1690839240327397600,9.454397705078126,-0.003947869874536991,0.00020213393145240843,-0.019808059558272362
1690839240337437700,9.464437744140625,-0.0048797097988426685,-0.002282329136505723,-0.02129437029361725
1690839240347471400,9.474471435546874,-0.00523790530860424,-0.0017952368361875415,-0.020049341022968292
1690839240357511400,9.484511474609375,-0.005702626891434193,-0.0014018879737704992,-0.020248280838131905
1690839240367552500,9.494552490234375,-0.006056294776499271,-0.001668736687861383,-0.019541744142770767
1690839240377592300,9.50459228515625,-0.005727127660065889,-0.0012578109744936228,-0.01925119198858738
1690839240387632400,9.51463232421875,-0.005357214715331793,-0.0018671422731131315,-0.01968475431203842
1690839240397673500,9.524673583984375,-0.00515880947932601,-0.0019238675013184547,-0.01967277005314827
1690839240407713500,9.534713623046875,-0.004073305055499077,-0.002397910226136446,-0.02106080949306488
1690839240417753300,9.54475341796875,-0.0049556102603673935,-0.0014383733505383134,-0.020547352731227875
1690839240427793400,9.55479345703125,-0.004200071096420288,-0.001058872789144516,-0.021348964422941208
1690839240437834500,9.56483447265625,-0.005441370885819197,-0.0016879114555194974,-0.02058197371661663
1690839240447905500,9.574905517578125,-0.0031433289404958487,-0.003216033335775137,-0.020384633913636208
1690839240457945300,9.5849453125,-0.00657667638733983,-0.002151301596313715,-0.02291836589574814
1690839240467985400,9.5949853515625,-0.005450159311294556,-0.005711948033422232,-0.02045600675046444
1690839240478025500,9.605025390625,-0.005693305749446154,-0.0030535804107785225,-0.022586535662412643
1690839240488066600,9.615066650390625,-0.004899950232356787,-0.0028631645254790783,-0.02015666663646698
1690839240498106400,9.6251064453125,-0.004740693140774965,-0.000988032785244286,-0.020380372181534767
1690839240508146400,9.635146484375,-0.004775580484420061,-0.004792890977114439,-0.02105068974196911
1690839240518187500,9.6451875,-0.005361475981771946,-0.0009424926829524338,-0.01961577869951725
1690839240528227300,9.655227294921875,-0.005679457448422909,-0.0010687265312299132,-0.017255153506994247
1690839240538267400,9.665267333984374,-0.004568652715533972,0.0002966761530842632,-0.018920427188277245
1690839240548307500,9.675307373046875,-0.005530852824449539,-0.001383512164466083,-0.019598735496401787
1690839240558348500,9.6853486328125,-0.00398595305159688,-0.0013574132462963462,-0.01901896484196186
1690839240568388400,9.695388427734375,-0.004797418136149645,-0.0019108180422335863,-0.019580891355872154
1690839240578428400,9.705428466796874,-0.00440912926569581,-0.0020911141764372587,-0.0216581579297781
1690839240588468500,9.715468505859375,-0.00481472909450531,-0.0012402341235429049,-0.020622720941901207
1690839240598509600,9.725509521484375,-0.006389988586306572,-0.001443166984245181,-0.020070914179086685
1690839240608580400,9.735580322265625,-0.004997421521693468,-0.0014253237750381231,-0.018991533666849136
1690839240618620400,9.745620361328125,-0.004111654590815306,-0.003144926857203245,-0.021517809480428696
1690839240628660500,9.755660400390624,-0.0026618295814841986,-0.0024828650057315826,-0.020327908918261528
1690839240638700500,9.765700439453125,-0.004131894558668137,-0.0012186624808236957,-0.018761437386274338
1690839240648741400,9.775741455078125,-0.0031401331070810556,0.0020730046089738607,-0.02008982188999653
1690839240658781400,9.785781494140625,-0.003020557342097163,-0.0013994910987094045,-0.02021845243871212
1690839240668821200,9.7958212890625,-0.004176901653409004,-0.0018722022650763392,-0.020412065088748932
1690839240678862300,9.8058623046875,-0.0046911584213376045,-0.0024487765040248632,-0.0211244598031044
1690839240688902400,9.81590234375,-0.003721501212567091,-0.0022144184913486242,-0.021978003904223442
1690839240698942500,9.8259423828125,-0.0036993969697505236,-0.0008077367674559355,-0.021471470594406128
1690839240708982500,9.835982421875,-0.007601726800203323,-0.004716724622994661,-0.019993148744106293
1690839240719023400,9.8460234375,-0.005029379855841398,-0.0017291904659941792,-0.020078370347619057
1690839240729063400,9.8560634765625,-0.005506617948412895,-0.0009326389990746975,-0.02190849371254444
1690839240739103500,9.866103515625,-0.004248540848493576,0.0012519520241767168,-0.01896223984658718
1690839240749144600,9.87614453125,-0.005535114090889692,-0.0013670006301254034,-0.01997344195842743
1690839240759184400,9.886184326171875,-0.005071723833680153,-0.00004740426811622456,-0.01901124231517315
1690839240769255400,9.89625537109375,-0.0044014062732458115,-0.0006711165769957006,-0.020775586366653442
1690839240779295500,9.90629541015625,-0.0033981935121119022,-0.001876995898783207,-0.01846902258694172
1690839240789335600,9.91633544921875,-0.0052173989824950695,0.00010333064710721374,-0.01684449426829815
1690839240799375600,9.926375732421874,-0.0038903458043932915,-0.000898550555575639,-0.019359583035111427
1690839240809416400,9.93641650390625,-0.005298625212162733,-0.004720453172922134,-0.01895212009549141
1690839240819456300,9.946456298828124,-0.006185458041727543,-0.0020596887916326523,-0.018061025068163872
1690839240829496300,9.956496337890625,-0.004507400095462799,-0.00044554684427566826,-0.02069862000644207
1690839240839537400,9.966537353515625,-0.004129497334361076,-0.002156894188374281,-0.021793179214000702
1690839240849577500,9.976577392578125,-0.004162520635873079,0.0016652746126055717,-0.019960924983024597
1690839240859617500,9.986617431640624,-0.005093561951071024,-0.00045593318645842373,-0.020861871540546417
1690839240869657600,9.99665771484375,-0.004738030023872852,-0.0026967169251292944,-0.01937423087656498
1690839240879698400,10.006698486328125,-0.005250954534858465,-0.001537709147669375,-0.018917765468358994
1690839240889738500,10.016738525390625,-0.004450940992683172,-0.0029843382071703672,-0.019625365734100342
1690839240899778300,10.0267783203125,-0.005340170580893755,0.00009667274571256712,-0.020313261076807976
1690839240909819400,10.0368193359375,-0.004601143300533295,-0.002520682057365775,-0.02015853114426136
1690839240919859500,10.046859375,-0.004770520608872175,-0.0027233485598117113,-0.021132448688149452
1690839240929930500,10.056930419921875,-0.004457066301256418,-0.0028272117488086224,-0.022007564082741737
1690839240939970600,10.066970458984375,-0.004777178168296814,-0.0027047062758356333,-0.020682642236351967
1690839240950010600,10.0770107421875,-0.004879177547991276,-0.004932706709951162,-0.02196069248020649
1690839240960051500,10.087051513671875,-0.005310343112796545,-0.0027976506389677525,-0.020866399630904198
1690839240970091300,10.09709130859375,-0.0036999296862632036,-0.0006119944155216217,-0.020961740985512733
1690839240980131300,10.10713134765625,-0.0054640076123178005,-0.003044259501621127,-0.019702598452568054
1690839240990171400,10.11717138671875,-0.004860535264015198,-0.002528671408072114,-0.01920006051659584
1690839241000212500,10.12721240234375,-0.005076251458376646,-0.0032682311721146107,-0.020174777135252953
1690839241010252500,10.13725244140625,-0.0049673281610012054,-0.0034133736044168472,-0.019345734268426895
1690839241020292600,10.147292724609375,-0.003822967642918229,-0.0037619813811033964,-0.02002936787903309
1690839241030332400,10.15733251953125,-0.005027781706303358,-0.0012322446564212441,-0.01786528341472149
1690839241040373200,10.167373291015625,-0.003998203668743372,-0.0006745787104591727,-0.018697254359722137
1690839241050413300,10.177413330078124,-0.0031670311000198126,-0.0013235911028459668,-0.01996651664376259
1690839241060453400,10.187453369140625,-0.005122323986142874,-0.0016588830621913075,-0.018983811140060425
1690839241070494500,10.197494384765625,-0.004098072182387114,-0.002428004052489996,-0.02015160769224167
1690839241080564500,10.207564453125,-0.004223773255944252,0.0000679106087773107,-0.019894612953066826
1690839241090605600,10.21760546875,-0.005817409139126539,-0.0014711301773786545,-0.020683972164988518
1690839241100645600,10.227645751953125,-0.005590241402387619,-0.0007486145477741957,-0.020059995353221893
1690839241110685400,10.237685546875,-0.0039036613889038563,-0.002695385366678238,-0.01944320648908615
1690839241120726300,10.247726318359375,-0.0030831415206193924,-0.0032674323301762342,-0.021744176745414734
1690839241130766300,10.257766357421875,-0.003790477057918906,-0.0016676714876666665,-0.020018981769680977
1690839241140806400,10.267806396484374,-0.005504487548023462,-0.001645567244850099,-0.020558537915349007
1690839241150846500,10.277846435546875,-0.004568919073790312,0.0008506136364303529,-0.021580658853054047
1690839241160887600,10.287887451171875,-0.005022721830755472,-0.001898301183246076,-0.021257352083921432
1690839241170927600,10.297927734375,-0.004898352082818747,-0.0005976133397780359,-0.021923141553997993
1690839241180967400,10.307967529296874,-0.0037619813811033964,-0.0012420982820913196,-0.020192885771393776
1690839241191008300,10.31800830078125,-0.005645901430398226,-0.0023217438720166683,-0.018004832789301872
1690839241201048300,10.32804833984375,-0.003897269954904914,-0.003020290983840823,-0.020564131438732147
1690839241211088400,10.33808837890625,-0.0038658445701003075,-0.0017867147689685225,-0.021861355751752853
1690839241221128400,10.34812841796875,-0.003849865635856986,-0.00004900216299574822,-0.02045121230185032
1690839241231169500,10.35816943359375,-0.003876763628795743,0.0002306297537870705,-0.01900378428399563
1690839241241239600,10.368239501953125,-0.003944141324609518,-0.0031851406674832106,-0.020910874009132385
1690839241251280600,10.37828076171875,-0.005289304070174694,-0.0021880532149225473,-0.01948794722557068
1690839241261320400,10.388320556640625,-0.00418382603675127,-0.0023957795929163694,-0.020487697795033455
1690839241271360500,10.398360595703124,-0.0049345712177455425,-0.0034847462084144354,-0.01991325430572033
1690839241281401300,10.4084013671875,-0.006097839679569006,-0.0026935210917145014,-0.019888486713171005
1690839241291441400,10.41844140625,-0.0029017801862210035,-0.001606685109436512,-0.019401393830776215
1690839241301481500,10.4284814453125,-0.005310609471052885,-0.002832005498930812,-0.016770457848906517
1690839241311521500,10.438521484375,-0.0032378712203353643,-0.004150004126131535,-0.02070661075413227
1690839241321562600,10.448562744140625,-0.0054911719635128975,-0.0015369103057309985,-0.019771307706832886
1690839241331602400,10.4586025390625,-0.004985437728464603,-0.0038120488170534372,-0.02280304953455925
1690839241341643300,10.468643310546875,-0.005364671815186739,-0.0035627768374979496,-0.020299145951867104
1690839241351684400,10.478684326171875,-0.005673864856362343,-0.002376604825258255,-0.018760105594992638
1690839241361724400,10.488724365234376,-0.004225637763738632,-0.0002002697146963328,-0.018911106511950493
1690839241371764500,10.498764404296875,-0.004996356554329395,-0.002510561840608716,-0.017967281863093376
1690839241381804500,10.508804443359375,-0.005626460537314415,-0.002615756820887327,-0.02028263546526432
1690839241391845400,10.518845458984375,-0.00612367270514369,-0.0009195895399898291,-0.021734589710831642
1690839241401916400,10.52891650390625,-0.004266650415956974,-0.002948385663330555,-0.020352676510810852
1690839241411956500,10.53895654296875,-0.005641906522214413,-0.002351038623601198,-0.021560952067375183
1690839241421996300,10.548996337890625,-0.004804342519491911,-0.0035574506036937237,-0.020127639174461365
1690839241432036400,10.559036376953125,-0.004576376173645258,-0.0007115966291166842,-0.020427243784070015
1690839241442077400,10.569077392578125,-0.004237355664372444,-0.0010982876410707831,-0.021467475220561028
1690839241452117500,10.579117431640626,-0.005033640656620264,-0.0003374225052539259,-0.022608106955885887
1690839241462157600,10.589157470703125,-0.003912183456122875,-0.0027593011036515236,-0.01968422159552574
1690839241472198400,10.599198486328126,-0.005845638457685709,-0.0028668928425759077,-0.021690381690859795
1690839241482238500,10.609238525390625,-0.003861317178234458,-0.0023529028985649347,-0.021678397431969643
1690839241492278300,10.6192783203125,-0.005519933998584747,0.00016884441720321774,-0.020233899354934692
1690839241502318300,10.629318359375,-0.005112736485898495,0.00015393071225844324,-0.01804371550679207
1690839241512359400,10.639359375,-0.0052139367908239365,-0.0027025758754462004,-0.01793772168457508
1690839241522399500,10.6493994140625,-0.003715375903993845,-0.0018053569365292788,-0.019241604954004288
1690839241532439600,10.659439453125,-0.003959587775170803,-0.0014729943359270692,-0.01944587007164955
1690839241542479600,10.669479736328125,-0.005134308245033026,-0.001814944320358336,-0.02052072063088417
1690839241552520400,10.6795205078125,-0.005474660079926252,-0.0013371731620281935,-0.020595289766788483
1690839241562591500,10.689591552734376,-0.0054759918712079525,-0.00033422670094296336,-0.019603261724114418
1690839241572631300,10.69963134765625,-0.004201136529445648,-0.002074069809168577,-0.020203538239002228
1690839241582671400,10.70967138671875,-0.004505269695073366,-0.001945439144037664,-0.020539363846182823
1690839241592711400,10.71971142578125,-0.004571049474179745,-0.0006399576086550951,-0.019642943516373634
1690839241602752500,10.72975244140625,-0.004179831128567457,-0.00016698020044714212,-0.018912171944975853
1690839241612792600,10.73979248046875,-0.0037947380915284157,0.0013720606220886111,-0.016173910349607468
1690839241622832600,10.74983251953125,-0.0038775624707341194,-0.0011225224006921053,-0.01894785836338997
1690839241632873500,10.75987353515625,-0.003945206757634878,-0.002401106059551239,-0.019038937985897064
1690839241642913300,10.769913330078126,-0.0031164311803877354,-0.0012042814632877707,-0.019717512652277946
1690839241652953300,10.779953369140625,-0.005666940473020077,-0.001469798618927598,-0.021324729546904564
1690839241662993400,10.789993408203125,-0.00446905056014657,-0.001865544356405735,-0.022757509723305702
1690839241673034500,10.800034423828125,-0.005529255140572786,-0.004745753016322851,-0.018822690472006798
1690839241683074600,10.810074462890626,-0.0029915287159383297,0.00036272252327762544,-0.01968422159552574
1690839241693114600,10.820114501953125,-0.004405667539685965,-0.003543602069839835,-0.021510884165763855
1690839241703155500,10.830155517578126,-0.0036551884841173887,-0.0012261193478479981,-0.020473582670092583
1690839241713195500,10.840195556640625,-0.004497013986110687,-0.0015169365797191858,-0.021639514714479446
1690839241723266300,10.850266357421875,-0.003719104453921318,-0.0021963089238852262,-0.020417390391230583
1690839241733306400,10.860306396484376,-0.003945206757634878,-0.0008354336023330688,-0.018906844779849052
1690839241743346400,10.870346435546875,-0.0057558901607990265,-0.0012463594321161509,-0.02189517952501774
1690839241753386500,10.880386474609375,-0.0037436054553836584,-0.001151284552179277,-0.021454425528645515
1690839241763427600,10.890427490234375,-0.005566006526350975,-0.0007060039788484573,-0.02105868048965931
1690839241773467600,10.900467529296876,-0.005535114090889692,-0.0019494339358061552,-0.02015000954270363
1690839241783507500,10.910507568359375,-0.003939081449061632,-0.0049255164340138435,-0.021103953942656517
1690839241793548300,10.92054833984375,-0.005094893276691437,-0.0007158577209338546,-0.019591543823480606
1690839241803588400,10.93058837890625,-0.003734018187969923,-0.00008948221511673182,-0.01938381791114807
1690839241813628400,10.94062841796875,-0.0044469465501606464,-0.001853560097515583,-0.020446952432394028
1690839241823668500,10.95066845703125,-0.0051995557732880116,-0.0033835461363196373,-0.021528728306293488
1690839241833709600,10.96070947265625,-0.004204066004604101,0.00012836436508223414,-0.020171580836176872
1690839241843749600,10.97074951171875,-0.005453887395560741,-0.0025132251903414726,-0.021030716598033905
1690839241853789400,10.98078955078125,-0.005783054046332836,0.0008245146600529552,-0.02040380798280239
1690839241863830300,10.990830322265625,-0.003441869281232357,0.0006103964988142252,-0.019110310822725296
1690839241873870300,11.000870361328126,-0.0029904635157436132,-0.002650377806276083,-0.020668793469667435
1690839241883941400,11.01094140625,-0.00583844818174839,-0.0044014062732458115,-0.017696438357234
1690839241893981400,11.0209814453125,-0.005261607468128204,-0.00404614070430398,-0.020596355199813843
1690839241904021500,11.031021484375,-0.00567013630643487,-0.0046331011690199375,-0.019710054621100426
1690839241914062600,11.0410625,-0.0054155378602445126,0.00016431703988928348,-0.020324446260929108
1690839241924102700,11.0511025390625,-0.003719370812177658,-0.001770469476468861,-0.01918860897421837
1690839241934142500,11.061142578125,-0.004563326481729746,-0.002298840554431081,-0.02082538604736328
1690839241944182300,11.071182373046875,-0.004567853640764952,-0.0008892294717952609,-0.020972393453121185
1690839241954223400,11.081223388671875,-0.0037582528311759233,-0.0023899206425994635,-0.02147413231432438
1690839241964263400,11.091263427734376,-0.0067870658822357655,-0.0020695424173027277,-0.019845077767968178
1690839241974303500,11.101303466796875,-0.004455202259123325,-0.0016924388473853469,-0.019723903387784958
1690839241984344600,11.111344482421876,-0.005428321193903685,-0.003919107839465141,-0.021313810721039772
1690839241994384600,11.121384521484375,-0.0041529336012899876,0.000031957933970261365,-0.02028077095746994
1690839242004424400,11.131424560546876,-0.004101800732314587,0.00036245622322894633,-0.0213010273873806
1690839242014464300,11.14146435546875,-0.002641855739057064,-0.00033103092573583126,-0.021096229553222656
1690839242024505300,11.15150537109375,-0.0037345506716519594,-0.00019494339358061552,-0.01986345276236534
1690839242034575400,11.161575439453125,-0.005062402691692114,-0.002689260058104992,-0.019989686086773872
1690839242044616400,11.171616455078125,-0.005555886775255203,0.0009134642314165831,-0.019453059881925583
1690839242054656500,11.181656494140626,-0.0035475967451930046,-0.000461259507574141,-0.021939387544989586
1690839242064696600,11.191696533203125,-0.0048887645825743675,-0.0022000374738126993,-0.02171994186937809
1690839242074737700,11.201737548828126,-0.004341219086199999,-0.004216582980006933,-0.018392056226730347
1690839242084777500,11.211777587890625,-0.0042719766497612,-0.0027169568929821253,-0.020228572189807892
1690839242094817300,11.2218173828125,-0.0031787490006536245,-0.0038370825350284576,-0.020371850579977036
1690839242104857300,11.231857421875,-0.004040814470499754,-0.001273523666895926,-0.018820293247699738
1690839242114898400,11.2418984375,-0.0032085764687508345,-0.003335342975333333,-0.018911106511950493
1690839242124938500,11.2519384765625,-0.0043902210891246796,-0.0021611552219837904,-0.01931697316467762
1690839242134978600,11.261978515625,-0.004869057331234217,-0.0016391756944358349,-0.018813900649547577
1690839242145019600,11.27201953125,-0.0049196574836969376,-0.0015134743880480528,-0.01943814568221569
1690839242155059500,11.2820595703125,-0.004714594222605228,-0.00007243797881528735,-0.021282918751239777
1690839242165099300,11.292099365234375,-0.004493818152695894,-0.0016330503858625889,-0.01888740435242653
1690839242175139300,11.302139404296875,-0.00475534051656723,-0.0013552826130762696,-0.02045254409313202
1690839242185180400,11.312180419921875,-0.003120425855740905,-0.002929743379354477,-0.02047145366668701
1690839242195250400,11.32225048828125,-0.004244279582053423,-0.003430950455367565,-0.01931031420826912
1690839242205291500,11.33229150390625,-0.0029108349699527025,-0.00344533147290349,-0.02040993422269821
1690839242215331600,11.34233154296875,-0.0054725296795368195,-0.0028506475500762463,-0.019147595390677452
1690839242225371400,11.352371337890625,-0.00628985371440649,-0.00020053602929692715,-0.020437363535165787
1690839242235412500,11.36241259765625,-0.0065252771601080894,-0.0004820321628358215,-0.020557738840579987
1690839242245452300,11.372452392578126,-0.004670652095228434,-0.0026402578223496675,-0.019769443199038506
1690839242255492400,11.382492431640625,-0.005441104527562857,-0.00006285060226218775,-0.020008595660328865
1690839242265532400,11.392532470703125,-0.004156928043812513,-0.0005869606975466013,-0.021277857944369316
1690839242275573500,11.402573486328125,-0.004760933108627796,-0.0018932411912828684,-0.019526563584804535
1690839242285613600,11.412613525390626,-0.004668521229177713,-0.00015206649550236762,-0.020050406455993652
1690839242295653400,11.4226533203125,-0.003939614165574312,-0.003425091505050659,-0.02148079127073288
1690839242305694500,11.432694580078126,-0.005645368713885546,-0.003337739733979106,-0.01973828487098217
1690839242315734300,11.442734375,-0.004786499310284853,-0.002636263146996498,-0.019829630851745605
1690839242325774300,11.4527744140625,-0.006413957104086876,-0.0014956312952563167,-0.018727881833910942
1690839242335814400,11.462814453125,-0.004608067683875561,0.00016245282313320786,-0.02076466754078865
1690839242345853200,11.472853271484375,-0.004291950259357691,-0.001972603378817439,-0.02021978422999382
1690839242355924200,11.48292431640625,-0.005632319487631321,-0.001323857344686985,-0.018992066383361816
1690839242365964300,11.49296435546875,-0.006476275157183409,-0.001219727797433734,-0.019767045974731445
1690839242376004000,11.503004150390625,-0.005087969359010458,-0.002523078816011548,-0.020900221541523933
1690839242386044000,11.5130439453125,-0.005756688769906759,0.0003765709698200226,-0.020559070631861687
1690839242396085000,11.5230849609375,-0.0057737333700060844,0.0007693872321397066,-0.01768871583044529
1690839242406125000,11.533125,-0.0038932752795517445,-0.0015339808305725455,-0.020845094695687294
1690839242416165000,11.5431650390625,-0.004692756105214357,-0.002764627570286393,-0.018007762730121613
1690839242426206200,11.553206298828124,-0.005575061310082674,-0.00009427589975530282,-0.018851717934012413
1690839242436246300,11.563246337890625,-0.003567570587620139,-0.003820304526016116,-0.020544689148664474
1690839242446286000,11.5732861328125,-0.003908987622708082,-0.0016018913593143225,-0.019229887053370476
1690839242456326000,11.583325927734375,-0.004474909510463476,-0.0014394385507330298,-0.02064802125096321
1690839242466367000,11.593366943359374,-0.004897287115454674,-0.0021859225817024708,-0.018207766115665436
1690839242476407000,11.603406982421875,-0.004166515544056892,-0.0017829863354563713,-0.019041867926716805
1690839242486447000,11.613447021484374,-0.005772934295237064,-0.0013992248568683863,-0.02052551507949829
1690839242496488200,11.62348828125,-0.004890362732112408,-0.0007989483419805765,-0.018212558701634407
1690839242506528300,11.6335283203125,-0.004481301177293062,-0.0027145601343363523,-0.019951337948441505
1690839242516599300,11.643599365234374,-0.00404640706256032,-0.003364637726917863,-0.020111659541726112
1690839242526639000,11.65363916015625,-0.0052179316990077496,-0.00213558878749609,-0.021384118124842644
1690839242536679000,11.663678955078124,-0.004101268015801907,-0.0024461133871227503,-0.02129463665187359
1690839242546719000,11.673718994140625,-0.005075718741863966,-0.001975000137463212,-0.020865600556135178
1690839242556760000,11.683760009765624,-0.006479470990598202,-0.003879426745697856,-0.020681576803326607
1690839242566800100,11.693800048828125,-0.003882356220856309,0.00006950850365683436,-0.020775852724909782
1690839242576840200,11.703840087890624,-0.003742806613445282,-0.0011414308100938797,-0.018866632133722305
1690839242586881300,11.71388134765625,-0.006353237200528383,-0.0026703516487032175,-0.0215913113206625
1690839242596921000,11.723921142578124,-0.003866909770295024,-0.0026016421616077423,-0.01955985277891159
1690839242606961000,11.7339609375,-0.0031047132797539234,-0.00019414443522691727,-0.019393671303987503
1690839242617001000,11.7440009765625,-0.003733751829713583,-0.0017419736832380295,-0.021928202360868454
1690839242627042000,11.7540419921875,-0.004804076161235571,0.0002383529208600521,-0.02033829502761364
1690839242637082000,11.76408203125,-0.00401604687795043,-0.002519616624340415,-0.019212577491998672
1690839242647122200,11.7741220703125,-0.004023237619549036,-0.002814695006236434,-0.020550549030303955
