time,seconds_elapsed,z,y,x
1690839231068515300,0.195515380859375,0.0009716611821204424,0.006395821459591389,-0.05517496168613434
1690839231078555400,0.205555419921875,0.001755808014422655,0.0045131961815059185,-0.06692203879356384
1690839231088596200,0.21559619140625,-0.00014702044427394867,0.0016915769083425403,-0.0740281492471695
1690839231098636300,0.22563623046875,0.0010426759254187346,-0.0025267896708101034,-0.07562565803527832
1690839231108707300,0.235707275390625,-0.0009325905703008175,-0.00543096661567688,-0.07746884226799011
1690839231118747400,0.245747314453125,0.0003789416514337063,-0.0025914604775607586,-0.07105425000190735
1690839231128787200,0.255787109375,0.0009978602174669504,-0.0041877590119838715,-0.06125275790691376
1690839231138827300,0.2658271484375,-0.00038838712498545647,-0.00021933135576546192,-0.049408264458179474
1690839231148868400,0.275868408203125,0.00019191531464457512,0.002222787356004119,-0.0339139923453331
1690839231158908400,0.285908447265625,-0.0018531396053731441,0.004166904836893082,-0.020066766068339348
1690839231168948500,0.295948486328125,0.0008118855766952038,0.003796725533902645,-0.004532014951109886
1690839231178989300,0.3059892578125,0.0013451657723635435,0.0006762192351743579,0.010898688808083534
1690839231189029400,0.316029296875,-0.0003576595336198807,0.0012527937069535255,0.02706434205174446
1690839231199069200,0.326069091796875,-0.00011279340833425522,-0.0005347814876586199,0.03733886033296585
1690839231209109200,0.336109130859375,-0.0002571367658674717,-0.0009643493685871363,0.04840109497308731
1690839231219150300,0.346150390625,-0.00009471504017710686,0.00014087429735809565,0.05602732300758362
1690839231229190400,0.3561904296875,-0.0012249606661498547,-0.0011507589370012283,0.05633624643087387
1690839231239230500,0.36623046875,0.0005594179965555668,0.0006744352867826819,0.05569697171449661
1690839231249271300,0.376271240234375,0.0006939074955880642,0.0014621983282268047,0.05368281900882721
1690839231259311400,0.386311279296875,0.0004909052513539791,-0.00023151212371885777,0.04656531661748886
1690839231269382400,0.39638232421875,0.00210611242800951,-0.00021393527276813984,0.03867117688059807
1690839231279422200,0.406422119140625,-0.00007473677396774292,-0.0005100902635604143,0.02737499587237835
1690839231289462300,0.416462158203125,0.000035251956433057785,0.00016608648002147675,0.014185158535838127
1690839231299503400,0.42650341796875,0.001534024253487587,-0.0016413473058491945,0.004690122790634632
1690839231309543400,0.43654345703125,-0.0009957123547792435,-0.0010653056669980288,-0.007242703810334206
1690839231319583500,0.44658349609375,0.0003270101733505726,-0.0007397644221782684,-0.016932958737015724
1690839231329623600,0.45662353515625,-0.0008104261942207813,-0.00012643844820559025,-0.026507021859288216
1690839231339665700,0.466665771484375,0.0005352115258574486,-0.0012667651753872633,-0.03598365560173988
1690839231349705500,0.47670556640625,-0.00038970448076725006,0.001458980143070221,-0.04071342945098877
1690839231359745500,0.48674560546875,0.0010091017466038465,0.0016034607542678714,-0.0450778491795063
1690839231369785600,0.49678564453125,0.0016445319633930922,0.00021382328122854233,-0.04415852949023247
1690839231379826400,0.506826416015625,-0.0004322528839111328,0.0009110980900004506,-0.03979528695344925
1690839231389866500,0.516866455078125,0.0006774859502911568,0.001647195895202458,-0.03352247178554535
1690839231399906600,0.526906494140625,0.0023930943571031094,0.00033851852640509605,-0.026568694040179253
1690839231409947600,0.53694775390625,-0.0005041584372520447,-0.0015872132498770952,-0.017335781827569008
1690839231419987700,0.54698779296875,-0.0007800222374498844,-0.0005153373349457979,-0.008851287886500359
1690839231430058500,0.55705859375,-0.0007853484712541103,0.000039931852370500565,-0.001642109826207161
1690839231440098600,0.5670986328125,-0.00025059934705495834,0.0011869714362546802,0.006150676868855953
1690839231450138600,0.577138671875,-0.0017374423332512379,0.001064732321538031,0.015097565948963165
1690839231460179500,0.587179443359375,-0.0008338447660207748,0.001216812408529222,0.02124345675110817
1690839231470219500,0.597219482421875,0.0007299636490643024,-0.0003640400245785713,0.026917055249214172
1690839231480259600,0.607259521484375,-0.0006823497824370861,-0.00028835819102823734,0.03007909469306469
1690839231490299400,0.61729931640625,-0.0006554522551596165,0.0020405761897563934,0.03412337228655815
1690839231500340500,0.627340576171875,-0.0010076696053147316,-0.0006661252118647099,0.031180087476968765
1690839231510380500,0.637380615234375,0.0006091357208788395,-0.00003495602868497372,0.0301907230168581
1690839231520420600,0.647420654296875,-0.00004851771518588066,0.0004394836723804474,0.02436421811580658
1690839231530461400,0.65746142578125,0.0007996992208063602,0.0008115272503346205,0.019683711230754852
1690839231540501500,0.66750146484375,0.001200430328026414,0.0016973931342363358,0.013697046786546707
1690839231550541600,0.67754150390625,-0.0008589918725192547,-0.001445935806259513,0.006370957009494305
1690839231560581600,0.68758154296875,0.0021441285498440266,-0.0005861774552613497,-0.0007768496870994568
1690839231570622700,0.697622802734375,-0.001945687923580408,-0.0005728616379201412,-0.0070528555661439896
1690839231580692500,0.7076923828125,0.000015032943338155746,-0.0000860895961523056,-0.014332244172692299
1690839231590733600,0.717733642578125,0.0007311571389436722,0.00047237530816346407,-0.017618050798773766
1690839231600773600,0.727773681640625,0.0011768871918320656,0.001955307088792324,-0.020856324583292007
1690839231610813700,0.737813720703125,-0.0014303475618362427,-0.0013965475372970104,-0.021342620253562927
1690839231620854500,0.7478544921875,-0.0004242425784468651,0.0004710986977443099,-0.022612228989601135
1690839231630894600,0.75789453125,0.0000015972182154655457,-0.00009801867417991161,-0.022725947201251984
1690839231640934400,0.767934326171875,0.0000963485799729824,0.0036663594655692577,-0.018890462815761566
1690839231650974500,0.777974365234375,0.00028197094798088074,0.0004252924118191004,-0.01813279464840889
1690839231661015600,0.788015625,0.0006094467826187611,0.001135768834501505,-0.015524806454777718
1690839231671055600,0.7980556640625,0.0003276839852333069,0.00038475729525089264,-0.008364364504814148
1690839231681095700,0.808095703125,-0.00029916223138570786,-0.0008515531662851572,-0.0028547141700983047
1690839231691136500,0.818136474609375,-0.0008072936907410622,-0.0006640665233135223,0.0010287091135978699
1690839231701176600,0.828176513671875,0.0015220940113067627,-0.0019290333148092031,0.006617831997573376
1690839231711216600,0.838216552734375,-0.00017913337796926498,-0.002483503194525838,0.01079926174134016
1690839231721256400,0.84825634765625,-0.00010536238551139832,0.00023592403158545494,0.016250111162662506
1690839231731297500,0.858297607421875,0.00024963729083538055,0.0022274358198046684,0.017077555879950523
1690839231741368600,0.86836865234375,-0.00041199941188097,0.0022796904668211937,0.018698828294873238
1690839231751408600,0.87840869140625,0.0002141096629202366,0.0006602222565561533,0.015744850039482117
1690839231761448700,0.88844873046875,-0.0007452075369656086,0.0006968388333916664,0.015483120456337929
1690839231771488800,0.89848876953125,-0.00012975139543414116,-0.00017721066251397133,0.014363793656229973
1690839231781529600,0.908529541015625,-0.0009310916066169739,-0.0001842936035245657,0.011965591460466385
1690839231791569400,0.9185693359375,0.0021877363324165344,0.0004881545901298523,0.008457675576210022
1690839231801609500,0.928609375,0.0009338431991636753,-0.00203583762049675,0.004158807918429375
1690839231811649500,0.9386494140625,0.002238259185105562,0.001145308488048613,0.0005984287708997726
1690839231821690600,0.948690673828125,-0.0008204500190913677,0.00038559676613658667,-0.0015630777925252914
1690839231831730700,0.958730712890625,0.0021955796983093023,0.0005134284729138017,-0.007268369197845459
1690839231841770800,0.968770751953125,0.0011324931401759386,-0.0008392822928726673,-0.012731524184346199
1690839231851811600,0.9788115234375,-0.00021240301430225372,-0.00018813950009644032,-0.011677978560328484
1690839231861851400,0.988851318359375,0.00043499749153852463,-0.001322388183325529,-0.013668211176991463
1690839231871891500,0.998891357421875,0.001266702776774764,0.0005298403557389975,-0.013494307175278664
1690839231881931500,1.008931640625,-0.0005512111820280552,-0.0010348244104534388,-0.014961585402488708
1690839231891972600,1.01897265625,0.00006584310904145241,-0.001745888264849782,-0.011738628149032593
1690839231902043600,1.029043701171875,-0.0008387118577957153,-0.001005376921966672,-0.01015261746942997
1690839231912083700,1.039083740234375,-0.0005617430433630943,-0.0009417275432497263,-0.00883248820900917
1690839231922123800,1.049123779296875,-0.0015256819315254688,-0.0010205083526670933,-0.003984173759818077
1690839231932163600,1.05916357421875,-0.0004795924760401249,0.0000066729262471199036,0.00015251524746418
1690839231942204400,1.069204345703125,-0.001818900927901268,0.001705433358438313,0.0015538707375526428
1690839231952244500,1.079244384765625,-0.000497973058372736,-0.00037422915920615196,0.004735016264021397
1690839231962284500,1.089284423828125,0.0020403843373060226,0.0018189948750659823,0.007700514979660511
1690839231972325600,1.09932568359375,-0.0006286357529461384,0.003198512364178896,0.00799825694411993
1690839231982365700,1.10936572265625,0.0006203115917742252,0.0009205943206325173,0.008387703448534012
1690839231992405800,1.11940576171875,-0.000334431417286396,-0.0001180386170744896,0.009758432395756245
1690839232002445600,1.129445556640625,0.0015918943099677563,-0.0020991801284253597,0.008842878974974155
1690839232012486400,1.139486328125,-0.0003037438727915287,-0.001632860628888011,0.005664928816258907
1690839232022526500,1.1495263671875,-0.0017419704236090183,-0.0019076040480285883,0.005623484030365944
1690839232032566500,1.15956640625,0.00024661188945174217,0.0012477090349420905,0.004296164959669113
1690839232042607600,1.169607666015625,0.0011267056688666344,0.002166780875995755,0.003139415755867958
1690839232052647700,1.179647705078125,-0.0003819749690592289,0.0019486680394038558,0.002156974747776985
1690839232062718700,1.18971875,-0.0004885997623205185,0.003794322721660137,-0.0015954189002513885
1690839232072758800,1.1997587890625,-0.0005719568580389023,-0.001248639076948166,-0.0008731689304113388
1690839232082798600,1.209798583984375,-0.0008370690047740936,-0.0017080490943044424,-0.0017258767038583755
1690839232092838400,1.21983837890625,0.0012218209449201822,-0.002276101615279913,-0.0018632952123880386
1690839232102879500,1.22987939453125,-0.0019372673705220222,-0.005256074480712414,-0.0037838108837604523
1690839232112919600,1.23991943359375,-0.00033644121140241623,-0.005022781901061535,-0.001478312537074089
1690839232122959600,1.249959716796875,0.0011764734517782927,0.0009054901311174035,-0.004816144704818726
1690839232133000700,1.260000732421875,0.0005951053462922573,0.0036421543918550014,-0.0059597063809633255
1690839232143040800,1.270040771484375,0.001211256254464388,0.007369084283709526,-0.007358960807323456
1690839232153080600,1.28008056640625,0.00036783330142498016,0.00859653577208519,-0.006680121645331383
1690839232163120400,1.290120361328125,0.001463443972170353,0.004085716791450977,-0.01074710488319397
1690839232173161500,1.300161376953125,0.002043746877461672,0.003627919591963291,-0.007415223866701126
1690839232183201500,1.310201416015625,0.0017839036881923676,-0.0036027273163199425,-0.00504181906580925
1690839232193241600,1.32024169921875,-0.0003285156562924385,-0.012922459281980991,-0.0017165951430797577
1690839232203282700,1.33028271484375,-0.0010729515925049782,-0.01143895834684372,0.005396248772740364
1690839232213322800,1.34032275390625,-0.0000529605895280838,-0.00981469638645649,0.007766995579004288
1690839232223393800,1.350393798828125,-0.0012023826129734516,-0.0056020841002464294,0.009757806546986103
1690839232233433600,1.36043359375,-0.0014801505021750927,0.00519437063485384,0.010520270094275475
1690839232243473400,1.370473388671875,0.0010662227869033813,0.010283391922712326,0.01104515790939331
1690839232253514500,1.380514404296875,0.0016310792416334152,0.014921020716428757,0.00782726053148508
1690839232263554600,1.390554443359375,0.0002512829378247261,0.013178934343159199,0.006796835921704769
1690839232273594600,1.4005947265625,0.001813759794458747,0.007706937380135059,0.001187952235341072
1690839232283634700,1.410634765625,0.002121846191585064,-0.0007742855232208967,-0.001231364905834198
1690839232293675800,1.42067578125,-0.0005660825408995152,-0.00715069193392992,-0.003758171573281288
1690839232303715600,1.430715576171875,-0.0005473275668919086,-0.01345527358353138,-0.00355474092066288
1690839232313755400,1.44075537109375,-0.002308475784957409,-0.012015569023787975,-0.0023017246276140213
1690839232323795500,1.45079541015625,-0.0019940203055739403,-0.008843276649713516,-0.0011444445699453354
1690839232333831400,1.46083154296875,-0.0010403422638773918,-0.0002516533713787794,-0.0014384575188159943
1690839232343871200,1.470871337890625,0.0008849822916090488,0.006378818303346634,-0.0013705473393201828
1690839232353911300,1.480911376953125,0.0013688788749277592,0.010234011337161064,-0.0007510948926210403
1690839232363952400,1.490952392578125,0.003157677361741662,0.012604369781911373,-0.003300907090306282
1690839232373992400,1.500992431640625,0.001660714391618967,0.00916250143200159,-0.003377338871359825
1690839232384063500,1.5110634765625,0.0003495668061077595,0.00297393836081028,-0.002756170928478241
1690839232394103600,1.521103515625,-0.00012713903561234474,-0.003487689420580864,-0.0033926665782928467
1690839232404143400,1.531143310546875,-0.002038183156400919,-0.006724251434206963,-0.00160285085439682
1690839232414184400,1.541184326171875,-0.0013638706877827644,-0.00854212511330843,0.00011888332664966583
1690839232424224300,1.551224365234375,-0.00151778943836689,-0.006286008283495903,0.0013921856880187988
1690839232434264300,1.561264404296875,-0.0002493257634341717,-0.0010891151614487171,0.0007144119590520859
1690839232444304400,1.571304443359375,0.0009626536630094051,0.003829633817076683,0.004729538224637508
1690839232454345500,1.581345458984375,0.0014747795648872852,0.007635024841874838,0.004278132691979408
1690839232464385500,1.591385498046875,0.0022180029191076756,0.00844649039208889,0.0023976750671863556
1690839232474425600,1.601425537109375,0.0018233226146548986,0.008281107991933823,0.0023622550070285797
1690839232484466400,1.611466552734375,0.0005642636679112911,0.005112989339977503,0.0023230090737342834
1690839232494506200,1.62150634765625,0.000301409512758255,-0.004142028279602528,0.0037984009832143784
1690839232504546300,1.63154638671875,-0.0005742623470723629,-0.00900411419570446,0.00367741659283638
1690839232514586400,1.64158642578125,-0.0018339375965297222,-0.009934889152646065,0.003390062600374222
1690839232524627500,1.65162744140625,-0.0029821149073541164,-0.00979025661945343,0.0033904239535331726
1690839232534697500,1.661697509765625,-0.0017352234572172165,-0.003050594823434949,0.0014809370040893555
1690839232544738600,1.671738525390625,0.0006078360602259636,0.007132595404982567,-0.0031093545258045197
1690839232554778400,1.6817783203125,0.0025684551801532507,0.009184295311570168,-0.002081906422972679
1690839232564818400,1.691818359375,0.0023111719638109207,0.014935724437236786,-0.005281137302517891
1690839232574859300,1.701859375,0.0016064995434135199,0.009192085824906826,-0.0075807757675647736
1690839232584899300,1.7118994140625,0.0010045974049717188,0.003941317088901997,-0.005267329514026642
1690839232594939400,1.721939453125,0.000552925281226635,-0.005369893275201321,-0.0039948709309101105
1690839232604979500,1.7319794921875,-0.0009894375689327717,-0.010953686200082302,-0.0016564056277275085
1690839232615020500,1.7420205078125,-0.0016016983427107334,-0.014572922140359879,-0.002095559611916542
1690839232625060600,1.752060546875,-0.0022574723698198795,-0.01197656150907278,-0.0008561983704566956
1690839232635100400,1.762100341796875,-0.0020060697570443153,-0.0037085115909576416,-0.0005488693714141846
1690839232645141200,1.772141357421875,-0.0003186538815498352,0.005376109853386879,-0.000026697292923927307
1690839232655181300,1.782181396484375,0.002139976480975747,0.013336030766367912,-0.0013436302542686462
1690839232665221400,1.792221435546875,0.0032475218176841736,0.014824716374278069,-0.0014399122446775436
1690839232675261400,1.802261474609375,0.0012128667440265417,0.011093627661466599,-0.0016473736613988876
1690839232685302500,1.812302490234375,0.002296235179528594,0.006615662947297096,0.0016696732491254807
1690839232695373600,1.82237353515625,0.0018400356639176607,-0.0065099922940135,0.0017240010201931
1690839232705413400,1.832413330078125,-0.001921994611620903,-0.011297911405563354,0.004982743412256241
1690839232715453400,1.842453369140625,-0.0037233568727970123,-0.011065151542425156,0.006337760016322136
1690839232725493500,1.852493408203125,-0.002251839730888605,-0.01146865077316761,0.006992329843342304
1690839232735534300,1.862534423828125,-0.0004536733031272888,-0.005498908460140228,0.005535048432648182
1690839232745574400,1.872574462890625,-0.0004084915854036808,0.00036346109118312597,0.005138270556926727
1690839232755614500,1.882614501953125,-0.0004827934317290783,0.007843747735023499,0.0012039821594953537
1690839232765655600,1.892655517578125,0.0010080537758767605,0.010181976482272148,-0.0023548882454633713
1690839232775695600,1.902695556640625,0.0014690468087792397,0.0103063452988863,-0.006695576012134552
1690839232785735400,1.9127353515625,0.001551625318825245,0.005900894291698933,-0.006695490330457687
1690839232795775500,1.922775390625,0.001939115347340703,0.0007884238148108125,-0.009559985250234604
1690839232805816300,1.93281640625,-0.0007035089656710625,-0.0033789623994380236,-0.008237205445766449
1690839232815856400,1.9428564453125,-0.001080079935491085,-0.008074115961790085,-0.0060416944324970245
1690839232825896400,1.952896484375,-0.00303617212921381,-0.008926060982048512,-0.0027569513767957687
1690839232835936500,1.9629365234375,-0.00032826978713274,-0.008038163185119629,-0.000568099319934845
1690839232845977600,1.9729775390625,-0.00112060084939003,-0.0020115969236940145,0.0003595799207687378
1690839232856048400,1.98304833984375,-0.0001999461092054844,0.0014068364398553967,0.0015476159751415253
1690839232866088400,1.99308837890625,0.002175942063331604,0.007471729069948196,0.0033556893467903137
1690839232876128500,2.00312841796875,0.0007170625030994415,0.005436008796095848,0.0027389004826545715
1690839232886168600,2.01316845703125,0.0014892674516886473,0.006140414625406265,0.0034480541944503784
1690839232896209400,2.02320947265625,0.0004200083203613758,0.005602722521871328,0.002805965021252632
1690839232906249500,2.03324951171875,0.00027617858722805977,0.001697249710559845,0.005751597695052624
1690839232916289300,2.043289306640625,-0.00022076722234487534,-0.0026660733856260777,0.006062389351427555
1690839232926330400,2.053330322265625,0.000011200550943613052,-0.0019267885945737362,0.0044413842260837555
1690839232936370400,2.063370361328125,-0.00028414372354745865,-0.004018435254693031,0.006805739365518093
1690839232946410500,2.073410400390625,-0.00012261373922228813,-0.002981520490720868,0.0042099785059690475
1690839232956450600,2.083450439453125,0.0003295913338661194,-0.003764489898458123,0.005041150376200676
1690839232966491400,2.093491455078125,0.0012851681094616652,0.0021563011687248945,0.0016673728823661804
1690839232976531500,2.103531494140625,0.0022186061833053827,0.0012534895213320851,-0.0007534399628639221
1690839232986571500,2.113571533203125,0.000011885073035955429,-0.0009781618136912584,-0.005239533260464668
1690839232996612600,2.123612548828125,0.0007703532464802265,0.0020567765459418297,-0.006650209426879883
1690839233006652400,2.13365234375,-0.0014967736788094044,0.0008531516650691628,-0.008479254320263863
1690839233016723500,2.143723388671875,0.00000205356627702713,0.00237328396178782,-0.010667040944099426
1690839233026763500,2.153763427734375,0.00029555195942521095,0.0025889636017382145,-0.007653521373867989
1690839233036803600,2.163803466796875,0.0015546944923698902,0.001816646894440055,-0.009788844734430313
1690839233046843600,2.17384375,0.0014173327945172787,0.000016301404684782028,-0.005357794463634491
1690839233056884500,2.183884521484375,0.0014607422053813934,-0.0016601583920419216,-0.003582797944545746
1690839233066924300,2.19392431640625,-0.00040089432150125504,0.0004576857900246978,-0.004362205043435097
1690839233076964400,2.20396435546875,-0.0007609534077346325,0.004284914582967758,0.0012818332761526108
1690839233087005400,2.21400537109375,-0.0003995196893811226,0.0011936458759009838,0.006849353201687336
1690839233097045500,2.22404541015625,-0.0007587801665067673,-0.0056890277191996574,0.010247546248137951
1690839233107085600,2.23408544921875,-0.0009478935971856117,0.002492705127224326,0.017062541097402573
1690839233117125600,2.244125732421875,-0.0007257857359945774,-0.005387322045862675,0.01879945397377014
1690839233127166500,2.25416650390625,-0.0010778354480862617,-0.006513550877571106,0.019162006676197052
1690839233137206500,2.26420654296875,-0.0013550706207752228,-0.0018895044922828674,0.013996007852256298
1690839233147246300,2.274246337890625,-0.00007470883429050446,-0.0022878169547766447,0.006112357601523399
1690839233157287400,2.284287353515625,0.0001916075125336647,0.005933627486228943,0.0011791177093982697
1690839233167357400,2.294357421875,0.0007082875818014145,0.009295652620494366,-0.0030436739325523376
1690839233177398500,2.3043984375,0.0016624981071799994,0.014548471197485924,-0.008028844371438026
1690839233187438600,2.3144384765625,0.0042238240130245686,0.013001124374568462,-0.01061282679438591
1690839233197478700,2.324478759765625,0.0007995315827429295,0.003986057825386524,-0.00717947818338871
1690839233207519500,2.33451953125,0.0005829171277582645,-0.005732154473662376,-0.006255641579627991
1690839233217559300,2.344559326171875,-0.001634164247661829,-0.014772254973649979,-0.002737605944275856
1690839233227599400,2.354599365234375,-0.003169905859977007,-0.02122819423675537,-0.002716461196541786
1690839233237639400,2.364639404296875,-0.002326482906937599,-0.016780981793999672,-0.002323111519217491
1690839233247680500,2.374680419921875,0.0009483378380537033,-0.00729586835950613,-0.006753280758857727
1690839233257720600,2.384720458984375,0.000014899764209985733,0.0011812400771304965,-0.010213792324066162
1690839233267760600,2.3947607421875,0.001427775714546442,0.011449715122580528,-0.011939281597733498
1690839233277801500,2.404801513671875,0.0007606539875268936,0.015462832525372505,-0.01448286883533001
1690839233287841500,2.414841552734375,0.0017597367987036705,0.015003531239926815,-0.012674205005168915
1690839233297881300,2.42488134765625,0.0021347098518162966,0.011038883589208126,-0.009445920586585999
1690839233307921400,2.43492138671875,0.00022945506498217583,0.005079653114080429,-0.004231221973896027
1690839233317962500,2.44496240234375,0.001117086736485362,-0.0014102037530392408,0.0010668709874153137
1690839233328032500,2.455032470703125,-0.0011142781004309654,-0.009537535719573498,0.005401746369898319
1690839233338075600,2.46507568359375,-0.0013270643539726734,-0.011364731006324291,0.00910407304763794
1690839233348115700,2.47511572265625,-0.0015492117963731289,-0.012052223086357117,0.008608279749751091
1690839233358155500,2.485155517578125,-0.002798766829073429,-0.008242838084697723,0.011196073144674301
1690839233368196600,2.495196533203125,-0.0027242018841207027,-0.0022217470686882734,0.009192929603159428
1690839233378236400,2.505236328125,0.0000936887226998806,0.0038537222426384687,0.011257678270339966
1690839233388276500,2.5152763671875,0.00035167066380381584,0.011535845696926117,0.01070853415876627
1690839233398316500,2.525316650390625,0.0033828807063400745,0.014940963126718998,0.013174887746572495
1690839233408357600,2.535357666015625,0.0026848847046494484,0.012553882785141468,0.014426641166210175
1690839233418397700,2.545397705078125,0.0025661077816039324,0.007119436748325825,0.01655690371990204
1690839233428437500,2.5554375,-0.0008908319287002087,0.000262595945969224,0.011592504568397999
1690839233438478600,2.565478515625,-0.0022612945176661015,-0.008898944593966007,0.006931173615157604
1690839233448518400,2.575518310546875,-0.0018954775296151638,-0.009530741721391678,0.002117890864610672
1690839233458558500,2.585558349609375,-0.00181238679215312,-0.012907629832625389,-0.0041432008147239685
1690839233468598500,2.5955986328125,-0.001405967865139246,-0.012003804557025433,-0.011960027739405632
1690839233478639600,2.6056396484375,-0.0007108831778168678,-0.0031940673943609,-0.01754707284271717
1690839233488709600,2.615709716796875,-0.0007676184177398682,0.00236211228184402,-0.018936887383461
1690839233498750700,2.625750732421875,0.002585301175713539,0.010655196383595467,-0.02092760056257248
1690839233508790500,2.63579052734375,0.0017536571249365807,0.01196559052914381,-0.017167236655950546
1690839233518830600,2.64583056640625,0.002010918455198407,0.013133653439581394,-0.014407139271497726
1690839233528871400,2.655871337890625,0.0010417131707072258,0.008083965629339218,-0.010027365759015083
1690839233538911500,2.665911376953125,0.00047099776566028595,0.0017810617573559284,-0.005008639767765999
1690839233548951600,2.67595166015625,-0.0007518860511481762,-0.0026047329884022474,-0.001722661778330803
1690839233558991600,2.68599169921875,-0.000996896531432867,-0.007779521867632866,0.002670755609869957
1690839233569032700,2.69603271484375,-0.0006741904653608799,-0.008295197039842606,0.003482319414615631
1690839233579072500,2.706072509765625,0.0007047941908240318,-0.009515723213553429,0.0052754245698452
1690839233589112600,2.716112548828125,0.0004574153572320938,-0.005648625083267689,0.008196644484996796
1690839233599153400,2.7261533203125,-0.00010158214718103409,-0.002883465029299259,0.0068536121398210526
1690839233609193500,2.736193359375,0.00042174942791461945,0.0008081578416749835,0.009682241827249527
1690839233619233500,2.746233642578125,-0.000018471386283636093,0.005113690160214901,0.009526712819933891
1690839233629273600,2.756273681640625,0.0015884698368608952,0.010217662900686264,0.00959178525954485
1690839233639314700,2.766314697265625,0.001505112973973155,0.010529518127441406,0.012137500569224358
1690839233649385500,2.776385498046875,0.001701664412394166,0.007056732662022114,0.01101968064904213
1690839233659425500,2.786425537109375,0.0006302748806774616,0.0026635820977389812,0.009393821470439434
1690839233669465600,2.796465576171875,0.0006084367632865906,-0.00000863359309732914,0.006883791647851467
1690839233679505700,2.806505615234375,-0.0006621573120355606,-0.005683030933141708,0.0023910384625196457
1690839233689546500,2.81654638671875,-0.0008930927142500877,-0.009820680133998394,-0.0030603576451539993
1690839233699586600,2.826586669921875,-0.0003114580176770687,-0.0076829614117741585,-0.005481172353029251
1690839233709626600,2.836626708984375,-0.0007337247952818871,-0.005264017730951309,-0.006699247285723686
1690839233719667700,2.846667724609375,0.0004029124975204468,0.00016350438818335533,-0.008511528372764587
1690839233729707500,2.85670751953125,0.0005626305937767029,0.0026111179031431675,-0.00985763780772686
1690839233739747600,2.86674755859375,0.0008739540353417397,0.004933128133416176,-0.009087450802326202
1690839233749787600,2.87678759765625,-0.00004964042454957962,0.007029326166957617,-0.008574435487389565
1690839233759828500,2.886828369140625,0.0006774025969207287,0.009033354930579662,-0.0047211069613695145
1690839233769868500,2.89686865234375,-0.0007281634025275707,0.008457723073661327,-0.005223039537668228
1690839233779908600,2.90690869140625,0.0006572133861482143,0.004094932693988085,-0.0024211276322603226
1690839233789948400,2.916948486328125,-0.0002845311537384987,-0.0027183759957551956,-0.0015061404556035995
1690839233800019500,2.92701953125,0.0011341345962136984,-0.005868362728506327,-0.0006829556077718735
1690839233810060500,2.937060546875,-0.0019639688543975353,-0.011661140248179436,-0.0012822560966014862
1690839233820100600,2.9471005859375,-0.00009842449799180031,-0.010325565002858639,0.0013452190905809402
1690839233830140700,2.957140625,-0.000882656779140234,-0.008384035900235176,0.0028338339179754257
1690839233840180700,2.9671806640625,-0.00043524568900465965,-0.0017434433102607727,0.0047150906175374985
1690839233850221600,2.9772216796875,0.0017002592794597149,0.005325627978891134,0.004702480509877205
1690839233860261600,2.98726171875,0.0007380591705441475,0.009645807556807995,0.0066742850467562675
1690839233870301400,2.997301513671875,0.0030872542411088943,0.011470753699541092,0.00799394492059946
1690839233880342500,3.007342529296875,0.0010608548764139414,0.01032000221312046,0.006549445912241936
1690839233890382600,3.017382568359375,0.0022574923932552338,0.004688649903982878,0.005240355618298054
1690839233900422700,3.027422607421875,-0.0001236400566995144,-0.005503534339368343,0.005425178445875645
1690839233910462700,3.037462646484375,-0.0016160979866981506,-0.009155502542853355,0.0019911229610443115
1690839233920503600,3.047503662109375,-0.0013069049455225468,-0.012216007336974144,0.0015064291656017303
1690839233930543600,3.057543701171875,0.0003777928650379181,-0.011201899498701096,0.001261858269572258
1690839233940583400,3.06758349609375,-0.0013633817434310913,-0.006766404956579208,-0.0007746610790491104
1690839233950624500,3.07762451171875,0.00005248980596661568,-0.002747428370639682,-0.0034878887236118317
1690839233960694500,3.087694580078125,0.0006754030473530293,0.005242587067186832,-0.0042354390025138855
1690839233970735600,3.097735595703125,0.0024452386423945427,0.010898608714342117,-0.0031747017055749893
1690839233980775700,3.107775634765625,0.00031790556386113167,0.010069833137094975,-0.004666604101657867
1690839233990815700,3.117815673828125,0.0013384220656007528,0.006757417228072882,-0.005018582567572594
1690839234000855800,3.127855712890625,0.0001788814552128315,0.0035994411446154118,-0.005931248888373375
1690839234010896600,3.137896728515625,0.0010640285909175873,-0.000861781882122159,-0.0033422987908124924
1690839234020936400,3.1479365234375,-0.0010981918312609196,-0.005682369694113731,-0.0012434609234333038
1690839234030976500,3.1579765625,-0.0011693905107676983,-0.0041095842607319355,-0.0015278887003660202
1690839234041017600,3.168017578125,-0.0007326323539018631,-0.008137615397572517,0.00004843622446060181
1690839234051057700,3.1780576171875,-0.0019617844372987747,-0.005110790953040123,0.0020797085016965866
1690839234061097700,3.18809765625,-0.0005971807986497879,-0.002867876784875989,0.0018605291843414307
1690839234071137800,3.1981376953125,0.0010480706114321947,0.003052789717912674,0.00416947528719902
1690839234081178600,3.2081787109375,0.0006587165407836437,0.006836608983576298,0.003301285207271576
1690839234091218400,3.218218505859375,0.001406446099281311,0.008166616782546043,0.002727201208472252
1690839234101258500,3.228258544921875,-0.0006058383733034134,0.006623847875744104,0.0016124024987220764
1690839234111299600,3.238299560546875,0.0005500102415680885,0.002285679569467902,0.0025500301271677017
1690839234121369600,3.24836962890625,0.0003188475966453552,-0.00006802217103540897,0.002556953579187393
1690839234131410700,3.25841064453125,-0.0005563842132687569,-0.003895629197359085,0.0006866194307804108
1690839234141450800,3.26845068359375,-0.0016938205808401108,-0.006024559959769249,0.002560153603553772
1690839234151490600,3.278490478515625,-0.0014644162729382515,-0.004322771914303303,-0.0015380997210741043
1690839234161531600,3.28853173828125,0.00043521681800484657,-0.004773112013936043,-0.0034624990075826645
1690839234171571500,3.298571533203125,0.0009570068214088678,-0.0017833402380347252,-0.004811655730009079
1690839234181611500,3.308611572265625,0.001177250174805522,0.003977343440055847,-0.0031706150621175766
1690839234191651600,3.318651611328125,0.0012051924131810665,0.005235275253653526,-0.0024009812623262405
1690839234201692700,3.328692626953125,0.0009378108661621809,0.0041111549362540245,0.0006075911223888397
1690839234211732700,3.338732666015625,-0.0000324007123708725,0.004267264157533646,0.0014629196375608444
1690839234221772500,3.3487724609375,-0.00023879576474428177,0.0009010287467390299,-0.00036560557782649994
1690839234231813600,3.358813720703125,-0.0017645806074142456,-0.00230798264965415,0.00024382397532463074
1690839234241853400,3.368853515625,-0.0005488474853336811,-0.00284940330311656,0.0004643332213163376
1690839234251893500,3.3788935546875,-0.000023723579943180084,-0.003501160768792033,-0.0032022222876548767
1690839234261933600,3.38893359375,-0.0007220045663416386,-0.002748285187408328,-0.004351908341050148
1690839234271974700,3.398974609375,0.001449361676350236,-0.0006565295625478029,-0.0049804095178842545
1690839234282044700,3.409044677734375,0.0007159272208809853,0.0005051412153989077,-0.0008583702147006989
1690839234292085800,3.419085693359375,-0.00017150258645415306,-0.00032957131043076515,0.0020213034003973007
1690839234302125600,3.42912548828125,0.0005747154355049133,-0.0002632585819810629,0.007194759324193001
1690839234312165400,3.439165283203125,-0.0016369977965950966,-0.0006023736204952002,0.011409105733036995
1690839234322206500,3.44920654296875,-0.0021406016312539577,0.00016967684496194124,0.014003558084368706
1690839234332246500,3.45924658203125,0.0007795626297593117,0.0021280203945934772,0.008063572458922863
1690839234342269700,3.469269775390625,0.0009332268964499235,-0.0008600463625043631,0.0025492310523986816
1690839234352309500,3.4793095703125,-0.00031767459586262703,0.00008138804696500301,-0.005217317491769791
1690839234362350300,3.489350341796875,-0.0007038330659270287,0.0005980413407087326,-0.012583620846271515
1690839234372390400,3.499390380859375,0.0021989198867231607,0.0031553846783936024,-0.016272837296128273
1690839234382430500,3.509430419921875,-0.0018954239785671234,-0.0013141985982656479,-0.017199350520968437
1690839234392471600,3.519471435546875,-0.0007456159219145775,-0.004012598656117916,-0.012100139632821083
1690839234402511600,3.52951171875,-0.0016353782266378403,-0.002432545181363821,-0.0084121935069561
1690839234412551700,3.5395517578125,-0.000631171278655529,-0.0033715057652443647,0.0012995749711990356
1690839234422591700,3.549591796875,0.0004170490428805351,0.0009135204600170255,0.007403806783258915
1690839234432662500,3.55966259765625,-0.0009662583470344543,0.0019238597014918923,0.010450123809278011
1690839234442702600,3.56970263671875,0.000890497351065278,0.004116173833608627,0.011988632380962372
1690839234452743400,3.579743408203125,0.0009428123012185097,0.002175742294639349,0.008143913932144642
1690839234462783500,3.589783447265625,-0.0008217981085181236,0.0013283243170008063,0.006531103514134884
1690839234472823600,3.599823486328125,0.0001593208871781826,-0.00015244446694850922,0.0017252489924430847
1690839234482864600,3.60986474609375,0.0006235097534954548,-0.001808397937566042,-0.0006316490471363068
1690839234492904700,3.61990478515625,-0.0001687426120042801,-0.0011794969905167818,-0.0029018111526966095
1690839234502944500,3.629944580078125,0.0011063788551837206,-0.0032226741313934326,-0.0016229618340730667
1690839234512984600,3.639984619140625,0.0002615065313875675,-0.0015956130810081959,-0.0012813806533813477
1690839234523025400,3.650025390625,-0.0015358608216047287,-0.0014933475758880377,0.0009655281901359558
1690839234533065500,3.6600654296875,-0.0004828055389225483,0.0012341649271547794,0.004234911873936653
1690839234543105500,3.67010546875,0.0006839255802333355,0.0008759698830544949,0.00349295511841774
1690839234553146600,3.680146728515625,0.0007615587674081326,0.0026890498120337725,0.0007291268557310104
1690839234563186700,3.690186767578125,0.0005655498243868351,0.0030112923122942448,-0.0016653221100568771
1690839234573226500,3.7002265625,-0.00019896496087312698,-0.00011290982365608215,-0.003744106739759445
1690839234583266600,3.7102666015625,0.0010844122152775526,-0.0031755450181663036,-0.006089286878705025
1690839234593337600,3.720337646484375,0.00034873979166150093,-0.0014856960624456406,-0.007499415427446365
1690839234603378400,3.73037841796875,-0.000035554636269807816,-0.0013964802492409945,-0.006236279383301735
1690839234613418500,3.74041845703125,-0.0006537316367030144,0.003346802666783333,-0.004783539101481438
1690839234623458600,3.75045849609375,0.0009929006919264793,0.00003436300903558731,-0.001205049455165863
1690839234633498600,3.76049853515625,-0.0004595317877829075,0.0008172885281965137,0.0018538851290941238
1690839234643539700,3.770539794921875,-0.0007314407266676426,0.0014407344860956073,0.004566846415400505
1690839234653579500,3.78057958984375,0.001982923597097397,-0.0003409450873732567,0.005204317159950733
1690839234663619600,3.79061962890625,0.0001538642682135105,0.0005059401737526059,0.0044160205870866776
1690839234673660400,3.800660400390625,0.0005125938914716244,0.0004999088123440742,0.0024118833243846893
1690839234683700500,3.810700439453125,0.001921406015753746,-0.0009877330157905817,0.0014430247247219086
1690839234693740500,3.820740478515625,0.0008191103115677834,-0.0008250137325376272,0.0008086599409580231
1690839234703780600,3.830780517578125,0.0007192417979240417,0.00024264748208224773,-0.004844432696700096
1690839234713821700,3.84082177734375,0.00023693591356277466,-0.0012987423688173294,-0.000795440748333931
1690839234723861500,3.850861572265625,-0.0005004932172596455,0.0001878342591226101,0.001062646508216858
1690839234733901600,3.860901611328125,-0.0005981600843369961,0.0006530632963404059,0.000651894137263298
1690839234743942400,3.8709423828125,0.000677760224789381,0.0004519945941865444,0.0024047866463661194
1690839234754012700,3.8810126953125,-0.00016892747953534126,0.0015670211287215352,0.0006793420761823654
1690839234764053500,3.891053466796875,0.0011085907462984324,0.002714577130973339,0.0014410056173801422
1690839234774093600,3.901093505859375,-0.0013943128287792206,-0.003782697720453143,-0.0010658446699380875
1690839234784133600,3.911133544921875,-0.00040548108518123627,-0.00378003460355103,-0.0035303328186273575
1690839234794173400,3.92117333984375,0.0007799291051924229,-0.0014114670921117067,-0.004455437883734703
1690839234804214500,3.931214599609375,0.0007042954675853252,-0.0021092151291668415,-0.0037105511873960495
1690839234814254600,3.941254638671875,0.0009360411204397678,-0.0013197343796491623,-0.0029886364936828613
1690839234824294700,3.951294677734375,0.00046253111213445663,0.003179143648594618,-0.0035124793648719788
1690839234834335500,3.96133544921875,0.0017411792650818825,0.001640297006815672,-0.0002892669290304184
1690839234844375600,3.97137548828125,0.0007177265360951424,0.0031148893758654594,0.0022354107350111008
1690839234854415600,3.98141552734375,0.0007409919053316116,0.004467557184398174,0.00533524714410305
1690839234864455400,3.991455322265625,0.0006432537920773029,0.001272829482331872,0.0027019139379262924
1690839234874496500,4.00149658203125,0.00026334263384342194,-0.00019023730419576168,0.0026550497859716415
1690839234884536600,4.01153662109375,-0.0012714373879134655,-0.0019857403822243214,0.0008065495640039444
1690839234894576600,4.02157666015625,-0.000895980279892683,-0.0026331718545407057,0.0005183331668376923
1690839234904647700,4.031647705078125,-0.00030049774795770645,-0.003580990945920348,-0.0013594627380371094
1690839234914687700,4.041687744140625,-0.0008643036708235741,-0.0021172729320824146,-0.002907630056142807
1690839234924728600,4.051728515625,0.0008233413100242615,0.0007147324504330754,-0.002030918374657631
1690839234934768600,4.0617685546875,0.00043146172538399696,0.0008994309464469552,-0.00003351084887981415
1690839234944808400,4.071808349609375,-0.0009802798740565777,0.0012831924250349402,0.0013630520552396774
1690839234954848500,4.0818486328125,0.0008784597739577293,0.0016139091458171606,0.0022446364164352417
1690839234964889600,4.0918896484375,0.0007788576185703278,0.004056294448673725,0.003283802419900894
1690839234974929700,4.1019296875,-0.0012825662270188332,0.00398195069283247,0.004168791696429253
1690839234984969700,4.1119697265625,-0.00045485561713576317,0.00061944336630404,0.003944287076592445
1690839234995010600,4.122010498046875,-0.0004936861805617809,-0.001279544085264206,-0.0006075967103242874
1690839235005050600,4.132050537109375,-0.001793042290955782,-0.005104908719658852,-0.0011863019317388535
1690839235015090400,4.14209033203125,-0.0011403760872781277,0.000011097872629761696,-0.002461414784193039
1690839235025130500,4.152130615234375,0.0003999960608780384,-0.002329820767045021,-0.002360748127102852
1690839235035171600,4.162171630859375,0.0008735209703445435,0.0008639629231765866,-0.000951690599322319
1690839235045211600,4.172211669921875,-0.0007640565745532513,0.0011619706638157368,-0.0007346421480178833
1690839235055251700,4.182251708984375,-0.000049301888793706894,0.0028327233158051968,-0.00006240606307983398
1690839235065322800,4.19232275390625,-0.0008964533917605877,0.0042002564296126366,0.0010555889457464218
1690839235075362600,4.202362548828125,-0.0006291582249104977,0.0007486959220841527,0.002724725753068924
1690839235085403600,4.212403564453125,-0.0006438056007027626,-0.000056910328567028046,0.00149594247341156
1690839235095443500,4.222443359375,-0.0008599720895290375,-0.00004094140604138374,-0.0004944074898958206
1690839235105483500,4.2324833984375,-0.001493537798523903,-0.0025749392807483673,-0.0015327725559473038
1690839235115524600,4.242524658203125,-0.003932852763682604,-0.002597033279016614,-0.0025427397340536118
1690839235125564700,4.252564697265625,-0.001728287898004055,-0.0010385513305664062,-0.00045961514115333557
1690839235135604700,4.262604736328125,0.000633882824331522,0.00008602836169302464,-0.0017629824578762054
1690839235145644500,4.27264453125,0.00016223685815930367,0.0007800481980666518,-0.002153933048248291
1690839235155685600,4.282685546875,0.00021449849009513855,0.004069761838763952,-0.0020525865256786346
1690839235165725400,4.292725341796875,0.0010920101776719093,0.005804544780403376,0.0008145719766616821
1690839235175765500,4.302765625,0.0006125085055828094,0.003031655214726925,0.0015477072447538376
1690839235185806600,4.312806640625,-0.00033744098618626595,0.0010286916512995958,0.0011647455394268036
1690839235195846700,4.3228466796875,-0.00048026908189058304,-0.0004148157313466072,0.0010398346930742264
1690839235205886700,4.33288671875,-0.0005164877511560917,-0.001960514346137643,0.00038070231676101685
1690839235215926500,4.342926513671875,-0.0003758873790502548,-0.002096312353387475,0.0003022328019142151
1690839235225997600,4.35299755859375,-0.0005303509533405304,-0.0035245653707534075,-0.002234162762761116
1690839235236037400,4.363037353515625,-0.00009767245501279831,-0.00201498344540596,-0.001308618113398552
1690839235246078500,4.373078369140625,-0.0005168537609279156,0.0008681549225002527,-0.0012130104005336761
1690839235256118500,4.383118408203125,0.00024259835481643677,0.0035010473802685738,0.000163370743393898
1690839235266158600,4.39315869140625,0.0010982719250023365,0.001946027623489499,0.00017402321100234985
1690839235276199700,4.40319970703125,-0.0006240480579435825,0.0017682785401120782,0.0033467616885900497
1690839235286239700,4.41323974609375,0.0011112676002085209,0.0023563045542687178,0.0032905694097280502
1690839235296279600,4.423279541015625,0.0008658985607326031,0.0008985677268356085,0.0009445920586585999
1690839235306319400,4.4333193359375,-0.0009676874615252018,0.0004676682874560356,0.002607736736536026
1690839235316360400,4.4433603515625,-0.000638084951788187,-0.0012982739135622978,0.000013284385204315186
1690839235326400500,4.453400390625,-0.001965937204658985,-0.0011691106483340263,-0.0014237575232982635
1690839235336442000,4.463442138671875,0.00008329981938004494,-0.001617981819435954,-0.0013222061097621918
1690839235346483200,4.473483154296875,-0.00031271204352378845,0.0012979131424799562,-0.0008268579840660095
1690839235356523300,4.483523193359375,0.0006561744958162308,-0.0001224882435053587,-0.0041196756064891815
1690839235366563300,4.493563232421875,0.000816230196505785,0.0010021646739915013,-0.001147586852312088
1690839235376603400,4.503603271484375,-0.0007233265787363052,0.0009336905786767602,-0.0009638629853725433
1690839235386674400,4.51367431640625,0.0019893692806363106,0.0018993527628481388,-0.0003209766000509262
1690839235396715500,4.523715576171875,-0.00018796324729919434,0.00435602106153965,0.0016584042459726334
1690839235406755300,4.53375537109375,0.0008488055318593979,0.0010462444042786956,0.00121392123401165
1690839235416795100,4.543795166015625,-0.0012782653793692589,0.00014726491644978523,-0.0016595367342233658
1690839235426835200,4.553835205078125,0.0007659769617021084,-0.0018445129971951246,0.001427067443728447
1690839235436876300,4.563876220703125,-0.00009716302156448364,-0.0027183759957551956,-0.001290690153837204
1690839235446916400,4.573916259765625,0.0013822228647768497,-0.0013692185748368502,-0.0019508879631757736
1690839235456956400,4.583956298828125,-0.00029029790312051773,0.001095322659239173,-0.0013035126030445099
1690839235466996500,4.59399658203125,-0.0001656622625887394,0.00040716188959777355,-0.0002672765403985977
1690839235477037300,4.604037353515625,0.0003892299719154835,-0.0004324638284742832,-0.0007303804159164429
1690839235487077000,4.6140771484375,0.0028944658115506172,0.0010812769178301096,-0.000053938478231430054
1690839235497117200,4.6241171875,0.0020903674885630608,0.0022845643106848,0.0022499747574329376
1690839235507158300,4.634158203125,0.0002000555396080017,0.0013428705278784037,0.002140786498785019
1690839235517198300,4.6441982421875,-0.0019568996503949165,0.00292840413749218,0.0014132186770439148
1690839235527238400,4.65423828125,0.001691364450380206,-0.000041286926716566086,0.0007554180920124054
1690839235537309400,4.664309326171875,0.0017835136968642473,-0.00030108564533293247,-0.0014286339282989502
1690839235547349200,4.674349365234375,0.00004420289769768715,-0.0013394523411989212,-0.0013545975089073181
1690839235557390300,4.684390380859375,-0.00045714108273386955,-0.0006823372095823288,-0.0001469012349843979
1690839235567430100,4.69443017578125,0.00003980472683906555,0.00016987428534775972,0.00043686479330062866
1690839235577470200,4.70447021484375,-0.0007264949381351471,0.003119488712400198,0.0009142272174358368
1690839235587510300,4.71451025390625,0.0013023011852055788,0.0021064223255962133,0.0012569762766361237
1690839235597551400,4.72455126953125,0.00041868723928928375,0.000632096198387444,0.00042895786464214325
1690839235607591400,4.73459130859375,0.0008357381448149681,0.0019010924734175205,0.00027902238070964813
1690839235617631500,4.744631591796875,-0.0003148326650261879,0.0021562124602496624,0.0012216512113809586
1690839235627672300,4.75467236328125,0.001857241615653038,0.0001335416454821825,0.00039607100188732147
1690839235637712100,4.764712158203125,-0.0009560026228427887,-0.00020669307559728622,-0.0009239856153726578
1690839235647752200,4.774752197265625,0.0000024689361453056335,0.03994046151638031,-0.012825651094317436
1690839235657792300,4.784792236328125,0.05280793085694313,-0.4501948654651642,0.1381082981824875
1690839235667833300,4.794833251953125,0.003913357853889465,-0.12091631442308426,0.041372962296009064
1690839235677873400,4.804873291015625,0.003888253355398774,-0.01404890138655901,0.008662423118948936
1690839235687913500,4.81491357421875,-0.01142785232514143,0.00859755463898182,0.0034820418804883957
1690839235697984300,4.824984375,-0.027156995609402657,0.06587011367082596,0.0035353917628526688
1690839235708024300,4.8350244140625,-0.024432048201560974,-0.058706436306238174,-0.0112033411860466
1690839235718065200,4.845065185546875,-0.014334623701870441,-0.015890920534729958,-0.042268767952919006
1690839235728105200,4.855105224609375,-0.0027741077356040478,-0.01693461276590824,-0.052500106394290924
1690839235738145300,4.865145263671875,0.010985637083649635,0.0068189422599971294,-0.058287858963012695
1690839235748185300,4.875185302734375,0.02160445787012577,0.019396252930164337,-0.05272877216339111
1690839235758226400,4.885226318359375,0.022641770541667938,0.030030498281121254,-0.045751653611660004
1690839235768266200,4.895266357421875,0.013129225000739098,0.028056563809514046,-0.03778400272130966
1690839235778306300,4.905306396484375,0.001692044548690319,0.020570877939462662,-0.02668902464210987
1690839235788347100,4.91534716796875,-0.007571228314191103,0.0024938720744103193,-0.013885611668229103
1690839235798387200,4.92538720703125,-0.014074668288230896,-0.010401953011751175,-0.0006201397627592087
1690839235808427300,4.93542724609375,-0.01319902203977108,-0.022260742262005806,0.01182987168431282
1690839235818467300,4.94546728515625,-0.007493388839066029,-0.025003688409924507,0.021853065118193626
1690839235828508400,4.95550830078125,-0.00198144419118762,-0.01701127551496029,0.0294494666159153
1690839235838548500,4.965548583984375,0.005699262022972107,-0.008524062111973763,0.03616221249103546
1690839235848588300,4.97558837890625,0.0076582832261919975,0.0043917372822761536,0.04001820832490921
1690839235858659300,4.985659423828125,0.007411428727209568,0.013832062482833862,0.041434288024902344
1690839235868699400,4.995699462890625,0.004408980719745159,0.018252909183502197,0.03997541218996048
1690839235878740200,5.005740234375,-0.0013897339813411236,0.018056783825159073,0.039303019642829895
1690839235888780300,5.0157802734375,-0.00534053286537528,0.009938670322299004,0.03366909921169281
1690839235898820400,5.0258203125,-0.005003931000828743,-0.0006582674104720354,0.030146464705467224
1690839235908861400,5.035861328125,-0.003936802037060261,-0.008489824831485748,0.021377740427851677
1690839235918901200,5.0459013671875,-0.0011815777979791164,-0.012488901615142822,0.014116308651864529
1690839235928941300,5.05594140625,0.0012099409941583872,-0.014469761401414871,0.0034602023661136627
1690839235938981400,5.0659814453125,0.002652339404448867,-0.009693454951047897,-0.005996691063046455
1690839235949022200,5.076022216796875,0.003687510034069419,0.00035651540383696556,-0.012988818809390068
1690839235959062300,5.086062255859375,0.0022599773947149515,0.005477712489664555,-0.02145429141819477
1690839235969102300,5.096102294921875,-0.001137949526309967,0.011752385646104813,-0.02787277288734913
1690839235979142400,5.106142333984375,-0.0011773165315389633,0.00958337727934122,-0.03127647191286087
1690839235989183500,5.11618359375,-0.002349640242755413,0.008551402017474174,-0.029881777241826057
1690839235999223300,5.126223388671875,-0.0014983690343797207,0.0016410149401053786,-0.03034682758152485
1690839236009294300,5.13629443359375,-0.000350812915712595,-0.006564184557646513,-0.030248822644352913
1690839236019334400,5.14633447265625,0.00036811595782637596,-0.008882182650268078,-0.0257477518171072
1690839236029374500,5.15637451171875,-0.0006207157857716084,-0.009697642177343369,-0.021480033174157143
1690839236039415300,5.166415283203125,0.0008878014050424099,-0.005250934511423111,-0.014596963301301003
1690839236049455400,5.176455322265625,0.00003612274304032326,-0.002578719286248088,-0.011815560981631279
1690839236059495200,5.1864951171875,-0.000964263454079628,0.0006961425533518195,-0.004328744485974312
1690839236069536300,5.196536376953125,-0.001503553707152605,0.002639184705913067,-0.00028526782989501953
1690839236079576300,5.206576416015625,0.0005658254958689213,0.007041151635348797,0.006052121520042419
1690839236089616400,5.216616455078125,0.0013341472949832678,0.005778546445071697,0.01225222647190094
1690839236099656400,5.226656494140625,0.0005364581011235714,0.003401307389140129,0.0182186346501112
1690839236109697300,5.236697265625,0.0013196936342865229,0.0012872901279479265,0.021998459473252296
1690839236119737300,5.2467373046875,0.0009305656421929598,-0.0024255879689007998,0.024337876588106155
1690839236129777400,5.25677734375,0.0009326962754130363,-0.004279680550098419,0.024230284616351128
1690839236139818500,5.266818603515625,-0.001066518947482109,-0.0015467957127839327,0.021915284916758537
1690839236149858300,5.2768583984375,0.00028290506452322006,0.00011927774176001549,0.019548799842596054
1690839236159898400,5.2868984375,-0.00020626699551939964,0.0015556656289845705,0.015835624188184738
1690839236169969400,5.296969482421875,-0.0008145328611135483,0.001664056209847331,0.010285064578056335
1690839236180009500,5.307009521484375,0.0007532392628490925,0.0026058212388306856,0.007783836685121059
1690839236190049500,5.317049560546875,0.0021245009265840054,0.0008792938897386193,0.0027318205684423447
1690839236200090400,5.32709033203125,0.0012606659438461065,0.0005584399914368987,0.0009495764970779419
1690839236210130200,5.337130126953125,0.0018103423062711954,-0.001689800526946783,-0.0032696686685085297
1690839236220170200,5.347170166015625,0.00037194695323705673,0.00004129880107939243,-0.007864227518439293
1690839236230211300,5.35721142578125,-0.0004491051658987999,-0.0023725905921310186,-0.011551639065146446
1690839236240251400,5.36725146484375,-0.0007016360759735107,-0.0008379356004297733,-0.011889023706316948
1690839236250291500,5.37729150390625,-0.0016699614934623241,0.0010433212155476213,-0.017459025606513023
1690839236260331500,5.38733154296875,-0.0003257002681493759,0.0007750749355182052,-0.018033867701888084
1690839236270372400,5.397372314453125,0.0019094906747341156,0.0020254289265722036,-0.0177632886916399
1690839236280412400,5.407412353515625,0.00024380721151828766,-0.0004249273333698511,-0.01671725884079933
1690839236290452200,5.4174521484375,0.0007458128966391087,0.000688274041749537,-0.012961667031049728
1690839236300493300,5.427493408203125,0.0003872709348797798,-0.001057497225701809,-0.00946633517742157
1690839236310533400,5.437533447265625,0.0000045746564865112305,-0.003794161370024085,-0.006525939330458641
1690839236320573400,5.447573486328125,-0.00010404223576188087,-0.0013878317549824715,-0.0020138397812843323
1690839236330644500,5.45764453125,-0.0011506644077599049,0.0008817141642794013,0.0015065930783748627
1690839236340667100,5.467667236328125,-0.0014659524895250797,0.0010297138942405581,0.0032717250287532806
1690839236350708200,5.477708251953125,-0.0002856394276022911,-0.00026884349063038826,0.005882687866687775
1690839236360748300,5.487748291015625,-0.0019337516278028488,-0.0005559101700782776,0.007464606314897537
1690839236370788000,5.4977880859375,-0.0004266686737537384,0.0020198991987854242,0.00991791021078825
1690839236380828200,5.507828125,0.0006294022314250469,0.0016217832453548908,0.008498895913362503
1690839236390869200,5.517869140625,0.0021521977614611387,0.0014028714504092932,0.009238455444574356
1690839236400909300,5.527909423828125,-0.0008424753323197365,0.0037415409460663795,0.013591721653938293
1690839236410949000,5.53794921875,-0.00008933339267969131,0.0008847680874168873,0.012152283452451229
1690839236420989200,5.5479892578125,-0.0011117723770439625,-0.00008157454431056976,0.008530853316187859
1690839236431030300,5.5580302734375,-0.00004517659544944763,0.0010531983571127057,0.006094859912991524
1690839236441070000,5.568070068359375,-0.0002882922999560833,0.0031024296768009663,0.006084993481636047
1690839236451110100,5.578110107421875,0.000438484363257885,-0.00026993127539753914,0.001254284754395485
1690839236461151200,5.588151123046875,0.0017469702288508415,-0.0005571788642555475,-0.00011551752686500549
1690839236471191000,5.59819091796875,0.0005232477560639381,-0.0006136377342045307,-0.004136890172958374
1690839236481231000,5.608231201171875,0.002523739356547594,0.0001401954796165228,-0.0038379449397325516
1690839236491302100,5.61830224609375,0.0010020092595368624,-0.0006331864278763533,-0.007774895057082176
1690839236501342200,5.62834228515625,-0.0008848612196743488,0.000662222970277071,-0.007533425465226173
1690839236511383300,5.63838330078125,-0.0009530382230877876,-0.002023841254413128,-0.007301731035113335
1690839236521423000,5.648423095703125,-0.0009180502966046333,0.00007175223436206579,-0.006160221993923187
1690839236531463200,5.658463134765625,0.0008225920610129833,-0.0004986969288438559,-0.005461407825350761
1690839236541503200,5.668503173828125,0.00041599152609705925,0.0008100252598524094,-0.008547117933630943
1690839236551544000,5.6785439453125,0.00034142332151532173,0.002046797191724181,-0.006367586553096771
1690839236561584000,5.688584228515625,-0.0007966705597937107,0.00046558654867112637,-0.006533253937959671
1690839236571624200,5.698624267578125,-0.00006643170490860939,0.0002964758314192295,-0.0065401773899793625
1690839236581665300,5.708665283203125,0.0007164529524743557,-0.0006552680861204863,-0.003482051193714142
1690839236591705000,5.718705078125,0.0011811743024736643,-0.0011351697612553835,-0.002608533948659897
1690839236601745200,5.7287451171875,-0.000729462131857872,-0.0032502750400453806,0.0014404412358999252
1690839236611785200,5.73878515625,-0.0011939173564314842,0.0014808307169005275,0.004270581528544426
1690839236621826000,5.748825927734375,-0.0002169380895793438,-0.000570264644920826,0.005809635855257511
1690839236631866000,5.7588662109375,0.00023659784346818924,0.0006121788173913956,0.006149987690150738
1690839236641937200,5.768937255859375,0.00013357959687709808,0.0001809897366911173,0.006422337144613266
1690839236651977200,5.778977294921875,-0.0008637742139399052,0.003101678565144539,0.007144587114453316
1690839236662017000,5.78901708984375,0.000874129356816411,0.0011013050097972155,0.006398354656994343
1690839236672058000,5.79905810546875,-0.0009522666223347187,0.0007953078020364046,0.005666784010827541
1690839236682098200,5.80909814453125,0.00012512365356087685,0.0009824843145906925,0.004614910110831261
1690839236692138200,5.81913818359375,-0.0018922211602330208,-0.0008316610474139452,0.001974385231733322
1690839236702178300,5.82917822265625,0.0000618654303252697,-0.0013217281084507704,0.002107083797454834
1690839236712219100,5.83921923828125,0.0006717289797961712,-0.0025861968751996756,0.00016697123646736145
1690839236722259200,5.84925927734375,-0.00041084596887230873,-0.00021177972666919231,-0.00016587227582931519
1690839236732299000,5.859299072265625,0.0015798669774085283,-0.0005763666704297066,-0.0029014721512794495
1690839236742340000,5.869340087890625,0.0020403971429914236,-0.0008349595591425896,-0.002209048718214035
1690839236752380200,5.879380126953125,0.0015317334327846766,0.0008034171769395471,-0.0028767045587301254
1690839236762420200,5.889420166015625,-0.00032857106998562813,-0.0000994889996945858,-0.0044030677527189255
1690839236772460300,5.899460205078125,0.0009071358945220709,0.0013207747833803296,-0.006136786192655563
1690839236782501000,5.909501220703125,-0.001906861551105976,-0.00028340588323771954,-0.006232531741261482
1690839236792541200,5.919541259765625,-0.0007385327480733395,-0.0003276143688708544,-0.004689496010541916
1690839236802612200,5.9296123046875,0.0010613137856125832,-0.0025612437166273594,-0.004598263651132584
1690839236812652000,5.939652099609375,0.00016036629676818848,-0.0005622750613838434,-0.0027252640575170517
1690839236822692000,5.949692138671875,0.000007836613804101944,0.0009518797742202878,-0.001447681337594986
1690839236832733200,5.959733154296875,-0.00001160474494099617,0.0012360389810055494,-0.0012601949274539948
1690839236842773200,5.969773193359375,0.00042747752740979195,-0.0009977254085242748,0.002438260242342949
1690839236852813300,5.979813232421875,-0.00045429496094584465,0.0007791355019435287,-0.001007072627544403
1690839236862854100,5.989854248046875,0.001611021114513278,0.0006733734626322985,0.0007585566490888596
1690839236872894200,5.999894287109375,-0.00003188289701938629,0.0006070607341825962,0.00160251185297966
1690839236882934000,6.00993408203125,-0.0009570438414812088,0.0015555983409285545,0.0012794286012649536
1690839236892974000,6.01997412109375,-0.000038253143429756165,-0.001356035703793168,0.0028019584715366364
1690839236903015200,6.03001513671875,0.000023191329091787338,0.002833279548212886,0.0064431456848979
1690839236913055200,6.04005517578125,0.0004687379114329815,-0.0018570797983556986,0.0033056754618883133
1690839236923095300,6.05009521484375,-0.0005294578149914742,-0.0024486638139933348,0.003639334812760353
1690839236933135400,6.06013525390625,0.0009603146463632584,-0.001449445728212595,0.004036411643028259
1690839236943176200,6.07017626953125,-0.00006414158269762993,0.0005474096396937966,0.003960112109780312
1690839236953216000,6.080216064453125,0.001265574712306261,0.003249719273298979,0.0016207899898290634
1690839236963287000,6.090287109375,0.0005402998067438602,0.00342409685254097,0.0014679469168186188
1690839236973327000,6.1003271484375,-0.00021071173250675201,0.002612099051475525,-0.0007097199559211731
1690839236983367200,6.1103671875,0.0006759506650269032,0.0006442676531150937,-0.0000522807240486145
1690839236993408300,6.120408203125,-0.00175018934533,0.0003318787785246968,-0.0014818646013736725
1690839237003448300,6.1304482421875,-0.0007591689936816692,0.00003502797335386276,-0.003621334210038185
1690839237013488400,6.14048828125,-0.0017336197197437286,-0.0027831289917230606,-0.002550743520259857
1690839237023529200,6.150529296875,-0.0016431384719908237,-0.002501827199012041,-0.0019001234322786331
1690839237033569000,6.160569091796875,0.0015675686299800873,-0.0026520295068621635,0.00013666227459907532
1690839237043609000,6.170609130859375,-0.0007186406292021275,-0.00241822749376297,-0.0015079323202371597
1690839237053649200,6.180649169921875,-0.0004097139462828636,0.001593025866895914,-0.00289064459502697
1690839237063690200,6.190690185546875,0.000927510904148221,0.0018934232648462057,-0.003290204331278801
1690839237073730300,6.200730224609375,0.0020564247388392687,0.0034359260462224483,-0.0005815029144287109
1690839237083770400,6.210770263671875,-0.0008473754860460758,0.004217354580760002,-0.0012648701667785645
1690839237093811200,6.220811279296875,0.0016498707700520754,-0.00015395786613225937,-0.0007476843893527985
1690839237103851000,6.23085107421875,0.0004780902527272701,-0.0005724395159631968,-0.0006719846278429031
1690839237113891000,6.24089111328125,0.0003241593949496746,-0.00027416530065238476,0.0008481480181217194
1690839237123962000,6.250962158203125,-0.00043157488107681274,-0.0023989512119442225,-0.0005112402141094208
1690839237134002200,6.261002197265625,-0.0009338473901152611,-0.0012474001850932837,0.00026054494082927704
1690839237144042200,6.271042236328125,0.0019378997385501862,-0.0029784305952489376,-0.0003588087856769562
1690839237154083300,6.281083251953125,-0.00003630155697464943,-0.004379252903163433,-0.0011079572141170502
1690839237164123400,6.291123291015625,-0.00006910180673003197,0.003441029693931341,0.0008706506341695786
1690839237174163200,6.3011630859375,0.00004807719960808754,0.0017067791195586324,0.0018168725073337555
1690839237184204000,6.3112041015625,-0.001555261667817831,0.00368000497110188,-0.00009355880320072174
1690839237194244000,6.321244140625,-0.0006532492116093636,0.003981208428740501,0.0011386852711439133
1690839237204284200,6.3312841796875,0.0017288124654442072,0.0013408244121819735,0.0009661447256803513
1690839237214324200,6.34132421875,0.00031147804111242294,0.0007187100127339363,0.0016449838876724243
1690839237224365300,6.351365234375,-0.00103828776627779,-0.0017058583907783031,0.0007137581706047058
1690839237234405400,6.3614052734375,-0.0008761011995375156,-0.002638763515278697,0.001516701653599739
1690839237244445200,6.371445068359375,0.0005882182158529758,-0.0028698190581053495,0.0012114625424146652
1690839237254486000,6.381486083984375,-0.0004887641407549381,-0.001913211541250348,0.0004628486931324005
1690839237264526000,6.391526123046875,-0.0014812080189585686,-0.0008505429141223431,-0.0005416739732027054
1690839237274597000,6.40159716796875,0.0010772908572107553,0.004468322265893221,0.0005933661013841629
1690839237284637200,6.41163720703125,0.0012217373587191105,0.0020395666360855103,-0.0011356361210346222
1690839237294677200,6.42167724609375,0.0006920346058905125,0.00440258951857686,-0.002132989466190338
1690839237304718300,6.43171826171875,0.0013644855935126543,0.0037020635791122913,-0.002988075837492943
1690839237314758400,6.44175830078125,0.0004891045391559601,0.0013076155446469784,-0.0023723524063825607
1690839237324798200,6.451798095703125,-0.000009893439710140228,-0.0026915643829852343,-0.0019961949437856674
1690839237334838300,6.46183837890625,-0.000573684461414814,0.0019934687297791243,-0.0008276011794805527
1690839237344873200,6.471873291015625,0.000409961212426424,-0.001573324901983142,0.0008740630000829697
1690839237354913300,6.481913330078125,-0.00012000789865851402,-0.0038596487138420343,-0.00026310794055461884
1690839237364953300,6.491953369140625,-0.0009499532170593739,-0.0028438970912247896,-0.0014398619532585144
1690839237374994200,6.501994140625,0.0006913528777658939,0.00004243687726557255,-0.0004310552030801773
1690839237385034000,6.512033935546875,-0.00016035232692956924,0.003850344568490982,0.00021016597747802734
1690839237395074000,6.522073974609375,0.0008335395250469446,0.00031100341584533453,-0.00085483118891716
1690839237405114000,6.532114013671875,-0.0009582559578120708,0.0011986044701188803,0.0009122639894485474
1690839237415155200,6.5421552734375,0.0014753409195691347,0.0013607910368591547,0.000318378210067749
1690839237425195300,6.5521953125,-0.0009991456754505634,-0.000053570372983813286,0.00038888491690158844
1690839237435266300,6.562266357421875,-0.0011996817775070667,-0.00033533270470798016,0.001185435801744461
1690839237445306400,6.572306396484375,-0.0005193809047341347,0.0010284590534865856,0.00011349283158779144
1690839237455346200,6.58234619140625,-0.0003859568387269974,-0.0006027270574122667,0.0009289532899856567
1690839237465387000,6.592386962890625,0.00017897086217999458,0.0010693081421777606,0.0009456072002649307
1690839237475427000,6.602427001953125,0.0009499560110270977,-0.0012044988106936216,0.002291034907102585
1690839237485467100,6.612467041015625,-0.00030902400612831116,0.000023172935470938683,0.0014066733419895172
1690839237495507200,6.622507080078125,0.0020955440122634172,0.0007667274912819266,-0.0006207916885614395
1690839237505548300,6.63254833984375,0.0009809930343180895,-0.0004242686554789543,0.000015579164028167725
1690839237515588400,6.64258837890625,0.0008382475934922695,-0.0004250677302479744,-0.00024035200476646423
1690839237525628200,6.652628173828125,-0.001976744271814823,0.0007583911065012217,-0.000026149675250053406
1690839237535669000,6.6626689453125,0.0003655054606497288,0.0010617251973599195,-0.0009870175272226334
1690839237545709000,6.672708984375,0.0005510840564966202,0.0011915222276002169,0.0005494561046361923
1690839237555749000,6.6827490234375,0.0006706598214805126,0.00027725903782993555,-0.0005341842770576477
1690839237565789200,6.6927890625,0.000798399094492197,0.0007204777793958783,0.0023578964173793793
1690839237575830300,6.702830322265625,-0.00014915317296981812,-0.0025999515783041716,-0.0013606753200292587
1690839237585870300,6.712870361328125,-0.00018549105152487755,0.001496987184509635,0.0029307659715414047
1690839237595941400,6.72294140625,-0.001120793167501688,0.0009747414151206613,-0.0019611939787864685
1690839237605981200,6.732981201171875,0.0009879516437649727,-0.0002945421729236841,0.0013167541474103928
1690839237616021200,6.743021240234375,0.00040605105459690094,-0.0001478020567446947,-0.0023946277797222137
1690839237626062000,6.75306201171875,0.0007930370047688484,-0.0011049862951040268,-0.0008624382317066193
1690839237636102100,6.76310205078125,-0.0019196588546037674,0.0015384673606604338,-0.00006002746522426605
1690839237646142200,6.77314208984375,0.0005454546771943569,0.0017878044163808227,0.0012673158198595047
1690839237656182300,6.783182373046875,-0.0008436501957476139,-0.00018213572911918163,0.0014209803193807602
1690839237666223400,6.793223388671875,0.0007073916494846344,0.0019904954824596643,0.0007544644176959991
1690839237676263200,6.80326318359375,-0.001286516897380352,0.0015071318484842777,0.0013347659260034561
1690839237686303200,6.81330322265625,-0.0005040867254137993,0.0013001910410821438,0.0014464855194091797
1690839237696344000,6.823343994140625,0.0006610462442040443,-0.0013118372298777103,0.0005263630300760269
1690839237706384100,6.833384033203125,0.0004189731553196907,0.000010009156540036201,0.0010000187903642654
1690839237716424200,6.843424072265625,0.0001348140649497509,-0.0007218276150524616,0.000292949378490448
1690839237726464300,6.85346435546875,0.00031356140971183777,0.0023157410323619843,-0.000026755034923553467
1690839237736505300,6.86350537109375,0.0006760177202522755,0.00019000598695129156,-0.0010249074548482895
1690839237746545200,6.873545166015625,-0.0010742945596575737,0.0005943799624219537,-0.000016557052731513977
1690839237756616200,6.8836162109375,-0.0004907962866127491,-0.000020277686417102814,-0.0014514699578285217
1690839237766656300,6.89365625,-0.0006725848652422428,-0.0008580157300457358,0.0009724609553813934
1690839237776696300,6.9036962890625,0.000692018773406744,-0.00043910054955631495,-0.0006589926779270172
1690839237786737200,6.913737060546875,0.0005178647115826607,0.0023011614102870226,0.0019033383578062057
1690839237796777200,6.923777099609375,0.0018262756057083607,-0.0028014550916850567,0.0015579257160425186
1690839237806817300,6.9338173828125,-0.0009314520284533501,-0.00008166220504790545,0.00021505355834960938
1690839237816858400,6.9438583984375,-0.0006797835230827332,0.00006374646909534931,0.0010432954877614975
1690839237826898200,6.953898193359375,-0.0007512373849749565,-0.0017533886712044477,-0.001589026302099228
1690839237836938200,6.963938232421875,-0.0008183494210243225,-0.0015941315796226263,0.0009766630828380585
1690839237846978300,6.973978271484375,-0.0007362281903624535,-0.0008214217377826571,0.0011079609394073486
1690839237857019100,6.98401904296875,-0.0007495442405343056,0.002175433561205864,-0.0006814170628786087
1690839237867059200,6.99405908203125,0.0004020584747195244,0.00016984855756163597,0.00026438385248184204
1690839237877099300,7.004099365234375,0.00043854396790266037,0.001238575205206871,0.0002832915633916855
1690839237887140400,7.014140380859375,0.00006951717659831047,0.0014175687683746219,0.0006765630096197128
1690839237897180200,7.02418017578125,-0.00043781520798802376,0.0011970590567216277,0.0002802852541208267
1690839237907251200,7.034251220703125,0.0012198647018522024,0.002407229971140623,0.0014450103044509888
1690839237917291300,7.044291259765625,0.0013458323664963245,-0.00020293425768613815,-0.0004982985556125641
1690839237927331300,7.054331298828125,0.0006675454787909985,-0.00043711415491998196,-0.00038890540599823
1690839237937371100,7.06437109375,0.0016348056960850954,-0.0010264716111123562,0.00022655166685581207
1690839237947412200,7.074412109375,-0.0008687134832143784,-0.00025204115081578493,-0.0014212504029273987
1690839237957452300,7.084452392578125,0.00012145005166530609,-0.0008869386510923505,0.0002770461142063141
1690839237967492000,7.0944921875,-0.0007565636187791824,0.0016611877363175154,0.0003213249146938324
1690839237977533200,7.104533203125,-0.0005951761268079281,0.003204223234206438,-0.00008134543895721436
1690839237987573200,7.1145732421875,-0.0004255962558090687,0.0018148464150726795,-0.0007424000650644302
1690839237997613300,7.12461328125,-0.0002282559871673584,0.002001001499593258,-0.0014486704021692276
1690839238007653000,7.134653076171875,-0.0005878000520169735,0.002071189461275935,0.0009204279631376266
1690839238017694200,7.144694091796875,-0.0002967165783047676,-0.001380267320200801,-0.00034697167575359344
1690839238027734300,7.154734375,0.0009107557125389576,-0.0037200292572379112,0.0013643167912960052
1690839238037774000,7.164774169921875,0.000521401409059763,-0.0011221155291423202,-0.000572599470615387
1690839238047815200,7.174815185546875,-0.0006794077344238758,0.002152686472982168,0.0007087364792823792
1690839238057855200,7.184855224609375,-0.00017979880794882774,-0.0019227488664910197,0.000027233734726905823
1690839238067926300,7.19492626953125,0.0006670020520687103,0.00029350549448281527,0.0005285274237394333
1690839238077966300,7.20496630859375,-0.0008033290505409241,-0.0015757671790197492,0.0008965767920017242
1690839238088006100,7.215006103515625,0.0008744923397898674,-0.0007029776461422443,0.0025983843952417374
1690839238098046200,7.225046142578125,0.0004225540906190872,-0.00006967782974243164,-0.0013151317834854126
1690839238108087300,7.23508740234375,-0.00010475236922502518,0.00011391786392778158,0.00030213408172130585
1690839238118127000,7.245127197265625,0.00016635749489068985,-0.0007161893881857395,0.00030399858951568604
1690839238128167200,7.255167236328125,-0.0006221700459718704,0.0017803536029532552,-0.00019551999866962433
1690839238138208300,7.265208251953125,-0.0008820947259664536,-0.0013424690114334226,0.0006761327385902405
1690839238148248300,7.275248291015625,-0.0008444203995168209,0.0017873281612992287,-0.0004057846963405609
1690839238158288100,7.2852880859375,0.0014815842732787132,-0.0009187097894027829,0.00022298656404018402
1690839238168328200,7.295328125,-0.00007843971252441406,0.0000030365772545337677,0.0011786594986915588
1690839238178369300,7.305369384765625,0.00194050301797688,-0.0011128280311822891,-0.0015177913010120392
1690839238188409000,7.3154091796875,0.0005982373841106892,0.0009005985921248794,-0.001339241862297058
1690839238198449200,7.32544921875,-0.0010001915507018566,0.0022396359127014875,0.0005015358328819275
1690839238208490200,7.335490234375,-0.0007791668176651001,-0.0006632341537624598,-0.00018925219774246216
1690839238218530300,7.3455302734375,-0.00009739771485328674,-0.003815618110820651,0.00017639994621276855
1690839238228601300,7.355601318359375,0.0000965646468102932,0.00028609205037355423,0.0003831591457128525
1690839238238641200,7.36564111328125,-0.0008834786713123322,-0.0008425556588917971,-0.0010224580764770508
1690839238248681200,7.37568115234375,-0.0001521003432571888,0.0019922901410609484,0.0006053615361452103
1690839238258722300,7.385722412109375,-0.00007114000618457794,0.00042874831706285477,-0.000333935022354126
1690839238268762000,7.39576220703125,0.000002452172338962555,0.0020538971293717623,0.00004030577838420868
1690839238278802200,7.40580224609375,0.0016754502430558205,0.000003263121470808983,-0.0007282830774784088
1690839238288842200,7.41584228515625,-0.00020422367379069328,0.0000571210402995348,-0.0008174199610948563
1690839238298883000,7.425883056640625,-0.00024230685085058212,0.0015639376360923052,-0.0014600399881601334
1690839238308923100,7.435923095703125,-0.0006615752354264259,-0.0005191010423004627,0.00083119235932827
1690839238318963200,7.445963134765625,-0.0006895381957292557,0.0012292643077671528,0.0003563500940799713
1690839238329004300,7.45600439453125,-0.001126572024077177,-0.000701060751453042,-0.0012553408741950989
1690839238339050000,7.466050048828125,0.00033869920298457146,-0.0005423363763839006,0.0017670802772045135
1690839238349090000,7.476090087890625,0.00031306641176342964,-0.0001484400127083063,0.0006570573896169662
1690839238359129900,7.4861298828125,-0.001877649687230587,-0.001436877530068159,0.0012000761926174164
1690839238369171000,7.4961708984375,0.0007192841731011868,0.0015675508184358478,-0.0013954676687717438
1690839238379211000,7.5062109375,-0.00031402241438627243,0.0009651437867432833,0.0007523708045482635
1690839238389282000,7.516281982421875,0.0010109518188983202,-0.0007220285478979349,-0.0007631033658981323
1690839238399322000,7.526322021484375,0.00044902460649609566,0.0004689370980486274,-0.00039505399763584137
1690839238409362200,7.536362060546875,-0.0008315397426486015,-0.00016484549269080162,-0.00018052197992801666
1690839238419403000,7.546403076171875,0.0007668891921639442,0.000637831399217248,-0.00023777969181537628
1690839238429442800,7.55644287109375,0.00041134096682071686,-0.0017562031280249357,-0.0006531644612550735
1690839238439483000,7.56648291015625,0.001078462926670909,0.011238424107432365,0.07332758605480194
1690839238449523000,7.57652294921875,0.0125847477465868,0.31613585352897644,0.0616244412958622
1690839238459564000,7.58656396484375,-0.0073117283172905445,-0.06659713387489319,0.05484430119395256
1690839238469604000,7.59660400390625,-0.0012017604894936085,-0.035706132650375366,0.029907066375017166
1690839238479644200,7.60664404296875,-0.0011857813224196434,-0.03541664779186249,-0.005082342773675919
1690839238489685000,7.61668505859375,-0.0028773900121450424,-0.02796678990125656,-0.020861858502030373
1690839238499725000,7.62672509765625,-0.0013191746547818184,-0.007194932550191879,-0.019683675840497017
1690839238509764900,7.636764892578125,0.0007971981540322304,0.013746127486228943,-0.025211749598383904
1690839238519805000,7.646804931640625,0.002747963648289442,0.032525140792131424,-0.02243487350642681
1690839238529846000,7.656845947265625,0.00436624139547348,0.03546471893787384,-0.020441165193915367
1690839238539886000,7.666885986328125,0.004309249576181173,0.029417479410767555,-0.01740010268986225
1690839238549957000,7.67695703125,0.0036688949912786484,0.01824498176574707,-0.01352057047188282
1690839238559997200,7.6869970703125,0.002977804746478796,-0.0016011600382626057,-0.009269896894693375
1690839238570037000,7.697037109375,-0.002431720495223999,-0.015687720850110054,-0.0052086226642131805
1690839238580077800,7.707077880859375,-0.0031121578067541122,-0.02383752539753914,-0.0029047224670648575
1690839238590118000,7.717117919921875,-0.00509927561506629,-0.02887037768959999,0.001127159222960472
1690839238600158000,7.727157958984375,-0.0035810074768960476,-0.020908059552311897,0.005770913325250149
1690839238610198000,7.737197998046875,-0.0015063397586345673,-0.009281099773943424,0.008255061693489552
1690839238620239000,7.747239013671875,0.0007086112163960934,0.0026032566092908382,0.010738992132246494
1690839238630279200,7.757279052734375,0.0030606603249907494,0.01380196213722229,0.012001549825072289
1690839238640319000,7.767319091796875,0.002892082091420889,0.02119383215904236,0.01729804463684559
1690839238650359800,7.77735986328125,0.0033014207147061825,0.018867801874876022,0.01604626327753067
1690839238660399900,7.78739990234375,0.0014364088419824839,0.01211482472717762,0.017352543771266937
1690839238670440000,7.79743994140625,0.0012737228535115719,0.004558572545647621,0.014494148083031178
1690839238680480000,7.80747998046875,-0.0005806363187730312,0.0002932541538029909,0.015238234773278236
1690839238690521000,7.81752099609375,-0.001964324153959751,-0.010172332637012005,0.01168796606361866
1690839238700592000,7.827592041015625,-0.0024436931125819683,-0.015054440125823021,0.00852919090539217
1690839238710632200,7.837632080078125,-0.001069048885256052,-0.011692059226334095,0.006339983083307743
1690839238720672000,7.847672119140625,-0.0009273686446249485,-0.008766577579081059,0.002207290381193161
1690839238730712000,7.857712158203125,-0.000005959067493677139,-0.001726954709738493,-0.0002794470638036728
1690839238740753000,7.8677529296875,0.001674761762842536,0.003130917437374592,-0.0019220858812332153
1690839238750793000,7.87779296875,0.00013892818242311478,0.007338424678891897,-0.004166960716247559
1690839238760833000,7.8878330078125,0.0016944804228842258,0.009010623209178448,-0.006200816482305527
1690839238770874000,7.8978740234375,0.0003913426771759987,0.007532417308539152,-0.00899825431406498
1690839238780914200,7.9079140625,-0.0008289176039397717,0.004865527618676424,-0.009056579321622849
1690839238790954000,7.9179541015625,-0.0005841837264597416,-0.0005907339509576559,-0.011783825233578682
1690839238800993800,7.927993896484375,-0.00036607077345252037,-0.002188097918406129,-0.011614451184868813
1690839238811035000,7.938034912109375,0.000604651402682066,-0.004275484010577202,-0.010969964787364006
1690839238821075000,7.948074951171875,-0.0010513020679354668,-0.004982818849384785,-0.009683657437562943
1690839238831115000,7.958114990234375,-0.0003210739232599735,-0.004483717493712902,-0.009648943319916725
1690839238841156000,7.968156005859375,0.0008981211576610804,-0.00225385301746428,-0.0060819052159786224
1690839238851196200,7.978196044921875,-0.0008445666171610355,-0.00029421853832900524,-0.003645876422524452
1690839238861267200,7.98826708984375,0.00005611451342701912,0.0023556265514343977,-0.0014088209718465805
1690839238871307000,7.99830712890625,-0.0021219835616648197,0.00339620653539896,0.0013908538967370987
1690839238881346800,8.008346923828125,-0.0005786814726889133,0.003422039095312357,0.0025983303785324097
1690839238891387000,8.018386962890625,0.0009046990890055895,0.004079041071236134,0.003230299800634384
1690839238901428000,8.028427978515625,0.0009262706153094769,0.002309636678546667,0.004448428750038147
1690839238911468000,8.038468017578126,0.0003138342872262001,0.0009230067953467369,0.005054541863501072
1690839238921508000,8.048508056640625,-0.000041431281715631485,0.004010142758488655,0.008925979025661945
1690839238931549200,8.058549072265626,0.000329610425978899,-0.00043827202171087265,0.009708108380436897
1690839238941589000,8.068589111328125,0.0007796846330165863,-0.002522195689380169,0.008442041464149952
1690839238951628800,8.07862890625,-0.00032026413828134537,-0.002206740202382207,0.008670581504702568
1690839238961668900,8.0886689453125,0.0005934662185609341,-0.0012173757422715425,0.007538205944001675
1690839238971710000,8.0987099609375,-0.0003487188369035721,0.0010835037101060152,0.00942733883857727
1690839238981750000,8.10875,0.0003780578263103962,-0.002011888427659869,0.0060400646179914474
1690839238991790000,8.1187900390625,-0.00020232656970620155,0.001552410307340324,0.003919070586562157
1690839239001831200,8.1288310546875,0.0004650615155696869,0.002251756377518177,0.00122874416410923
1690839239011871000,8.13887109375,0.00012581516057252884,0.0009072941029444337,-0.00008935295045375824
1690839239021942000,8.14894189453125,0.00030025234445929527,0.0028351563960313797,-0.0019410494714975357
1690839239031981800,8.15898193359375,0.0003138445317745209,0.0019957053009420633,-0.0034682005643844604
1690839239042022000,8.16902197265625,-0.001538117416203022,-0.0010765171609818935,-0.005748933181166649
1690839239052062000,8.17906201171875,0.0003287792205810547,0.0030667814426124096,-0.006292939186096191
1690839239062103000,8.18910302734375,0.00039349403232336044,-0.0005252901464700699,-0.005523553118109703
1690839239072143000,8.19914306640625,0.0007839028257876635,-0.0007572295144200325,-0.006085116416215897
1690839239082183000,8.209182861328125,0.0007247808389365673,0.0005290773697197437,-0.005698159337043762
1690839239092224000,8.21922412109375,-0.00032523926347494125,-0.0006471080705523491,-0.008520890027284622
1690839239102263800,8.229263916015626,0.0004042009823024273,-0.0007469765841960907,-0.005405258387327194
1690839239112303900,8.239303955078125,-0.0007432759739458561,-0.001017165370285511,-0.005965493619441986
1690839239122344000,8.249343994140625,-0.00017788726836442947,0.0012065741466358304,-0.0030373483896255493
1690839239132385000,8.259385009765625,0.0009850580245256424,0.0004498044727370143,-0.002108464017510414
1690839239142425000,8.269425048828126,-0.0009862137958407402,0.0011259810999035835,-0.002206999808549881
1690839239152465000,8.27946484375,0.0002457643859088421,0.0024935142137110233,0.001598123461008072
1690839239162506000,8.289506103515626,0.00007265899330377579,0.004477303009480238,0.002558194100856781
1690839239172545800,8.2995458984375,-0.0003315778449177742,0.0009543158812448382,0.0018942244350910187
1690839239182616800,8.309616943359375,0.0002916017547249794,0.00024005607701838017,0.00473129004240036
1690839239192657000,8.319656982421876,-0.0006934166885912418,-0.001216668402776122,0.0035635903477668762
1690839239202697000,8.329697021484375,-0.0007285703904926777,-0.0008954913355410099,0.004577722400426865
1690839239212738000,8.339738037109376,-0.0006280154921114445,0.001944886869750917,0.004093766212463379
1690839239222778000,8.349778076171875,0.0015144976787269115,-0.0011686147190630436,0.004620006307959557
1690839239232818000,8.35981787109375,0.00013222591951489449,-0.0019791177473962307,0.003784770146012306
1690839239242858000,8.36985791015625,0.00022330600768327713,-0.0017104048747569323,0.005449777469038963
1690839239252898800,8.37989892578125,-0.000778641551733017,0.0033158790320158005,0.004128027707338333
1690839239262939000,8.38993896484375,0.00015959003940224648,-0.0011236104182898998,0.002686459571123123
1690839239272979000,8.39997900390625,0.0004718005657196045,0.0018514612456783652,0.0025273915380239487
1690839239283020000,8.41002001953125,0.0011359928175807,0.003855756251141429,-0.00019702129065990448
1690839239293060000,8.42006005859375,0.00022827554494142532,-0.0014758184552192688,0.0021850410848855972
1690839239303100000,8.430099853515625,-0.0007075592875480652,-0.00021294760517776012,-0.0007178038358688354
1690839239313140000,8.440139892578125,-0.0006965622305870056,-0.0010033275466412306,-0.0022081825882196426
1690839239323180800,8.450180908203125,-0.0009194687008857727,-0.0030646142549812794,-0.0032412242144346237
1690839239333220900,8.460220947265626,-0.00019659288227558136,-0.00026816362515091896,-0.002065751701593399
1690839239343266600,8.4702666015625,-0.0018530790694057941,-0.0017398262862116098,-0.003926502540707588
1690839239353306600,8.480306640625,-0.0008273092098534107,0.0017803197260946035,-0.0017041955143213272
1690839239363346700,8.4903466796875,0.0010174622293561697,0.0035643712617456913,-0.00466829352080822
1690839239373387500,8.500387451171875,0.0004598633386194706,0.004140234552323818,-0.00231047160923481
1690839239383427600,8.510427490234376,-0.00012310268357396126,0.00030474993400275707,-0.002006072551012039
1690839239393467600,8.520467529296875,-0.0006310506723821163,0.0014814123278483748,-0.000977925956249237
1690839239403507500,8.530507568359376,-0.0003173304721713066,0.0014233554247766733,-0.002515634521842003
1690839239413548500,8.540548583984375,0.0004698038101196289,-0.001671178499236703,-0.0014129448682069778
1690839239423588600,8.550588623046876,-0.0018114596605300903,-0.003278129966929555,0.00026910752058029175
1690839239433628700,8.560628662109375,-0.00014858413487672806,-0.0019728729967027903,0.0009541716426610947
1690839239443669500,8.57066943359375,-0.0008516586385667324,-0.0026770129334181547,0.0007323306053876877
1690839239453709600,8.58070947265625,0.0006412169896066189,-0.001339655602350831,0.0032898951321840286
1690839239463749600,8.59074951171875,0.0009309691376984119,0.0015053992392495275,0.001881081610918045
1690839239473789400,8.60078955078125,-0.001325217541307211,-0.00008842023089528084,0.0017539188265800476
1690839239483830500,8.61083056640625,-0.00015262793749570847,0.0013680624542757869,0.003433573991060257
1690839239493901600,8.620901611328126,0.0011107895988970995,0.005362025462090969,0.0035180971026420593
1690839239503941600,8.630941650390625,0.0007049241103231907,0.0015715480549260974,0.000706065446138382
1690839239513981700,8.640981689453126,0.000045503489673137665,0.0011532786302268505,0.0034701135009527206
1690839239524021500,8.651021484375,0.001120355213060975,-0.000012120697647333145,0.003253599628806114
1690839239534062600,8.6610625,0.0005961712449789047,-0.0005568063352257013,-0.00015926547348499298
1690839239544102700,8.6711025390625,-0.0006411336362361908,-0.002001304877921939,0.0012074671685695648
1690839239554142500,8.681142578125,-0.0008221915923058987,-0.0012489825021475554,0.0007378552109003067
1690839239564182500,8.6911826171875,-0.0014360505156219006,-0.0020548549946397543,-0.0007234197109937668
1690839239574223600,8.7012236328125,0.00008627772331237793,-0.0004234460648149252,-0.0025793109089136124
1690839239584263700,8.711263671875,-0.0005843061953783035,0.0010245146695524454,-0.0015699733048677444
1690839239594303500,8.721303466796876,0.0003109881654381752,0.001265062252059579,-0.001659424975514412
1690839239604344600,8.731344482421875,0.0015315148048102856,0.003400917397812009,-0.0008527543395757675
1690839239614384600,8.741384521484376,0.0009063452016562223,-0.00026807491667568684,-0.0011265985667705536
1690839239624424400,8.751424560546875,-0.00010805297642946243,0.0016960062785074115,-0.003913329914212227
1690839239634464500,8.761464599609376,-0.0010207844898104668,-0.00296561187133193,-0.002142425626516342
1690839239644505600,8.771505615234375,-0.0010873638093471527,-0.0028875814750790596,-0.0022715888917446136
1690839239654576600,8.78157666015625,-0.0014783884398639202,-0.0001717966515570879,-0.0016188062727451324
1690839239664616700,8.79161669921875,0.0009821061976253986,0.0018285035621374846,0.001577785238623619
1690839239674656500,8.801656494140625,-0.0009755208157002926,-0.0004352056421339512,-0.0006234180182218552
1690839239684696600,8.811696533203126,-0.0013539562933146954,0.0009621548233553767,-0.00010490044951438904
1690839239694737700,8.821737548828125,-0.0003867512568831444,-0.0013448121026158333,0.0003883764147758484
1690839239704777500,8.831777587890626,0.0005120653659105301,-0.000006839865818619728,-0.0000891275703907013
1690839239714817500,8.841817626953125,-0.0008066063746809959,-0.000496990978717804,0.00024850107729434967
1690839239724858600,8.851858642578126,-0.0006201853975653648,-0.0004407984670251608,0.0015731565654277802
1690839239734898700,8.861898681640625,0.0010017058812081814,0.002190867904573679,0.0014070570468902588
1690839239744938500,8.8719384765625,0.0009734765626490116,0.0010273328516632318,0.0020052045583724976
1690839239754978600,8.881978515625,-0.0004095020703971386,-0.0017396220937371254,0.001828821375966072
1690839239765019600,8.89201953125,0.0007961108349263668,0.001115020364522934,0.0024765022099018097
1690839239775059500,8.9020595703125,-0.0006199516355991364,-0.001191393006592989,0.0018646642565727234
1690839239785099500,8.912099609375,-0.00033659161999821663,0.0013740300200879574,0.001023104414343834
1690839239795140600,8.922140625,-0.0002310485579073429,-0.001467361580580473,0.002759994938969612
1690839239805180700,8.9321806640625,-0.001068879384547472,0.0014725017827004194,0.0020736977458000183
1690839239815251700,8.942251708984376,-0.0005267029628157616,0.0011638863943517208,0.001032346859574318
1690839239825291500,8.95229150390625,0.0019468411337584257,0.004489109385758638,-0.0010142922401428223
1690839239835331600,8.96233154296875,-0.001747895497828722,0.001705129281617701,0.002113157883286476
1690839239845371400,8.972371337890625,-0.00012869341298937798,0.002172514097765088,-0.0006812959909439087
1690839239855412500,8.98241259765625,-0.0016957777552306652,0.00033953029196709394,0.001577518880367279
1690839239865452500,8.99245263671875,0.0015170597471296787,-0.0005536940880119801,-0.0006004143506288528
1690839239875492600,9.00249267578125,-0.00003266753628849983,-0.0017330045811831951,-0.0001863297075033188
1690839239885533700,9.01253369140625,0.0009721429087221622,-0.0017250149976462126,-0.0007064454257488251
1690839239895573500,9.022573486328126,-0.0001231534406542778,-0.0013993612956255674,-0.0025779251009225845
1690839239905613600,9.032613525390625,-0.0005556507967412472,-0.0014457004144787788,-0.0009304936975240707
1690839239915653400,9.0426533203125,-0.00010454235598444939,0.0017035789787769318,-0.0007286127656698227
1690839239925694500,9.052694580078125,-0.0010371813550591469,-0.00023520225659012794,0.0009100306779146194
1690839239935734500,9.062734619140626,0.0007941510993987322,-0.0005078876856714487,-0.0023208167403936386
1690839239945774600,9.072774658203125,0.0020365158561617136,0.0015675137983635068,-0.0024712849408388138
1690839239955815700,9.082815673828126,-0.0009062662720680237,0.0011008279398083687,-0.00029998645186424255
1690839239965855500,9.09285546875,-0.00048255734145641327,0.0002571385120972991,0.00009788945317268372
1690839239975926500,9.102926513671875,-0.00009599141776561737,-0.0012665544636547565,0.0015848223119974136
1690839239985966600,9.112966552734376,-0.0008073216304183006,-0.0005749315023422241,0.0007070451974868774
1690839239996006400,9.12300634765625,-0.00075151352211833,-0.001657090149819851,-0.0011691972613334656
1690839240006047500,9.133047607421876,-0.002079632133245468,-0.0006927596405148506,0.003280678763985634
1690839240016087600,9.143087646484375,0.0005647982470691204,0.000952834147028625,-0.0002084672451019287
1690839240026127600,9.153127685546876,0.0002542738802731037,-0.0017414859030395746,-0.000022312626242637634
1690839240036167700,9.163167724609375,0.000549564603716135,0.0015479447320103645,0.0005426220595836639
1690839240046208500,9.17320849609375,-0.00077482545748353,0.0021516834385693073,0.0015421062707901
1690839240056248600,9.18324853515625,0.00044822879135608673,0.0011884636478498578,-0.0010555963963270187
1690839240066288400,9.193288330078126,-0.000157906673848629,-0.00017906958237290382,0.0015431158244609833
1690839240076328400,9.203328369140625,-0.00009919190779328346,-0.0002779947826638818,0.0026319120079278946
1690839240086369500,9.21336962890625,0.00011199666187167168,0.0019390868255868554,0.0013429410755634308
1690839240096409600,9.22340966796875,-0.0011325152590870857,-0.0003348600585013628,0.0008071474730968475
1690839240106449700,9.23344970703125,-0.0009452952072024345,0.0001429110998287797,-0.00012176297605037689
1690839240116490500,9.243490478515625,0.0004540327936410904,-0.0014148385962471366,0.000781666487455368
1690839240126530600,9.253530517578126,0.0010053070727735758,-0.00004464236553758383,0.00003544799983501434
1690839240136601600,9.2636015625,0.00004794541746377945,0.0010531495790928602,0.00030972808599472046
1690839240146641400,9.273641357421875,0.0004415605217218399,-0.0010108001297339797,0.00011797994375228882
1690839240156681500,9.283681396484376,-0.0006778980605304241,0.0018310898449271917,0.00034849345684051514
1690839240166722600,9.29372265625,-0.000716780312359333,0.00047181244008243084,0.000603891909122467
1690839240176762600,9.3037626953125,-0.0009332834742963314,0.0005726050585508347,-0.0004936959594488144
1690839240186802700,9.313802734375,-0.00048480741679668427,0.0021545228082686663,0.001126037910580635
1690839240196842800,9.3238427734375,-0.0003847610205411911,0.0009107125224545598,-0.000806046649813652
1690839240206883600,9.333883544921875,-0.00028222938999533653,0.001041739946231246,0.0010331328958272934
1690839240216923400,9.34392333984375,-0.0009002764709293842,0.002117002150043845,0.00007341057062149048
1690839240226963500,9.35396337890625,0.0004544737748801708,-0.0008646730566397309,0.0011240281164646149
1690839240237004500,9.364004638671876,-0.00048422254621982574,0.00057222880423069,0.0006738882511854172
1690839240247044600,9.374044677734375,0.000009261071681976318,-0.00001393293496221304,0.0006986558437347412
1690839240257084700,9.384084716796876,-0.0003834492526948452,-0.0021285414695739746,-0.00027987919747829437
1690839240267124700,9.394124755859375,0.000053841620683670044,-0.00039828603621572256,-0.00012328661978244781
1690839240277165600,9.40416552734375,-0.0004803156480193138,0.0010389633243903518,0.0014525782316923141
1690839240287235600,9.414235595703126,-0.0010667438618838787,-0.0004809026140719652,-0.001451866701245308
1690839240297276400,9.4242763671875,-0.0009134127758443356,0.0011669687228277326,0.0002415291965007782
1690839240307316500,9.43431640625,-0.0007363124750554562,0.00036961829755455256,0.0008476637303829193
1690839240317356500,9.4443564453125,0.0005167941562831402,-0.0005473298951983452,0.0010419636964797974
1690839240327397600,9.454397705078126,0.0007415651343762875,0.002072155475616455,0.00045846402645111084
1690839240337437700,9.464437744140625,-0.00019010482355952263,-0.0004146626451984048,-0.0010350123047828674
1690839240347471400,9.474471435546874,-0.0005483003333210945,0.00007242965511977673,0.00021001696586608887
1690839240357511400,9.484511474609375,-0.0010124538093805313,0.0004602972185239196,0.000005770474672317505
1690839240367552500,9.494552490234375,-0.00136612169444561,0.00019344850443303585,0.0007123071700334549
1690839240377592300,9.50459228515625,-0.0010356632992625237,0.0005965909222140908,0.0009992718696594238
1690839240387632400,9.51463232421875,-0.0006657503545284271,-0.00001274037640541792,0.0005657095462083817
1690839240397673500,9.524673583984375,-0.0004659420810639858,-0.0000694922637194395,0.0005724169313907623
1690839240407713500,9.534713623046875,0.0006195623427629471,-0.0005435349885374308,-0.0008156225085258484
1690839240417753300,9.54475341796875,-0.00026167789474129677,0.0004140423843637109,-0.0003055073320865631
1690839240427793400,9.55479345703125,0.0004938612692058086,0.0007935429457575083,-0.0011071190237998962
1690839240437834500,9.56483447265625,-0.0007460061460733414,0.00015847280155867338,-0.0003414563834667206
1690839240447905500,9.574905517578125,0.0015520357992500067,-0.0013696490786969662,-0.0001441165804862976
1690839240457945300,9.5849453125,-0.0018802923150360584,-0.00030777661595493555,-0.002679763361811638
1690839240467985400,9.5949853515625,-0.0007537752389907837,-0.0038684229366481304,-0.00021740421652793884
1690839240478025500,9.605025390625,-0.0009955610148608685,-0.001205517677590251,-0.002351749688386917
1690839240488066600,9.615066650390625,-0.00020220549777150154,-0.0010151017922908068,0.00007811933755874634
1690839240498106400,9.6251064453125,-0.000041190069168806076,0.000865733833052218,-0.00015000440180301666
1690839240508146400,9.635146484375,-0.0000760774128139019,-0.002939124358817935,-0.0008203219622373581
1690839240518187500,9.6451875,-0.0006601638160645962,0.000913493859115988,0.0006112623959779739
1690839240528227300,9.655227294921875,-0.000978145282715559,0.0007872600108385086,0.0029718875885009766
1690839240538267400,9.665267333984374,0.0001345910131931305,0.0021464149467647076,0.0013051517307758331
1690839240548307500,9.675307373046875,-0.0008276090957224369,0.00046622660011053085,0.0006268434226512909
1690839240558348500,9.6853486328125,0.000719788484275341,0.0004923763917759061,0.0012022554874420166
1690839240568388400,9.695388427734375,-0.00009167660027742386,-0.00006102840416133404,0.000640328973531723
1690839240578428400,9.705428466796874,0.00029901741072535515,-0.0002335479948669672,-0.001443963497877121
1690839240588468500,9.715468505859375,-0.00010658241808414459,0.0006173320580273867,-0.0004085265100002289
1690839240598509600,9.725509521484375,-0.0016793631948530674,0.0004097187193110585,0.00014008954167366028
1690839240608580400,9.735580322265625,-0.00028679613023996353,0.0004275619285181165,0.001219470053911209
1690839240618620400,9.745620361328125,0.0006006727926433086,-0.0012845705496147275,-0.0013130586594343185
1690839240628660500,9.755660400390624,0.0020504978019744158,-0.000622508698143065,-0.00012315809726715088
1690839240638700500,9.765700439453125,0.000581622589379549,0.0006447926862165332,0.001438438892364502
1690839240648741400,9.775741455078125,0.00157338404096663,0.00393645977601409,0.0001100543886423111
1690839240658781400,9.785781494140625,0.0016935907769948244,0.00045706192031502724,-0.000020133331418037415
1690839240668821200,9.7958212890625,0.0005372464656829834,-0.00001564924605190754,-0.00021374598145484924
1690839240678862300,9.8058623046875,0.000022969674319028854,-0.0005856084171682596,-0.0009312275797128677
1690839240688902400,9.81590234375,0.0009926268830895424,-0.0003512504044920206,-0.0017847716808319092
1690839240698942500,9.8259423828125,0.0010145639535039663,0.001054278458468616,-0.001279786229133606
1690839240708982500,9.835982421875,-0.0028877658769488335,-0.0028547095134854317,0.00019853562116622925
1690839240719023400,9.8460234375,-0.00031509995460510254,0.00012768013402819633,0.00011343322694301605
1690839240729063400,9.8560634765625,-0.0007923380471765995,0.0009242316009476781,-0.0017166901379823685
1690839240739103500,9.866103515625,0.0004664282314479351,0.003111925907433033,0.00122770294547081
1690839240749144600,9.87614453125,-0.0008201450109481812,0.0004929733695462346,0.00021650083363056183
1690839240759184400,9.886184326171875,-0.00035564694553613663,0.0018168676178902388,0.0011764336377382278
1690839240769255400,9.89625537109375,0.0003146706148982048,0.001193155301734805,-0.0005879104137420654
1690839240779295500,9.90629541015625,0.001319043803960085,-0.000017567072063684464,0.0017193760722875595
1690839240789335600,9.91633544921875,-0.0005001616664230824,0.001962759532034397,0.0033439043909311295
1690839240799375600,9.926375732421874,0.0008278093300759792,0.0009664483950473368,0.0008258633315563202
1690839240809416400,9.93641650390625,-0.0005804700776934624,-0.0028554541058838367,0.0012333262711763382
1690839240819456300,9.946456298828124,-0.001466110348701477,-0.0001991763710975647,0.002124607563018799
1690839240829496300,9.956496337890625,0.00021194759756326675,0.0014149656053632498,-0.0005129873752593994
1690839240839537400,9.966537353515625,0.000590967945754528,-0.0002940144622698426,-0.0016091875731945038
1690839240849577500,9.976577392578125,0.0005579446442425251,0.003528154455125332,0.00022306665778160095
1690839240859617500,9.986617431640624,-0.00037195300683379173,0.001401737448759377,-0.0006773564964532852
1690839240869657600,9.99665771484375,-0.000016421079635620117,-0.0008390463190153241,0.0008102841675281525
1690839240879698400,10.006698486328125,-0.0005284706130623817,0.00032666546758264303,0.001263478770852089
1690839240889738500,10.016738525390625,0.0002715429291129112,-0.0011199635919183493,0.0005558785051107407
1690839240899778300,10.0267783203125,-0.0006169560365378857,0.001959574641659856,-0.00013336725533008575
1690839240909819400,10.0368193359375,0.00012207124382257462,-0.0006577800959348679,0.000021362677216529846
1690839240919859500,10.046859375,-0.00004688045009970665,-0.0008605256443843246,-0.0009541995823383331
1690839240929930500,10.056930419921875,0.00026657385751605034,-0.0009643888333812356,-0.0018293149769306183
1690839240939970600,10.066970458984375,-0.00005312357097864151,-0.0008389430586248636,-0.000506136566400528
1690839240950010600,10.0770107421875,-0.00015512295067310333,-0.0030669434927403927,-0.0017841868102550507
1690839240960051500,10.087051513671875,-0.000585807953029871,-0.0009351191110908985,-0.0006888285279273987
1690839240970091300,10.09709130859375,0.0010246054735034704,0.0012505371123552322,-0.0007841698825359344
1690839240980131300,10.10713134765625,-0.000739704817533493,-0.0011772318975999951,0.0004742369055747986
1690839240990171400,10.11717138671875,-0.00013623246923089027,-0.000661643804050982,0.0009767748415470123
1690839241000212500,10.12721240234375,-0.00035231420770287514,-0.0014031685423105955,0.0000033285468816757202
1690839241010252500,10.13725244140625,-0.00024339091032743454,-0.001548310974612832,0.0008323714137077332
1690839241020292600,10.147292724609375,0.0009006655309349298,-0.0018952956888824701,0.00014860741794109344
1690839241030332400,10.15733251953125,-0.00030414853245019913,0.0006344410357996821,0.002312691882252693
1690839241040373200,10.167373291015625,0.000725338701158762,0.0011943724239245057,0.0014794878661632538
1690839241050413300,10.177413330078124,0.0015565112698823214,0.0005453600315377116,0.00021022558212280273
1690839241060453400,10.187453369140625,-0.00039883702993392944,0.00021352653857320547,0.0011908598244190216
1690839241070494500,10.197494384765625,0.0006254147738218307,-0.0005555944517254829,0.00002306327223777771
1690839241080564500,10.207564453125,0.0004992918111383915,0.0019472409039735794,0.0002764929085969925
1690839241090605600,10.21760546875,-0.0010943440720438957,0.00040820008143782616,-0.0005128663033246994
1690839241100645600,10.227645751953125,-0.0008672308176755905,0.0011249100789427757,0.00011132657527923584
1690839241110685400,10.237685546875,0.0008193491958081722,-0.0008218607399612665,0.000728115439414978
1690839241120726300,10.247726318359375,0.0016395719721913338,-0.0013959161005914211,-0.0015743337571620941
1690839241130766300,10.257766357421875,0.00093223643489182,0.0002038447419181466,0.0001508612185716629
1690839241140806400,10.267806396484374,-0.0007827174849808216,0.00023323169443756342,-0.0003924146294593811
1690839241150846500,10.277846435546875,0.00015285098925232887,0.0027294126339256763,-0.001414535567164421
1690839241160887600,10.287887451171875,-0.0003020642325282097,-0.00002104614395648241,-0.0010918043553829193
1690839241170927600,10.297927734375,-0.00017769448459148407,0.001279641641303897,-0.0017575938254594803
1690839241180967400,10.307967529296874,0.0009576806332916021,0.0006244132528081536,-0.00002456456422805786
1690839241191008300,10.31800830078125,-0.0009262394160032272,-0.00045523233711719513,0.002163488417863846
1690839241201048300,10.32804833984375,0.0008211878594011068,-0.0011456673964858055,-0.0003990456461906433
1690839241211088400,10.33808837890625,0.0008526132442057133,0.00008790881838649511,-0.0016962699592113495
1690839241221128400,10.34812841796875,0.0008675099816173315,0.0018184252548962831,-0.0002841651439666748
1690839241231169500,10.35816943359375,0.0008406119886785746,0.002098057186231017,0.0011632628738880157
1690839241241239600,10.368239501953125,0.0007723104208707809,-0.001322116469964385,-0.0007430538535118103
1690839241251280600,10.37828076171875,-0.0005728523246943951,-0.0003250290174037218,0.0006798729300498962
1690839241261320400,10.388320556640625,0.000532123725861311,-0.0005308450199663639,-0.0003209039568901062
1690839241271360500,10.398360595703124,-0.00021862145513296127,-0.0016198116354644299,0.0002535395324230194
1690839241281401300,10.4084013671875,-0.0013819783926010132,-0.0008304702350869775,0.0002784188836812973
1690839241291441400,10.41844140625,0.0018140811007469893,0.0002563657471910119,0.000765511766076088
1690839241301481500,10.4284814453125,-0.0005951235070824623,-0.0009609197732061148,0.003392966464161873
1690839241311521500,10.438521484375,0.0014776147436350584,-0.0022789184004068375,-0.0005431864410638809
1690839241321562600,10.448562744140625,-0.0007767654024064541,0.000328846275806427,0.0003926381468772888
1690839241331602400,10.4586025390625,-0.00027103116735816,-0.0019462922355160117,-0.0026391036808490753
1690839241341643300,10.468643310546875,-0.0006518415175378323,-0.0016956489998847246,-0.00013632141053676605
1690839241351684400,10.478684326171875,-0.0009610345587134361,-0.00050947698764503,0.0014027189463376999
1690839241361724400,10.488724365234376,0.00048555154353380203,0.0016686203889548779,0.001250389963388443
1690839241371764500,10.498764404296875,-0.00028516724705696106,-0.0006416717078536749,0.0021942146122455597
1690839241381804500,10.508804443359375,-0.0009167240932583809,-0.000747890560887754,-0.00012214109301567078
1690839241391845400,10.518845458984375,-0.001413936261087656,0.0009482767200097442,-0.0015740953385829926
1690839241401916400,10.52891650390625,0.0004418985918164253,-0.0010822518961504102,-0.0001919679343700409
1690839241411956500,10.53895654296875,-0.0009333575144410133,-0.0004849048564210534,-0.001400243490934372
1690839241421996300,10.548996337890625,-0.00009705359116196632,-0.0016824897611513734,0.0000308305025100708
1690839241432036400,10.559036376953125,0.00013091275468468666,0.0011633641552180052,-0.0002687741070985794
1690839241442077400,10.569077392578125,0.0004690042696893215,0.0007721844594925642,-0.001307070255279541
1690839241452117500,10.579117431640626,-0.0003272807225584984,0.0015330496244132519,-0.0024477019906044006
1690839241462157600,10.589157470703125,0.0007933387532830238,-0.0008868167642503977,0.000476909801363945
1690839241472198400,10.599198486328126,-0.00114011624827981,-0.0009944085031747818,-0.001529250293970108
1690839241482238500,10.609238525390625,0.000843660207465291,-0.00047771958634257317,-0.0015160255134105682
1690839241492278300,10.6192783203125,-0.0008149566128849983,0.0020440276712179184,-0.00007152743637561798
1690839241502318300,10.629318359375,-0.00040795234963297844,0.002029493683949113,0.0021207109093666077
1690839241512359400,10.639359375,-0.0005091526545584202,-0.0008270128164440393,0.0022267047315835953
1690839241522399500,10.6493994140625,0.000989425927400589,0.00007098226342350245,0.0009242929518222809
1690839241532439600,10.659439453125,0.0007452140562236309,0.000403344864025712,0.0007200278341770172
1690839241542479600,10.669479736328125,-0.0004295757971704006,0.00006401841528713703,-0.00035470351576805115
1690839241552520400,10.6795205078125,-0.0007699276320636272,0.0005417895736172795,-0.0004292726516723633
1690839241562591500,10.689591552734376,-0.0007712328806519508,0.0015475638210773468,0.0005620308220386505
1690839241572631300,10.69963134765625,0.0005036224611103535,-0.00019227922894060612,-0.00003824569284915924
1690839241582671400,10.70967138671875,0.00019983574748039246,-0.0000701297540217638,-0.0003722384572029114
1690839241592711400,10.71971142578125,0.0001340559683740139,0.001235351781360805,0.0005241818726062775
1690839241602752500,10.72975244140625,0.0005255355499684811,0.0017048277659341693,0.0012557469308376312
1690839241612792600,10.73979248046875,0.0009106285870075226,0.0032438687048852444,0.0039940085262060165
1690839241622832600,10.74983251953125,0.0008277622982859612,0.0007468592375516891,0.0012195128947496414
1690839241632873500,10.75987353515625,0.0007601180113852024,-0.0005317244213074446,0.001128433272242546
1690839241642913300,10.769913330078126,0.0015885615721344948,0.0006620761705562472,0.0004495326429605484
1690839241652953300,10.779953369140625,-0.0009619477204978466,0.00039655901491642,-0.001157684251666069
1690839241662993400,10.789993408203125,0.00023590680211782455,0.000004941597580909729,-0.002592582255601883
1690839241673034500,10.800034423828125,-0.0008242977783083916,-0.0028752670623362064,0.0013422369956970215
1690839241683074600,10.810074462890626,0.0017140386626124382,0.002227405086159706,0.0004815012216567993
1690839241693114600,10.820114501953125,0.0002998998388648033,-0.0016789194196462631,-0.001345161348581314
1690839241703155500,10.830155517578126,0.0010506941471248865,0.0006388804176822305,-0.00030857697129249573
1690839241713195500,10.840195556640625,0.00020886864513158798,0.0003480631858110428,-0.0014745090156793594
1690839241723266300,10.850266357421875,0.0009871884249150753,-0.00033217272721230984,-0.00025226548314094543
1690839241733306400,10.860306396484376,0.0007610861212015152,0.0010287025943398476,0.0012582801282405853
1690839241743346400,10.870346435546875,-0.0010490785352885723,0.0006139870965853333,-0.0017292238771915436
1690839241753386500,10.880386474609375,0.0009632061701267958,0.0007090619765222073,-0.0012884698808193207
1690839241763427600,10.890427490234375,-0.0008590784855186939,0.0011624626349657774,-0.0008953865617513657
1690839241773467600,10.900467529296876,-0.0008281860500574112,-0.00008096732199192047,0.000013284385204315186
1690839241783507500,10.910507568359375,0.0007682745344936848,-0.003059577429667115,-0.0009403955191373825
1690839241793548300,10.92054833984375,-0.00038753729313611984,0.0011500812834128737,0.0005720146000385284
1690839241803588400,10.93058837890625,0.0009738132357597351,0.0017671703826636076,0.0007821414619684219
1690839241813628400,10.94062841796875,0.0002608848735690117,0.0000030924566090106964,-0.0002809930592775345
1690839241823668500,10.95066845703125,-0.0004915283061563969,-0.0015186427626758814,-0.0013657957315444946
1690839241833709600,10.96070947265625,0.0005039614625275135,0.001993267796933651,-0.000008648261427879333
1690839241843749600,10.97074951171875,-0.0007453840225934982,-0.0006488896906375885,-0.000868016853928566
1690839241853789400,10.98078955078125,-0.001074550673365593,0.002688850276172161,-0.000241108238697052
1690839241863830300,10.990830322265625,0.0012672473676502705,0.0024729794822633266,0.0010525714606046677
1690839241873870300,11.000870361328126,0.0017186531331390142,-0.0007877947064116597,-0.000505911186337471
1690839241883941400,11.01094140625,-0.001129048876464367,-0.0025431085377931595,0.002467511221766472
1690839241893981400,11.0209814453125,-0.0005522081628441811,-0.002187842968851328,-0.00043240562081336975
1690839241904021500,11.031021484375,-0.0009601479396224022,-0.0027747973799705505,0.00045412592589855194
1690839241914062600,11.0410625,-0.000705549493432045,0.002022620989009738,-0.00016026571393013
1690839241924102700,11.0511025390625,0.0009918371215462685,0.00008376117330044508,0.0009767841547727585
1690839241934142500,11.061142578125,0.00014788145199418068,-0.00044460990466177464,-0.0006599929183721542
1690839241944182300,11.071182373046875,0.00014466233551502228,0.0009593277936801314,-0.0008059050887823105
1690839241954223400,11.081223388671875,0.0009542631451040506,-0.0005413633771240711,-0.0013076439499855042
1690839241964263400,11.091263427734376,-0.0020737526938319206,-0.00022129679564386606,0.00032135844230651855
1690839241974303500,11.101303466796875,0.0002581109292805195,0.00015580677427351475,0.00044253282248973846
1690839241984344600,11.111344482421876,-0.0007143197581171989,-0.002076845383271575,-0.0011453405022621155
1690839241994384600,11.121384521484375,0.0005610678344964981,0.001874220441095531,-0.00011230073869228363
1690839242004424400,11.131424560546876,0.0006122044287621975,0.0022078133188188076,-0.001133415848016739
1690839242014464300,11.14146435546875,0.00207214942201972,0.0015143261989578605,-0.0009286180138587952
1690839242024505300,11.15150537109375,0.0009788039606064558,0.0016480687772855163,0.00030459463596343994
1690839242034575400,11.161575439453125,-0.00034904805943369865,-0.0008462478872388601,0.00017836131155490875
1690839242044616400,11.171616455078125,-0.0008432143367826939,0.002750593237578869,0.0007164273411035538
1690839242054656500,11.181656494140626,0.0011650756932795048,0.001375869382172823,-0.0017699003219604492
1690839242064696600,11.191696533203125,-0.0001772688701748848,-0.0003609608393162489,-0.001551501452922821
1690839242074737700,11.201737548828126,0.00037027662619948387,-0.002377506345510483,0.0017763841897249222
1690839242084777500,11.211777587890625,0.00043809693306684494,-0.0008833109168335795,-0.00005960837006568909
1690839242094817300,11.2218173828125,0.0015313245821744204,-0.00200343644246459,-0.00020288676023483276
1690839242104857300,11.231857421875,0.000667134765535593,0.0005611635278910398,0.0013473480939865112
1690839242114898400,11.2418984375,0.0014993727672845125,-0.0015006557805463672,0.001256534829735756
1690839242124938500,11.2519384765625,0.00031506549566984177,-0.00032667932100594044,0.0008500032126903534
1690839242134978600,11.261978515625,-0.00016377074643969536,0.00019530020654201508,0.0013530757278203964
1690839242145019600,11.27201953125,-0.00021684495732188225,0.0003138091415166855,0.0007302332669496536
1690839242155059500,11.2820595703125,-0.000011781696230173111,0.00175484549254179,-0.0011145398020744324
1690839242165099300,11.292099365234375,0.00020628049969673157,0.00019236747175455093,0.0012808293104171753
1690839242175139300,11.302139404296875,-0.000055241864174604416,0.0004701352445408702,-0.0002843104302883148
1690839242185180400,11.312180419921875,0.0015770907048135996,-0.0011080256663262844,-0.0003027990460395813
1690839242195250400,11.32225048828125,0.00045323697850108147,-0.0016092327423393726,0.0008583404123783112
1690839242205291500,11.33229150390625,0.0017838904168456793,-0.0016180031234398484,-0.00024349242448806763
1690839242215331600,11.34233154296875,-0.0007778042927384377,-0.0010233192006126046,0.001018846407532692
1690839242225371400,11.352371337890625,-0.0015972955152392387,0.0016207997687160969,-0.00026877038180828094
1690839242235412500,11.36241259765625,-0.0018327189609408379,0.0013393035624176264,-0.0003891456872224808
1690839242245452300,11.372452392578126,0.000020194798707962036,-0.0008156673284247518,0.0003990195691585541
1690839242255492400,11.382492431640625,-0.000750257633626461,0.0017617398407310247,0.00015986710786819458
1690839242265532400,11.392532470703125,0.0005324273370206356,0.0012372519122436643,-0.0011086929589509964
1690839242275573500,11.402573486328125,-0.00007157772779464722,-0.00006902858149260283,0.0006426014006137848
1690839242285613600,11.412613525390626,0.000019257422536611557,0.0016699900152161717,0.00011988729238510132
1690839242295653400,11.4226533203125,0.0007481644861400127,-0.0016030350234359503,-0.001310497522354126
1690839242305694500,11.432694580078126,-0.0009593171998858452,-0.0015164026990532875,0.00043266452848911285
1690839242315734300,11.442734375,-0.00010044779628515244,-0.0008149261120706797,0.0003413185477256775
1690839242325774300,11.4527744140625,-0.0017295610159635544,0.00032352202106267214,0.0014438331127166748
1690839242335814400,11.462814453125,0.00007632840424776077,0.0019816062413156033,-0.0005929525941610336
1690839242345853200,11.472853271484375,0.00039101066067814827,-0.00015849946066737175,-0.00004623830318450928
1690839242355924200,11.48292431640625,-0.0009493585675954819,0.0004902465734630823,0.0011814795434474945
1690839242365964300,11.49296435546875,-0.0017945179715752602,0.0005991936195641756,0.00040500424802303314
1690839242376004000,11.503004150390625,-0.0004062121734023094,-0.0007041573990136385,-0.000728171318769455
1690839242386044000,11.5130439453125,-0.00107597466558218,0.002194921253249049,-0.00038686953485012054
1690839242396085000,11.5230849609375,-0.0010930192656815052,0.002587737515568733,0.0024834852665662766
1690839242406125000,11.533125,0.0007865778170526028,0.00028243381530046463,-0.0006728079169988632
1690839242416165000,11.5431650390625,-0.000012903008610010147,-0.000948212924413383,0.0021645240485668182
1690839242426206200,11.553206298828124,-0.0008959099650382996,0.0017175946850329638,0.001320844516158104
1690839242436246300,11.563246337890625,0.0011115807574242353,-0.0020084339193999767,-0.0003721266984939575
1690839242446286000,11.5732861328125,0.0007692128419876099,0.00021344353444874287,0.0009407438337802887
1690839242456326000,11.583325927734375,0.00020329095423221588,0.0003758963430300355,-0.0004773903638124466
1690839242466367000,11.593366943359374,-0.00022019119933247566,-0.0003730057505890727,0.001962916925549507
1690839242476407000,11.603406982421875,0.0005105803720653057,0.000029930495657026768,0.0011288151144981384
1690839242486447000,11.613447021484374,-0.001096856314688921,0.0004151514731347561,-0.00035624392330646515
1690839242496488200,11.62348828125,-0.0002142847515642643,0.0010154279880225658,0.001956712454557419
1690839242506528300,11.6335283203125,0.00019375933334231377,-0.0009005002211779356,0.0002162642776966095
1690839242516599300,11.643599365234374,0.0006286534480750561,-0.0015505778137594461,0.000055942684412002563
1690839242526639000,11.65363916015625,-0.0005441838875412941,-0.0003207540139555931,-0.001218542456626892
1690839242536679000,11.663678955078124,0.0005724797956645489,-0.0006312786135822535,-0.001129060983657837
1690839242546719000,11.673718994140625,-0.0004035704769194126,-0.00015316507779061794,-0.0007038339972496033
1690839242556760000,11.683760009765624,-0.0018073227256536484,-0.002057591686025262,-0.0005198102444410324
1690839242566800100,11.693800048828125,0.0007890986744314432,0.0018799975514411926,-0.0006124246865510941
1690839242576840200,11.703840087890624,0.0009286482818424702,0.0006690582958981395,0.001296795904636383
1690839242586881300,11.71388134765625,-0.001682894304394722,-0.0008508620085194707,-0.0014324691146612167
1690839242596921000,11.723921142578124,0.0008034331258386374,-0.0007821525214239955,0.0005989894270896912
1690839242606961000,11.7339609375,0.0015646987594664097,0.0016238655662164092,0.0007636528462171555
1690839242617001000,11.7440009765625,0.0009356602095067501,0.000076036318205297,-0.0017708782106637955
1690839242627042000,11.7540419921875,-0.0001354576088488102,0.002059181686490774,-0.00018351338803768158
1690839242637082000,11.76408203125,0.0006525716744363308,-0.000698787858709693,0.0009422041475772858
1690839242647122200,11.7741220703125,0.0006444393657147884,-0.0009909780928865075,-0.0003984179347753525
