time,seconds_elapsed,z,y,x
1690841422045723600,0.1937236328125,0.2547521751821041,0.14215077340202406,0.0002168529831436899
1690841422055763700,0.203763671875,0.2526964116960764,0.17225684732496738,0.009613362091616727
1690841422065803800,0.2138037109375,0.2544178286612034,0.19516186729529872,0.016894417911302296
1690841422075844900,0.223844970703125,0.27294132734537124,0.2145837943902239,0.012516992844943889
1690841422085885000,0.233885009765625,0.26322598901689054,0.2303301930438727,0.011262554070749319
1690841422095924700,0.2439248046875,0.27076106069684025,0.22516875516008583,0.010360846857517026
1690841422105995800,0.253995849609375,0.2674041514843702,0.22439026333456857,0.005825943374237977
1690841422116035600,0.26403564453125,0.25688743364512917,0.20693234805529936,0.00300193546207156
1690841422126075600,0.27407568359375,0.25476269657611844,0.1775534741620533,0.0067701014897087585
1690841422136116700,0.28411669921875,0.23245851030945777,-0.028618958904035388,-0.007422606015112251
1690841422146156800,0.29415673828125,0.21883505862653255,-0.08313128767311573,-0.010941702927305594
1690841422156196900,0.30419677734375,0.20780863769948482,-0.12639836513269692,-0.011582886907673673
1690841422166238000,0.314238037109375,0.1980623197108507,-0.16896887516286224,-0.002347330311127007
1690841422176277800,0.32427783203125,0.1823468641847372,-0.2095470057994127,0.005124045607511652
1690841422186317600,0.334317626953125,0.17116145330369473,-0.23956187604125587,-0.002685768485255539
1690841422196357600,0.344357666015625,0.17459318131804466,-0.25004447241518646,-0.002572974026855081
1690841422206398700,0.354398681640625,0.17529753019511699,-0.2566295864265412,-0.004613877870468423
1690841422216438800,0.364438720703125,0.183397250020504,-0.2482976287478581,-0.004498087737383321
1690841422226478800,0.374478759765625,0.17972177637815476,-0.228292805464752,0.004088082164386287
1690841422236520000,0.38452001953125,0.17816928623914718,-0.20230404893383383,0.0037588222397345813
1690841422246589700,0.394589599609375,0.19654840801656245,-0.16988767050821332,0.002642121139774099
1690841422256630800,0.404630859375,0.20090952583551405,-0.1180243949431926,0.004719795063510537
1690841422266670600,0.414670654296875,0.21172493436038492,-0.07754837297424673,-0.0038834903698414564
1690841422276710700,0.424710693359375,0.22700842821002004,-0.05430842196112498,-0.0057082307121250776
1690841422286751700,0.434751708984375,0.2319558214843273,-0.013615177044924348,-0.0023750408727821193
1690841422296791800,0.444791748046875,0.23298574905395505,0.02279956856817007,-0.007051882710555219
1690841422306832000,0.454831787109375,0.24101357268691062,0.039471210574265565,-0.004915463766083121
1690841422316871700,0.46487158203125,0.24706454328894614,0.05376397635350003,-0.004859203534200787
1690841422326912800,0.474912841796875,0.24216274272203445,0.06075272099599242,-0.005190076031448552
1690841422336952600,0.48495263671875,0.23766017060577868,0.06290228197900578,-0.00017810564641840756
1690841422346992600,0.49499267578125,0.23058511765301226,0.05458917513126507,0.004136057483468903
1690841422357032700,0.50503271484375,0.21378069784641265,0.04250329001285136,-0.0031337086155777795
1690841422367073800,0.51507373046875,0.21939152346551416,0.01999216473093256,0.006059793229307979
1690841422377144800,0.525144775390625,0.22213293112814425,-0.0013181333938613532,0.0025181066010380162
1690841422387178200,0.53517822265625,0.21048983960747716,-0.022620851000398397,0.0013993545370642095
1690841422397218300,0.54521826171875,0.19268997902274132,-0.03970649890117347,-0.0016268751160474493
1690841422407258400,0.55525830078125,0.18698972155451773,-0.06272118979105726,-0.008216683568828738
1690841422417299200,0.56529931640625,0.19249182610213755,-0.0684137754094787,-0.009898604207206518
1690841422427339000,0.575339111328125,0.18525895223915576,-0.07639195121442899,-0.006124291566573083
1690841422437379000,0.585379150390625,0.18085984049737452,-0.09057818787926808,0.008206019469274906
1690841422447420200,0.595420166015625,0.1836369039952755,-0.08997251360369846,0.008332966892258264
1690841422457460200,0.605460205078125,0.18447101673185826,-0.08734854004196822,0.005562561464007012
1690841422467500300,0.615500244140625,0.19833178430199622,-0.07257853040611371,0.006289546864572912
1690841422477540400,0.625540283203125,0.20292086565792558,-0.056820386515744024,0.010644472404755651
1690841422487581200,0.635581298828125,0.19735504822432995,-0.03953691448792815,0.00788361911449465
1690841422497621000,0.64562109375,0.20990356415212152,-0.021045984632801263,-0.003699530942193814
1690841422507692000,0.655692138671875,0.21872926016449926,-0.008282090654969215,-0.004786832417733967
1690841422517732000,0.665732177734375,0.21740239547491072,-0.00004091653227806091,-0.008061127680935896
1690841422527772200,0.675772216796875,0.21728782918453216,0.01699933959050104,-0.00024323987956740892
1690841422537813200,0.685813232421875,0.21479133619368074,0.03019185251025483,-0.005014142934163101
1690841422547853300,0.695853271484375,0.21933190223276613,0.03187613406907767,-0.003207965728454292
1690841422557893400,0.705893310546875,0.21400223164260387,0.032140045702271164,0.002423843313171528
1690841422567933200,0.71593310546875,0.2227408338934183,0.0230967979490757,-0.005919503409205935
1690841422577974000,0.72597412109375,0.22175065381228923,0.01665931224748492,-0.001151764992653625
1690841422588014000,0.73601416015625,0.20340192717313765,0.017719927216321228,0.0009479757740627974
1690841422598054100,0.74605419921875,0.18864099589288233,0.0059098450982943175,-0.007260675185360014
1690841422608095200,0.75609521484375,0.19855390262007713,-0.006815707896836102,-0.0010665560858557
1690841422618135300,0.76613525390625,0.19962474672198294,-0.019929328627791256,0.001339116816385649
1690841422628175400,0.77617529296875,0.19499533335566518,-0.030919052539952096,-0.00506733442612458
1690841422638246100,0.78624609375,0.18377309759557245,-0.04211750556565821,0.00372048182785511
1690841422648286200,0.7962861328125,0.18570494244098662,-0.044457401489000764,0.0011274924928555265
1690841422658327000,0.8063271484375,0.19181845688521862,-0.05041356994705275,-0.0015470011131372302
1690841422668367000,0.8163671875,0.18684534464776514,-0.05662550326446071,-0.007300756033998913
1690841422678407200,0.8264072265625,0.1821680004864931,-0.046506552571151404,-0.0014915400322759523
1690841422688447200,0.836447265625,0.1899105774372816,-0.0417461515026167,0.0020329899652162566
1690841422698488300,0.84648828125,0.19256898299157618,-0.032976733988430346,0.003146170804928988
1690841422708528000,0.856528076171875,0.19433365457653998,-0.03151341997021809,0.006310994936333736
1690841422718568200,0.866568115234375,0.20224165122210977,-0.014731960914097725,-0.006176094819046556
1690841422728609000,0.876609130859375,0.19593992072939873,-0.011950038577988743,-0.001920748062664643
1690841422738649000,0.886649169921875,0.2114958017796278,0.0017217822913080452,-0.00697700853892602
1690841422748689200,0.896689208984375,0.2179401556134224,0.006441686952672898,-0.003717116260412149
1690841422758729200,0.906729248046875,0.20388824938535688,0.008930508093722164,-0.001661571970093064
1690841422768800300,0.91680029296875,0.19777707302868366,0.012274758754018693,-0.004400984038459137
1690841422778840000,0.926840087890625,0.226684018561244,0.01752719938950613,-0.00031462347370106724
1690841422788881200,0.936881103515625,0.19828443802893161,0.021910437708720563,-0.0005061925315356348
1690841422798921200,0.946921142578125,0.2219569900393486,0.007538414414506405,-0.0005012377952050883
1690841422808961300,0.956961181640625,0.19400223066508768,0.0002794379958882928,0.0015437816761666907
1690841422819002000,0.967002197265625,0.2085457198023796,-0.0077091861378401514,0.0028070476442109793
1690841422829042200,0.977042236328125,0.19091595508754253,-0.019178985184524208,-0.0003050199617166072
1690841422839082200,0.987082275390625,0.20201602577269076,-0.017658132292795926,-0.003926594292628579
1690841422849122000,0.9971220703125,0.1911123544424772,-0.027345577967353162,-0.006869072918733582
1690841422859163100,1.0071630859375,0.19366320796906947,-0.033187728124298155,-0.009719050955795682
1690841422869203200,1.017203125,0.17749767058789728,-0.02962864740323275,-0.007099940798850729
1690841422879243000,1.027242919921875,0.19439502937495706,-0.03891374108828604,-0.01491986643532291
1690841422889284000,1.0372841796875,0.18285072205364702,-0.02615907159652561,-0.008594298409298063
1690841422899324200,1.04732421875,0.17593582809865474,-0.02485867478875443,0.010652669410943052
1690841422909395200,1.057395263671875,0.18293956938087938,-0.029169560257811096,0.025817112591327167
1690841422919435300,1.067435302734375,0.203861945900321,-0.019649726235121488,0.023065247466764412
1690841422929475000,1.07747509765625,0.1793009206175804,-0.014355638414993882,0.011214847038080915
1690841422939516200,1.08751611328125,0.19949322929680346,-0.01220459786094725,0.0059655025419779115
1690841422949556200,1.09755615234375,0.19963994429111478,-0.0084571732272394,-0.003349022733536549
1690841422959596000,1.107595947265625,0.207129423263669,-0.007564918828941882,-0.01732164404715877
1690841422969636000,1.117635986328125,0.19875731623768805,-0.006522150044050067,-0.023266176866344176
1690841422979677200,1.12767724609375,0.1917313631236553,-0.0020077961584553123,-0.01829110100066755
1690841422989717200,1.13771728515625,0.20476094056665897,0.0028142902357503772,-0.007762761222291737
1690841422999757000,1.147757080078125,0.20252748242616653,0.012130053053703158,-0.002003311779582873
1690841423009797000,1.157797119140625,0.18742869749367236,0.0076421487836167215,0.010690635934309103
1690841423019838200,1.167838134765625,0.19687047957777976,-0.002539966806396842,0.02641139325662516
1690841423029878000,1.1778779296875,0.18461773172616958,-0.0075644621712155635,0.027613996812305412
1690841423039949000,1.187948974609375,0.17490706957280636,-0.010706760518625378,0.005633124215877614
1690841423049989000,1.197989013671875,0.19871639970541,-0.01066761581832543,-0.006025242505734786
1690841423060029200,1.208029296875,0.19349077401161194,-0.010959748899005353,-0.01852590983696282
1690841423070070300,1.2180703125,0.18855682474076746,-0.017808116956427693,-0.0328101543830242
1690841423080110000,1.228110107421875,0.20471300977170467,-0.01842856867602095,-0.02401119568052236
1690841423090150100,1.238150146484375,0.19078677574992178,-0.017898480387311427,-0.02460249893744476
1690841423100191200,1.248191162109375,0.1892787092745304,-0.01341360832452774,-0.008633977399137802
1690841423110231000,1.25823095703125,0.18986498472988605,-0.020616708103753625,0.00784719723588787
1690841423120271000,1.26827099609375,0.19104981060028076,-0.027376411497034132,0.008612660616473294
1690841423130311200,1.278311279296875,0.19762159020602701,-0.01802636281698942,0.022689952447544782
1690841423140352300,1.288352294921875,0.19731471621394156,-0.025083697449974716,0.024518588080233893
1690841423150392000,1.29839208984375,0.19087562307715414,-0.020071385713294147,0.011340651675104164
1690841423160432000,1.30843212890625,0.18952888464331627,-0.008719696620944887,0.003014767544181086
1690841423170503200,1.318503173828125,0.19237316815853117,-0.009434822620358317,-0.010754814611165784
1690841423180543200,1.328543212890625,0.20509587160944937,-0.003633497664146125,-0.01546418417878449
1690841423190584000,1.338583984375,0.19612170703709125,-0.009891973537020385,-0.021709439810481852
1690841423200624000,1.3486240234375,0.19597849917411803,-0.0015449644196778535,-0.022503275335603392
1690841423210664200,1.358664306640625,0.19732816021740435,-0.0028956483762711286,-0.018229009249620138
1690841423220704000,1.3687041015625,0.19658757098317145,-0.005107881065644323,-0.0014910742413951083
1690841423230745000,1.3787451171875,0.18701953217089176,-0.0020422281510196626,0.006018009047349914
1690841423240785200,1.38878515625,0.17999065644741058,-0.007255049162171781,0.006807437825412489
1690841423250825200,1.3988251953125,0.1928641665458679,-0.010659615174960344,0.013999883779883385
1690841423260866000,1.408865966796875,0.1882324150919914,-0.010699508793931454,0.012914965486852451
1690841423270906000,1.418906005859375,0.19392332020998,-0.017403481678292154,0.010177243052073754
1690841423280946200,1.4289462890625,0.19542495694458484,-0.018113949768897145,0.0039055195385590195
1690841423290986000,1.438986083984375,0.1812134762406349,-0.01497340498715639,0.0013298649308504536
1690841423301057000,1.44905712890625,0.18989128821492193,-0.013363631702959537,-0.008828276128531433
1690841423311098000,1.45909814453125,0.19138357259929178,-0.011144585680309682,-0.008829029613779857
1690841423321138200,1.46913818359375,0.191976277795434,-0.005232694755401462,-0.010097898772126064
1690841423331178200,1.47917822265625,0.18119477154016495,-0.009424008965399116,-0.012938921751175074
1690841423341218300,1.48921826171875,0.188220140132308,-0.014950279839895666,-0.005407548998808488
1690841423351259100,1.499259033203125,0.18252806597054003,-0.01621799822077155,0.0005220648124581202
1690841423361299200,1.50929931640625,0.17803718429207802,-0.016737254588212815,0.004618818907067179
1690841423371339000,1.519339111328125,0.1870177786052227,-0.01020376116624102,0.019924871648382393
1690841423381380000,1.529380126953125,0.19539865345954893,-0.005360303190443665,0.017981295265979132
1690841423391414000,1.5394140625,0.19240590138435362,-0.004038607866317033,0.012392475982708855
1690841423401454000,1.5494541015625,0.17923720773160456,-0.00542156839100644,0.007775196012179367
1690841423411494100,1.559494140625,0.18731646929085252,-0.005636672446411103,0.00007506996362935751
1690841423421535000,1.569534912109375,0.19001111520230768,-0.009780092394072562,-0.010974677040078677
1690841423431605000,1.57960498046875,0.18567220921516417,-0.0037658918721601366,-0.017367725378321482
1690841423441646000,1.58964599609375,0.20004151082932947,-0.00823837937740609,-0.015817235400155186
1690841423451686000,1.599685791015625,0.19271335989832877,-0.009704981331247836,-0.009719754208694212
1690841423461726000,1.609725830078125,0.182242819288373,-0.008014708423055707,-0.00010746526273433119
1690841423471767000,1.61976708984375,0.17820552659630776,-0.01445453221220523,0.00291773234391585
1690841423481807000,1.62980712890625,0.18673779262006282,-0.007006572560127824,0.014320589934499002
1690841423491847000,1.639846923828125,0.18823767578899858,-0.010916896137967706,0.00916918025438208
1690841423501887000,1.649886962890625,0.18075813368856905,-0.016799670566245914,0.009265562434098682
1690841423511928000,1.659927978515625,0.1852443391919136,-0.008854483715444802,0.010645572949876076
1690841423521967900,1.6699677734375,0.18958207613527775,-0.017323237782623617,0.005460589793720282
1690841423532008000,1.680008056640625,0.18284312326908111,-0.02204239352531731,-0.005078869600291363
1690841423542049000,1.690049072265625,0.1888210286349058,-0.00617726386282593,-0.01148458562386222
1690841423552089000,1.700089111328125,0.1841764176994562,-0.008793492509517819,-0.016925009412388316
1690841423562129000,1.71012890625,0.18043080143034457,-0.01794717836724594,-0.015712473551160656
1690841423572200000,1.720199951171875,0.18671382722258567,-0.014425196519866585,-0.007948689415561967
1690841423582240000,1.730239990234375,0.19344751939177512,-0.011122684375755488,-0.005749485171120614
1690841423592279800,1.74027978515625,0.1852186202287674,-0.018245850786566733,0.0025726543664466588
1690841423602321000,1.75032080078125,0.18566987112760544,-0.007656122510042041,0.0009609722529537975
1690841423612361000,1.76036083984375,0.1835807898938656,-0.0077263930009678,0.015966603575856424
1690841423622401000,1.770401123046875,0.1717588346749544,-0.01569691522242501,0.008645480607263743
1690841423632442000,1.780442138671875,0.17684709772467613,-0.012548388063628227,0.0044976173799252134
1690841423642482000,1.79048193359375,0.19046587323248385,-0.0018607158379629254,-0.0018809594749705865
1690841423652522000,1.80052197265625,0.18373510367274284,-0.007443977596703916,-0.010393835811666212
1690841423662561800,1.810561767578125,0.1900233901619911,-0.013441665375232696,-0.023621662073396145
1690841423672603000,1.820602783203125,0.18224340381026266,-0.016820822952128944,-0.00853177283341065
1690841423682643000,1.830642822265625,0.17805296638309956,-0.022074341299850492,-0.005353686219989322
1690841423692683000,1.84068310546875,0.17999883975386619,-0.01245343978917226,-0.008265733175212517
1690841423702754000,1.850754150390625,0.18583762890994548,-0.007536697381455451,-0.004415501187578775
1690841423712794000,1.860794189453125,0.17940730360150337,-0.012907174906041473,0.003353534511872567
1690841423722835000,1.8708349609375,0.17686346433758734,-0.008435564183630048,0.0045152763342019165
1690841423732875000,1.880875,0.18164777600467205,-0.00993851609248668,0.007942561068874783
1690841423742914800,1.890914794921875,0.18299276087284086,-0.005993176000192761,0.005251088928617537
1690841423752956000,1.900955810546875,0.18149580031335352,-0.012314323579426854,-0.0011399501156294717
1690841423762996000,1.910995849609375,0.18718086021244526,-0.0062295603056438265,-0.0032935570860980075
1690841423773036000,1.9210361328125,0.18059446755945682,-0.009312292219232767,-0.005988394793798216
1690841423783076000,1.931076171875,0.18388532579839229,-0.011146138316579162,-0.006350204710359685
1690841423793117000,1.941116943359375,0.18044366091191769,-0.008154226491600275,-0.0129412004732294
1690841423803157000,1.951156982421875,0.17804770568609238,-0.01255819707158953,-0.005360572618502192
1690841423813196800,1.96119677734375,0.19226444708704948,-0.018210341081768274,0.008340259716147557
1690841423823238000,1.97123779296875,0.18478432046473026,-0.006007058395072817,0.0008498263289453461
1690841423833308000,1.981307861328125,0.18104513393640517,-0.004125866024661809,0.000276182026299648
1690841423843349000,1.991348876953125,0.17805179733932017,-0.013733962852694093,0.020817491372860968
1690841423853389000,2.00138916015625,0.18523381779789924,-0.00913834215812385,0.013533073410665383
1690841423863429000,2.01142919921875,0.18014204761683938,-0.011714640653226523,0.003495162339112721
1690841423873469000,2.021468994140625,0.17654899156093595,-0.01688091910891235,0.003860342389694415
1690841423883509800,2.031509765625,0.17595219471156595,-0.008119977162126452,-0.0017885684837820007
1690841423893549800,2.0415498046875,0.18732640616297722,-0.004602251364756375,-0.009739267193339764
1690841423903590000,2.05158984375,0.192563722294569,-0.010289740682952105,-0.012279562793299555
1690841423913631000,2.061630859375,0.18253624927699566,-0.005854023257829248,-0.008596768927597441
1690841423923671000,2.071671142578125,0.18074176707565784,-0.0063946877394802865,-0.012563553666719235
1690841423933711000,2.081711181640625,0.1853793637484312,-0.011536270145326852,0.0021938476493116466
1690841423943751200,2.091751220703125,0.18073884446620941,-0.009651661975122988,-0.0004354870741255581
1690841423953792000,2.1017919921875,0.17924246842861175,-0.0008326148992404341,-0.0018249504048377275
1690841423963862800,2.11186279296875,0.1804384002149105,-0.0002725515973754227,-0.0017507800569292156
1690841423973902800,2.12190283203125,0.17100830856859683,-0.008029321470297873,-0.0025335096661467105
1690841423983943000,2.13194287109375,0.18687106361091135,-0.006802044697664678,-0.0044690077733714135
1690841423993983000,2.14198291015625,0.18283201735317706,-0.008094860987178982,-0.004138081618840806
1690841424004024000,2.152024169921875,0.18328209920823574,-0.01343454151470214,-0.0019746747735654934
1690841424014064000,2.162064208984375,0.1799929945349693,-0.010615136712417006,-0.010768381912214681
1690841424024104000,2.17210400390625,0.18657997170984744,-0.009446823585405946,-0.008771230445359834
1690841424034144800,2.182144775390625,0.1846340983390808,-0.009616499330196529,-0.004253369428426959
1690841424044184800,2.192184814453125,0.18732465259730816,-0.010479454568773507,-0.0040115965618053445
1690841424054225000,2.202224853515625,0.18956863213181493,-0.016030293628945945,0.001133351411484182
1690841424064265000,2.212264892578125,0.17909341534674167,-0.015464951363764702,-0.002533139773388393
1690841424074306000,2.22230615234375,0.17669804464280603,-0.004888794954866171,0.0008476663378998636
1690841424084346000,2.23234619140625,0.1862766048491001,-0.006172605954017489,0.00150382869169116
1690841424094417200,2.242417236328125,0.1770014115035534,-0.011617847481556236,0.0005775258933193981
1690841424104457000,2.25245703125,0.18029343878626822,-0.00803005212265998,0.0024414246356347573
1690841424114497000,2.2624970703125,0.18164134626388548,-0.009326375543512403,0.002554360657930374
1690841424124537900,2.272537841796875,0.1774538314461708,-0.012966394279990344,-0.011546097419597208
1690841424134578000,2.282577880859375,0.18867840529382227,-0.014253675877861678,-0.0013081736888503656
1690841424144618000,2.292617919921875,0.1867348700106144,-0.005207542047835886,0.004402302637643879
1690841424154658000,2.302657958984375,0.18912790262699125,-0.013326441497728228,-0.007069513694546185
1690841424164699100,2.31269921875,0.18359014224410056,-0.0105280064182356,0.0013888057435862719
1690841424174739000,2.322739013671875,0.18358955772221086,-0.010987623286619782,0.006434855353087187
1690841424184779000,2.332779052734375,0.17775252213180065,-0.0014650675838813185,-0.0007596957935020328
1690841424194819800,2.34281982421875,0.17640519917607306,-0.009710187229327857,-0.00043582956742029634
1690841424204860000,2.35285986328125,0.18657997170984744,-0.013475823373161255,-0.005743818048737011
1690841424214900000,2.36289990234375,0.17625789965987204,-0.013069197067338972,0.0011103632615413516
1690841424224971000,2.372970947265625,0.17835399515628814,-0.018549637772422283,0.00182972704465501
1690841424235011000,2.383010986328125,0.1825479397147894,-0.020493593180738387,0.001202151464531198
1690841424245051000,2.39305078125,0.17955577216148375,-0.01701404396928847,-0.0003196741081541404
1690841424255092000,2.403092041015625,0.1806044044315815,-0.015622863605525344,-0.0007711076700827106
1690841424265132000,2.413132080078125,0.19691548776328563,-0.0064813979085534806,-0.006925301184575073
1690841424275172000,2.423172119140625,0.19122984334230422,-0.004218987668212503,-0.012234481542557477
1690841424285213000,2.433212890625,0.18644085550010203,-0.008873060551751405,-0.009882169095636344
1690841424295253000,2.4432529296875,0.18958441422283648,-0.010332520378753542,-0.003612783669680357
1690841424305293000,2.45329296875,0.18449790473878383,-0.0071424008342437445,-0.009648273574793712
1690841424315332900,2.463332763671875,0.1844990737825632,-0.0031850780432112515,0.000332113464619033
1690841424325374000,2.4733740234375,0.1798638151973486,-0.011131908861827104,0.0000054661929840222
1690841424335414000,2.4834140625,0.1783686082035303,-0.015416198584903031,0.004338230133708566
1690841424345454000,2.4934541015625,0.17911679622232912,-0.013032152992580086,0.0010689992046914994
1690841424355495000,2.503494873046875,0.1825567075431347,-0.005479216862376779,0.0019977862210944293
1690841424365565200,2.513565185546875,0.19288111768066882,-0.00940148660633713,-0.003920164551842026
1690841424375606000,2.52360595703125,0.1876449705928564,-0.009048946841619908,0.001266850731195882
1690841424385639400,2.533639404296875,0.17657120339274404,-0.00937388621335849,-0.005887774830381385
1690841424395679500,2.543679443359375,0.173428813713789,0.004094192244764417,-0.005459169588191435
1690841424405720600,2.553720458984375,0.18345628673136233,-0.00901763838790357,-0.005149885584955337
1690841424415760600,2.5637607421875,0.17627543531656265,-0.022555567211844027,-0.006539408281171927
1690841424425800400,2.573800537109375,0.17777122683227062,-0.008202906205225735,-0.003277884592930786
1690841424435840300,2.58384033203125,0.17477672119140625,-0.012311693230923265,0.0035299961904762312
1690841424445881300,2.59388134765625,0.1806125877380371,-0.011096928879991173,0.0030125801536720243
1690841424455921400,2.60392138671875,0.1756763003796339,-0.007740019667521119,0.005471252751629799
1690841424465961500,2.61396142578125,0.18794599936604497,-0.005524973966553807,0.0032540333598852157
1690841424476002600,2.62400244140625,0.1949772131770849,-0.00979682433316484,-0.007641947854217141
1690841424486042600,2.634042724609375,0.1819599106937647,-0.014389394554123282,-0.0018803110209992153
1690841424496113400,2.644113525390625,0.1818108576118946,-0.014667681772541253,-0.0006764607897261157
1690841424506153500,2.654153564453125,0.1861538552522659,-0.007493588892091065,-0.0008287789743393659
1690841424516193300,2.664193359375,0.17987492111325262,-0.004575418156757951,-0.008998856055620126
1690841424526233300,2.6742333984375,0.17763035705685615,-0.013994148158840834,-0.007357418124680407
1690841424536274400,2.6842744140625,0.17628361862301825,-0.015197386468760668,-0.0011291729932883753
1690841424546314500,2.694314453125,0.18271862010657786,-0.01830570948133245,-0.00015379318906925618
1690841424556354600,2.7043544921875,0.1800245587170124,-0.014885818035248665,-0.00017294541411101816
1690841424566395600,2.714395751953125,0.17418810764849185,-0.0065351921887137,0.0014016652251593767
1690841424576435200,2.724435302734375,0.19304361476600168,-0.00841875917930156,-0.005191312432242557
1690841424586475300,2.734475341796875,0.18122399763464928,-0.014196063939109443,-0.00027054686995688825
1690841424596515300,2.744515380859375,0.16715630931556225,-0.008580434280727058,0.000860279224300757
1690841424606556400,2.754556396484375,0.17882862693071364,-0.011695808088593185,-0.002079929812904447
1690841424616596500,2.764596435546875,0.19169921441972254,-0.011179035939183086,-0.0009355364175979048
1690841424626667500,2.77466748046875,0.17928046235144138,-0.01651146474201232,0.003694342739600688
1690841424636707300,2.784707275390625,0.17419336834549903,-0.0184255364687182,-0.0014856811136472968
1690841424646747400,2.794747314453125,0.17658581643998622,-0.011469251057412474,-0.0018612409943481907
1690841424656788200,2.804788330078125,0.1831698710054159,-0.005043218331597745,0.005984093078016303
1690841424666828300,2.814828369140625,0.1852653819799423,-0.008011858878843486,0.0009320201531052589
1690841424676868400,2.824868408203125,0.1818237170934677,-0.004419679605774581,0.0005953492443775758
1690841424686909400,2.834909423828125,0.18122458215653894,-0.013122826950717717,-0.000537897135829553
1690841424696949500,2.844949462890625,0.1815232728421688,-0.01104397485004738,0.005266948651452549
1690841424706989600,2.854989501953125,0.1771837823331356,-0.013143979336600749,0.0036905524804722516
1690841424717029400,2.865029296875,0.17703297568559645,-0.02007673774184659,-0.00838751922424417
1690841424727070200,2.8750703125,0.17089900297522545,-0.017931122281588614,-0.0015708249467192216
1690841424737110300,2.8851103515625,0.17658464739620686,-0.019313717480096963,-0.002484711221512407
1690841424747150300,2.895150390625,0.18137188167273996,-0.012014390784781425,-0.010802973734983243
1690841424757221400,2.905221435546875,0.176882753559947,-0.01574946739356965,-0.008555861528473905
1690841424767261400,2.915261474609375,0.17448913642168043,-0.003172930947691202,-0.0010206482846289873
1690841424777302500,2.925302490234375,0.1729927603840828,-0.009607366175670175,0.0005863074213964864
1690841424787342300,2.93534228515625,0.17419103025794028,-0.008501085434202105,-0.0015010339464060962
1690841424797382400,2.94538232421875,0.1746393585473299,-0.004941913381591439,-0.002238654905417934
1690841424807422500,2.95542236328125,0.17299451394975185,-0.006385097927227616,0.006701315136393532
1690841424817463300,2.96546337890625,0.1839203971117735,-0.007334489340241998,0.0005460713091306388
1690841424827503400,2.97550341796875,0.19080664949417114,-0.006335943289566785,-0.0005168497812235728
1690841424837543400,2.98554345703125,0.1816840163618326,-0.009702131787035613,-0.0075350077478680754
1690841424847584500,2.99558447265625,0.18048866909742353,-0.010677150831650942,-0.005768253803672269
1690841424857624300,3.005624267578125,0.1894669253230095,-0.009332586088590323,-0.0037908847495215013
1690841424867664400,3.015664306640625,0.17914368422925472,-0.015705957045406102,0.0014455271997721865
1690841424877704400,3.025704345703125,0.18168693897128105,-0.011535192433092742,0.004390873636398464
1690841424887775500,3.035775390625,0.18318097692131996,-0.0039762649535201484,0.0023345119287492707
1690841424897815600,3.045815673828125,0.17509937727451325,-0.013914781046006828,-0.0017409482160815968
1690841424907856400,3.0558564453125,0.18123276546299458,-0.007386676185205578,-0.0004060874497052282
1690841424917896400,3.065896484375,0.18407763350009917,-0.01361033647302538,0.001832421325240284
1690841424927936300,3.075936279296875,0.1803378624498844,-0.013868585550412534,-0.005877029674081132
1690841424937977300,3.085977294921875,0.1762988161921501,-0.012163462132960557,0.0033095218402100727
1690841424948017400,3.096017333984375,0.18408289419710636,-0.009061934187356383,-0.0036777432312490414
1690841424958057500,3.106057373046875,0.18049159170687198,-0.01188804272506386,0.0027601443291408938
1690841424968097500,3.11609765625,0.17674948256909845,-0.0035805071015842255,-0.0001984508897701744
1690841424978138400,3.126138427734375,0.19066577971875667,-0.015104885879717766,-0.0017821935419226065
1690841424988178400,3.136178466796875,0.18183833014070985,-0.0015907397901639342,-0.0003903236249927431
1690841424998218200,3.14621826171875,0.1762988161921501,-0.0027464674302376804,-0.007861207494931296
1690841425008259300,3.15625927734375,0.17525076844394205,-0.012201711784116923,-0.005453831259370781
1690841425018329300,3.166329345703125,0.17120938409864903,-0.011788089481927454,0.0009572459259070455
1690841425028370400,3.176370361328125,0.1825824265062809,-0.009822525030001998,-0.007013052533264272
1690841425038410500,3.186410400390625,0.1824339579463005,-0.005131919528357684,-0.009048540416243485
1690841425048450600,3.196450439453125,0.17674948256909845,-0.01478350843824446,-0.004945507277897559
1690841425058491400,3.206491455078125,0.17435820351839065,-0.012279416662827133,-0.0031268267836421725
1690841425068531500,3.216531494140625,0.1727127743989229,-0.008665737944003195,-0.0035481757345609366
1690841425078571300,3.2265712890625,0.18169219966828823,-0.009366817151755094,-0.007406202869582921
1690841425088611300,3.236611328125,0.17271511248648166,-0.006158741825446486,-0.00698416893207468
1690841425098652400,3.24665234375,0.1791477758824825,-0.012220599147677421,-0.0060455500748241315
1690841425108692500,3.2566923828125,0.1770493422985077,-0.011600640618428587,-0.007190770020615309
1690841425118732500,3.266732666015625,0.17734627941846848,-0.013056666379328816,-0.005470745861553587
1690841425128773400,3.2767734375,0.18078969787061214,-0.009993424617499113,-0.0010527467562118544
1690841425138813400,3.2868134765625,0.1767512361347675,-0.009466624264419079,0.00261870373156853
1690841425148853200,3.296853271484375,0.17151625809073448,-0.009963961060997098,0.0005864855179097503
1690841425158924300,3.30692431640625,0.17106792980134486,-0.012044073536992073,-0.006073081969143823
1690841425168964400,3.31696435546875,0.17361410715281964,-0.013296594348736106,-0.005156049322616309
1690841425179004400,3.32700439453125,0.177654906976223,-0.013879399205371736,0.000706750896712765
1690841425189045500,3.33704541015625,0.17481179250478743,-0.0057937444379553196,0.00160492357914336
1690841425199085600,3.34708544921875,0.17825638000071048,-0.0053696920732967555,0.0022692144404631107
1690841425209125600,3.357125732421875,0.18274667715728282,-0.016096472466643898,-0.001655388824478723
1690841425219166500,3.36716650390625,0.17721183938384055,-0.006303374460525811,-0.011951531848753801
1690841425229206300,3.377206298828125,0.18170096749663353,-0.005863996662572026,-0.0045730024373857306
1690841425239246300,3.387246337890625,0.17347440642118453,-0.010509867973346262,0.0009321160512277856
1690841425249286400,3.397286376953125,0.18694529789090156,-0.010804741000384092,-0.0016412415681174024
1690841425259327500,3.407327392578125,0.19278525609076022,-0.011522241619974375,0.00014497512837406248
1690841425269367600,3.417367431640625,0.1728834547907114,-0.01048237717822194,0.004207493593241088
1690841425279407600,3.42740771484375,0.16899404613673685,-0.014638875803165138,-0.0055156170497415585
1690841425289478400,3.437478515625,0.1718377451300621,-0.004130834460724145,-0.00670047945275437
1690841425299518500,3.4475185546875,0.17796937975287436,-0.0012782580411992966,0.008402114005177281
1690841425309559300,3.457559326171875,0.16659633734524248,-0.011639200796838849,0.0013975781385088338
1690841425319599400,3.467599365234375,0.17123451853990554,-0.008958382481336593,-0.0070748657230986275
1690841425329639400,3.477639404296875,0.17437632369697093,-0.002708016849681735,-0.005202217418747023
1690841425339680500,3.487680419921875,0.17332944499254227,-0.0070109382079914205,-0.0012984879784751684
1690841425349720600,3.497720458984375,0.17886603633165357,-0.004323379624448716,-0.008231036321166903
1690841425359760600,3.5077607421875,0.1814104601174593,-0.009380918742343782,-0.009306469833222218
1690841425369800400,3.517800537109375,0.17617372850775717,-0.01817917875852436,0.0005532271357020363
1690841425379841300,3.52784130859375,0.1796153933942318,-0.016975556856114415,0.0008775408863555639
1690841425389877500,3.53787744140625,0.17811901735663413,-0.0115892424415797,0.0016916611476801334
1690841425399917600,3.54791748046875,0.1851519847333431,-0.010244147975556553,0.0013023284699534997
1690841425409957600,3.55795751953125,0.18156185128688812,-0.01588018110115081,-0.0015437131775077433
1690841425420028700,3.568028564453125,0.1700426784068346,-0.015463216064404695,-0.006541694994736462
1690841425430069800,3.57806982421875,0.17752455859482288,-0.0078354245997034,-0.005322135737678035
1690841425440109800,3.58810986328125,0.1731838990420103,-0.016859784989338367,0.002157826487859711
1690841425450149600,3.598149658203125,0.17467969055771826,-0.00971493646968156,-0.000372436341852881
1690841425460189700,3.608189697265625,0.18246201499700546,-0.015328246306814253,-0.004629618862294592
1690841425470230500,3.61823046875,0.1742337003558874,-0.009427917955536394,-0.007470244549121707
1690841425480270600,3.6282705078125,0.173937932279706,-0.010176233838498592,-0.0005803343383362517
1690841425490310700,3.638310546875,0.17738135073184966,-0.009210548877809196,-0.0016978990922216326
1690841425500351700,3.648351806640625,0.17334288899600506,-0.006441065898165107,-0.0018775528083322568
1690841425510391800,3.658391845703125,0.1866606357306242,-0.00929583427477628,0.0014908550456864758
1690841425520431600,3.668431640625,0.18232114522159099,-0.006149809600319713,0.000838382486323826
1690841425530471700,3.6784716796875,0.17484101859927176,-0.0066798613564111285,-0.004296894617966609
1690841425540512500,3.688512451171875,0.18262275851666926,-0.00830183653505519,0.0015989002637332305
1690841425550582500,3.69858251953125,0.1712497161090374,-0.0023406083093956112,0.008934640846145338
1690841425560623600,3.70862353515625,0.18142565768659114,-0.007120883122179657,0.0009492715403612237
1690841425570663700,3.71866357421875,0.1782856060951948,-0.004326046505570411,0.0030524315318034493
1690841425580703700,3.728703857421875,0.1773883649945259,-0.00460228789737448,-0.0033013168425124603
1690841425590744800,3.738744873046875,0.1742465598374605,-0.006068835052289069,-0.008098940082319313
1690841425600784600,3.74878466796875,0.17140461440980434,-0.0081057842399925,-0.004610302240471356
1690841425610824700,3.75882470703125,0.1717021360516548,-0.01403585014240816,-0.0021281951096432748
1690841425620864500,3.768864501953125,0.17214812625348566,-0.013391012900229543,0.0023866896405583247
1690841425630905600,3.778905517578125,0.17621055338680744,-0.013743534398637711,0.005904433704237454
1690841425640945700,3.788945556640625,0.23871698618233203,-0.18057033776519818,-0.19827926866346968
1690841425650985700,3.79898583984375,-0.18508359567224977,-0.6386565077170729,0.5069655891342089
1690841425661026800,3.80902685546875,0.04347089293599128,0.14848969409996643,0.7480385273255408
1690841425671066600,3.819066650390625,0.3272919262140989,-0.04580854210332036,-0.7049182744581252
1690841425681137700,3.8291376953125,0.21073124714791774,-0.02485441873874515,-0.21226119666155427
1690841425691177700,3.839177734375,0.33593817400634285,0.07271865126285701,-0.30151538766175506
1690841425701217500,3.849217529296875,0.28507892438471316,0.16089271887615322,-0.31171182403806597
1690841425711258600,3.859258544921875,0.23042905030846594,0.366686363491416,0.11341893784119747
1690841425721298700,3.869298583984375,0.279704245609045,0.13502908656224608,0.05976009322945028
1690841425731338500,3.87933837890625,0.14933072976768016,0.10906498954854905,0.22266694667330011
1690841425741378600,3.889378662109375,0.17052198635637758,0.09531323531083762,0.1897911157760769
1690841425751419600,3.899419677734375,0.1782768382668495,0.07348576317783445,0.1536204993834719
1690841425761459700,3.909459716796875,0.14891279661655424,0.03712351493695751,0.10500765871545299
1690841425771499500,3.91949951171875,0.1751870555579662,0.0008785729328170418,0.0058764908179640765
1690841425781540600,3.92954052734375,0.20306816517412662,-0.04649586678035557,-0.07394422470217105
1690841425791580700,3.93958056640625,0.16550503497719762,-0.08053628447754307,-0.11440187533078715
1690841425801620700,3.949620849609375,0.16546178035736084,-0.10732201833873986,-0.11968559702052733
1690841425811691500,3.95969140625,0.18302140244543552,-0.12009826034149154,-0.0790322731227614
1690841425821731600,3.969731689453125,0.10909867262244224,-0.11707882118877022,-0.005996075776754878
1690841425831771600,3.979771728515625,0.1416647251844406,-0.1244570035402663,0.06316419801793527
1690841425841812700,3.989812744140625,0.12136077282428741,-0.1135351206999272,0.11668589461473747
1690841425851852500,3.9998525390625,0.10312076725661753,-0.10587876072786748,0.12492642028345725
1690841425861892600,4.009892578125,0.1532370895564556,-0.09780554531691596,0.08694580445997417
1690841425871933700,4.01993359375,0.13001578844487666,-0.07320301898000761,0.04044970935075544
1690841425881973500,4.029973388671875,0.18954232864677906,-0.05029275657897815,-0.01488287715949118
1690841425892013600,4.040013671875,0.18533377104103563,-0.018217172681353984,-0.04903376036067493
1690841425902053600,4.0500537109375,0.18863105902075766,0.0017464235422201453,-0.05716782084708102
1690841425912094700,4.0600947265625,0.23729952059984205,0.035878264116216446,-0.049767527128476645
1690841425922134500,4.070134521484375,0.19382628957629203,0.04584134839437902,-0.02353906182385981
1690841425932174600,4.080174560546875,0.1985807906270027,0.06289280176460743,0.013839880045736207
1690841425942215700,4.090215576171875,0.20876433098912237,0.06734819200458005,0.042991959445783864
1690841425952285400,4.100285400390625,0.1752928540199995,0.06763221484404057,0.051879377316450696
1690841425962326500,4.110326416015625,0.19662614942789078,0.05787557639079168,0.05239524528356269
1690841425972366600,4.12036669921875,0.19463994404673576,0.05677179813366383,0.038085930228326466
1690841425982406700,4.13040673828125,0.18863339710831642,0.04194083382450044,0.017221330044418573
1690841425992447500,4.140447509765625,0.20208675292134284,0.028754659313987938,0.003108542779102572
1690841426002487600,4.150487548828125,0.18186814075708388,0.01896008173683658,-0.014425159987248479
1690841426012527600,4.160527587890625,0.18992226787507532,-0.0015629567340947686,-0.018735643597505985
1690841426022567400,4.1705673828125,0.18448913691043853,-0.023828381892945616,-0.01457368334615603
1690841426032608500,4.1806083984375,0.15060381844341755,-0.03950997168207541,-0.004147685130825266
1690841426042648600,4.190648681640625,0.1624742889791727,-0.0524017298232764,0.008260582076059654
1690841426052688600,4.200688720703125,0.14992285044193268,-0.0680161909266375,0.023115676179481667
1690841426062728700,4.210728759765625,0.14183189844489097,-0.07245382631421089,0.03566679962289054
1690841426072769500,4.22076953125,0.16319325090348719,-0.07763705590469762,0.038225576161034405
1690841426082840600,4.230840576171875,0.1441273159056902,-0.07419676099140196,0.02084821987126488
1690841426092880600,4.240880615234375,0.15422025537490844,-0.061484378005098546,0.002920746284909546
1690841426102920400,4.25092041015625,0.17193594480752944,-0.05283537200018763,-0.006923926644818857
1690841426112960500,4.26096044921875,0.1754284630984068,-0.03724054717905819,-0.007106854026005021
1690841426123001600,4.271001708984375,0.1817676029920578,-0.03328782749790698,-0.002541701534934691
1690841426133041700,4.281041748046875,0.18018237962722777,-0.016928630708158015,0.008024891890352591
1690841426143081700,4.291081787109375,0.18774200122654436,0.0036582302466034887,0.014483603043062612
1690841426153122600,4.30112255859375,0.19053017064034938,0.01741668821973726,0.008292630315292626
1690841426163162600,4.31116259765625,0.18061784843504428,0.024657654057629406,0.012400759753864258
1690841426173202400,4.321202392578125,0.18868951120972632,0.02615139974672347,0.01657785364226438
1690841426183242500,4.331242431640625,0.19678046320676804,0.034009657232742754,0.013840391502389684
1690841426193283600,4.34128369140625,0.1858884823143482,0.03573375934530049,0.006592740195384248
1690841426203323600,4.35132373046875,0.1881856533408165,0.026556290753185746,0.0031157300008926537
1690841426213394700,4.361394775390625,0.18945055871009825,0.017605726252123713,0.001164184941165149
1690841426223434800,4.371434814453125,0.18742986653745172,0.0135659128094092,-0.002317693224688992
1690841426233474800,4.381474853515625,0.1833142479121685,0.006708977853041142,0.009891370748821645
1690841426243515600,4.391515625,0.1705178947031498,-0.008562715960945934,0.010582540483912453
1690841426253555500,4.401555419921875,0.17327216184735297,-0.0031296763278543947,0.013038454869203268
1690841426263595500,4.411595458984375,0.17377075901925562,-0.019363876764755695,0.014104531464446336
1690841426273635600,4.421635498046875,0.16422843917012214,-0.03629351211991161,0.02286194801358506
1690841426283676700,4.4316767578125,0.1751701044231653,-0.030223818551097063,0.01693495998424478
1690841426293716700,4.441716796875,0.17337386865615845,-0.04204813012387603,0.011287053757766261
1690841426303756800,4.4517568359375,0.16019173099994657,-0.045591903677955264,0.009940251391846686
1690841426313797600,4.461797607421875,0.16928981421291828,-0.04956798596838489,-0.0009250698225107043
1690841426323837400,4.47183740234375,0.1691010136425495,-0.044475886993762107,0.004060134711535647
1690841426333877500,4.48187744140625,0.17817630050182343,-0.03927559667062014,0.010917517192475497
1690841426343948500,4.491948486328125,0.16764496961534023,-0.030011929366085675,0.01684772922536358
1690841426353988600,4.501988525390625,0.1696855355322361,-0.020366258740331978,0.01073998693479225
1690841426364029700,4.51202978515625,0.18609598758518694,-0.004691098691988736,0.011486695382557808
1690841426374069800,4.52206982421875,0.17423136226832867,0.0036201815248467027,0.017287709811516106
1690841426384109800,4.53210986328125,0.17973463585972785,0.006741546682082116,0.003941723363101482
1690841426394119700,4.54211962890625,0.18405542166829109,0.012192688227444886,0.0024569013368018204
1690841426404160800,4.552160888671875,0.19422727159261702,0.012364939521811901,-0.0039029342850059037
1690841426414200800,4.562200927734375,0.19258827221393585,0.011743282225821166,0.0012319255482871085
1690841426424241000,4.572240966796875,0.1914098760843277,0.01225400822693482,0.000494186429088586
1690841426434281700,4.58228173828125,0.1779717178404331,0.004497676745429635,0.005592422312730923
1690841426444321500,4.592321533203125,0.18564006051123141,0.011369462211057543,0.011602238920470699
1690841426454361600,4.602361572265625,0.16652736376225946,0.0026832477346062657,0.015283749577961862
1690841426464401700,4.612401611328125,0.17060615750849245,-0.004566047540213913,0.012379424704890698
1690841426474472700,4.62247265625,0.17842647587060928,-0.010134203061368316,0.013292557494435458
1690841426484512800,4.6325126953125,0.1712760195940733,-0.012824501591268926,0.01532677586893551
1690841426494553900,4.642553955078125,0.17339432692229748,-0.023615378463082013,0.0028929266962222752
1690841426504594000,4.652593994140625,0.16847440617680548,-0.022653200633730736,0.004194547632111061
1690841426514633700,4.6626337890625,0.15755845988690853,-0.02820259665548801,0.003433244403412391
1690841426524674600,4.672674560546875,0.1662345182955265,-0.03100696828542277,0.0025349986557455847
1690841426534714600,4.682714599609375,0.1626315253674984,-0.02845216923607513,0.006312434549815953
1690841426544754700,4.692754638671875,0.17144202381074428,-0.028973361832275984,0.011461889734864235
1690841426554794800,4.702794677734375,0.16812836921811103,-0.033391872394271195,0.016544481095625087
1690841426564835800,4.7128359375,0.15822539936304092,-0.02781407226193696,0.017102014513686297
1690841426574876000,4.7228759765625,0.16553016941845416,-0.02793557974975556,0.01822612317278981
1690841426584915700,4.732915771484375,0.1779208644360304,-0.021219678965583442,0.020189687463873996
1690841426594956500,4.74295654296875,0.1766957065552473,-0.008349657732155173,0.009140890308236702
1690841426605026800,4.75302685546875,0.1825087767481804,-0.0024472835542634127,0.009593145854072645
1690841426615067600,4.763067626953125,0.18383622595965862,-0.0037436069751158353,0.007897840577736497
1690841426625107700,4.773107666015625,0.18532149608135223,-0.002361249238625169,-0.002081062324065715
1690841426635147800,4.783147705078125,0.1874134999245405,0.0029146453376859426,0.006160641521587968
1690841426645187800,4.793187744140625,0.1836789895713329,0.0016426891731098293,0.005912046188535168
1690841426655229000,4.80322900390625,0.18758418031632898,0.003370353215932846,0.005945838860282674
1690841426665268700,4.813268798828125,0.1814671587407589,-0.005395264905970544,0.004251803377836768
1690841426675308800,4.823308837890625,0.17909458439052103,0.0018390337291173636,0.009430703567666933
1690841426685349600,4.833349609375,0.17477730571329592,-0.005120813612453639,0.008687767112720757
1690841426695389700,4.8433896484375,0.17569851221144198,-0.014267101615015416,0.009340796794509514
1690841426705429800,4.8534296875,0.1749696134150028,-0.020596706495340913,0.014903499822411685
1690841426715469800,4.8634697265625,0.17139350849390028,-0.01853038508268073,0.0052405858009122305
1690841426725511000,4.873510986328125,0.17783844684958458,-0.02382564194658771,0.0016936613085214048
1690841426735550700,4.88355078125,0.17529986828267574,-0.02198892803872004,0.004530930561060085
1690841426745621800,4.893621826171875,0.1711100153774023,-0.027381745259277522,0.002261122750963841
1690841426755661800,4.903661865234375,0.1690092437058687,-0.02924478091849014,0.009808450838876888
1690841426765702000,4.913701904296875,0.16196692397892473,-0.018953944256994874,0.010311550655961036
1690841426775742700,4.92374267578125,0.16060791058540344,-0.017923779225349424,0.007909129156731068
1690841426785782800,4.93378271484375,0.17136778953075407,-0.01740549097228795,0.008024901023507117
1690841426795822800,4.94382275390625,0.17404431526362896,-0.00785040297312662,0.013377258369512856
1690841426805864000,4.953864013671875,0.17268062569499015,-0.014312858719192445,0.0074526266940403724
1690841426815903700,4.96390380859375,0.18597966772913932,-0.017097886327840386,0.0036225561450235542
1690841426825943800,4.97394384765625,0.1795323912858963,-0.002317391830589622,-0.0022160135299360262
1690841426835984000,4.98398388671875,0.17488485774099827,-0.011760964012984185,0.002828053899621591
1690841426846024700,4.994024658203125,0.17143793215751646,-0.005366678132303059,0.009379503103392198
1690841426856064800,5.004064697265625,0.17323182983696458,-0.008867270131781697,0.0059953314246609804
1690841426866104800,5.014104736328125,0.18445874177217483,0.0026334355098195372,-0.00024790092789771733
1690841426876175600,5.024175537109375,0.17773089482188223,0.0015111717479303478,0.006605919337365776
1690841426886215700,5.034215576171875,0.17983634266853332,-0.005440510553494095,0.011552207499975337
1690841426896256800,5.0442568359375,0.19331658648848532,-0.010048187012039125,0.0025221571550704536
1690841426906296800,5.054296875,0.17597089941203592,-0.010195742256566881,-0.00012582746990956367
1690841426916337000,5.0643369140625,0.17403671647906302,-0.006787870041839778,0.006181437714444473
1690841426926376700,5.074376708984375,0.1773410187214613,-0.010816193976160139,0.010658482663799077
1690841426936417800,5.084417724609375,0.18124153329133985,-0.019579364412650464,0.0022643373359460383
1690841426946457600,5.09445751953125,0.1861860039561987,-0.02323439805516973,0.01047376461350359
1690841426956497700,5.10449755859375,0.1782604716539383,-0.01810494447853416,0.01399496100959368
1690841426966538800,5.114538818359375,0.1695809061139822,-0.021570008506905287,0.014167961222631855
1690841426976578800,5.124578857421875,0.17391922757923603,-0.01757268249904737,0.008816234064288437
1690841426986619000,5.134618896484375,0.17421558017730712,-0.022314598062820733,0.013622766696335747
1690841426996658700,5.14465869140625,0.16702479189038275,-0.018292393342033027,0.01115458648451604
1690841427006729700,5.154729736328125,0.17000877613723278,-0.02383758811270818,0.015512809093482792
1690841427016770800,5.164770751953125,0.17868191193640232,-0.022417291252315043,0.008858337906654924
1690841427026810600,5.174810546875,0.16116437542438505,-0.0082708568749018,0.006240602289466187
1690841427036850700,5.1848505859375,0.17791443469524382,-0.0023321327419951556,0.005429824762698263
1690841427046890800,5.194890869140625,0.18224807998538017,-0.017062157427333295,0.005493702045455575
1690841427056931800,5.204931884765625,0.17566110281050204,-0.0068556380484253165,0.007357769751129672
1690841427066972000,5.214971923828125,0.1879284637093544,-0.009804094324167817,0.006632341553410514
1690841427077011700,5.22501171875,0.17760405357182024,-0.0008059643543325365,0.0024296203188205255
1690841427087052800,5.235052734375,0.1832920360803604,-0.0028230580640956756,-0.0023660350115969776
1690841427097092600,5.245092529296875,0.17626374487876892,-0.003407945279963314,0.004968052469845861
1690841427107132700,5.255132568359375,0.17522037330567836,-0.007002170379646122,0.007815660453308374
1690841427117172700,5.2651728515625,0.17133388726115226,-0.0020530783385969698,0.0033016627607401457
1690841427127213800,5.2752138671875,0.1804687953531742,-0.0001492357449606061,0.00893567745918408
1690841427137283800,5.285283935546875,0.17613515006303787,-0.0057725189868360754,0.005881623650807887
1690841427147325000,5.295324951171875,0.17299802108108997,-0.006766589791793376,0.009321023514959961
1690841427157364700,5.30536474609375,0.1788385638028383,-0.007036547573283315,0.004012989367870614
1690841427167404500,5.315404541015625,0.1758504879027605,-0.012859371975250541,0.003362233841558918
1690841427177445600,5.325445556640625,0.18049217622876165,-0.015898027285095304,0.00864526141155511
1690841427187485700,5.335485595703125,0.17361060002148151,-0.007602748354990035,0.010053411176428198
1690841427197525800,5.34552587890625,0.17495441584587096,-0.016683935232087967,0.00958674351274967
1690841427207565800,5.35556591796875,0.1731529193818569,-0.013619944551587104,0.0071643569377250966
1690841427217606700,5.365606689453125,0.17569091342687607,-0.01203210910456255,0.0044399369425140315
1690841427227646700,5.375646728515625,0.1848129620373249,-0.013304814187809825,0.007850686100916937
1690841427237686500,5.3856865234375,0.1776227582722902,-0.018223785085231065,0.0027879045523237435
1690841427247727600,5.3957275390625,0.17911212004721164,-0.018176055219676343,0.004291194387897849
1690841427257767700,5.405767578125,0.18299919061362743,-0.012019304421916604,0.0019393614315893499
1690841427267838700,5.415838623046875,0.17910393674075603,-0.006655987290479243,0.0013339246180374175
1690841427277878800,5.425878662109375,0.17072306188642977,-0.00042102015735581515,0.007651738595869392
1690841427287918800,5.4359189453125,0.17266893525719643,-0.004433872527908534,0.006271581949619576
1690841427297959000,5.445958984375,0.1823953795015812,-0.00008977890899404883,-0.0022061043426860123
1690841427307999700,5.455999755859375,0.1779033287793398,-0.0012418350209482015,0.007283672468457371
1690841427318039600,5.46603955078125,0.18104454941451548,-0.005790401703398674,0.004507111294055358
1690841427328079600,5.47607958984375,0.18149580031335352,-0.010328958448488265,0.004555763608217239
1690841427338120700,5.48612060546875,0.18299919061362743,-0.011715864495933054,0.004630746806878596
1690841427348160800,5.496160888671875,0.18120704649984837,-0.01667206213120371,0.00789047012203373
1690841427358200800,5.506200927734375,0.17088614349365233,-0.015029446023330091,-0.002233038015384227
1690841427368241000,5.516240966796875,0.18016484397053717,-0.012739581520482896,-0.0016798885114956647
1690841427378281700,5.52628173828125,0.17852292198240757,-0.011547302995994687,0.005321998740360141
1690841427388328700,5.53632861328125,0.1858580871760845,-0.011440171093400568,-0.0006870506823994219
1690841427398399700,5.546399658203125,0.1710439644038677,-0.0062059967669658355,0.005337205442646518
1690841427408439800,5.556439697265625,0.17119126392006873,-0.011985237755533307,0.007970120362658054
1690841427418479900,5.56647998046875,0.17986907589435577,-0.012470829315390437,0.01252441353299655
1690841427428521000,5.57652099609375,0.17852292198240757,-0.014087251536082476,0.00787997612748295
1690841427438561000,5.58656103515625,0.17971768472492694,-0.008483860304765403,0.0018204842922743408
1690841427448600800,5.596600830078125,0.17642682648599148,-0.008290785418078303,0.007954694464663042
1690841427458641700,5.6066416015625,0.17956921616494653,-0.009492178830783814,0.00395790731292218
1690841427468681700,5.616681640625,0.18001403732299803,0.0023315664864145217,0.00765867979330942
1690841427478721800,5.6267216796875,0.1810574088960886,-0.004402746737282723,0.006460071992734447
1690841427488761900,5.636761962890625,0.17132921108603477,-0.007324004478845745,0.009117746894666925
1690841427498803000,5.646802978515625,0.17701193289756773,-0.009397340154182166,0.004206740107992664
1690841427508843000,5.656843017578125,0.178359840375185,-0.01040164009220898,0.008569191367505117
1690841427518882800,5.6668828125,0.1868868457019329,-0.012120846833940595,0.0007989957574289292
1690841427528923600,5.676923583984375,0.18329612773358822,-0.012413655768055467,-0.0003945156002147996
1690841427538994000,5.686993896484375,0.18284955300986766,-0.006496504146140068,0.0044419371033553035
1690841427549034800,5.69703466796875,0.1850958706319332,-0.0002804426428861916,0.006634834904596209
1690841427559074800,5.70707470703125,0.18180851952433585,-0.011032083482854067,0.004620362410182133
1690841427569115000,5.717114990234375,0.17492811236083505,-0.009737130035180598,0.00898313333010301
1690841427579155000,5.727155029296875,0.18390987571775913,-0.01514980273367837,0.0038828510490246113
1690841427589196000,5.737196044921875,0.17388649435341358,-0.007861161829158664,-0.0005125434988643973
1690841427599235800,5.74723583984375,0.16566051779985427,-0.010872563805896789,0.003470406923769042
1690841427609276000,5.75727587890625,0.16970073310136793,-0.013556103801447898,0.007772232303535565
1690841427619316700,5.767316650390625,0.17808219247758386,-0.008093417948763818,0.004143136819871142
1690841427629356800,5.777356689453125,0.17658932357132434,-0.013510237099416553,0.00016287154466845095
1690841427639396900,5.78739697265625,0.17404489978551863,-0.01696410388033837,0.0002961973344441503
1690841427649437000,5.79743701171875,0.17254618566036223,-0.005828231229446828,0.01389426798094064
1690841427659478000,5.80747802734375,0.17688392260372637,-0.011149060926027595,0.01005776769113727
1690841427669548800,5.817548828125,0.17777882561683653,-0.007358984460681677,0.0031525000810157505
1690841427679588900,5.8275888671875,0.18166648070514202,-0.004774703588522971,0.007839287924068048
1690841427689629000,5.83762890625,0.1824117461144924,-0.0072640179199166596,0.006086251977970823
1690841427699669000,5.8476689453125,0.176873401209712,-0.013615852898359298,0.014149713179888203
1690841427709709800,5.857709716796875,0.1779208644360304,-0.009725841456186025,0.0047004693085327745
1690841427719750000,5.86775,0.17373159605264663,-0.010608341645449399,0.002365898014279082
1690841427729790000,5.8777900390625,0.1723819350093603,-0.002347056316491216,0.00422558180578053
1690841427739831000,5.8878310546875,0.17627426627278328,-0.01454736159481108,-0.004377402233472094
1690841427749870800,5.897870849609375,0.18285832083821296,-0.008559099231753497,0.0059047670643776655
1690841427759911000,5.907910888671875,0.17896832766234874,-0.008685721286106854,0.004829593847226351
1690841427769951000,5.917950927734375,0.17343582797646523,-0.01407040999913588,0.004637751936400309
1690841427779991800,5.92799169921875,0.1785246755480766,-0.013575119029171764,0.006669504359178245
1690841427790032000,5.938031982421875,0.17194412811398505,-0.013594408251531421,0.01170378133249469
1690841427800103000,5.94810302734375,0.1789835252314806,-0.009325900619477034,0.009868209068942814
1690841427810142700,5.958142822265625,0.18482056082189083,-0.008826152670104056,-0.007930181077914312
1690841427820182800,5.968182861328125,0.17659224618077277,-0.010858772742561995,0.004116203147172927
1690841427830224000,5.978223876953125,0.18601883069574832,-0.014331051963008939,0.011489444462070241
1690841427840264000,5.988263916015625,0.1773404341995716,0.0009608078561723232,0.007414112181402742
1690841427850304000,5.998303955078125,0.16163023937046528,-0.01962941409945488,0.0069674187266733495
1690841427860343800,6.00834375,0.17120879957675933,-0.014319160595815629,0.009151366036478429
1690841427870385000,6.018385009765625,0.17330723316073415,-0.012551018412131815,-0.0029210659453179685
1690841427880425000,6.028425048828125,0.1739069526195526,-0.01909583694571629,0.002904379671998322
1690841427890464800,6.03846484375,0.17196224829256535,-0.007399846194032579,0.008264244471024721
1690841427900505900,6.048505859375,0.18153905493319034,-0.00426048872238025,0.0035792284599505363
1690841427910546000,6.0585458984375,0.180042094373703,-0.011604787070583551,0.005881358789326623
1690841427920586000,6.0685859375,0.17644962283968924,-0.012540771012753247,0.0011797295701690017
1690841427930657000,6.078656982421875,0.1794447130024433,-0.012309811801090836,-0.0012045900167897343
1690841427940696800,6.08869677734375,0.183936179202795,-0.011765238329302518,0.007728365762345492
1690841427950736600,6.098736572265625,0.18049568336009977,-0.010229644526168704,-0.002000233906507492
1690841427960777700,6.10877783203125,0.16358721865713596,0.002814180637896061,-0.004662073526903987
1690841427970817800,6.11881787109375,0.1813964315921068,-0.006391454602777957,0.0008474837461621064
1690841427980857900,6.12885791015625,0.1760112314224243,-0.004228303485829383,0.0008796598495584475
1690841427990899000,6.13889892578125,0.17975158699452876,-0.005286836095433682,0.0057395848316140466
1690841428000939000,6.14893896484375,0.17631050662994383,-0.008702982948161662,0.004788375920848921
1690841428010978800,6.158978759765625,0.1713718811839819,-0.008279971763119101,-0.0009240377760492265
1690841428021019000,6.169018798828125,0.18289689928293226,-0.00564023437667638,0.006665513170650229
1690841428031060000,6.17906005859375,0.17361878332793712,-0.009537972467578947,-0.0015799444015137851
1690841428041099800,6.189099853515625,0.175415019094944,-0.006532671438064426,0.00582487022858113
1690841428051139800,6.199139892578125,0.17705927917063236,-0.008988339228183031,0.008991398834949359
1690841428061211000,6.2092109375,0.18005261576771736,-0.010010430551227181,-0.004411067041056231
1690841428071251000,6.2192509765625,0.17795535122752187,-0.00816270205900073,-0.009557818812364711
1690841428081292000,6.2292919921875,0.17346505407094953,-0.009391038277558982,0.004352660517860204
1690841428091331800,6.239331787109375,0.17810265074372292,-0.0033175453164614736,0.005378249839087948
1690841428101371600,6.24937158203125,0.17645663710236548,-0.014676869725994765,0.0005226265014614909
1690841428111412700,6.259412841796875,0.1869301003217697,-0.01367804968068376,0.0043552452005911615
1690841428121452800,6.269452880859375,0.17899813827872274,0.00003910816768184304,0.016942129510547965
1690841428131492900,6.279492919921875,0.18124153329133985,-0.006440335245802998,0.0108390542619396
1690841428141533000,6.289532958984375,0.1822895810395479,-0.0019258717623539267,0.006785057030245662
1690841428151574000,6.299573974609375,0.1770528494298458,-0.011922913109045474,0.005884226599847897
1690841428161613800,6.30961376953125,0.18198972131013869,-0.007787311141658574,0.004689673919882625
1690841428171654000,6.31965380859375,0.17286182748079298,-0.008223967259563505,0.004579665073612705
1690841428181695000,6.329695068359375,0.17989888651072977,-0.014364168781321495,0.00291239858167246
1690841428191734800,6.33973486328125,0.17092121480703354,-0.017340079319570212,0.006847107682097703
1690841428201805800,6.349805908203125,0.16388766290843484,-0.005830916376877575,0.001628806778229773
1690841428211846000,6.359845947265625,0.17466273942291735,-0.006384769133664667,0.005018467482831329
1690841428221886000,6.369885986328125,0.1733148319453001,-0.013465740370564161,0.008992175153084099
1690841428231926000,6.379926025390625,0.17361235358715058,-0.01277187635488808,0.0067964004081673916
1690841428241966800,6.389966796875,0.18453589866161346,-0.006202635766100138,-0.00020951442212899563
1690841428252006700,6.400006591796875,0.19082243158519266,-0.002845196830667555,-0.003191571716079488
1690841428262046700,6.410046630859375,0.1798977174669504,-0.0084224124411121,0.002926299242861569
1690841428272087800,6.420087890625,0.17885083876252172,-0.013786916882637888,-0.0008949759356408322
1690841428282128000,6.4301279296875,0.17540975839793682,-0.012262228066008537,0.005610177165130153
1690841428292168000,6.44016796875,0.16792787820994853,-0.007175773380883038,0.002527856243494898
1690841428302208000,6.4502080078125,0.17630524593293667,-0.009208082926087081,0.005475417470093816
1690841428312248800,6.460248779296875,0.17360943097770212,-0.009140479316283017,0.009563344370853155
1690841428322288600,6.47028857421875,0.1731575955569744,-0.009413469305075705,-0.0009907645316659908
1690841428332359700,6.480359619140625,0.181685185405612,-0.003790441791526973,0.00689123908476904
1690841428342399700,6.490399658203125,0.1743558654308319,-0.008466233316529542,0.0046184170482680195
1690841428352439800,6.500439697265625,0.16971709971427917,-0.004863550915755331,0.007735772750666364
1690841428362481000,6.51048095703125,0.18198621417880056,-0.008062036429811268,0.006456044271588325
1690841428372521000,6.52052099609375,0.17031565012931824,-0.0036751448487862943,0.0036082444918807592
1690841428382561000,6.53056103515625,0.1668745697647333,-0.009038352382369339,0.0058706364659126846
1690841428392592600,6.540592529296875,0.17301088056266306,-0.013326916421763597,0.004609557888377458
1690841428402632700,6.5506328125,0.17720248703360555,-0.016409155145008115,0.009097991881426423
1690841428412672500,6.560672607421875,0.17241408371329306,-0.015214684663433582,0.010441789439506828
1690841428422712600,6.570712646484375,0.1785474719017744,-0.014076036022324115,0.004119189688703045
1690841428432753700,6.580753662109375,0.17391045975089073,-0.004899827805534005,0.004097160519985482
1690841428442793700,6.590793701171875,0.18019640815258026,-0.0018636749800294637,0.014052545548882335
1690841428452833500,6.60083349609375,0.17645488353669642,-0.012642514354176819,0.008484152565710246
1690841428462904600,6.610904541015625,0.1770528494298458,-0.008476316319126636,-0.0011679204013664275
1690841428472944600,6.620944580078125,0.16942133163809775,-0.008332323004864155,0.002024144505057484
1690841428482985700,6.63098583984375,0.17480770085155964,-0.016592439290042966,0.0011236429395754385
1690841428493025500,6.641025634765625,0.17181494877636433,-0.016434380917809903,0.0043501580335199835
1690841428503065600,6.651065673828125,0.17765081532299518,-0.010590367597341537,0.009444759492482989
1690841428513105700,6.661105712890625,0.1661298888772726,-0.009815693430416286,0.004025711852125823
1690841428523146800,6.671146728515625,0.168822196701169,-0.008796670847292989,-0.0027815113441552967
1690841428533186600,6.6811865234375,0.175855164077878,-0.002082121769990772,0.001082187479827553
1690841428543226600,6.6912265625,0.1780991436123848,-0.003280629105865955,-0.005425614378461614
1690841428553267700,6.701267822265625,0.1807914514362812,-0.006484594512637705,0.0011428864248096942
1690841428563307500,6.7113076171875,0.1695674621105194,-0.009958152374718338,-0.0010738763092085718
1690841428573347600,6.72134765625,0.1709142005443573,-0.01654021591246128,0.005279301242949441
1690841428583387600,6.7313876953125,0.16986965992748737,-0.008213555463403462,0.00866301626395434
1690841428593458700,6.741458740234375,0.17914660683870315,-0.009430493505112826,0.009679180169710888
1690841428603498800,6.751498779296875,0.17840192595124243,-0.017531802499387412,0.0009984547191299498
1690841428613539600,6.76153955078125,0.16702888354361056,-0.006163984256144612,0.005534262384707108
1690841428623579400,6.771579345703125,0.1734621314615011,-0.005773377503361553,0.007982367922877893
1690841428633619500,6.781619384765625,0.17989479485750198,-0.0018041998777538538,-0.0037851810945197938
1690841428643660500,6.79166064453125,0.1770481732547283,-0.006423658105637877,0.0038283261165022848
1690841428653700600,6.80170068359375,0.18452829987704752,-0.010817107291612773,0.005045035829348489
1690841428663740700,6.81174072265625,0.17959142799675465,-0.012877236425504087,0.008092020576121284
1690841428673780700,6.82178076171875,0.17510288440585137,-0.014051522635575383,0.006114866151101887
1690841428683821600,6.831821533203125,0.17989245676994323,-0.006374046810250729,0.006666837478056549
1690841428693861600,6.841861572265625,0.1769002892166376,-0.0038090916930697857,-0.0028004535066429525
1690841428703901400,6.8519013671875,0.17360300123691558,-0.00430038234135136,-0.0030985870698466895
1690841428713942500,6.861942626953125,0.18243278890252113,-0.007840922758728266,0.0031801096071489153
1690841428724012500,6.872012451171875,0.17629706262648104,-0.014160901294182985,0.00037673352673391487
1690841428734053600,6.8820537109375,0.17211013233065603,-0.00895904006846249,-0.0006450564378872514
1690841428744093700,6.89209375,0.17974398820996285,-0.006035535570885986,0.010334785401076078
1690841428754133800,6.9021337890625,0.17899755375683307,-0.009692213181219994,0.012043836074974387
1690841428764174600,6.912174560546875,0.17451017920970915,-0.004111143379565328,0.0034238643683027472
1690841428774214400,6.92221435546875,0.17092004576325415,-0.00345773923844099,0.01100057409973815
1690841428784254500,6.93225439453125,0.17645722162425517,-0.008223894194327295,0.0044525041631422934
1690841428794294500,6.94229443359375,0.18274200098216534,-0.01091355340341106,0.0075393459962680934
1690841428804335600,6.952335693359375,0.17930208966135977,-0.0012684490332379936,0.014796888509625569
1690841428814375700,6.962375732421875,0.17421558017730712,-0.015751732415892183,0.0031713326456490904
1690841428824415700,6.972415771484375,0.17765958315134048,-0.013414631237834691,0.006152476481441408
1690841428834456600,6.98245654296875,0.18319734353423117,0.0024963468603789803,0.010797544074617325
1690841428844496600,6.99249658203125,0.1700286498814821,-0.009366141298320144,0.00743515496943146
1690841428854567400,7.0025673828125,0.18125088564157485,-0.015814075328689066,0.005050314792664721
1690841428864607500,7.012607421875,0.17601707664132119,-0.014180902902595698,0.008465895389812067
1690841428874647600,7.0226474609375,0.1782604716539383,-0.015424217494577168,0.003449839059775695
1690841428884687600,7.0326875,0.1746703382074833,-0.012696491297427564,0.006522259641904384
1690841428894728700,7.042728759765625,0.16823533672392368,-0.0213982869355008,0.0034490810079500075
1690841428904768800,7.052768798828125,0.17392156566679476,-0.00971210519177839,-0.003261248551961034
1690841428914808600,7.06280859375,0.17616671424508093,-0.005654902222845703,0.007617891125194728
1690841428924849400,7.072849365234375,0.17227555202543735,-0.010308646312821655,0.009027821855200454
1690841428934889500,7.082889404296875,0.17293197010755537,-0.013041012152470648,0.01342420278377831
1690841428944929500,7.092929443359375,0.22623159861862657,0.14633527427874504,-0.05607295654877088
1690841428954969600,7.102969482421875,-0.1682557949900627,-0.0614739662089385,0.3366957874406129
1690841428965010700,7.1130107421875,0.1899018096089363,-0.14656210530456154,0.7341928111940622
1690841428975050800,7.12305078125,0.19742869798243046,0.012012344958167522,-0.5060905233327299
1690841428985090800,7.1330908203125,0.135377023217082,-0.1580869407404214,-0.0032212864343309773
1690841428995161600,7.14316162109375,0.23032500541210174,0.03833338391706347,-0.02133640068043023
1690841429005201700,7.15320166015625,0.20018705677986143,-0.04283761826744303,-0.13219634735435246
1690841429015242500,7.163242431640625,0.2110691008001566,-0.046445744028314945,-0.16386446469593793
1690841429025282600,7.173282470703125,0.21177520324289797,0.028722474077437072,0.012409372318582608
1690841429035322600,7.183322509765625,0.15743629481196403,0.01554115840513259,0.06555358193907887
1690841429045362700,7.19336279296875,0.17852935172319412,0.028043478837329893,0.17154245197791604
1690841429055403800,7.20340380859375,0.15726619894206523,0.03710840869937092,0.22982235311958937
1690841429065443600,7.213443603515625,0.148739778137207,0.04892086543757468,0.2310046947719529
1690841429075483600,7.223483642578125,0.16131693563759325,0.037882078219298274,0.19880077178692443
1690841429085524500,7.2335244140625,0.19561025038361549,0.04176253638183698,0.12746598523105493
1690841429095564500,7.243564453125,0.16766659692525862,0.02617967599313706,0.042025534699577836
1690841429105604600,7.2536044921875,0.21471359478235244,0.007629033573716878,-0.017566325823497025
1690841429115644700,7.263644775390625,0.2180827789545059,-0.004448869167640805,-0.0623765045392327
1690841429125715700,7.2737158203125,0.18076164081990717,-0.011717873789928853,-0.07232712662804405
1690841429135756800,7.2837568359375,0.20404080959856508,-0.019001601057313383,-0.0444076303634094
1690841429145796600,7.293796630859375,0.16595920848548412,-0.014750775212422013,0.014611649869522078
1690841429155836700,7.303836669921875,0.17394845367372036,-0.02818685109708458,0.0678337926975917
1690841429165876700,7.313876708984375,0.15797054781913755,-0.021515739302709697,0.1270105422142893
1690841429175917600,7.32391748046875,0.13508885392546652,-0.022886534465570003,0.16147672930918633
1690841429185957600,7.33395751953125,0.1678501367986202,-0.028523261710908264,0.14536359796868636
1690841429195997700,7.343997802734375,0.13489888431131838,-0.04162822421137243,0.12853890255903824
1690841429206038800,7.354038818359375,0.16104337939321994,-0.04333042501937598,0.08254070136882365
1690841429216078600,7.36407861328125,0.18807810131311414,-0.04115563826356083,0.03936654462339356
1690841429226118700,7.37411865234375,0.16064356642067432,-0.036436464254558085,0.010398014229862019
1690841429236158700,7.38415869140625,0.18917524890005588,-0.022692491464503108,-0.0007169526303187012
1690841429246199600,7.394199462890625,0.1892787092745304,-0.022353030377067623,-0.009419629617803729
1690841429256269600,7.40426953125,0.1673895335495472,-0.012949845003988592,0.011263677448756062
1690841429266310700,7.414310546875,0.18890052361190318,-0.008240571334492415,0.0377716172818793
1690841429276350500,7.4243505859375,0.174202720695734,0.007241495560854673,0.06559116486995481
1690841429286390500,7.434390625,0.173428813713789,0.005691252177860587,0.09347197309201583
1690841429296431600,7.444431640625,0.1761076775342226,0.007209310324303805,0.10240410688724368
1690841429306471700,7.4544716796875,0.16622399690151213,0.01886354429349303,0.10152785377567633
1690841429316511700,7.46451171875,0.18807342513799666,0.010087094250321388,0.08603174008866772
1690841429326551600,7.474551513671875,0.18314999726116657,0.018759134070947765,0.0683805763927754
1690841429336592600,7.484592529296875,0.16955635619461534,0.017927286356687545,0.045062801769934595
1690841429346632700,7.4946328125,0.2020627875238657,0.0146791347483173,0.027802938946569336
1690841429356672500,7.504672607421875,0.18594401189386844,0.008853424269519745,0.018735821694019248
1690841429366713600,7.514713623046875,0.16773147885501383,0.003921155499108136,0.015293174993433058
1690841429376753700,7.524753662109375,0.1745090101659298,0.00751704283291474,0.0393478262231918
1690841429386824700,7.53482470703125,0.1751449699819088,-0.01090052952505648,0.06028674745205789
1690841429396859000,7.54485888671875,0.17502572751641274,-0.015147610776592045,0.06153274719147011
1690841429406899000,7.55489892578125,0.1724994239091873,-0.019484434404503554,0.0824324826208409
1690841429416940000,7.56493994140625,0.16817045479416845,-0.02085599675234407,0.0758634840606479
1690841429426979800,7.574979736328125,0.16742460486292837,-0.025472915963269768,0.0725751968047116
1690841429437020000,7.58502001953125,0.15529577565193176,-0.02728898894190788,0.06822484697494656
1690841429447060000,7.59506005859375,0.17159224593639372,-0.03564162408243864,0.06312387057412415
1690841429457100800,7.605100830078125,0.18114976335465907,-0.026276195170171556,0.05552674824232235
1690841429467140900,7.615140869140625,0.171101247549057,-0.016861447223462164,0.03996235052549746
1690841429477181000,7.625180908203125,0.17975567864775657,-0.02518662810148671,0.03783650377821177
1690841429487222000,7.635221923828125,0.18765958364009855,-0.016970825882069766,0.04687442233574111
1690841429497261800,7.64526171875,0.18254384806156157,-0.012990633672103284,0.042372663070238195
1690841429507302000,7.655302001953125,0.18685878865122793,-0.005540646459721028,0.05316812935220077
1690841429517373000,7.665373046875,0.17142448815405367,-0.001273764529172331,0.05928380835405551
1690841429527413000,7.6754130859375,0.1761947712957859,-0.006708612526860088,0.06347026372584513
1690841429537453000,7.685453125,0.17827917635440826,0.004748728897050023,0.061294618453504514
1690841429547494000,7.695493896484375,0.1775274812042713,-0.00044871188187971706,0.06188177525827195
1690841429557534000,7.705533935546875,0.18186755623519418,0.008886851615086197,0.0513438913334161
1690841429567573800,7.71557373046875,0.1854699646413326,0.010498360198643059,0.05383242934667505
1690841429577614800,7.72561474609375,0.18174305307269095,0.004422456084750593,0.05764077212107367
1690841429587655000,7.735655029296875,0.18745032480359075,0.009195406107604503,0.04942507949951105
1690841429597695000,7.745695068359375,0.1750526155233383,0.010707016246952116,0.04610897722146474
1690841429607735000,7.755735107421875,0.17148294034302233,0.007104735704977065,0.05386413052603602
1690841429617775900,7.76577587890625,0.18018354867100714,-0.005021426624897867,0.04824479280691594
1690841429627816000,7.77581591796875,0.17646365136504172,-0.009414364354219287,0.05160844228742644
1690841429637855700,7.785855712890625,0.1772264524310827,-0.00665118325119838,0.05120623186181765
1690841429647896800,7.795896728515625,0.182477797088027,-0.011419584963098167,0.050263060127035714
1690841429657966800,7.805966796875,0.17844751865863798,-0.012900215442292392,0.05495224542315118
1690841429668008000,7.816008056640625,0.17081950799822807,-0.012645272566843778,0.052617244870634745
1690841429678048000,7.826048095703125,0.16528174761533737,-0.014948654138389974,0.04911060672285966
1690841429688088000,7.836088134765625,0.17440554979145526,-0.017514577369950712,0.06334783378941938
1690841429698128000,7.8461279296875,0.16646598896384238,-0.02036258721221238,0.06428254822310991
1690841429708169000,7.8561689453125,0.1683954957216978,-0.01795446662455797,0.05485304109868593
1690841429718208800,7.866208740234375,0.1819932284414768,-0.0107383064343594,0.05193017135534901
1690841429728248800,7.876248779296875,0.17389584670364855,-0.004044489617832004,0.05139468080573715
1690841429738290000,7.8862900390625,0.17492518975138663,-0.003048263388406485,0.051654025861667466
1690841429748330000,7.896330078125,0.1832920360803604,-0.008612308990024029,0.04906115982425399
1690841429758370000,7.9063701171875,0.1868693100452423,-0.008116634427569805,0.05306882456303574
1690841429768409900,7.916409912109375,0.17802958550751208,-0.0015025683163665234,0.056353581854747606
1690841429778451000,7.926450927734375,0.18026655077934264,-0.00044604500075802207,0.05402985161491669
1690841429788521700,7.936521728515625,0.17068915961682796,0.003250599293783307,0.061905663023935624
1690841429798561800,7.946561767578125,0.18236206175386904,0.007343494630604982,0.0584294748133514
1690841429808601900,7.956601806640625,0.18072072428762911,0.005440200026240199,0.05934433376910164
1690841429818642000,7.966641845703125,0.1777373245626688,-0.0031921471048146485,0.056404115598741915
1690841429828683000,7.97668310546875,0.18163783913254736,-0.006581077157054096,0.05149278458508197
1690841429838723000,7.98672314453125,0.18284546135663984,-0.002583659817650914,0.04621647445023991
1690841429848762600,7.9967626953125,0.18136019123494623,-0.011738806980103253,0.04357520269383676
1690841429858803700,8.0068037109375,0.17957623042762277,-0.011941928336769343,0.045725923587474966
1690841429868843800,8.01684375,0.16941197928786278,-0.0036431788079440593,0.05150685420962982
1690841429878883800,8.0268837890625,0.16986907540559767,-0.01460048002153635,0.05222888030728791
1690841429888924000,8.036923828125,0.1727215422272682,-0.006648023179732262,0.05061243982028681
1690841429898965000,8.046965087890625,0.170631291949749,-0.012920892904140054,0.043236129765468645
1690841429909004800,8.0570048828125,0.18065818044543266,-0.012582746990956366,0.056390077940234914
1690841429919075800,8.067075927734376,0.17676643370389938,-0.009361081530712544,0.056705879590869875
1690841429929115600,8.07711572265625,0.1718243011265993,-0.009973167280759662,0.05888189475596882
1690841429939155700,8.08715576171875,0.17092063028514384,-0.01106140090888366,0.0569087863184046
1690841429949196800,8.09719677734375,0.17180968807935715,-0.00881166748702526,0.05206097639447543
1690841429959236900,8.10723681640625,0.17598960411250592,-0.01325050845099613,0.048031606713961804
1690841429969277000,8.11727685546875,0.18301029652953146,-0.005021006499789655,0.05101851357026025
1690841429979317000,8.12731689453125,0.17297405568361282,-0.008258709779381751,0.054173068611044435
1690841429989357800,8.13735791015625,0.18194237503707408,-0.014947631225083023,0.04873047569831833
1690841429999397600,8.147397705078125,0.17954232815802096,-0.010853767773881555,0.04811545820566825
1690841430009437700,8.157437744140625,0.16292670892179012,-0.004379511992167681,0.0467472111929208
1690841430019478800,8.167478759765626,0.17234978630542755,0.006206636087782681,0.04689794477522373
1690841430029518800,8.177518798828125,0.16516542775928972,-0.0025361674141138792,0.05197146691353991
1690841430039559000,8.187558837890625,0.1733978340536356,-0.011580036221817136,0.05881334129809401
1690841430049630000,8.1976298828125,0.17774258525967596,-0.0060008478499948975,0.05315776322181336
1690841430059670000,8.207669921875,0.17879706274867058,-0.00617024960014969,0.05219361263108439
1690841430069710800,8.2177109375,0.16982757435142992,-0.006327248526457697,0.04765174055090174
1690841430079750700,8.227750732421875,0.17447101624310016,-0.010045374000445008,0.04365379348853603
1690841430089790700,8.237790771484375,0.18794424580037591,-0.012812939017638563,0.0502360762219876
1690841430099830800,8.247830810546875,0.18406126688718794,-0.01662973909312859,0.04959533519961405
1690841430109871900,8.257871826171876,0.17449030546545982,-0.008202851406298577,0.04959375973045826
1690841430119912000,8.267911865234375,0.19035656763911246,-0.004609868415631354,0.0478510077163577
1690841430129952000,8.277951904296875,0.14860884523391724,-0.006996343427058309,0.04623170855198987
1690841430139992800,8.287992919921875,0.19035832120478152,-0.015057886666525154,0.05334030758133158
1690841430150032600,8.29803271484375,0.17165128264725207,-0.010684402556344867,0.05721133119524456
1690841430160072700,8.30807275390625,0.20367372985184193,-0.011324253096152096,0.057749611923564224
1690841430170112800,8.31811279296875,0.16820786419510841,-0.014703282808884978,0.05901838975036516
1690841430180183800,8.328183837890625,0.18841069426834584,-0.01119918367806822,0.05203710689512081
1690841430190224000,8.338223876953125,0.16865794605016707,-0.006883183642476797,0.04797868008348159
1690841430200265000,8.348264892578126,0.18466683156490324,-0.008592544843629002,0.04341166899546515
1690841430210305000,8.358304931640625,0.16176467940509318,-0.005226319813542068,0.04809305457761511
1690841430220344800,8.3683447265625,0.19138415712118148,-0.004634217405598611,0.045784960298333316
1690841430230385700,8.3783857421875,0.17327157732546328,-0.002306468577776104,0.04537697315248661
1690841430240425700,8.38842578125,0.17341829231977463,-0.010672803450096397,0.04639626059709116
1690841430250465800,8.3984658203125,0.1750660595268011,-0.002450882017146796,0.03975126049150712
1690841430260505900,8.408505859375,0.19721417844891548,-0.005922996840812265,0.04138409499088302
1690841430270547000,8.418546875,0.15936229443848132,-0.011758589392807333,0.052250073792366306
1690841430280587000,8.4285869140625,0.1761240441471338,-0.011989493805542588,0.05725538953267969
1690841430290626800,8.438626708984375,0.1626613359838724,-0.001525072409119457,0.06459959654933772
1690841430300667600,8.448667724609376,0.1888555154263973,0.0005726670551113784,0.07085348757863975
1690841430310707700,8.458707763671875,0.16581424705684183,-0.006626377603504806,0.07473933430234901
1690841430320778800,8.46877880859375,0.1688099217414856,-0.011410524873808026,0.05967158382893539
1690841430330818800,8.47881884765625,0.18436755635738372,-0.007755345100816339,0.04562338109503034
1690841430340859000,8.48885888671875,0.17374094840288162,-0.015421148754656314,0.031187293288391083
1690841430350899000,8.49889892578125,0.16416121915280818,-0.012392558181099593,0.031034787874110042
1690841430360940000,8.50893994140625,0.19064473693072795,-0.009833448282815516,0.027773078097845426
1690841430370979800,8.518979736328125,0.16655016011595725,-0.004787051613442599,0.03400743787619285
1690841430381020000,8.52902001953125,0.1743336535990238,-0.007653218166902661,0.03412110911742784
1690841430391047700,8.539047607421875,0.1777805791825056,-0.010265775285474956,0.056067147862492124
1690841430401087500,8.54908740234375,0.17658757000565528,-0.013795264585874973,0.061843292711675164
1690841430411127600,8.55912744140625,0.17553952225744723,-0.009664265728369354,0.06796078921128064
1690841430421167600,8.569167724609375,0.17673253143429754,-0.00899630333893001,0.07507309630136005
1690841430431208700,8.579208740234375,0.16266367407143115,-0.006910418709274381,0.06420721796457655
1690841430441248800,8.589248779296875,0.17343348988890647,-0.0056144423482939595,0.05522145428596995
1690841430451319800,8.59931982421875,0.16878887895345687,-0.001994096426665783,0.04373440271038562
1690841430461359600,8.609359619140625,0.1767120731681585,-0.009711301474180072,0.030120435808436014
1690841430471399400,8.6193994140625,0.17461188601851463,-0.01575657298779115,0.02697606880152598
1690841430481440500,8.6294404296875,0.17206921579837797,-0.013118844895344227,0.025709638195438308
1690841430491480600,8.63948046875,0.18075287299156187,-0.008736994815617799,0.030102343029319308
1690841430501520600,8.649520751953125,0.1870394059151411,-0.011202709075715392,0.03704241252476349
1690841430511561700,8.659561767578126,0.17641688961386678,-0.01289500954421237,0.05007765252357348
1690841430521601800,8.669601806640625,0.17986030806601047,-0.005842095358017832,0.06029894477992784
1690841430531641600,8.6796416015625,0.17851356963217258,-0.005078399242833256,0.07125604049754329
1690841430541681400,8.689681396484374,0.17417583268880843,0.0013190467093139886,0.07218204190181568
1690841430551722500,8.699722412109375,0.16938567580282687,-0.005238887034170329,0.07300514005403966
1690841430561762600,8.709762451171875,0.17821020277142524,-0.013213756637182087,0.050663279524957756
1690841430571802600,8.719802734375,0.17326982375979422,-0.007842968585342168,0.04138794461551588
1690841430581873700,8.729873779296875,0.17476210814416407,-0.005866663543693721,0.0377173617774155
1690841430591913700,8.739913818359375,0.17835341063439844,-0.007420359259098768,0.031156962082209062
1690841430601954800,8.749954833984376,0.18374211793541906,-0.007916928870696574,0.025730361323058604
1690841430611994600,8.75999462890625,0.17551731042563914,-0.009058847181126475,0.03854511783844791
1690841430622034400,8.770034423828125,0.1773152997583151,-0.015386442767456173,0.04744049525328446
1690841430632074500,8.780074462890624,0.1768652179032564,-0.0057682081378996365,0.05370626395004801
1690841430642115600,8.790115478515625,0.1759673922806978,-0.0013090550382621586,0.06491090012136846
1690841430652155600,8.80015576171875,0.17596446967124937,-0.0073687204034067685,0.06709374688605312
1690841430662195700,8.81019580078125,0.17386720513105391,0.0023609387113712726,0.06460443712123669
1690841430672236800,8.82023681640625,0.16443711348474024,-0.0006339139893651009,0.05891049066279083
1690841430682276600,8.830276611328125,0.1832879444271326,-0.00814076422182843,0.044015457274625074
1690841430692316400,8.84031640625,0.18702946904301643,-0.0068881886111572385,0.03871644668420777
1690841430702356500,8.8503564453125,0.20304244621098042,-0.004316127899754792,0.024017246395396066
1690841430712427500,8.860427490234375,0.1837415334135294,-0.007146784748416394,0.02683562828437425
1690841430722468600,8.870468505859375,0.18030454470217228,-0.013223985770251601,0.03832138295201584
1690841430732508700,8.8805087890625,0.1762678365319967,-0.013811064943205564,0.0509487636691425
1690841430742548700,8.890548828125,0.17282909425497053,-0.008089983882661909,0.052102628145692866
1690841430752588500,8.900588623046875,0.17283026329874993,-0.00898293240070343,0.05754998856508173
1690841430762629600,8.910629638671875,0.17492518975138663,-0.010923472009226678,0.06565548054412938
1690841430772669400,8.92066943359375,0.17402327247560023,-0.018351302188728005,0.06464783787154592
1690841430782709500,8.93070947265625,0.17267244238853455,-0.006300269187986851,0.0604840875219088
1690841430792750600,8.94075048828125,0.17910335221886634,-0.002899338170699775,0.0525833700004965
1690841430802790700,8.950790771484375,0.17446166389286516,-0.017147771617863326,0.04240009449985809
1690841430812830700,8.960830810546875,0.17984452597498893,-0.005921827797032892,0.03701286676987074
1690841430822870800,8.970870849609375,0.17146365112066267,-0.006143599055241793,0.03452338804169558
1690841430832911600,8.98091162109375,0.16577917574346065,-0.011091485519893467,0.03267691992479376
1690841430842981600,8.990981689453125,0.1771539717167616,-0.006297638839483261,0.03698857257883064
1690841430853022500,9.0010224609375,0.17745675405561923,-0.010430153800640255,0.04249004693878814
1690841430863062500,9.0110625,0.17326865471601485,-0.008030307850986719,0.053843425664724776
1690841430873102600,9.0211025390625,0.1738631134778261,-0.005477445030398666,0.056060571991233155
1690841430883143700,9.031143798828126,0.17909516891241073,-0.0030798275704495607,0.06759248562185094
1690841430893183700,9.041183837890625,0.1798410188436508,-0.004147986524924635,0.058376502517098555
1690841430903223600,9.0512236328125,0.16966215465664863,-0.006915021819155663,0.05240535568562336
1690841430913263600,9.061263671875,0.1728010372042656,-0.011338500817213206,0.04395350708747282
1690841430923304400,9.071304443359375,0.17085399478971958,-0.009597977292817085,0.03556053080339916
1690841430933344500,9.081344482421875,0.17684300607144832,-0.006177190797589719,0.03867134716715664
1690841430943384600,9.091384521484375,0.17894260869920253,-0.005308207677025348,0.03798306350889615
1690841430953425700,9.10142578125,0.17295885811448097,0.003091536274552345,0.03454053097274154
1690841430963465700,9.1114658203125,0.1792442219942808,-0.00892831613663584,0.042535950173437594
1690841430973505800,9.121505859375,0.18702128573656082,-0.0058278293706476685,0.045230020696157586
1690841430983576600,9.13157666015625,0.17744272553026674,-0.004570047861896455,0.05155598144782707
1690841430993616600,9.14161669921875,0.1759451804488897,-0.00879897240223363,0.05763670786730945
1690841431003656700,9.15165673828125,0.1829787323474884,-0.004574815368559211,0.05237197400582954
1690841431013697500,9.161697509765625,0.18013620239794254,-0.006633136137854307,0.048001220708852634
1690841431023737600,9.171737548828125,0.18088439041674137,-0.007947671068832278,0.0442743182733655
1690841431033777700,9.181777587890625,0.1829787323474884,-0.013167689005751161,0.03637549131494015
1690841431043818800,9.19181884765625,0.17923837677538393,-0.0013434870308265089,0.036807462124573066
1690841431053858600,9.201858642578125,0.17849018875658512,-0.012273900237493217,0.039229912631679326
1690841431063898600,9.211898681640625,0.17549685215950012,-0.009197214472200722,0.043534555589617226
1690841431073938700,9.221938720703125,0.18327683851122856,-0.007335293057840317,0.03743922525604721
1690841431083979500,9.2319794921875,0.18507248975634574,-0.004669526180997491,0.04106738459137268
1690841431094019600,9.24201953125,0.18207739959359168,-0.006122684131376445,0.04906694111106917
1690841431104059600,9.2520595703125,0.17504267865121365,-0.006621244770660996,0.05040995321786031
1690841431114130700,9.262130615234375,0.18790975900888443,-0.002923248769249767,0.051577818820299576
1690841431124170500,9.27217041015625,0.17653788564503192,-0.005597801740746945,0.048688207459170366
1690841431134211600,9.282211669921875,0.17459668844938278,-0.010038469335623084,0.042201749783009286
1690841431144251600,9.292251708984375,0.18357845180630683,-0.01107773098917678,0.04376456038663164
1690841431154291700,9.302291748046875,0.17684534415900707,-0.006548234333377331,0.0498521092725452
1690841431164332500,9.31233251953125,0.17699381271898745,-0.015270835297461599,0.03732275470294989
1690841431174372600,9.32237255859375,0.174896548178792,-0.011187968164309859,0.03270658441069536
1690841431184412700,9.33241259765625,0.179836927190423,-0.006181008456181735,0.040346230709971856
1690841431194452500,9.342452392578124,0.17205694083869455,-0.003640895519312471,0.04162052039552945
1690841431204493600,9.35249365234375,0.1769955662846565,-0.010964096280559896,0.04570513652777299
1690841431214533600,9.36253369140625,0.1759463494926691,-0.007136720012128353,0.0499866132392548
1690841431224573700,9.37257373046875,0.17265198412239552,-0.01169949788302183,0.04900168472197838
1690841431234614500,9.382614501953125,0.18058102355599404,-0.013848931001871824,0.05114704445390962
1690841431244684800,9.392684814453125,0.1876134064108133,-0.010588102575019001,0.04696321943062357
1690841431254725600,9.4027255859375,0.18192717746794224,-0.011450674221105872,0.04816592801758088
1690841431264765400,9.412765380859375,0.18252222075164318,-0.004378598676715046,0.04639841145498212
1690841431274805500,9.422805419921875,0.18760756119191646,-0.002800261710397899,0.04877109083649702
1690841431284845600,9.432845458984374,0.18072364689707754,-0.011073365341313183,0.040057933554193
1690841431294886700,9.44288671875,0.17368717238903045,-0.01180905920471996,0.04522988369883969
1690841431304926700,9.4529267578125,0.1817676029920578,-0.007338069536816328,0.044062739615608006
1690841431314966800,9.462966796875,0.1787748509168625,-0.0070572433014400296,0.0386135982310865
1690841431325007600,9.473007568359375,0.17488427321910857,-0.003069251377508044,0.04048745667841285
1690841431335047700,9.483047607421875,0.16441197904348373,-0.004651077208854258,0.039155851881625126
1690841431345087500,9.49308740234375,0.1793751548975706,-0.010505684988573193,0.0414957204055041
1690841431355127600,9.50312744140625,0.17757833460867403,-0.014320238308049738,0.04496028211037628
1690841431365168600,9.513168701171875,0.17518237938284872,-0.013781510055158286,0.04525070729115978
1690841431375239700,9.52323974609375,0.17128829455375671,-0.0029780294300988316,0.044050181528134266
1690841431385279700,9.53327978515625,0.17293372367322443,-0.0030045521108433603,0.05095502901314757
1690841431395320300,9.5433203125,0.1668015045285225,-0.007991455411631614,0.04853323609316721
1690841431405360400,9.5533603515625,0.17099135743379593,-0.011563724407833069,0.045498106180969625
1690841431415401500,9.5634013671875,0.16904665310680866,-0.01228195567978546,0.039105372936557976
1690841431425441300,9.573441162109376,0.17668167802989482,-0.014263905010931194,0.04580019440008327
1690841431435481300,9.5834814453125,0.18237024506032465,-0.010727912904508412,0.04533781931903213
1690841431445522400,9.5935224609375,0.17473989631235598,-0.013997490893397479,0.04175185972419567
1690841431455562200,9.603562255859375,0.18252338979542254,-0.013349018655717372,0.04566379987038672
1690841431465602300,9.613602294921876,0.18042729429900645,-0.006820037012081593,0.045465112660243175
1690841431475642400,9.623642333984375,0.1787824497014284,-0.0064616154958494,0.04532383645945228
1690841431485683500,9.633683349609376,0.17578852858245372,-0.01011681353515014,0.043133706004032865
1690841431495723500,9.6437236328125,0.1681552572250366,-0.01138044026279822,0.03921543658175505
1690841431505763300,9.653763427734376,0.17100012526214123,-0.007875080756656825,0.04060262575699016
1690841431515834400,9.66383447265625,0.16651391975879667,-0.001772087706439197,0.04239350949544459
1690841431525874400,9.67387451171875,0.16980536251962183,-0.011213193937111645,0.03841773773226887
1690841431535915300,9.683915283203126,0.18073066115975378,-0.006370886738784611,0.046757869584253056
1690841431545955300,9.693955322265625,0.17729133436083794,-0.00854386513000354,0.039209015974123025
1690841431555995400,9.703995361328126,0.18821371039152143,-0.010997505359817295,0.0410595940105617
1690841431566035200,9.71403515625,0.18028408643603325,-0.01113174446504563,0.045335846557654436
1690841431576076300,9.724076171875,0.174447050845623,-0.012539419305883348,0.04903344983342103
1690841431586116400,9.734116455078125,0.17624445565640925,-0.0005143792629241943,0.04371968919844366
1690841431596156400,9.744156494140626,0.17250293104052541,-0.010572722342796622,0.043657483282964676
1690841431606197200,9.754197265625,0.17414952920377252,-0.009034278995450586,0.04678293096027337
1690841431616237300,9.7642373046875,0.1753489681214094,-0.009992620899900793,0.04714241648900788
1690841431626277400,9.77427734375,0.17235796961188316,-0.010539185399375855,0.04992485941492487
1690841431636317200,9.784317138671875,0.17266016742885112,-0.009985405707824975,0.05017439089631662
1690841431646388200,9.79438818359375,0.1750567071765661,-0.012298797216732054,0.04107314304530155
1690841431656428300,9.80442822265625,0.1817892303019762,-0.007852960256393999,0.036232429582439364
1690841431666469400,9.814469482421876,0.17430676559209823,-0.011011150292679666,0.03535562848160043
1690841431676509400,9.824509521484375,0.18014438570439814,-0.004243117462471128,0.04301094270746689
1690841431686549500,9.834549560546876,0.17939795125126837,-0.015429313794802873,0.036365061252471055
1690841431696590300,9.84459033203125,0.17475860101282595,-0.013684095828980206,0.040187103758659214
1690841431706630400,9.85463037109375,0.18239304141402243,-0.0065610207497142255,0.04312330334102735
1690841431716670200,9.864670166015625,0.17820143494307994,-0.007678316075541079,0.04343559329374693
1690841431726710300,9.874710205078125,0.16817513096928596,-0.011151033687405288,0.05019157949313521
1690841431736751400,9.88475146484375,0.18702771547734737,-0.012104315824247897,0.04786042399867437
1690841431746791400,9.89479150390625,0.18897475789189339,-0.0025943090758286415,0.05224203661638312
1690841431756831500,9.90483154296875,0.1779027442574501,-0.0063170193933881815,0.039578917865594844
1690841431766872300,9.914872314453126,0.171619718465209,-0.0035674832232296463,0.038907521410053596
1690841431776942300,9.9249423828125,0.17760756070315836,-0.0013901939830742777,0.03347852776441723
1690841431786983200,9.934983154296875,0.17506372143924234,-0.01294368925783783,0.03098235443397425
1690841431797023200,9.945023193359376,0.16832827570438383,-0.003586187923699617,0.04555505139944143
1690841431807063300,9.955063232421875,0.17176994059085846,-0.01033067548153922,0.04469843457010574
1690841431817104400,9.9651044921875,0.17431436437666414,-0.014651114230230449,0.04354757490139454
1690841431827144400,9.97514453125,0.17745500048995017,-0.014398491176031529,0.04702387270983308
1690841431837184500,9.9851845703125,0.1825420944958925,-0.008446122110262513,0.04298827878450975
1690841431847224600,9.995224609375,0.17939970481693743,-0.0031905762022361155,0.04325314026577398
1690841431857265400,10.005265380859376,0.1871779376029968,-0.010893076870962977,0.04643081132066436
1690841431867305200,10.01530517578125,0.18493337354660033,-0.007876249800436198,0.040095397754060104
1690841431877345300,10.02534521484375,0.17655483677983283,-0.012493242076598106,0.04506581571092829
1690841431887386400,10.035386474609375,0.17610884657800197,-0.003578936199005693,0.044374883437855166
1690841431897426400,10.045426513671876,0.1669838753581047,-0.008425152387470006,0.038605853316048155
1690841431907497500,10.05549755859375,0.17357026801109313,-0.009869962634611875,0.04246658386480994
1690841431917537500,10.06553759765625,0.17222703670859335,-0.013817713879700749,0.04631724054412916
1690841431927577300,10.075577392578126,0.18569559009075165,-0.010798676585778594,0.04906645248730201
1690841431937617400,10.085617431640625,0.18464578877687454,-0.008346479394380003,0.043443831399129704
1690841431947658200,10.095658203125,0.17820903372764588,-0.00739641212793067,0.05275031493208371
1690841431957698300,10.1056982421875,0.17416940294802188,-0.00720947472108528,0.04204775566454045
1690841431967738400,10.11573828125,0.18135083888471126,-0.012951397640258074,0.043311199729098006
1690841431977779500,10.125779541015625,0.17865970010459423,-0.006590922697633505,0.04361712387311272
1690841431987819500,10.135819580078126,0.18000585401654243,-0.0095936847101897,0.033913019324699416
1690841431997859600,10.145859619140625,0.1807511194258928,-0.00835632493495941,0.036349169563595206
1690841432007899400,10.1558994140625,0.17880407701134682,-0.015156634333264082,0.036473645326634864
1690841432017940200,10.165940185546875,0.1792488981693983,-0.003613879648223519,0.043384876886662094
1690841432027980300,10.175980224609376,0.17939444411993025,-0.010184965134225786,0.035379283351823686
1690841432038051300,10.18605126953125,0.17520634478032587,-0.0077460475495085114,0.035430164155689996
1690841432048091400,10.19609130859375,0.17057050167322158,-0.005561433519423007,0.05320250654583797
1690841432058131500,10.20613134765625,0.17371756752729414,-0.013485120924469083,0.044303800096176564
1690841432068172500,10.216172607421875,0.1702782407283783,0.0018678579648025333,0.04320495374249294
1690841432078212400,10.22621240234375,0.17476853788495061,-0.0016925379305146634,0.044121557130757716
1690841432088252400,10.23625244140625,0.1690840625077486,-0.010299787152931094,0.04082279871315695
1690841432098292200,10.246292236328125,0.17447276980876922,-0.02071140064988285,0.04510644911541603
1690841432108333300,10.256333251953125,0.1821060411661863,-0.01063899251203984,0.04014596803067252
1690841432118373400,10.266373291015626,0.17417583268880843,-0.005067037598602473,0.040481967652542514
1690841432128413400,10.276413330078125,0.17447452337443828,-0.013618958170898258,0.03933877070047893
1690841432138454500,10.28645458984375,0.18135609958171844,-0.006352054174151271,0.03492654374879785
1690841432148494600,10.29649462890625,0.17566928611695765,-0.0017300934619270264,0.03702499559908174
1690841432158534400,10.306534423828126,0.17581950824260711,-0.010096099540684371,0.037900974716013294
1690841432168574200,10.31657421875,0.1735749441862106,-0.011606851163506507,0.03694076964803971
1690841432178645200,10.326645263671875,0.17237959692180155,-0.005729940220434218,0.03964229282485321
1690841432188686300,10.336686279296876,0.1862941405057907,-0.011786299383640288,0.04427281130286865
1690841432198726400,10.346726318359375,0.17342647562623023,-0.008433938482124358,0.038768852724879975
1690841432208766500,10.356766357421876,0.17597148393392562,-0.01230038638561964,0.03633557942965999
1690841432218806300,10.36680615234375,0.17432663933634757,-0.010631850385200231,0.03749892412060871
1690841432228847400,10.376847412109376,0.18345102603435515,-0.004169321573898196,0.04198540361858904
1690841432238887400,10.386887451171875,0.18150865979492664,-0.01124576276615262,0.04292349731945432
1690841432248927200,10.39692724609375,0.18001228375732897,-0.006737509827781468,0.04480990472109988
1690841432258968300,10.40696826171875,0.17941256429851055,-0.002151150151900947,0.037698821473727
1690841432269008400,10.41700830078125,0.1825555384993553,-0.005599062116071581,0.04161268871552311
1690841432279048400,10.42704833984375,0.1737275043994188,-0.009163220871053635,0.04237692368682474
1690841432289088300,10.437088134765625,0.1812093845874071,-0.013801000206917524,0.038771245611365884
1690841432299129600,10.447129638671875,0.1734282291918993,-0.01021267512505874,0.03968049681023694
1690841432309199400,10.457199462890625,0.1774707825809717,-0.00625051176212728,0.03947373132491484
1690841432319240400,10.467240478515626,0.16490180838704108,0.0026066753670573235,0.03153195114075206
1690841432329280300,10.4772802734375,0.1674462321728468,-0.005777030765172094,0.03310562106510624
1690841432339320300,10.4873203125,0.18555998101234436,-0.004646382767427713,0.031488596056215463
1690841432349361400,10.497361328125,0.17957856851518153,-0.0011968085691332817,0.04750084257181734
1690841432359401500,10.5074013671875,0.18033026366531849,-0.007533756505697965,0.04689321380117908
1690841432369441300,10.517441162109375,0.1797322977721691,-0.004358195209503174,0.04316527931923046
1690841432379481300,10.5274814453125,0.17913433187901973,0.0023732502036727964,0.042343724670121444
1690841432389522400,10.5375224609375,0.18287468745112417,-0.011276121371798217,0.03521953534600325
1690841432399554300,10.54755419921875,0.18287527197301387,-0.010664200018532573,0.04591322632050141
1690841432409594400,10.557594482421875,0.170905432716012,-0.009124532828480005,0.04193396569229662
1690841432419635200,10.56763525390625,0.17255027731359004,-0.013191964930482207,0.03370602551051415
1690841432429675300,10.57767529296875,0.17568974438309667,-0.013451638779975473,0.04689544229088351
1690841432439746000,10.58774609375,0.17344634937047956,-0.01311663467194885,0.03966985668521374
1690841432449786000,10.5977861328125,0.17419570643305776,-0.004386160928662866,0.03924940278343856
1690841432459826200,10.607826171875,0.1777893470108509,-0.008207582380343229,0.046584965269337406
1690841432469867300,10.6178671875,0.17898586331903935,-0.006283171922713518,0.04398928165375255
1690841432479907300,10.6279072265625,0.1773398496776819,-0.006129314801562577,0.04592581180743873
1690841432489947400,10.637947509765626,0.1788350566715002,-0.009032854223344475,0.0388456260218285
1690841432499987200,10.6479873046875,0.17344985650181768,-0.01614798345817253,0.03993958157126326
1690841432510028000,10.658028076171876,0.18482406795322895,-0.011875859096925704,0.03519433697266504
1690841432520068000,10.668068115234375,0.19320552732944488,-0.002986870323680341,0.04517144064302556
1690841432530108200,10.678108154296876,0.17180851903557776,-0.009082666448131204,0.04830505336048081
1690841432540149200,10.688149169921875,0.17300561986565588,-0.008050601720344275,0.04479180280882865
1690841432550189300,10.698189208984376,0.17794424531161784,-0.0087758107223548,0.040701638285210354
1690841432560229400,10.7082294921875,0.16881635148227214,-0.0014616335177794098,0.03730244256728329
1690841432570300400,10.718300537109375,0.17270634465813636,-0.00448879931923002,0.03986228311792947
1690841432580340200,10.72834033203125,0.17794366078972815,-0.0016466346958652139,0.04724535170709714
1690841432590380300,10.73838037109375,0.17959142799675465,-0.006958075509592891,0.04283531671250239
1690841432600421000,10.748421142578126,0.17719839538037777,-0.005572776897344738,0.03957599525614641
1690841432610461200,10.758461181640625,0.17420622782707212,-0.006744030900113284,0.04420674206302501
1690841432620501200,10.768501220703126,0.17914543779492378,-0.0016338665458373724,0.04102542231290135
1690841432630542300,10.778542236328125,0.17390929070711134,-0.0077385948954150074,0.041960634503513575
1690841432640582400,10.78858251953125,0.1739110442727804,-0.012165124367084354,0.046769468690501526
1690841432650622200,10.798622314453125,0.176451960927248,-0.002545300568640232,0.032911039207922294
1690841432660662300,10.808662353515626,0.1807908669143915,-0.0013826317311264574,0.036942372516659085
1690841432670703000,10.818703125,0.17974632629752157,-0.008603340232279152,0.04522007925745565
1690841432680743200,10.8287431640625,0.18693068484365938,-0.012843589884229003,0.037110792452702296
1690841432690783200,10.838783203125,0.1854366468936205,-0.003054729661811143,0.036768070829100906
1690841432700824300,10.84882421875,0.1715197652220726,-0.0008195727545768022,0.043489268842898304
1690841432710894300,10.858894287109376,0.1842412996292114,-0.006751300891116261,0.04950894012437202
1690841432720935400,10.868935302734375,0.17556407217681408,-0.00983576810406521,0.03441413724725134
1690841432730975200,10.878975341796876,0.17765899862945078,-0.0022154840923845768,0.040302172372536735
1690841432741015300,10.889015380859375,0.17825638000071048,0.004473802679497749,0.039205015652440486
1690841432751055400,10.899055419921876,0.17945464987456797,0.0003360452876426279,0.04805421127141453
1690841432761096200,10.90909619140625,0.17736089246571063,-0.0033623160399496553,0.04292895894586109
1690841432771136300,10.91913623046875,0.17631226019561289,-0.008339812191575766,0.041545130771491676
1690841432781176300,10.92917626953125,0.17092647550404072,-0.010675287668127566,0.03886612995374016
1690841432791217400,10.939217529296876,0.1755675793081522,-0.006700520551949739,0.045126953047327695
1690841432801257200,10.94925732421875,0.1737754351943731,-0.009428191950172185,0.04090957281431183
1690841432811297300,10.95929736328125,0.17213234416246412,-0.008298840860370546,0.03480620530475862
1690841432821337300,10.96933740234375,0.18515081568956374,-0.005623666834365576,0.03905596257057041
1690841432831378200,10.979378173828126,0.1860498103559017,-0.006176916802953928,0.034526849507261065
1690841432841449200,10.98944921875,0.1748258210301399,-0.009970646530110388,0.03566653019483201
1690841432851489300,10.9994892578125,0.1725818414956331,-0.005760244027152657,0.034382929258234794
1690841432861529300,11.009529296875,0.1725818414956331,-0.006974990111775696,0.03712255595573224
1690841432871569200,11.019569091796875,0.16832009239792822,-0.006165756088122725,0.03481983197131194
1690841432881610200,11.0296103515625,0.27682255269289013,-0.07873838647641242,0.04111849372410215
1690841432891650300,11.039650390625,-0.06978782197535037,-0.4216847587443888,-0.5412497341930866
1690841432901690400,11.0496904296875,-0.028704700958728787,0.08831077267024666,0.3883080473866313
1690841432911731200,11.059731201171875,0.5833230352908373,0.014945311403833329,0.21430508704669773
1690841432921771300,11.069771240234376,-0.0808534058690071,0.21700735000902785,0.30821462957207113
1690841432931811300,11.079811279296875,0.2664110487937927,0.08295668002488091,0.11564942770646884
1690841432941851100,11.08985107421875,0.15955752474963664,0.0481000871066004,0.12990966118928043
1690841432951892200,11.099892333984375,0.24022271457016467,0.0314939115521498,-0.10002093807775526
1690841432961932300,11.109932373046876,0.2000152073442936,-0.011501892951689659,-0.19740725333560258
1690841432972003300,11.12000341796875,0.23915771568715571,0.02013533606128767,-0.1411375869046431
1690841432982043400,11.13004345703125,0.1927086837232113,0.014828881949931382,-0.1638015920601785
1690841432992083200,11.140083251953126,0.27587270462214947,0.006456099070515483,-0.14521659071343018
1690841433002124300,11.150124267578125,0.13187749066352844,0.026879092966765165,-0.06031883222390897
1690841433012164400,11.160164306640626,0.2127946094185114,0.014005455004144459,0.009524018149106996
1690841433022204200,11.1702041015625,0.16950900992155074,0.008482033673860133,0.09249320032089017
1690841433032244200,11.180244140625,0.15195874018371106,0.003048336453642696,0.1569494246104732
1690841433042285300,11.190285400390625,0.08875789538323879,-0.0060793016473762685,0.18661518915370107
1690841433052325400,11.200325439453126,0.2245575279265642,-0.02827529656551778,0.16936671537403017
1690841433062365200,11.210365234375,0.08784779480099678,-0.028370975492335856,0.13951945678405464
1690841433072406300,11.22040625,0.1785644230365753,-0.036487025398015974,0.07802642968161963
1690841433082446300,11.2304462890625,0.15867548121809957,-0.04257909519542009,0.015110331523104105
1690841433092486100,11.240486083984376,0.17273323266506194,-0.05004407904753461,-0.045033493477059525
1690841433102557200,11.25055712890625,0.18513269551098346,-0.04382821847368031,-0.08620206428742967
1690841433112597200,11.26059716796875,0.17103110492229462,-0.044903757017012685,-0.10503825478311628
1690841433122638300,11.270638427734376,0.20794366225600242,-0.05192925347331911,-0.09675202680914662
1690841433132678100,11.28067822265625,0.19815584321320057,-0.040154187869746234,-0.060773663319321346
1690841433142718200,11.29071826171875,0.13074702532887458,-0.033443712179362775,-0.017365314225526524
1690841433152758300,11.30075830078125,0.20907997280955312,-0.03187357678581029,0.03307149959979579
1690841433162799400,11.31079931640625,0.14001812702119348,-0.013459566358104347,0.08356403480088338
1690841433172839200,11.320839111328125,0.1544528950870037,-0.003497358862776309,0.10460158953205682
1690841433182879200,11.330879150390626,0.18880057036876677,0.001867693568021059,0.10870376415387727
1690841433192920300,11.34092041015625,0.16105974600613115,0.009667955522798002,0.09281540887942537
1690841433202960100,11.350960205078126,0.16535481285154818,0.012287581702973694,0.07128770514428615
1690841433213000200,11.361000244140625,0.2016828482955694,0.023086970674805342,0.0225690751473885
1690841433223040300,11.371040283203126,0.17787585625052452,0.012332480290625244,-0.007850613035680725
1690841433233111000,11.381111083984376,0.20840426550507543,0.010558986078388989,-0.031302250021125654
1690841433243151000,11.391151123046875,0.1862766048491001,0.026566318956855683,-0.04730107308286242
1690841433253192200,11.401192138671876,0.2078606601476669,0.011629684049822389,-0.05185315602980554
1690841433263232300,11.411232177734375,0.21284312473535535,0.007996990103274584,-0.05302270213267766
1690841433273272300,11.421272216796876,0.1723468636959791,0.018355010249465703,-0.016906893800385295
1690841433283313200,11.431313232421875,0.1860240913927555,0.015894520153757183,0.0138756740199693
1690841433293353200,11.441353271484376,0.19940262840390205,0.005010813899338245,0.04489742774092592
1690841433303393000,11.45139306640625,0.1559212140738964,0.0028202815851196645,0.059702408225461835
1690841433313433000,11.46143310546875,0.18231354643702505,0.00032329540392383934,0.07626752111716195
1690841433323474200,11.47147412109375,0.16650164479911325,-0.0012790982914157212,0.07709645535512827
1690841433333514200,11.48151416015625,0.151429163351655,-0.013598536437377334,0.05953751825364306
1690841433343554300,11.49155419921875,0.16777590251863,-0.017236728542950004,0.03175566776087507
1690841433353595100,11.50159521484375,0.16824468907415865,-0.028225959264766422,0.01512253113426268
1690841433363635200,11.51163525390625,0.17573358352482318,-0.02908323368122801,-0.002525353759154677
1690841433373706200,11.521706298828125,0.1766296555817127,-0.02256261800713837,-0.021641402375837785
1690841433383746000,11.53174609375,0.18230360956490038,-0.03277748508928344,-0.020684932768065482
1690841433393778400,11.5417783203125,0.19934008456170557,-0.029360863312520084,-0.019152179375989363
1690841433403818200,11.551818359375,0.16713818913698195,-0.019477146147191524,-0.003251110750436783
1690841433413859000,11.561859130859375,0.1690489911943674,-0.012710081431362777,0.0056046242071781304
1690841433423899100,11.571899169921876,0.17589198895692823,-0.018542824439145622,0.02220341103961691
1690841433433939200,11.581939208984375,0.16342647513747213,-0.019716416529472917,0.04859742390317842
1690841433443980300,11.591980224609374,0.17490765409469602,-0.010201697073318064,0.055903353869216514
1690841433454020400,11.602020263671875,0.17426760262548924,-0.006051408993452787,0.04897945462386123
1690841433464060400,11.612060302734376,0.17513211050033567,0.0029146818703040477,0.048355861099110914
1690841433474100200,11.622100341796875,0.19036533546745776,0.002880907464865595,0.03277693938330049
1690841433484141300,11.632141357421874,0.17612638223469257,0.008303334372397511,0.01848323060586117
1690841433494181000,11.64218115234375,0.18703356069624422,0.014103070159722118,-0.000952779813343659
1690841433504252200,11.652252197265625,0.18987024542689324,0.014342377074621618,-0.0018362663832958786
1690841433514292200,11.662292236328126,0.1779062513887882,0.013052556459791958,-0.0028987353825010356
1690841433524332300,11.672332275390625,0.1916846013724804,0.001274823975097388,-0.006949426412256434
1690841433534373400,11.682373291015624,0.18197744635045526,0.010529924380686133,-0.004778975621552672
1690841433544413400,11.692413330078125,0.17497136698067187,0.012285846403613685,0.006751383089506998
1690841433554453200,11.702453369140626,0.18981646941304206,0.007751746637932956,0.021802931346790864
1690841433564494000,11.712494140625,0.17877660448253155,0.0025972316852770744,0.029913473960291592
1690841433574534100,11.7225341796875,0.17985738545656202,0.0015243600230664014,0.03375998418745585
1690841433584574200,11.73257421875,0.17869418689608574,0.0000427979621104896,0.04164515707986429
1690841433594614300,11.7426142578125,0.17961831600368022,-0.004975961781665683,0.034200850689597426
1690841433604655400,11.7526552734375,0.18188801450133324,-0.0061279082957655185,0.03345351205416955
1690841433614695400,11.7626953125,0.18175766611993313,-0.014222276092600076,0.013108113438775762
1690841433624735200,11.7727353515625,0.17488661130666733,-0.017196433065179734,0.003913638912932947
1690841433634806300,11.78280615234375,0.1762427020907402,-0.0192650012338534,0.004277275460399687
1690841433644846000,11.79284619140625,0.167266783952713,-0.015902173737250266,0.0005145345265511423
1690841433654887200,11.80288720703125,0.17369535569548605,-0.021233744023554026,-0.0016720339986030011
1690841433664927200,11.81292724609375,0.18191548703014848,-0.01819589243130758,-0.00005380341331474483
1690841433674967300,11.82296728515625,0.1781593493670225,-0.017574947521369903,0.01357775851082988
1690841433685007400,11.83300732421875,0.17769231637716293,-0.008961706949584185,0.019645552383502945
1690841433695048400,11.84304833984375,0.1713841561436653,-0.008610464092809706,0.025660310027841478
1690841433705088300,11.853088134765626,0.17644494666457175,-0.012376063704025,0.032422691718686836
1690841433715128000,11.863128173828125,0.18719430421590805,-0.00811369355181232,0.032109351453196724
1690841433725169200,11.873169189453124,0.17714520388841629,-0.005575388979539275,0.024689437435381115
1690841433735209200,11.883209228515625,0.17981763796806335,-0.004166070170886814,0.026348191827302796
1690841433745249300,11.893249267578126,0.18398820165097712,0.0007258300565183162,0.013413325196737423
1690841433755289300,11.903289306640625,0.1755985589683056,0.00759920469103381,0.006830594938714057
1690841433765360400,11.9133603515625,0.18965514137148856,0.0018782697609625756,0.0070992192796431475
1690841433775401500,11.9234013671875,0.1868085197687149,-0.0010984810275025665,-0.001178076469199732
1690841433785441300,11.933441162109375,0.18710837949812412,0.00008744082143530249,0.010248221362475305
1690841433795481000,11.943481201171876,0.18337211557924746,0.0035085561102256176,0.02232198678483255
1690841433805521200,11.953521240234375,0.1720107636094093,0.01194488747883588,0.01488145238738507
1690841433815562200,11.963562255859374,0.1744166557073593,-0.003077818276453763,0.014860710993455721
1690841433825602300,11.973602294921875,0.1820639555901289,-0.0034306685684248805,0.015571517010778187
1690841433835642400,11.983642333984376,0.17908581656217573,-0.007710501312091946,0.021149463273584843
1690841433845683500,11.993683349609375,0.17805705803632735,-0.00045525122052058573,0.026523219600645825
1690841433855723300,12.00372314453125,0.16715163314044473,-0.004893197135347873,0.025181568333879113
1690841433865763000,12.01376318359375,0.17045710442662237,-0.005886866081506014,0.01834512817626819
1690841433875803100,12.02380322265625,0.16852467505931853,-0.007518650268111378,0.0172387378369458
1690841433885844200,12.03384423828125,0.1686824959695339,-0.011563687875214964,0.014572422970831393
1690841433895884300,12.04388427734375,0.17856266947090624,-0.0021411402145400642,0.011057674581836908
1690841433905955300,12.053955322265624,0.1763245351552963,-0.005823628119565546,0.011393637671088799
1690841433915995400,12.063995361328125,0.17602701351344585,-0.00924136414118111,0.024327803332044276
1690841433926035200,12.07403515625,0.18574819706082343,-0.01243884500823915,0.024087071645038666
1690841433936076300,12.084076171875,0.18409458463490008,-0.016594247654639183,0.021153463595267385
1690841433946116000,12.0941162109375,0.1733101557701826,-0.013684954345505684,0.01929006260987371
1690841433956156200,12.10415625,0.17778993153274059,-0.026428225660417227,0.023409151833876967
1690841433966196200,12.1141962890625,0.16775310616493225,-0.015294508433993905,0.024964336253469808
1690841433976237300,12.1242373046875,0.1681868214070797,-0.00009361483389511704,0.016545978932967408
1690841433986277400,12.13427734375,0.17714929554164408,-0.006178049314115196,0.009451198366424069
1690841433996317200,12.144317138671875,0.17863398114144802,-0.009577920885477214,0.013410092060035093
1690841434006358300,12.154358154296874,0.1850561231434345,0.005567954591754824,0.01162254192298278
1690841434016398000,12.164398193359375,0.18190438111424445,-0.004494169614091516,0.009996328960638493
1690841434026438100,12.174438232421876,0.18264380130469798,-0.008091426921077073,0.01245231869445415
1690841434036509200,12.18450927734375,0.18593232145607472,-0.0008740246218629181,0.0099192542695906
1690841434046549200,12.19454931640625,0.1824906565696001,-0.003433846906200051,0.012646633406868203
1690841434056589000,12.204589111328126,0.18204408184587956,-0.007409965729247779,0.013756430412828922
1690841434066630100,12.214630126953125,0.18010230012834072,-0.002206478802021593,0.020069559082388878
1690841434076670200,12.224670166015626,0.17801321889460087,-0.001410159058868885,0.024471018044883382
1690841434086710300,12.234710205078125,0.17128595646619796,-0.0026956505584530533,0.017640891180338802
1690841434096751000,12.244751220703124,0.17129472429454326,0.006900573168694972,0.019137824340362566
1690841434106791200,12.254791259765625,0.16741291442513465,-0.009836042098701,0.020490661438135428
1690841434116831200,12.264831298828126,0.17924597555994987,-0.005217771180905401,0.017659931524237615
1690841434126871300,12.274871337890625,0.18105156367719172,-0.004284965576510876,0.017578639599087183
