time,seconds_elapsed,z,y,x
1690841422045723600,0.1937236328125,-0.0015163789503276348,0.0031059100292623043,-0.08056168258190155
1690841422055763700,0.203763671875,0.00017155474051833153,0.0013537555932998657,-0.05704043060541153
1690841422065803800,0.2138037109375,0.00010790536180138588,-0.0010281756985932589,-0.03087327629327774
1690841422075844900,0.223844970703125,0.000710146501660347,-0.003760002553462982,-0.007537057623267174
1690841422085885000,0.233885009765625,0.0003205258399248123,-0.0015082997269928455,0.019534241408109665
1690841422095924700,0.2439248046875,-0.0003864201717078686,-0.00013793609105050564,0.0416431650519371
1690841422105995800,0.253995849609375,-0.000323569867759943,-0.00016829627566039562,0.05983388423919678
1690841422116035600,0.26403564453125,0.002429770538583398,0.002802144270390272,0.07455770671367645
1690841422126075600,0.27407568359375,0.000623348169028759,0.002738761017099023,0.0820971131324768
1690841422136116700,0.28411669921875,0.0007168864831328392,0.0024709287099540234,0.08681511878967285
1690841422146156800,0.29415673828125,0.0012436595279723406,0.0025992931332439184,0.08211436867713928
1690841422156196900,0.30419677734375,0.00008164020255208015,0.002646231558173895,0.07202780991792679
1690841422166238000,0.314238037109375,-0.0009910808876156807,0.0004605751018971205,0.059187110513448715
1690841422176277800,0.32427783203125,0.0004961565136909485,0.0008830564329400659,0.04064332693815231
1690841422186317600,0.334317626953125,0.00043996376916766167,-0.00019951863214373589,0.020337257534265518
1690841422196357600,0.344357666015625,0.0003703497350215912,-0.00040171388536691666,0.0012424103915691376
1690841422206398700,0.354398681640625,0.001679826295003295,0.0007429126417264342,-0.022320440039038658
1690841422216438800,0.364438720703125,0.0007403683848679066,-0.0006389401387423277,-0.03908772021532059
1690841422226478800,0.374478759765625,-0.0007089241407811642,0.0004209979670122266,-0.053084760904312134
1690841422236520000,0.38452001953125,-0.0001605362631380558,-0.000597687903791666,-0.060692302882671356
1690841422246589700,0.394589599609375,0.00016410322859883308,-0.0039767068810760975,-0.06513471901416779
1690841422256630800,0.404630859375,-0.0007146843709051609,-0.0017504256684333086,-0.06263184547424316
1690841422266670600,0.414670654296875,0.000638734083622694,-0.0027203490026295185,-0.05571215599775314
1690841422276710700,0.424710693359375,0.0011633634567260742,-0.0012387372553348541,-0.04843825101852417
1690841422286751700,0.434751708984375,-0.0016366839408874512,-0.000601176405325532,-0.035476647317409515
1690841422296791800,0.444791748046875,-0.0009046662598848343,0.0009187427349388599,-0.02032495103776455
1690841422306832000,0.454831787109375,-0.00027189915999770164,0.0015160897746682167,-0.006221115589141846
1690841422316871700,0.46487158203125,0.00035945232957601547,0.0023217552807182074,0.008146013133227825
1690841422326912800,0.474912841796875,0.001854551024734974,0.0021409266628324986,0.021702300757169724
1690841422336952600,0.48495263671875,-0.00008483929559588432,0.0007249303162097931,0.030871905386447906
1690841422346992600,0.49499267578125,0.0005292855203151703,0.0019936603493988514,0.04037939012050629
1690841422357032700,0.50503271484375,0.0005065640434622765,0.001511683571152389,0.044187355786561966
1690841422367073800,0.51507373046875,0.0004479745402932167,-0.0011536080855876207,0.048458002507686615
1690841422377144800,0.525144775390625,-0.0005093039944767952,0.0006255694897845387,0.04458270221948624
1690841422387178200,0.53517822265625,-0.0007316782139241695,-0.0009395703673362732,0.038840390741825104
1690841422397218300,0.54521826171875,0.0008886752184480429,0.0010050215059891343,0.031121566891670227
1690841422407258400,0.55525830078125,-0.00010068900883197784,0.002342727268114686,0.019916050136089325
1690841422417299200,0.56529931640625,0.0009111196268349886,0.0010036708554252982,0.010185334831476212
1690841422427339000,0.575339111328125,-0.0003171302378177643,0.0007637200178578496,-0.0025949086993932724
1690841422437379000,0.585379150390625,-0.0006962581537663937,0.0033055085223168135,-0.012487776577472687
1690841422447420200,0.595420166015625,-0.0007050465792417526,-0.0011310514528304338,-0.024556688964366913
1690841422457460200,0.605460205078125,-0.0005542682483792305,-0.0010839386377483606,-0.028907453641295433
1690841422467500300,0.615500244140625,-0.00030339835211634636,-0.0012019164860248566,-0.03287876397371292
1690841422477540400,0.625540283203125,0.000037709251046180725,-0.00028549786657094955,-0.03584343194961548
1690841422487581200,0.635581298828125,0.001007099635899067,-0.002911374904215336,-0.035399481654167175
1690841422497621000,0.64562109375,0.00012782029807567596,-0.0012688955757766962,-0.029061606153845787
1690841422507692000,0.655692138671875,0.0016048094257712364,0.001158842002041638,-0.024789096787571907
1690841422517732000,0.665732177734375,0.0004848754033446312,0.0003905344055965543,-0.017044560983777046
1690841422527772200,0.675772216796875,0.0005514542572200298,0.0009617825271561742,-0.007120823487639427
1690841422537813200,0.685813232421875,-0.0008343374356627464,0.0008988901972770691,-0.0011095516383647919
1690841422547853300,0.695853271484375,0.0008495792280882597,-0.0014822420198470354,0.005802682600915432
1690841422557893400,0.705893310546875,-0.00012543518096208572,0.0014261869946494699,0.01347135566174984
1690841422567933200,0.71593310546875,0.0013132044114172459,0.0006778386887162924,0.019949495792388916
1690841422577974000,0.72597412109375,-0.0010794266127049923,-0.001539628952741623,0.02361331693828106
1690841422588014000,0.73601416015625,-0.00016143498942255974,0.0008500254480168223,0.02548631653189659
1690841422598054100,0.74605419921875,0.0006185774691402912,0.001330029685050249,0.02541664056479931
1690841422608095200,0.75609521484375,-0.000125776045024395,0.00014598830603063107,0.021906593814492226
1690841422618135300,0.76613525390625,-0.0006771208718419075,0.0011326353996992111,0.01811807043850422
1690841422628175400,0.77617529296875,-0.0016222763806581497,0.001331573585048318,0.013166454620659351
1690841422638246100,0.78624609375,0.00008939113467931747,0.0021189304534345865,0.006911193020641804
1690841422648286200,0.7962861328125,-0.00007812166586518288,-0.0005839117802679539,-0.0011030565947294235
1690841422658327000,0.8063271484375,-0.00024334387853741646,-0.000060820719227194786,-0.005348214879631996
1690841422668367000,0.8163671875,-0.0015573473647236824,0.0012044470058754086,-0.011553645133972168
1690841422678407200,0.8264072265625,-0.0007362281903624535,-0.0005376280751079321,-0.014122987166047096
1690841422688447200,0.836447265625,-0.00034714024513959885,0.0016951663419604301,-0.017415719106793404
1690841422698488300,0.84648828125,-0.0001577557995915413,-0.0004019972402602434,-0.018699221312999725
1690841422708528000,0.856528076171875,0.00027740467339754105,-0.0011311708949506283,-0.01819268986582756
1690841422718568200,0.866568115234375,0.0008946431335061789,0.0008889203891158104,-0.017801688984036446
1690841422728609000,0.876609130859375,-0.00009552016854286194,-0.00010923226363956928,-0.014599772170186043
1690841422738649000,0.886649169921875,0.0005222447216510773,0.0007857726886868477,-0.010224688798189163
1690841422748689200,0.896689208984375,-0.0006564701907336712,0.00038949435111135244,-0.005882937461137772
1690841422758729200,0.906729248046875,0.00011348957195878029,0.0005723549984395504,-0.00039435550570487976
1690841422768800300,0.91680029296875,0.0009505210909992456,0.002153740031644702,0.003885079175233841
1690841422778840000,0.926840087890625,0.0007509347051382065,0.00012552598491311073,0.0074802665039896965
1690841422788881200,0.936881103515625,0.0005759652704000473,0.0015074402326717973,0.009310923516750336
1690841422798921200,0.946921142578125,0.0001010228879749775,0.0019176413770765066,0.01121469121426344
1690841422808961300,0.956961181640625,0.0007590902969241142,0.003587177023291588,0.012263177894055843
1690841422819002000,0.967002197265625,-0.000884729903191328,-0.000309706199914217,0.015437910333275795
1690841422829042200,0.977042236328125,-0.0009371940977871418,-0.0022607380524277687,0.013890082016587257
1690841422839082200,0.987082275390625,0.001622023992240429,-0.0021153558045625687,0.013784574344754219
1690841422849122000,0.9971220703125,0.0014292111154645681,-0.0024554417468607426,0.00993710570037365
1690841422859163100,1.0071630859375,0.0016958245541900396,0.0016028780955821276,0.004059895873069763
1690841422869203200,1.017203125,0.0026923795230686665,0.0025658770464360714,0.0014023277908563614
1690841422879243000,1.027242919921875,0.0016022010240703821,0.006597447209060192,-0.005506213754415512
1690841422889284000,1.0372841796875,0.0005369368009269238,0.006510894279927015,-0.009657284244894981
1690841422899324200,1.04732421875,0.0029706249479204416,0.0025797614362090826,-0.014911895617842674
1690841422909395200,1.057395263671875,0.0006595337763428688,0.00005481834523379803,-0.014214413240551949
1690841422919435300,1.067435302734375,-0.00047336937859654427,-0.006095231976360083,-0.013497302308678627
1690841422929475000,1.07747509765625,0.000007597263902425766,-0.00933842919766903,-0.012037089094519615
1690841422939516200,1.08751611328125,0.00048020388931035995,-0.007575852330774069,-0.005977937951683998
1690841422949556200,1.09755615234375,-0.0009059715084731579,-0.004347835201770067,-0.0036181118339300156
1690841422959596000,1.107595947265625,0.0007469002157449722,0.0013225453440099955,-0.0024060681462287903
1690841422969636000,1.117635986328125,0.0006861803121864796,0.005330336280167103,0.0009220857173204422
1690841422979677200,1.12767724609375,0.000605748500674963,0.006345920264720917,0.0004023890942335129
1690841422989717200,1.13771728515625,0.0009325186256319284,0.0077802990563213825,0.001955544576048851
1690841422999757000,1.147757080078125,0.0021568520460277796,0.004870366305112839,0.004263365641236305
1690841423009797000,1.157797119140625,-0.0006786156445741653,-0.0010461120400577784,0.006060199812054634
1690841423019838200,1.167838134765625,0.000018643680959939957,-0.005158523563295603,0.0057908762246370316
1690841423029878000,1.1778779296875,-0.0008562044240534306,-0.008227016776800156,0.006010852754116058
1690841423039949000,1.187948974609375,-0.000747906044125557,-0.009146220050752163,0.006904940120875835
1690841423049989000,1.197989013671875,-0.0018728254362940788,-0.005280642304569483,0.006755802780389786
1690841423060029200,1.208029296875,-0.0006556939333677292,0.0002894839271903038,0.0040164515376091
1690841423070070300,1.2180703125,0.00077575515024364,0.005528986919671297,0.0033786240965127945
1690841423080110000,1.228110107421875,0.00012115202844142914,0.007083420176059008,-0.0002198442816734314
1690841423090150100,1.238150146484375,0.00024259230121970177,0.005287917330861092,-0.0026593003422021866
1690841423100191200,1.248191162109375,0.0006944951601326466,0.0021088311914354563,-0.005473343655467033
1690841423110231000,1.25823095703125,-0.0006671790033578873,0.00415547052398324,-0.00431193970143795
1690841423120271000,1.26827099609375,0.0004107975400984287,-0.0009802302811294794,-0.007975004613399506
1690841423130311200,1.278311279296875,-0.0007799016311764717,-0.003124607726931572,-0.0055608488619327545
1690841423140352300,1.288352294921875,0.0018776901997625828,-0.0023459801450371742,-0.00404973141849041
1690841423150392000,1.29839208984375,-0.00001741526648402214,-0.0026106983423233032,-0.002105090767145157
1690841423160432000,1.30843212890625,-0.000489481259137392,-0.002548831980675459,-0.0030644014477729797
1690841423170503200,1.318503173828125,-0.001012259628623724,-0.0035187555477023125,-0.0000217389315366745
1690841423180543200,1.328543212890625,-0.0007209163159132004,-0.0026524486020207405,-0.0004856288433074951
1690841423190584000,1.338583984375,0.0017086854204535484,-0.000210063299164176,0.001414269208908081
1690841423200624000,1.3486240234375,0.0014787884429097176,0.0035617309622466564,0.0010355357080698013
1690841423210664200,1.358664306640625,0.0010263174772262573,0.004468271043151617,0.0013929326087236404
1690841423220704000,1.3687041015625,0.000592279713600874,0.005147739313542843,0.000527508556842804
1690841423230745000,1.3787451171875,0.0003627152182161808,0.0018070698715746403,0.002594122663140297
1690841423240785200,1.38878515625,-0.000920882448554039,0.0008515592198818922,0.0015694834291934967
1690841423250825200,1.3988251953125,0.0005875318311154842,0.00035567861050367355,0.0032400842756032944
1690841423260866000,1.408865966796875,-0.0010984400287270546,-0.0008092359639704227,0.0017633382230997086
1690841423270906000,1.418906005859375,-0.00039829500019550323,-0.0007977844215929508,0.0010117944329977036
1690841423280946200,1.4289462890625,0.00008362391963601112,-0.0033197980374097824,0.003979887813329697
1690841423290986000,1.438986083984375,0.00030786218121647835,-0.0018321559764444828,0.000674637034535408
1690841423301057000,1.44905712890625,0.000609472393989563,0.00023502041585743427,-0.0008885804563760757
1690841423311098000,1.45909814453125,-0.0010819011367857456,0.00018308882135897875,-0.0010060258209705353
1690841423321138200,1.46913818359375,-0.0006372514180839062,0.00034792826045304537,-0.003495374694466591
1690841423331178200,1.47917822265625,-0.000681726261973381,0.00280096591450274,-0.003975542262196541
1690841423341218300,1.48921826171875,-0.0007574865594506264,0.0021943249739706516,-0.0008518621325492859
1690841423351259100,1.499259033203125,-0.0018571056425571442,0.003189282026141882,-0.0037368647754192352
1690841423361299200,1.50929931640625,0.0012520917225629091,0.0020778176840394735,-0.0007088351994752884
1690841423371339000,1.519339111328125,0.0012283895630389452,0.0007062897784635425,-0.0003237426280975342
1690841423381380000,1.529380126953125,0.0016972757875919342,-0.0030136755667626858,-0.0010157860815525055
1690841423391414000,1.5394140625,0.00039152801036834717,-0.003979071509093046,0.00012244842946529388
1690841423401454000,1.5494541015625,0.00009903497993946075,-0.0037387702614068985,-0.001642843708395958
1690841423411494100,1.559494140625,-0.0003241412341594696,-0.002177891321480274,-0.0010604113340377808
1690841423421535000,1.569534912109375,-0.001089971512556076,-0.001578908646479249,-0.0004796907305717468
1690841423431605000,1.57960498046875,0.0000804876908659935,0.0010472344001755118,0.0015890523791313171
1690841423441646000,1.58964599609375,-0.00020362483337521553,0.003860637778416276,0.0009483750909566879
1690841423451686000,1.599685791015625,0.0013497972395271063,0.0067624179646372795,0.000888453796505928
1690841423461726000,1.609725830078125,-0.0009237653575837612,0.003130502998828888,0.0019302032887935638
1690841423471767000,1.61976708984375,0.00009995372965931892,0.0007485718233510852,0.0022479183971881866
1690841423481807000,1.62980712890625,0.0008868889417499304,0.0009039562428370118,0.0005412530153989792
1690841423491847000,1.639846923828125,-0.0009533553384244442,-0.00339731527492404,0.0002626851201057434
1690841423501887000,1.649886962890625,-0.0016725612804293633,-0.0007957657799124718,-0.0007483493536710739
1690841423511928000,1.659927978515625,-0.0007311338558793068,-0.0014796655159443617,-0.0020972397178411484
1690841423521967900,1.6699677734375,0.0003663082607090473,-0.001323304371908307,-0.0011319071054458618
1690841423532008000,1.680008056640625,-0.0012592854909598827,-0.0012300936505198479,-0.0024437811225652695
1690841423542049000,1.690049072265625,-0.0009406930766999722,-0.0011841256637126207,-0.0032194778323173523
1690841423552089000,1.700089111328125,-0.0004014032892882824,0.0010449402034282684,-0.001961400732398033
1690841423562129000,1.71012890625,0.00014308560639619827,0.0026581427082419395,-0.0012035835534334183
1690841423572200000,1.720199951171875,-0.00009553367272019386,0.0026610721834003925,-0.0015481971204280853
1690841423582240000,1.730239990234375,0.0008149172645062208,0.0013911700807511806,-0.0003891065716743469
1690841423592279800,1.74027978515625,0.0004692389629781246,0.00099648954346776,-0.000043429434299468994
1690841423602321000,1.75032080078125,0.0005701771005988121,0.0012924096081405878,-0.000306619331240654
1690841423612361000,1.76036083984375,-0.0004641944542527199,-0.001051438506692648,0.0002217516303062439
1690841423622401000,1.770401123046875,0.0003485018387436867,-0.0013618804514408112,-0.002369549125432968
1690841423632442000,1.780442138671875,-0.00012420909479260445,-0.0019911853596568108,0.0002275649458169937
1690841423642482000,1.79048193359375,0.0006173788569867611,-0.003606004174798727,0.000030644237995147705
1690841423652522000,1.80052197265625,-0.0006912983953952789,-0.00005947262980043888,0.0012104250490665436
1690841423662561800,1.810561767578125,-0.001119072549045086,0.0012644671369343996,0.000045944005250930786
1690841423672603000,1.820602783203125,0.0001842784695327282,0.001539571676403284,-0.0003090556710958481
1690841423682643000,1.830642822265625,-0.0006691175512969494,0.0034987141843885183,-0.0010857470333576202
1690841423692683000,1.84068310546875,-0.0017349147237837315,0.002474995097145438,-0.00047401897609233856
1690841423702754000,1.850754150390625,-0.00038893986493349075,0.0011411512969061732,0.000998418778181076
1690841423712794000,1.860794189453125,0.0009098839946091175,0.00018161442130804062,0.0022277329117059708
1690841423722835000,1.8708349609375,0.0008969635237008333,-0.0027007958851754665,-0.002314802259206772
1690841423732875000,1.880875,0.0001824372448027134,-0.0008941073901951313,-0.0019062720239162445
1690841423742914800,1.890914794921875,-0.002708262763917446,0.0007881589699536562,-0.00029922276735305786
1690841423752956000,1.900955810546875,-0.0008134236559271812,-0.002707239706069231,-0.0008659437298774719
1690841423762996000,1.910995849609375,0.0013139622751623392,0.0005594105459749699,-0.0031107552349567413
1690841423773036000,1.9210361328125,-0.0003542420454323292,-0.00022249366156756878,-0.0013269707560539246
1690841423783076000,1.931076171875,0.000039822421967983246,0.001924441778101027,0.001211903989315033
1690841423793117000,1.941116943359375,0.0000014728866517543793,0.0018783691339194775,-0.0016928073018789291
1690841423803157000,1.951156982421875,-0.0004607243463397026,-0.00014158152043819427,-0.0010889079421758652
1690841423813196800,1.96119677734375,-0.0003403495065867901,0.00043126451782882214,0.0010578669607639313
1690841423823238000,1.97123779296875,-0.0002292073331773281,0.003241570433601737,0.0008117612451314926
1690841423833308000,1.981307861328125,0.001624885480850935,0.0004572354955598712,-0.00016428716480731964
1690841423843349000,1.991348876953125,-0.00008832896128296852,-0.0010629696771502495,0.00029006972908973694
1690841423853389000,2.00138916015625,-0.00032082293182611465,-0.002241950947791338,-0.003589889034628868
1690841423863429000,2.01142919921875,0.0018604344222694635,-0.0008510327897965908,-0.00119827501475811
1690841423873469000,2.021468994140625,-0.001016578171402216,0.00007734517566859722,0.00006752647459506989
1690841423883509800,2.031509765625,0.0005144397728145123,0.0011137755354866385,0.00006434693932533264
1690841423893549800,2.0415498046875,0.0002521183341741562,0.0010370764648541808,0.00031575001776218414
1690841423903590000,2.05158984375,-0.0011190110817551613,0.0008460020180791616,-0.0021118689328432083
1690841423913631000,2.061630859375,0.00029273098334670067,0.0011405476834625006,0.0003089439123868942
1690841423923671000,2.071671142578125,0.0006115077994763851,0.0017839319771155715,-0.0008595865219831467
1690841423933711000,2.081711181640625,0.0008860796224325895,0.00016526272520422935,-0.0020305775105953217
1690841423943751200,2.091751220703125,-0.0020272196270525455,0.0009154077852144837,-0.0008395966142416
1690841423953792000,2.1017919921875,0.0005624382756650448,-0.0000662333332002163,-0.0010329429060220718
1690841423963862800,2.11186279296875,0.00008569005876779556,-0.0013366062194108963,0.0000811796635389328
1690841423973902800,2.12190283203125,-0.00002909218892455101,-0.0010628332383930683,-0.0017217788845300674
1690841423983943000,2.13194287109375,-0.000904641579836607,-0.00042169657535851,0.00013436004519462585
1690841423993983000,2.14198291015625,-0.0015408708713948727,-0.0008057244122028351,-0.00010319240391254425
1690841424004024000,2.152024169921875,-0.0011214204132556915,0.0015476630069315434,-0.00024552084505558014
1690841424014064000,2.162064208984375,-0.0005443133413791656,0.0002371214795857668,0.0014016442000865936
1690841424024104000,2.17210400390625,0.00023936107754707336,0.0023551119957119226,-0.00014787353575229645
1690841424034144800,2.182144775390625,-0.0022397758439183235,0.00013616611249744892,-0.00007303990423679352
1690841424044184800,2.192184814453125,0.0005887635052204132,0.0010349680669605732,-0.0004120469093322754
1690841424054225000,2.202224853515625,-0.0003550606779754162,0.00130527897272259,-0.0018259193748235703
1690841424064265000,2.212264892578125,0.00066389050334692,-0.0008228062652051449,0.00009514763951301575
1690841424074306000,2.22230615234375,-0.0002820640802383423,0.0013197067892178893,-0.0015360377728939056
1690841424084346000,2.23234619140625,0.0008161943405866623,-0.002258467022329569,0.0013590659946203232
1690841424094417200,2.242417236328125,0.0008476197253912687,-0.0012240950018167496,0.0010927487164735794
1690841424104457000,2.25245703125,-0.0005551790818572044,-0.0018869207706302404,-0.00015732645988464355
1690841424114497000,2.2624970703125,-0.0001575690694153309,0.001157604856416583,0.001229114830493927
1690841424124537900,2.272537841796875,0.0008312992285937071,0.0005835391348227859,-0.0005159787833690643
1690841424134578000,2.282577880859375,-0.0031378762796521187,0.0005686254007741809,0.00010294094681739807
1690841424144618000,2.292617919921875,-0.002379166427999735,-0.0008089854381978512,-0.0008842796087265015
1690841424154658000,2.302657958984375,-0.000056623946875333786,0.00007438519969582558,0.0005775298923254013
1690841424164699100,2.31269921875,0.0008530716877430677,0.0012098343577235937,-0.0003672279417514801
1690841424174739000,2.322739013671875,-0.0003789067268371582,-0.00018939049914479256,0.0003185346722602844
1690841424184779000,2.332779052734375,0.0007000542245805264,0.001481554820202291,-0.0012378282845020294
1690841424194819800,2.34281982421875,0.0004965886473655701,-0.0016410015523433685,-0.0002021249383687973
1690841424204860000,2.35285986328125,-0.00034209806472063065,-0.0005820933729410172,-0.0001520104706287384
1690841424214900000,2.36289990234375,-0.0001269145868718624,-0.0015951597597450018,0.0009883549064397812
1690841424224971000,2.372970947265625,0.00046656373888254166,0.0010603611590340734,0.0006237942725419998
1690841424235011000,2.383010986328125,-0.0006160112097859383,0.0011168201453983784,0.0009388476610183716
1690841424245051000,2.39305078125,-0.0003071972168982029,0.0001883974764496088,-0.00008696503937244415
1690841424255092000,2.403092041015625,-0.00007363827899098396,-0.0004598158411681652,-0.0002515483647584915
1690841424265132000,2.413132080078125,0.000969394575804472,-0.0012276186607778072,0.0016644373536109924
1690841424275172000,2.423172119140625,-0.00017017219215631485,-0.0007186885923147202,-0.00044744834303855896
1690841424285213000,2.433212890625,0.0007282928563654423,0.0006916096899658442,0.0001905355602502823
1690841424295253000,2.4432529296875,-0.0014696139842271805,-0.0017481122631579638,-0.00006938911974430084
1690841424305293000,2.45329296875,-0.0008360063657164574,0.001783733256161213,-0.00008084811270236969
1690841424315332900,2.463332763671875,0.000661489088088274,0.00032698409631848335,-0.0012656878679990768
1690841424325374000,2.4733740234375,-0.0007948651909828186,0.0010393699631094933,0.0015922430902719498
1690841424335414000,2.4834140625,-0.0001615653745830059,-0.0014919645618647337,0.00021432340145111084
1690841424345454000,2.4934541015625,-0.0007367883808910847,0.00003794487565755844,0.0003269817680120468
1690841424355495000,2.503494873046875,-0.0004481016658246517,-0.0023945863358676434,-0.0013529416173696518
1690841424365565200,2.513565185546875,0.0003658845089375973,0.0005882149562239647,0.00023233331739902496
1690841424375606000,2.52360595703125,0.00038106460124254227,-0.0000022079329937696457,0.00025683455169200897
1690841424385639400,2.533639404296875,0.0007261405698955059,0.00017650530207902193,0.0013515539467334747
1690841424395679500,2.543679443359375,-0.0006531104445457458,0.001598899601958692,-0.0010519493371248245
1690841424405720600,2.553720458984375,0.0005575390532612801,0.0028158703353255987,-0.0005500614643096924
1690841424415760600,2.5637607421875,0.000052337534725666046,0.000553248799405992,0.0012816600501537323
1690841424425800400,2.573800537109375,-0.0002515222877264023,0.0006419966230168939,-0.0011930149048566818
1690841424435840300,2.58384033203125,0.00037618493661284447,0.0019115254981443286,-0.0002151038497686386
1690841424445881300,2.59388134765625,-0.0008487044833600521,0.000954873044975102,0.0002186950296163559
1690841424455921400,2.60392138671875,-0.00006573507562279701,-0.00024887570179998875,-0.0004694666713476181
1690841424465961500,2.61396142578125,0.0006707310676574707,-0.000040750717744231224,-0.0006905589252710342
1690841424476002600,2.62400244140625,-0.00038441363722085953,-0.0016112166922539473,0.00014114566147327423
1690841424486042600,2.634042724609375,0.00034260842949151993,-0.0003022656310349703,0.0005448069423437119
1690841424496113400,2.644113525390625,0.0009375587105751038,0.001373395207338035,0.0003517270088195801
1690841424506153500,2.654153564453125,-0.0016248184256255627,0.0008442093385383487,0.0033120326697826385
1690841424516193300,2.664193359375,0.000013025477528572083,-0.0013683449942618608,0.00031810812652111053
1690841424526233300,2.6742333984375,-0.0002676136791706085,-0.0010796552523970604,0.0004169344902038574
1690841424536274400,2.6842744140625,-0.0010338048450648785,0.0007070594001561403,0.0016028396785259247
1690841424546314500,2.694314453125,0.0009952150285243988,0.0025841612368822098,0.00003258697688579559
1690841424556354600,2.7043544921875,-0.0011555538512766361,-0.0005541075952351093,-0.0010409336537122726
1690841424566395600,2.714395751953125,-0.00038632145151495934,0.000365525484085083,-0.000155596062541008
1690841424576435200,2.724435302734375,0.0010163653641939163,0.0021855297964066267,0.000008987262845039368
1690841424586475300,2.734475341796875,-0.00024090753868222237,-0.0005795022007077932,-0.00024847686290740967
1690841424596515300,2.744515380859375,0.0006858725100755692,-0.0005826980341225863,-0.0008149314671754837
1690841424606556400,2.754556396484375,-0.000927608460187912,0.0007831964176148176,0.0005565844476222992
1690841424616596500,2.764596435546875,0.002841297071427107,0.0008585639297962189,-0.0005355775356292725
1690841424626667500,2.77466748046875,0.0009410765487700701,0.001219455385580659,-0.0012632794678211212
1690841424636707300,2.784707275390625,-0.0000498858280479908,0.0013669945765286684,-0.0005444921553134918
1690841424646747400,2.794747314453125,-0.000658170785754919,0.0024187732487916946,-0.0008894186466932297
1690841424656788200,2.804788330078125,0.0005013695918023586,0.002128488617017865,-0.00023108534514904022
1690841424666828300,2.814828369140625,0.0000232732854783535,-0.0006607281975448132,0.001295560970902443
1690841424676868400,2.824868408203125,0.0008371351286768913,-0.0014745902735739946,-0.00015506334602832794
1690841424686909400,2.834909423828125,0.00016178563237190247,-0.00008117593824863434,-0.001506563276052475
1690841424696949500,2.844949462890625,-0.00005046837031841278,-0.0003645361866801977,-0.0009379778057336807
1690841424706989600,2.854989501953125,-0.0014932830817997456,0.0006396599346771836,-0.0007979385554790497
1690841424717029400,2.865029296875,0.0007160753011703491,-0.0007547710556536913,0.00044362619519233704
1690841424727070200,2.8750703125,-0.000008872710168361664,-0.0015108957886695862,0.00017216242849826813
1690841424737110300,2.8851103515625,-0.00016573304310441017,0.001367448829114437,-0.0013951081782579422
1690841424747150300,2.895150390625,-0.00012800516560673714,-0.000981977442279458,-0.00028370320796966553
1690841424757221400,2.905221435546875,0.0008760064374655485,-0.0007398959714919329,-0.00009248778223991394
1690841424767261400,2.915261474609375,-0.0001342236064374447,-0.00034554977901279926,-0.0006161350756883621
1690841424777302500,2.925302490234375,-0.0005086637102067471,-0.0003876278642565012,0.00028081610798835754
1690841424787342300,2.93534228515625,-0.00033876579254865646,0.00005849380977451801,-0.0004458315670490265
1690841424797382400,2.94538232421875,0.0008641837630420923,-0.00011754129081964493,-0.0009528975933790207
1690841424807422500,2.95542236328125,-0.0010254173539578915,-0.0002198982983827591,-0.00022540055215358734
1690841424817463300,2.96546337890625,0.0004648878239095211,-0.00017995084635913372,0.0011320114135742188
1690841424827503400,2.97550341796875,0.0007284097373485565,0.000052205752581357956,0.001620650291442871
1690841424837543400,2.98554345703125,0.000014948658645153046,0.001049026963301003,0.0007916092872619629
1690841424847584500,2.99558447265625,-0.0010464605875313282,-0.00007836427539587021,-0.00005691498517990112
1690841424857624300,3.005624267578125,0.0012593045830726624,-0.0013817152939736843,0.0005755871534347534
1690841424867664400,3.015664306640625,0.0008500069379806519,0.001169766765087843,-0.000980352982878685
1690841424877704400,3.025704345703125,0.0009956818539649248,0.0006200904026627541,-0.00017128512263298035
1690841424887775500,3.035775390625,0.0009361342526972294,0.0007691250648349524,-0.0013763811439275742
1690841424897815600,3.045815673828125,-0.0020551281049847603,-0.0011163929011672735,-0.0023894477635622025
1690841424907856400,3.0558564453125,-0.00034967297688126564,-0.0001212006900459528,0.0003106147050857544
1690841424917896400,3.065896484375,0.000053795985877513885,-0.0015902004670351744,0.00016547180712223053
1690841424927936300,3.075936279296875,-0.00009856559336185455,-0.0006109632086008787,0.0007716100662946701
1690841424937977300,3.085977294921875,0.00040130969136953354,-0.001718571875244379,0.00006240978837013245
1690841424948017400,3.096017333984375,0.0010731706861406565,0.0010395690333098173,-0.00010067783296108246
1690841424958057500,3.106057373046875,0.0010116514749825,0.001862219418399036,0.0002636425197124481
1690841424968097500,3.11609765625,0.0007980125956237316,-0.0008868202567100525,-0.0003527197986841202
1690841424978138400,3.126138427734375,-0.0017405124381184578,0.0010655430378392339,-0.0005127768963575363
1690841424988178400,3.136178466796875,0.0007000849582254887,-0.0009197844192385674,-0.0013257190585136414
1690841424998218200,3.14621826171875,0.0006082057952880859,0.0012373760109767318,0.0002836287021636963
1690841425008259300,3.15625927734375,-0.0015942147001624107,-0.0004145940765738487,-0.00093110091984272
1690841425018329300,3.166329345703125,-0.0017572003416717052,-0.00027797394432127476,-0.00041125155985355377
1690841425028370400,3.176370361328125,-0.0014681322500109673,0.001065918244421482,0.00019641593098640442
1690841425038410500,3.186410400390625,-0.0004180478863418102,0.002008144510909915,0.0015639495104551315
1690841425048450600,3.196450439453125,0.00011084508150815964,-0.0005834687035530806,-0.0013464931398630142
1690841425058491400,3.206491455078125,-0.0016987728886306286,-0.000056695425882935524,0.0007688570767641068
1690841425068531500,3.216531494140625,0.0000739232636988163,0.0005819896468892694,0.0005928333848714828
1690841425078571300,3.2265712890625,0.0010315959807485342,0.0012347303563728929,-0.0005081184208393097
1690841425088611300,3.236611328125,0.0004770834930241108,0.0020334997680038214,-0.0013810023665428162
1690841425098652400,3.24665234375,0.0006816140376031399,-0.00007545738480985165,-0.0023101791739463806
1690841425108692500,3.2566923828125,0.0008957497775554657,-0.0001509359572082758,-0.0004533417522907257
1690841425118732500,3.266732666015625,-0.0008925627917051315,0.0009928917279466987,0.0005432125180959702
1690841425128773400,3.2767734375,-0.001042902935296297,0.0005331835709512234,-0.0002036057412624359
1690841425138813400,3.2868134765625,0.0018351750914007425,-0.002356345998123288,0.0012198537588119507
1690841425148853200,3.296853271484375,-0.000648218672722578,-0.0007339550647884607,-0.0013928469270467758
1690841425158924300,3.30692431640625,-0.000973124522715807,0.0001414259895682335,0.00028387829661369324
1690841425168964400,3.31696435546875,-0.0007299724966287613,-0.0004199456889182329,-0.00018977560102939606
1690841425179004400,3.32700439453125,-0.0009952234104275703,0.0019196412758901715,0.0011567194014787674
1690841425189045500,3.33704541015625,-0.0009901467710733414,-0.0006536080036312342,0.0015675555914640427
1690841425199085600,3.34708544921875,0.0008226670324802399,0.0012231215368956327,0.00008710473775863647
1690841425209125600,3.357125732421875,0.000277757178992033,-0.0015978638548403978,-0.0004958678036928177
1690841425219166500,3.36716650390625,0.0003571193665266037,-0.001175752840936184,-0.000349927693605423
1690841425229206300,3.377206298828125,-0.0014962763525545597,0.00015335308853536844,0.000054294243454933167
1690841425239246300,3.387246337890625,0.0006499653682112694,0.0026047928258776665,0.0026058685034513474
1690841425249286400,3.397286376953125,-0.0009828931652009487,0.0005651975516229868,0.0019447095692157745
1690841425259327500,3.407327392578125,0.0007220623083412647,-0.001718995627015829,0.0005300380289554596
1690841425269367600,3.417367431640625,-0.000294302124530077,-0.0005112646613270044,0.0004518907517194748
1690841425279407600,3.42740771484375,-0.0016218875534832478,0.0006485420744866133,0.0003978293389081955
1690841425289478400,3.437478515625,0.0001334776170551777,-0.0003089364618062973,-0.00029987096786499023
1690841425299518500,3.4475185546875,-0.00046573346480727196,0.00004313327372074127,-0.0006732456386089325
1690841425309559300,3.457559326171875,-0.0018720375373959541,-0.00009843357838690281,-0.0005335565656423569
1690841425319599400,3.467599365234375,0.00031308596953749657,-0.0014702279586344957,-0.0014265142381191254
1690841425329639400,3.477639404296875,-0.0006141257472336292,0.00021531118545681238,0.0004606284201145172
1690841425339680500,3.487680419921875,0.0020716723520308733,0.0020819208584725857,0.0005708839744329453
1690841425349720600,3.497720458984375,0.0008776336908340454,-0.00039181741885840893,-0.00012823939323425293
1690841425359760600,3.5077607421875,0.0002094465307891369,-0.0015779891982674599,-0.00010267272591590881
1690841425369800400,3.517800537109375,0.0012442164588719606,0.0023010014556348324,0.00026948563754558563
1690841425379841300,3.52784130859375,-0.0006394372321665287,0.0002935105003416538,0.0010183658450841904
1690841425389877500,3.53787744140625,0.000944322906434536,0.001083220588043332,0.0006937794387340546
1690841425399917600,3.54791748046875,-0.0004261396825313568,-0.0009461080189794302,0.0010064337402582169
1690841425409957600,3.55795751953125,0.0013985689729452133,-0.0014182154554873705,0.000538509339094162
1690841425420028700,3.568028564453125,0.00036925729364156723,-0.001131659373641014,0.0013222787529230118
1690841425430069800,3.57806982421875,-0.00006676698103547096,-0.0014716396108269691,-0.00023739971220493317
1690841425440109800,3.58810986328125,-0.0007360195741057396,0.0017185609322041273,0.00024756230413913727
1690841425450149600,3.598149658203125,-0.0014332304708659649,0.0013044734951108694,0.0005921721458435059
1690841425460189700,3.608189697265625,0.00035428348928689957,0.00019446795340627432,0.00045528635382652283
1690841425470230500,3.61823046875,-0.0014008935540914536,0.0006926192436367273,-0.00020997785031795502
1690841425480270600,3.6282705078125,-0.0014890441671013832,-0.00003921729512512684,0.0012531634420156479
1690841425490310700,3.638310546875,-0.0006627761758863926,0.0006717800861224532,0.0016130022704601288
1690841425500351700,3.648351806640625,0.00027865124866366386,-0.00011971150524914265,-0.0008988901972770691
1690841425510391800,3.658391845703125,0.001385061303153634,-0.00043870205990970135,-0.00014670751988887787
1690841425520431600,3.668431640625,-0.0020900974050164223,0.0008452078327536583,0.00020030327141284943
1690841425530471700,3.6784716796875,-0.00046173064038157463,0.0008131386712193489,-0.0001892615109682083
1690841425540512500,3.688512451171875,-0.0012729298323392868,-0.00013068551197648048,-0.0003194902092218399
1690841425550582500,3.69858251953125,0.0010070963762700558,0.000801135553047061,-0.00020197592675685883
1690841425560623600,3.70862353515625,0.0007346551865339279,-0.00043270690366625786,0.0014635659754276276
1690841425570663700,3.71866357421875,-0.000866748858243227,-0.0004896568134427071,0.0013214405626058578
1690841425580703700,3.728703857421875,-0.000005482230335474014,0.0013513865415006876,-0.0005795229226350784
1690841425590744800,3.738744873046875,0.000843787332996726,-0.0018252108711749315,-0.0001465100795030594
1690841425600784600,3.74878466796875,-0.0007000472396612167,-0.0006984274368733168,-0.0008826069533824921
1690841425610824700,3.75882470703125,0.0007935464382171631,-0.0006562520284205675,0.0000541098415851593
1690841425620864500,3.768864501953125,-0.0017625554464757442,-0.00006263353861868382,-0.0011459104716777802
1690841425630905600,3.778905517578125,-0.027887078002095222,-0.1363099217414856,-0.21223139762878418
1690841425640945700,3.788945556640625,-0.032236818224191666,0.3812296390533447,-0.11443852633237839
1690841425650985700,3.79898583984375,-0.03222785145044327,-0.14667555689811707,-0.11001379787921906
1690841425661026800,3.80902685546875,-0.0054146163165569305,-0.07384608685970306,-0.10875758528709412
1690841425671066600,3.819066650390625,0.004702978301793337,-0.013221053406596184,-0.10831012576818466
1690841425681137700,3.8291376953125,0.01824328862130642,0.04434024542570114,-0.08701521903276443
1690841425691177700,3.839177734375,0.03595339506864548,0.034604594111442566,-0.023201217874884605
1690841425701217500,3.849217529296875,0.022577136754989624,0.05896399915218353,0.01732676662504673
1690841425711258600,3.859258544921875,0.02019893378019333,0.06135604903101921,0.048354458063840866
1690841425721298700,3.869298583984375,0.0012348305899649858,0.02554531954228878,0.06553956866264343
1690841425731338500,3.87933837890625,-0.013969175517559052,-0.009999052621424198,0.08028500527143478
1690841425741378600,3.889378662109375,-0.02580586075782776,-0.03164389729499817,0.09271211177110672
1690841425751419600,3.899419677734375,-0.023908980190753937,-0.04383794590830803,0.09863492101430893
1690841425761459700,3.909459716796875,-0.016570907086133957,-0.039774760603904724,0.09841547906398773
1690841425771499500,3.91949951171875,-0.005630554165691137,-0.025592021644115448,0.09101229161024094
1690841425781540600,3.92954052734375,0.0061792335473001,-0.00169494585134089,0.07567780464887619
1690841425791580700,3.93958056640625,0.013919822871685028,0.019058888778090477,0.05719355493783951
1690841425801620700,3.949620849609375,0.015558199025690556,0.03699421510100365,0.03536149114370346
1690841425811691500,3.95969140625,0.011490797623991966,0.037244800478219986,0.012356874532997608
1690841425821731600,3.969731689453125,0.002563882153481245,0.026839829981327057,-0.009662142023444176
1690841425831771600,3.979771728515625,-0.006785496603697538,0.008440251462161541,-0.030718833208084106
1690841425841812700,3.989812744140625,-0.010049998760223389,-0.014811807312071323,-0.048340171575546265
1690841425851852500,3.9998525390625,-0.009541114792227745,-0.027201920747756958,-0.059328556060791016
1690841425861892600,4.009892578125,-0.0046941619366407394,-0.03172929584980011,-0.06937240064144135
1690841425871933700,4.01993359375,-0.0013286164030432701,-0.025655878707766533,-0.0706574097275734
1690841425881973500,4.029973388671875,0.005348727107048035,-0.013192817568778992,-0.07028456777334213
1690841425892013600,4.040013671875,0.005083387717604637,0.003521103411912918,-0.06331626325845718
1690841425902053600,4.0500537109375,0.005396308843046427,0.016686439514160156,-0.051037758588790894
1690841425912094700,4.0600947265625,0.002867592964321375,0.018430296331644058,-0.03913027048110962
1690841425922134500,4.070134521484375,-0.00042061228305101395,0.01663106493651867,-0.025149473920464516
1690841425932174600,4.080174560546875,-0.003900097217410803,0.010621163062751293,-0.00815902091562748
1690841425942215700,4.090215576171875,-0.0024494733661413193,0.001097964821383357,0.007498767226934433
1690841425952285400,4.100285400390625,-0.0022079702466726303,-0.0070724827237427235,0.021655894815921783
1690841425962326500,4.110326416015625,-0.00011898670345544815,-0.01305953599512577,0.03386382386088371
1690841425972366600,4.12036669921875,0.0007406151853501797,-0.012537779286503792,0.042750284075737
1690841425982406700,4.13040673828125,0.0009720437228679657,-0.009114019572734833,0.04915172606706619
1690841425992447500,4.140447509765625,0.0009962343610823154,0.00035220792051404715,0.05344204232096672
1690841426002487600,4.150487548828125,0.0001954217441380024,0.005130717530846596,0.05177543684840202
1690841426012527600,4.160527587890625,-0.0011501624248921871,0.010410256683826447,0.04550390690565109
1690841426022567400,4.1705673828125,0.0007063271477818489,0.012515485286712646,0.039210058748722076
1690841426032608500,4.1806083984375,0.0005690185353159904,0.008316408842802048,0.026684962213039398
1690841426042648600,4.190648681640625,-0.0005620261654257774,0.0026284297928214073,0.015004605054855347
1690841426052688600,4.200688720703125,0.002646395470947027,-0.0013571702875196934,0.0037886537611484528
1690841426062728700,4.210728759765625,0.0002596704289317131,-0.0056824106723070145,-0.0077806506305933
1690841426072769500,4.22076953125,0.0010340511798858643,-0.009423190727829933,-0.01804705336689949
1690841426082840600,4.230840576171875,-0.0012344294227659702,-0.007793336641043425,-0.029077600687742233
1690841426092880600,4.240880615234375,-0.0010921722277998924,-0.002862781286239624,-0.033747151494026184
1690841426102920400,4.25092041015625,-0.0019742115400731564,-0.0000909632071852684,-0.03775148093700409
1690841426112960500,4.26096044921875,-0.001912115141749382,0.0005066328449174762,-0.03918555751442909
1690841426123001600,4.271001708984375,-0.0006220797076821327,0.0028347682673484087,-0.03685369715094566
1690841426133041700,4.281041748046875,-0.0019054794684052467,0.0027084113098680973,-0.03358614817261696
1690841426143081700,4.291081787109375,0.0019600987434387207,-0.000004018191248178482,-0.026038486510515213
1690841426153122600,4.30112255859375,0.0005918992683291435,-0.0019890840630978346,-0.020593486726284027
1690841426163162600,4.31116259765625,0.0010033578146249056,-0.004853846505284309,-0.010098502039909363
1690841426173202400,4.321202392578125,-0.0005896561779081821,-0.0036951417569071054,-0.0005115848034620285
1690841426183242500,4.331242431640625,-0.0005387896671891212,-0.0041404226794838905,0.0083546107634902
1690841426193283600,4.34128369140625,-0.001036579255014658,-0.00022529112175107002,0.013131756335496902
1690841426203323600,4.35132373046875,0.00019406713545322418,0.002814973471686244,0.022425388917326927
1690841426213394700,4.361394775390625,0.0003057881258428097,0.0050485143437981606,0.026335274800658226
1690841426223434800,4.371434814453125,-0.00003483053296804428,0.0042325216345489025,0.029321476817131042
1690841426233474800,4.381474853515625,-0.0006546373479068279,0.004884231369942427,0.028620999306440353
1690841426243515600,4.391515625,0.003914015367627144,0.0022514304146170616,0.02572214975953102
1690841426253555500,4.401555419921875,0.0007008896209299564,0.0007359693991020322,0.024176564067602158
1690841426263595500,4.411595458984375,0.00030993763357400894,-0.0014675301499664783,0.019839340820908546
1690841426273635600,4.421635498046875,-0.00027056504040956497,-0.00009696255438029766,0.011583193205296993
1690841426283676700,4.4316767578125,-0.0011640554293990135,-0.003470122115686536,0.003238976001739502
1690841426293716700,4.441716796875,0.0008761475328356028,0.0002934744115918875,-0.0016402322798967361
1690841426303756800,4.4517568359375,-0.0000024293549358844757,0.001907083671540022,-0.007947396486997604
1690841426313797600,4.461797607421875,-0.00044804252684116364,0.001652381382882595,-0.01235325075685978
1690841426323837400,4.47183740234375,0.0009671610314399004,0.000530657940544188,-0.018163735046982765
1690841426333877500,4.48187744140625,-0.000681599136441946,0.0007185726426541805,-0.0212623942643404
1690841426343948500,4.491948486328125,-0.0007990445010364056,0.00006796233355998993,-0.021335361525416374
1690841426353988600,4.501988525390625,0.0007373080588877201,-0.0018351534381508827,-0.01989893615245819
1690841426364029700,4.51202978515625,-0.0009649847634136677,-0.002425842685624957,-0.017868541181087494
1690841426374069800,4.52206982421875,-0.002082380000501871,-0.0012893646489828825,-0.015380430966615677
1690841426384109800,4.53210986328125,-0.0019444283097982407,-0.0017452978063374758,-0.01203470304608345
1690841426394119700,4.54211962890625,0.0013569374568760395,-0.0023358985781669617,-0.003792533650994301
1690841426404160800,4.552160888671875,0.0010328309144824743,-0.0006370684131979942,-0.0005003344267606735
1690841426414200800,4.562200927734375,0.0014466412831097841,0.0004069075221195817,0.0048507209867239
1690841426424241000,4.572240966796875,-0.0006466032937169075,0.0018783040577545762,0.0077631548047065735
1690841426434281700,4.58228173828125,0.0002738293260335922,0.005035845562815666,0.0123966159299016
1690841426444321500,4.592321533203125,0.0005188402719795704,0.00023123633582144976,0.014644856564700603
1690841426454361600,4.602361572265625,-0.0005348618142306805,0.0019093763548880816,0.014991821721196175
1690841426464401700,4.612401611328125,0.0003200131468474865,0.0005674095591530204,0.015078374184668064
1690841426474472700,4.62247265625,-0.0003049420192837715,0.000011035706847906113,0.013306111097335815
1690841426484512800,4.6325126953125,-0.00039975065737962723,-0.0011383844539523125,0.011758015491068363
1690841426494553900,4.642553955078125,-0.001010457519441843,-0.0017777883913367987,0.010022662580013275
1690841426504594000,4.652593994140625,0.0009168721735477448,-0.0006113238632678986,0.0049080615863204
1690841426514633700,4.6626337890625,0.0018898234702646732,0.0007942926604300737,0.0026148129254579544
1690841426524674600,4.672674560546875,-0.0008465745486319065,0.000265655224211514,-0.0015615560114383698
1690841426534714600,4.682714599609375,0.000719066709280014,-0.00048528448678553104,-0.005022617056965828
1690841426544754700,4.692754638671875,0.0008945690933614969,0.0010843826457858086,-0.008636793121695518
1690841426554794800,4.702794677734375,-0.0001474549062550068,0.002288610441610217,-0.00988929346203804
1690841426564835800,4.7128359375,-0.0005645058117806911,-0.0021002788562327623,-0.010262401774525642
1690841426574876000,4.7228759765625,0.0001743081957101822,-0.0013778028078377247,-0.012029340490698814
1690841426584915700,4.732915771484375,0.00016765017062425613,-0.0014782038051635027,-0.011453298851847649
1690841426594956500,4.74295654296875,-0.00008833780884742737,0.00017313635908067226,-0.01206471398472786
1690841426605026800,4.75302685546875,0.000621394719928503,0.00029883754905313253,-0.008919786661863327
1690841426615067600,4.763067626953125,-0.0013886415399610996,0.0022869722452014685,-0.007834430783987045
1690841426625107700,4.773107666015625,-0.0017838547937572002,0.0011767004616558552,-0.004405612125992775
1690841426635147800,4.783147705078125,-0.001533727627247572,0.0004466061946004629,0.0011172052472829819
1690841426645187800,4.793187744140625,0.0009635186288505793,0.001660474925301969,0.0034269634634256363
1690841426655229000,4.80322900390625,0.001932754646986723,0.000600984669290483,0.00549362413585186
1690841426665268700,4.813268798828125,0.0004672170616686344,0.00038686650805175304,0.0071463817730546
1690841426675308800,4.823308837890625,0.000034687574952840805,-0.00047429674305021763,0.007162813097238541
1690841426685349600,4.833349609375,0.0003891545347869396,0.0011510304175317287,0.009362583979964256
1690841426695389700,4.8433896484375,-0.0010672835633158684,-0.0013125776313245296,0.006286219693720341
1690841426705429800,4.8534296875,-0.0007916465401649475,-0.0009586433880031109,0.007352016866207123
1690841426715469800,4.8634697265625,0.0007958570495247841,0.0019008149392902851,0.006761392578482628
1690841426725511000,4.873510986328125,-0.0007924521341919899,0.0022941636852920055,0.004464948549866676
1690841426735550700,4.88355078125,0.0004548882134258747,0.0009280212689191103,0.0018814243376255035
1690841426745621800,4.893621826171875,-0.00031636329367756844,0.00034984899684786797,-0.001192661002278328
1690841426755661800,4.903661865234375,-0.0010747392661869526,0.0002254029968753457,-0.0024312734603881836
1690841426765702000,4.913701904296875,-0.0006936411373317242,-0.0011016500648111105,-0.004598554223775864
1690841426775742700,4.92374267578125,0.0008447801228612661,-0.0006408847402781248,-0.003891821950674057
1690841426785782800,4.93378271484375,-0.0007904008962213993,-0.0013692593201994896,-0.007147269323468208
1690841426795822800,4.94382275390625,-0.0010085548274219036,0.00009887723717838526,-0.0069211553782224655
1690841426805864000,4.953864013671875,0.0003113080747425556,0.0011953006032854319,-0.006518485024571419
1690841426815903700,4.96390380859375,-0.0007583987899124622,0.00004311976954340935,-0.008405694738030434
1690841426825943800,4.97394384765625,0.00031671952456235886,0.00004498404450714588,-0.003481244668364525
1690841426835984000,4.98398388671875,0.0004965756088495255,-0.0008893811609596014,-0.0026140641421079636
1690841426846024700,4.994024658203125,0.0006334618665277958,0.001828641165047884,-0.0022785067558288574
1690841426856064800,5.004064697265625,0.0002982262521982193,-0.00006481213495135307,-0.00014455430209636688
1690841426866104800,5.014104736328125,0.00006653135642409325,0.0009599723853170872,0.001713532954454422
1690841426876175600,5.024175537109375,0.0005408581346273422,-0.0005413852632045746,0.0024851299822330475
1690841426886215700,5.034215576171875,-0.0009409245103597641,0.002113786293193698,0.0041488055139780045
1690841426896256800,5.0442568359375,-0.00008222833275794983,0.0019550526048988104,0.005364478565752506
1690841426906296800,5.054296875,0.001576920971274376,-0.002765134209766984,0.004077639430761337
1690841426916337000,5.0643369140625,-0.001071734819561243,-0.00037342868745326996,0.0045652855187654495
1690841426926376700,5.074376708984375,0.0004175049252808094,-0.0015968848019838333,0.005384740419685841
1690841426936417800,5.084417724609375,-0.00006732391193509102,-0.00037974887527525425,0.000898825004696846
1690841426946457600,5.09445751953125,-0.0012311250902712345,0.0012711446033790708,0.0031958017498254776
1690841426956497700,5.10449755859375,0.0007034498266875744,0.00041676859837025404,-0.0001620519906282425
1690841426966538800,5.114538818359375,-0.0008574286475777626,-0.00025461427867412567,0.00007576681673526764
1690841426976578800,5.124578857421875,-0.0010123704560101032,0.00028125313110649586,0.00016984716057777405
1690841426986619000,5.134618896484375,0.00006541097536683083,-0.0015392836648970842,-0.0029926560819149017
1690841426996658700,5.14465869140625,-0.00008489377796649933,-0.000957786338403821,-0.0034527145326137543
1690841427006729700,5.154729736328125,-0.0015048915520310402,0.0005716669838875532,-0.003438066691160202
1690841427016770800,5.164770751953125,0.00027964962646365166,-0.0004922645166516304,-0.004519045352935791
1690841427026810600,5.174810546875,-0.0004665679298341274,0.0014515765942633152,-0.0035525839775800705
1690841427036850700,5.1848505859375,0.0004010009579360485,0.0010431072441861033,-0.0032591689378023148
1690841427046890800,5.194890869140625,0.0006960793398320675,0.0010279272682964802,-0.002057017758488655
1690841427056931800,5.204931884765625,0.000998116098344326,0.00029492180328816175,-0.0011794734746217728
1690841427066972000,5.214971923828125,0.0006644222885370255,-0.0004110822919756174,-0.0009584315121173859
1690841427077011700,5.22501171875,-0.0005307933315634727,-0.00013197003863751888,0.000319063663482666
1690841427087052800,5.235052734375,-0.0006003016605973244,-0.0014787304680794477,0.0011760685592889786
1690841427097092600,5.245092529296875,0.00034545036032795906,-0.0008667958900332451,0.0015355534851551056
1690841427107132700,5.255132568359375,-0.0007650875486433506,0.001386504853144288,0.0017794985324144363
1690841427117172700,5.2651728515625,0.0005317451432347298,-0.000323315616697073,0.0021988358348608017
1690841427127213800,5.2752138671875,-0.0009212754666805267,0.0008530025370419025,0.0021263975650072098
1690841427137283800,5.285283935546875,-0.0017937272787094116,-0.002281695371493697,0.0015599355101585388
1690841427147325000,5.295324951171875,-0.002019030973315239,0.0009963896591216326,0.002731194719672203
1690841427157364700,5.30536474609375,0.0013732300139963627,0.0010442124912515283,0.0010748077183961868
1690841427167404500,5.315404541015625,0.00015083886682987213,-0.00016859103925526142,0.00121409073472023
1690841427177445600,5.325445556640625,-0.00015031266957521439,0.001236208714544773,0.00026618316769599915
1690841427187485700,5.335485595703125,-0.0008672354742884636,0.0007919934578239918,0.0005830992013216019
1690841427197525800,5.34552587890625,-0.0006918208673596382,-0.001234914641827345,-0.002159843221306801
1690841427207565800,5.35556591796875,-0.00009793555364012718,-0.0000420848373323679,-0.0023926030844449997
1690841427217606700,5.365606689453125,-0.00016404036432504654,0.0005537971155717969,-0.0027891527861356735
1690841427227646700,5.375646728515625,-0.0002135755494236946,0.0018558165756985545,-0.0017987247556447983
1690841427237686500,5.3856865234375,-0.0002394481562077999,-0.0005556100513786077,-0.00249282643198967
1690841427247727600,5.3957275390625,-0.001612041611224413,0.0012657257029786706,-0.003730662167072296
1690841427257767700,5.405767578125,-0.0010550417937338352,0.000509531470015645,-0.0010873600840568542
1690841427267838700,5.415838623046875,0.000024337787181138992,0.0008695907890796661,-0.0013715196400880814
1690841427277878800,5.425878662109375,0.0011767672840505838,-0.00020148465409874916,0.0003666430711746216
1690841427287918800,5.4359189453125,0.0006507928483188152,0.001081626396626234,0.0005695763975381851
1690841427297959000,5.445958984375,0.0006636991165578365,-0.0017885570414364338,-0.0013774484395980835
1690841427307999700,5.455999755859375,0.0003569032996892929,-0.000944601371884346,-0.0034946613013744354
1690841427318039600,5.46603955078125,0.00028147315606474876,-0.001501124119386077,0.0009047985076904297
1690841427328079600,5.47607958984375,0.0005925302393734455,-0.001049185637384653,0.0007383506745100021
1690841427338120700,5.48612060546875,-0.001822788268327713,-0.000842750770971179,0.0026431623846292496
1690841427348160800,5.496160888671875,-0.000747936312109232,0.004427911248058081,0.002156069502234459
1690841427358200800,5.506200927734375,-0.0008585420437157154,-0.0003130272962152958,0.0015041287988424301
1690841427368241000,5.516240966796875,-0.00012271059677004814,0.0008201476885005832,0.0024455562233924866
1690841427378281700,5.52628173828125,0.0008110795170068741,0.0010572372702881694,0.00172395259141922
1690841427388328700,5.53632861328125,0.0009221332147717476,-0.00126716960221529,-0.00028540194034576416
1690841427398399700,5.546399658203125,-0.00007807044312357903,0.00010712305083870888,-0.0003935098648071289
1690841427408439800,5.556439697265625,0.00018318556249141693,-0.0015951695386320353,-0.000555163249373436
1690841427418479900,5.56647998046875,0.002038105158135295,0.0006972054252400994,-0.00027938373386859894
1690841427428521000,5.57652099609375,0.0002756253816187382,-0.0007435646839439869,-0.0004530232399702072
1690841427438561000,5.58656103515625,-0.001838706899434328,0.0007387986406683922,-0.0006116386502981186
1690841427448600800,5.596600830078125,-0.00030286191031336784,0.0007643649587407708,0.00046001747250556946
1690841427458641700,5.6066416015625,0.0005051810294389725,0.00006247032433748245,-0.0004018303006887436
1690841427468681700,5.616681640625,0.0005110399797558784,-0.00033141113817691803,-0.0018149036914110184
1690841427478721800,5.6267216796875,0.0010123741813004017,-0.0002682749181985855,-0.0005824249237775803
1690841427488761900,5.636761962890625,-0.0007210774347186089,-0.0009138251189142466,-0.0010948162525892258
1690841427498803000,5.646802978515625,0.00012816628441214561,0.000323633779771626,-0.0006422810256481171
1690841427508843000,5.656843017578125,0.00004587462171912193,-0.0004777114372700453,0.0006349701434373856
1690841427518882800,5.6668828125,0.0008581404108554125,0.0014509942848235369,-0.001254042610526085
1690841427528923600,5.676923583984375,0.0010211258195340633,-0.0002683426719158888,-0.0011595003306865692
1690841427538994000,5.686993896484375,-0.0010404703207314014,-0.00027368939481675625,0.0028009694069623947
1690841427549034800,5.69703466796875,0.00032599736005067825,-0.000012433389201760292,0.0015074703842401505
1690841427559074800,5.70707470703125,-0.00027879979461431503,-0.0018588260281831026,0.002008877694606781
1690841427569115000,5.717114990234375,0.0003947135992348194,-0.0006918287836015224,-0.0006990246474742889
1690841427579155000,5.727155029296875,-0.0006981357000768185,0.0003190056886523962,0.0018154326826334
1690841427589196000,5.737196044921875,-0.0004704352468252182,-0.00017261388711631298,-0.00009485334157943726
1690841427599235800,5.74723583984375,-0.000012366101145744324,0.0017766138771548867,0.0013821553438901901
1690841427609276000,5.75727587890625,0.00004968559369444847,-0.000038596801459789276,0.0011086482554674149
1690841427619316700,5.767316650390625,0.0005565416067838669,-0.001387887867167592,0.0022898726165294647
1690841427629356800,5.777356689453125,0.00030886800959706306,-0.0004784185439348221,0.0019346065819263458
1690841427639396900,5.78739697265625,0.0007743812166154385,0.0009776654187589884,-0.0017455518245697021
1690841427649437000,5.79743701171875,0.00042097968980669975,-0.00013127480633556843,0.00046114251017570496
1690841427659478000,5.80747802734375,-0.00032930728048086166,-0.0004059185739606619,-0.001032782718539238
1690841427669548800,5.817548828125,0.00028881244361400604,0.0005562814185395837,-0.0020258743315935135
1690841427679588900,5.8275888671875,-0.0008194809779524803,-0.002626200672239065,-0.0010853838175535202
1690841427689629000,5.83762890625,0.0006489860825240612,0.0005400317022576928,-0.0008422378450632095
1690841427699669000,5.8476689453125,0.0014581445138901472,0.0005361202638596296,0.0006617121398448944
1690841427709709800,5.857709716796875,0.00014946702867746353,0.0007132204482331872,0.00016503222286701202
1690841427719750000,5.86775,-0.00004355655983090401,-0.0005737878382205963,-0.0016341805458068848
1690841427729790000,5.8777900390625,0.00024406472221016884,0.0008331601275131106,-0.001157740131020546
1690841427739831000,5.8878310546875,0.0006017894484102726,0.0007990124868229032,0.000914011150598526
1690841427749870800,5.897870849609375,-0.00039050402119755745,0.0007510755676776171,0.0004873722791671753
1690841427759911000,5.907910888671875,-0.0004278463311493397,0.0008088449249044061,-0.0006280373781919479
1690841427769951000,5.917950927734375,0.0003455355763435364,0.000007766066119074821,0.001218598335981369
1690841427779991800,5.92799169921875,-0.0010297419503331184,0.0014734703581780195,-0.000015813857316970825
1690841427790032000,5.938031982421875,0.0000030319206416606903,0.0009219296043738723,0.0015205629169940948
1690841427800103000,5.94810302734375,0.0009037137497216463,0.0014043485280126333,0.0017818287014961243
1690841427810142700,5.958142822265625,0.0001566973514854908,0.0021526969503611326,-0.00012579374015331268
1690841427820182800,5.968182861328125,0.00002986285835504532,0.0009758169762790203,-0.0012300945818424225
1690841427830224000,5.978223876953125,0.0007073711603879929,-0.0004367236979305744,-0.00003193877637386322
1690841427840264000,5.988263916015625,-0.0018536648713052273,-0.0005421326495707035,-0.00009512528777122498
1690841427850304000,5.998303955078125,0.0003618188202381134,0.000041099730879068375,0.0006758607923984528
1690841427860343800,6.00834375,-0.00034112483263015747,-0.0004774387925863266,0.0010682325810194016
1690841427870385000,6.018385009765625,-0.0019310321658849716,-0.0001988720614463091,0.0004048384726047516
1690841427880425000,6.028425048828125,-0.000489360187202692,0.00013522396329790354,-0.0003678780049085617
1690841427890464800,6.03846484375,-0.0001407526433467865,-0.0012173955328762531,-0.001310368999838829
1690841427900505900,6.048505859375,0.00008937669917941093,0.0004131171153858304,0.00044617801904678345
1690841427910546000,6.0585458984375,-0.0001228773035109043,0.00045972247608006,-0.0013032536953687668
1690841427920586000,6.0685859375,0.0014772817958146334,0.0005232543917372823,0.00039404258131980896
1690841427930657000,6.078656982421875,0.0008056326769292355,-0.0013481487985700369,0.0005943123251199722
1690841427940696800,6.08869677734375,-0.00045753223821520805,0.0000037865247577428818,0.0018166694790124893
1690841427950736600,6.098736572265625,-0.0005171871744096279,0.00011643825564533472,0.00023129023611545563
1690841427960777700,6.10877783203125,0.0006376816891133785,-0.00044440128840506077,-0.00007786229252815247
1690841427970817800,6.11881787109375,0.0006017289124429226,0.0007335148984566331,0.0006726160645484924
1690841427980857900,6.12885791015625,0.0009652883745729923,-0.0009320243261754513,-0.0004786532372236252
1690841427990899000,6.13889892578125,-0.0015045274049043655,-0.0011855573393404484,-0.0008770618587732315
1690841428000939000,6.14893896484375,-0.0006696018390357494,-0.000617276644334197,0.001353563740849495
1690841428010978800,6.158978759765625,0.0007389443926513195,-0.0007680114358663559,-0.0002973303198814392
1690841428021019000,6.169018798828125,0.0020285071805119514,0.0009062871104106307,0.000273657962679863
1690841428031060000,6.17906005859375,-0.0008338582701981068,-0.0007741674780845642,0.00010268203914165497
1690841428041099800,6.189099853515625,0.0004990971647202969,-0.0013695841189473867,-0.0004689358174800873
1690841428051139800,6.199139892578125,-0.0008260919712483883,-0.0014572020154446363,0.00012388266623020172
1690841428061211000,6.2092109375,-0.0009285961277782917,0.0004131617024540901,-0.0022432859987020493
1690841428071251000,6.2192509765625,-0.000556818675249815,-0.00028538540937006474,-0.0006792116910219193
1690841428081292000,6.2292919921875,0.0008104657754302025,0.0003929839003831148,-0.0005127564072608948
1690841428091331800,6.239331787109375,-0.0005504097789525986,0.003959489054977894,0.00025423429906368256
1690841428101371600,6.24937158203125,-0.0008100220002233982,0.0017733154818415642,0.000678330659866333
1690841428111412700,6.259412841796875,-0.0012273392640054226,-0.0012091586831957102,-0.0017651189118623734
1690841428121452800,6.269452880859375,-0.0017849947325885296,-0.0006167527753859758,-0.0008413586765527725
1690841428131492900,6.279492919921875,0.00032209837809205055,0.00032680516596883535,-0.0011865049600601196
1690841428141533000,6.289532958984375,0.00030154548585414886,0.0015983013436198235,0.0010705646127462387
1690841428151574000,6.299573974609375,-0.00040818657726049423,-0.0005535329692065716,-0.0009169522672891617
1690841428161613800,6.30961376953125,-0.0014518103562295437,-0.00022840709425508976,-0.00017108209431171417
1690841428171654000,6.31965380859375,-0.00002089422196149826,-0.0008491899352520704,0.0010449178516864777
1690841428181695000,6.329695068359375,-0.0020889174193143845,-0.0013584336265921593,0.0016618166118860245
1690841428191734800,6.33973486328125,-0.0002737068571150303,-0.001698785461485386,-0.001275382936000824
1690841428201805800,6.349805908203125,0.000775942113250494,-0.0011345988605171442,0.0002597905695438385
1690841428211846000,6.359845947265625,0.00034983642399311066,0.0007719582645222545,-0.0008052065968513489
1690841428221886000,6.369885986328125,-0.0000708121806383133,0.001408373937010765,-0.0022448282688856125
1690841428231926000,6.379926025390625,0.0005491720512509346,-0.00004171719774603844,-0.000016028061509132385
1690841428241966800,6.389966796875,0.0017142943106591702,0.00024960970040410757,0.0005274694412946701
1690841428252006700,6.400006591796875,-0.000891875009983778,0.0010733254021033645,-0.0009913314133882523
1690841428262046700,6.410046630859375,-0.0014374484308063984,0.002169796032831073,0.0005420614033937454
1690841428272087800,6.420087890625,0.0009032036177814007,0.0036297407932579517,-0.0010566338896751404
1690841428282128000,6.4301279296875,0.00017824582755565643,0.00032780610490590334,0.0011744555085897446
1690841428292168000,6.44016796875,0.0010680078994482756,-0.00017952616326510906,-0.0008628629148006439
1690841428302208000,6.4502080078125,0.00046772416681051254,-0.0002578005660325289,0.0006695538759231567
1690841428312248800,6.460248779296875,0.0001963479444384575,-0.0011054847855120897,-0.0020167771726846695
1690841428322288600,6.47028857421875,-0.0007548737339675426,-0.0004740813747048378,0.0004763379693031311
1690841428332359700,6.480359619140625,-0.0007399599999189377,-0.001197129487991333,0.00004517100751399994
1690841428342399700,6.490399658203125,-0.00016103405505418777,0.001184777938760817,0.0007974226027727127
1690841428352439800,6.500439697265625,-0.0018081991001963615,-0.0025947801768779755,-0.0010369624942541122
1690841428362481000,6.51048095703125,0.0007204758003354073,-0.0003828369081020355,0.0004370957612991333
1690841428372521000,6.52052099609375,-0.001049194484949112,-0.0002912241034209728,0.0003758426755666733
1690841428382561000,6.53056103515625,-0.0006037745624780655,0.0006872846279293299,-0.0002879630774259567
1690841428392592600,6.540592529296875,0.0008119619451463223,-0.0010866469237953424,0.0015733204782009125
1690841428402632700,6.5506328125,0.00015519838780164719,0.0007878827163949609,0.0016206391155719757
1690841428412672500,6.560672607421875,-0.001455481629818678,0.0010017345193773508,-0.000016139820218086243
1690841428422712600,6.570712646484375,0.0013743038289248943,0.0017629137728363276,-0.0012499615550041199
1690841428432753700,6.580753662109375,-0.000938651617616415,0.0024769073352217674,0.00040359608829021454
1690841428442793700,6.590793701171875,-0.0007187533192336559,-0.0017596201505512,-0.00045642629265785217
1690841428452833500,6.60083349609375,-0.00047374237328767776,0.0005575963295996189,0.00025064311921596527
1690841428462904600,6.610904541015625,-0.000372408889234066,0.0012763114646077156,0.0003618542104959488
1690841428472944600,6.620944580078125,0.0009320073295384645,0.000164708006195724,-0.00040700100362300873
1690841428482985700,6.63098583984375,-0.0008776839822530746,0.00032552715856581926,-0.00024144724011421204
1690841428493025500,6.641025634765625,0.0007044998928904533,0.0011500418186187744,-0.0011668950319290161
1690841428503065600,6.651065673828125,0.0009072395041584969,0.00007861072663217783,0.0011251606047153473
1690841428513105700,6.661105712890625,-0.0006579002365469933,0.0014914176426827908,0.00026922114193439484
1690841428523146800,6.671146728515625,-0.0013864422217011452,-0.000292384997010231,-0.000828079879283905
1690841428533186600,6.6811865234375,-0.00009960262104868889,-0.0011951965279877186,-0.00040037743747234344
1690841428543226600,6.6912265625,-0.0018872236832976341,0.00001509697176516056,-0.0009630043059587479
1690841428553267700,6.701267822265625,-0.00015030987560749054,0.0010225707665085793,-0.0012969635426998138
1690841428563307500,6.7113076171875,0.0009932126849889755,0.002282892121002078,0.00023616664111614227
1690841428573347600,6.72134765625,0.0007511312142014503,-0.0003536373842507601,0.0007842443883419037
1690841428583387600,6.7313876953125,-0.0000017080456018447876,0.0011414112523198128,-0.00035652704536914825
1690841428593458700,6.741458740234375,0.00017379410564899445,0.00003726466093212366,0.0007774475961923599
1690841428603498800,6.751498779296875,-0.001695447601377964,-0.0018655729945749044,0.0017672106623649597
1690841428613539600,6.76153955078125,0.001083294628188014,0.0009600408375263214,-0.00019367411732673645
1690841428623579400,6.771579345703125,-0.00047569209709763527,0.0006904654437676072,-0.001340443268418312
1690841428633619500,6.781619384765625,0.0009751981124281883,-0.00018411665223538876,-0.0017654821276664734
1690841428643660500,6.79166064453125,0.0009875227697193623,-0.0011697662994265556,-0.0022659040987491608
1690841428653700600,6.80170068359375,-0.0004822756163775921,-0.00044006016105413437,-0.0005348511040210724
1690841428663740700,6.81174072265625,0.002096370095387101,0.0017847768031060696,-0.001205984503030777
1690841428673780700,6.82178076171875,0.00005266023799777031,0.0023126155138015747,0.0008387919515371323
1690841428683821600,6.831821533203125,-0.0003540222533047199,-0.0003259992226958275,0.0014009606093168259
1690841428693861600,6.841861572265625,-0.0010112905874848366,-0.001886611571535468,-0.0004864204674959183
1690841428703901400,6.8519013671875,0.0021474554669111967,-0.00004816427826881409,-0.0018312148749828339
1690841428713942500,6.861942626953125,0.00023077847436070442,-0.0005927807651460171,0.00034139305353164673
1690841428724012500,6.872012451171875,0.001059593865647912,-0.0006943526677787304,0.0006895512342453003
1690841428734053600,6.8820537109375,0.00012881914153695107,-0.0018842529971152544,0.0014126002788543701
1690841428744093700,6.89209375,-0.0003046207129955292,0.0001405114307999611,0.0010654758661985397
1690841428754133800,6.9021337890625,0.0007065813988447189,-0.0010666993912309408,0.0006223265081644058
1690841428764174600,6.912174560546875,-0.0018894718959927559,-0.0005054569337517023,0.0006398186087608337
1690841428774214400,6.92221435546875,-0.0019251583144068718,0.0005174633115530014,-0.0006728526204824448
1690841428784254500,6.93225439453125,0.0009629328269511461,-0.0019170853774994612,0.00025297515094280243
1690841428794294500,6.94229443359375,0.0003797006793320179,-0.001392442500218749,0.00013606250286102295
1690841428804335600,6.952335693359375,-0.00012142863124608994,0.000017979182302951813,0.0016837157309055328
1690841428814375700,6.962375732421875,0.0010325191542506218,-0.0008576682303100824,-0.0006185881793498993
1690841428824415700,6.972415771484375,-0.0005915015935897827,0.0018776487559080124,0.0014126095920801163
1690841428834456600,6.98245654296875,0.0003565838560461998,0.003170613432303071,-0.001187700778245926
1690841428844496600,6.99249658203125,-0.0005779452621936798,0.00020413997117429972,-0.0007150322198867798
1690841428854567400,7.0025673828125,-0.00007940130308270454,0.0005431604804471135,0.0013180244714021683
1690841428864607500,7.012607421875,-0.0014686798676848412,0.0009110128739848733,0.0008159521967172623
1690841428874647600,7.0226474609375,-0.0004644016735255718,0.0022354028187692165,-0.0005955230444669724
1690841428884687600,7.0326875,-0.001470746472477913,-0.0019196863286197186,0.0013928785920143127
1690841428894728700,7.042728759765625,-0.00010268064215779305,-0.0014592257793992758,-0.0004068855196237564
1690841428904768800,7.052768798828125,-0.0001433887518942356,0.00044459826312959194,-0.00012687034904956818
1690841428914808600,7.06280859375,-0.00011595804244279861,-0.0006907072383910418,0.0009325351566076279
1690841428924849400,7.072849365234375,0.0011142720468342304,0.001117538777180016,-0.0017152931541204453
1690841428934889500,7.082889404296875,-0.057599905878305435,-0.5643514394760132,0.09960626810789108
1690841428944929500,7.092929443359375,0.07415424287319183,0.20548833906650543,0.03821316361427307
1690841428954969600,7.102969482421875,-0.029396122321486473,-0.011068465188145638,0.019531622529029846
1690841428965010700,7.1130107421875,-0.00502173975110054,-0.08276081085205078,-0.024785524234175682
1690841428975050800,7.12305078125,-0.012944110669195652,-0.048486195504665375,-0.04236505180597305
1690841428985090800,7.1330908203125,-0.009210160002112389,-0.013286764733493328,-0.03352833539247513
1690841428995161600,7.14316162109375,-0.007016247604042292,0.03349485248327255,-0.03794412314891815
1690841429005201700,7.15320166015625,0.0006687692366540432,0.05947616696357727,-0.03593394532799721
1690841429015242500,7.163242431640625,0.007138120010495186,0.0798642635345459,-0.03388943895697594
1690841429025282600,7.173282470703125,0.011461695656180382,0.06644449383020401,-0.024867895990610123
1690841429035322600,7.183322509765625,0.009798018261790276,0.04025176540017128,-0.01678680256009102
1690841429045362700,7.19336279296875,0.005795931909233332,0.006563780829310417,-0.008402366191148758
1690841429055403800,7.20340380859375,0.0012898631393909454,-0.02542690932750702,0.001901671290397644
1690841429065443600,7.213443603515625,-0.004884232301265001,-0.04802071303129196,0.00823933631181717
1690841429075483600,7.223483642578125,-0.011324821040034294,-0.05560246482491493,0.018193166702985764
1690841429085524500,7.2335244140625,-0.00867590680718422,-0.04981056600809097,0.02224559336900711
1690841429095564500,7.243564453125,-0.006747246254235506,-0.02921873703598976,0.024689575657248497
1690841429105604600,7.2536044921875,-0.00048144999891519547,-0.005745181813836098,0.026854602620005608
1690841429115644700,7.263644775390625,0.005133825354278088,0.01746746152639389,0.02644527517259121
1690841429125715700,7.2737158203125,0.006660304963588715,0.03592585399746895,0.024145863950252533
1690841429135756800,7.2837568359375,0.009496837854385376,0.04026254639029503,0.02099880762398243
1690841429145796600,7.293796630859375,0.005757184699177742,0.034946221858263016,0.018637124449014664
1690841429155836700,7.303836669921875,0.0009917241986840963,0.019837576895952225,0.012795214541256428
1690841429165876700,7.313876708984375,-0.0027787149883806705,0.0021427117753773928,0.008989701047539711
1690841429175917600,7.32391748046875,-0.0032522249966859818,-0.012889767065644264,0.0030135679990053177
1690841429185957600,7.33395751953125,-0.0033871582709252834,-0.024657662957906723,-0.0009136702865362167
1690841429195997700,7.343997802734375,-0.0033682496286928654,-0.03071155957877636,-0.007982498034834862
1690841429206038800,7.354038818359375,-0.002029744442552328,-0.024581344798207283,-0.01210033893585205
1690841429216078600,7.36407861328125,0.001959404442459345,-0.013616844080388546,-0.014836471527814865
1690841429226118700,7.37411865234375,0.0019757156260311604,0.0001375330612063408,-0.018595008179545403
1690841429236158700,7.38415869140625,0.0019062072969973087,0.011526808142662048,-0.02194633148610592
1690841429246199600,7.394199462890625,0.0021838706452399492,0.018204212188720703,-0.021053040400147438
1690841429256269600,7.40426953125,-0.0006281612440943718,0.019196772947907448,-0.02045835740864277
1690841429266310700,7.414310546875,0.00012956839054822922,0.015645138919353485,-0.016656531020998955
1690841429276350500,7.4243505859375,0.0008028154261410236,0.005394366569817066,-0.013895099982619286
1690841429286390500,7.434390625,-0.0014119353145360947,-0.002213586587458849,-0.007585460320115089
1690841429296431600,7.444431640625,-0.000034016091376543045,-0.010290954262018204,-0.0038919225335121155
1690841429306471700,7.4544716796875,0.0005831262096762657,-0.013240711763501167,0.0014885347336530685
1690841429316511700,7.46451171875,-0.00015270477160811424,-0.010701920837163925,0.006029756739735603
1690841429326551600,7.474551513671875,-0.000954692717641592,-0.007331507280468941,0.007833556272089481
1690841429336592600,7.484592529296875,0.0008192388340830803,-0.002375897252932191,0.011532953940331936
1690841429346632700,7.4946328125,-0.00010485667735338211,0.002167994389310479,0.011538644321262836
1690841429356672500,7.504672607421875,-0.0009895586408674717,0.008185407146811485,0.015170130878686905
1690841429366713600,7.514713623046875,0.0007575191557407379,0.011244944296777248,0.012940093874931335
1690841429376753700,7.524753662109375,0.0021218566689640284,0.007354065775871277,0.01417526789009571
1690841429386824700,7.53482470703125,0.001121040666475892,0.006168426014482975,0.011531547643244267
1690841429396859000,7.54485888671875,0.0002666986547410488,0.0031044590286910534,0.00742708332836628
1690841429406899000,7.55489892578125,-0.00041573401540517807,-0.0008798320777714252,0.005208553746342659
1690841429416940000,7.56493994140625,0.0006897440180182457,-0.0030202146153897047,0.004617597907781601
1690841429426979800,7.574979736328125,-0.0009277290664613247,-0.005535367876291275,-0.0001120585948228836
1690841429437020000,7.58502001953125,0.0008400771766901016,-0.005733506754040718,-0.002662835642695427
1690841429447060000,7.59506005859375,-0.0006035338155925274,-0.0060845548287034035,-0.0056598857045173645
1690841429457100800,7.605100830078125,0.002191453706473112,-0.0007020400371402502,-0.00779573991894722
1690841429467140900,7.615140869140625,0.0008479575626552105,0.007817909121513367,-0.009742014110088348
1690841429477181000,7.625180908203125,0.0006964239291846752,0.0031475238502025604,-0.01131407730281353
1690841429487222000,7.635221923828125,0.002056076657027006,0.004162799566984177,-0.009943917393684387
1690841429497261800,7.64526171875,0.0014025368727743626,0.00179764605127275,-0.012755149975419044
1690841429507302000,7.655302001953125,-0.00018242094665765762,0.0007356414571404457,-0.00986935943365097
1690841429517373000,7.665373046875,0.00033236807212233543,0.00032231886871159077,-0.008137773722410202
1690841429527413000,7.6754130859375,-0.0009521418251097202,-0.000630401074886322,-0.006433000788092613
1690841429537453000,7.685453125,0.0009139352478086948,-0.00164133682847023,-0.0030465256422758102
1690841429547494000,7.695493896484375,-0.00007718103006482124,-0.002156985690817237,-0.0009647291153669357
1690841429557534000,7.705533935546875,-0.00043777329847216606,-0.0016368702054023743,0.0014369096606969833
1690841429567573800,7.71557373046875,0.0029062461107969284,-0.0014559808187186718,0.00453709252178669
1690841429577614800,7.72561474609375,0.0016891814302653074,0.001887351507321,0.006852976977825165
1690841429587655000,7.735655029296875,0.0011074366047978401,0.0009026993066072464,0.00894173700362444
1690841429597695000,7.745695068359375,-0.000677147414535284,0.0006845863536000252,0.006684974767267704
1690841429607735000,7.755735107421875,0.00015047425404191017,-0.0000728941522538662,0.008505386300384998
1690841429617775900,7.76577587890625,-0.0000013262033462524414,0.0020344650838524103,0.006539440713822842
1690841429627816000,7.77581591796875,0.0001973477192223072,0.003255648072808981,0.007361073046922684
1690841429637855700,7.785855712890625,-0.0004500667564570904,0.0009714550105854869,0.005293128080666065
1690841429647896800,7.795896728515625,-0.0002720588818192482,0.0009925724007189274,0.005305343307554722
1690841429657966800,7.805966796875,0.0005721631459891796,0.00048737076576799154,0.0028797369450330734
1690841429668008000,7.816008056640625,-0.0001517930068075657,-0.0009297756478190422,0.0006565656512975693
1690841429678048000,7.826048095703125,0.000755812507122755,0.001653224229812622,0.0002954397350549698
1690841429688088000,7.836088134765625,0.00027242396026849747,-0.0008903441485017538,-0.0022328924387693405
1690841429698128000,7.8461279296875,-0.0020418628118932247,-0.0036642926279455423,-0.0038451701402664185
1690841429708169000,7.8561689453125,-0.0017731254920363426,0.0010960910003632307,-0.006969662383198738
1690841429718208800,7.866208740234375,0.0006905649788677692,0.0010630676988512278,-0.006846891716122627
1690841429728248800,7.876248779296875,0.0010952965822070837,-0.00018485425971448421,-0.006060158833861351
1690841429738290000,7.8862900390625,-0.0006165835075080395,0.0019408810185268521,-0.0060550980269908905
1690841429748330000,7.896330078125,0.0003749728202819824,-0.0009018585551530123,-0.005991939455270767
1690841429758370000,7.9063701171875,0.001095890300348401,0.0016489170957356691,-0.004870215430855751
1690841429768409900,7.916409912109375,0.0006173904985189438,0.00006550585385411978,-0.0024356339126825333
1690841429778451000,7.926450927734375,0.0021665513049811125,-0.0002468829043209553,-0.0017384178936481476
1690841429788521700,7.936521728515625,0.0002889307215809822,-0.0006018416024744511,0.0005033593624830246
1690841429798561800,7.946561767578125,0.00007161684334278107,-0.0012186295352876186,0.0011297333985567093
1690841429808601900,7.956601806640625,0.0005009528249502182,-0.002224405063316226,0.0035179778933525085
1690841429818642000,7.966641845703125,0.000015192199498414993,0.000043276697397232056,0.003436485305428505
1690841429828683000,7.97668310546875,-0.0016046450473368168,0.0001731818774715066,0.004437301307916641
1690841429838723000,7.98672314453125,-0.00003737490624189377,-0.0019448301754891872,0.003597874194383621
1690841429848762600,7.9967626953125,0.0002889963798224926,-0.0002851916942745447,0.0046155452728271484
1690841429858803700,8.0068037109375,0.0003390638157725334,0.00010709196794778109,0.0044307224452495575
1690841429868843800,8.01684375,0.0008025546558201313,0.0014831065200269222,0.0027205124497413635
1690841429878883800,8.0268837890625,-0.0001852116547524929,0.001297484152019024,0.0034720562398433685
1690841429888924000,8.036923828125,-0.00008887471631169319,-0.001089543104171753,0.0028262026607990265
1690841429898965000,8.046965087890625,-0.0008087269961833954,0.0010979772778227925,0.001069316640496254
1690841429909004800,8.0570048828125,-0.00028748810291290283,0.00039872946217656136,-0.0013009719550609589
1690841429919075800,8.067075927734376,-0.0015056179836392403,-0.00006066588684916496,-0.000638909637928009
1690841429929115600,8.07711572265625,0.0009764879941940308,-0.0013519534841179848,-0.0022709351032972336
1690841429939155700,8.08715576171875,-0.00021980376914143562,-0.0022667490411549807,-0.0008322950452566147
1690841429949196800,8.09719677734375,-0.0005522281862795353,0.00015402527060359716,-0.002206146717071533
1690841429959236900,8.10723681640625,0.0009489958174526691,0.0002171421656385064,-0.005553741008043289
1690841429969277000,8.11727685546875,0.0001283334568142891,-0.000036482466384768486,-0.004227524623274803
1690841429979317000,8.12731689453125,0.000851648161187768,0.0005816372577100992,-0.004339911043643951
1690841429989357800,8.13735791015625,-0.0000735805369913578,0.00045104813762009144,-0.004400473088026047
1690841429999397600,8.147397705078125,0.0005378816276788712,0.0011466657742857933,-0.0023911166936159134
1690841430009437700,8.157437744140625,-0.0008458304218947887,0.0010302918963134289,-0.002508465200662613
1690841430019478800,8.167478759765626,0.0005195722915232182,-0.0012733424082398415,-0.0003598276525735855
1690841430029518800,8.177518798828125,0.00037485966458916664,0.0012515452690422535,-0.000039285048842430115
1690841430039559000,8.187558837890625,-0.0012288959696888924,0.0004560590023174882,0.001958884298801422
1690841430049630000,8.1976298828125,-0.0005501755513250828,-0.001744560431689024,0.002722758799791336
1690841430059670000,8.207669921875,0.0008458534721285105,-0.0009195131715387106,0.004660207778215408
1690841430069710800,8.2177109375,0.0005593914538621902,-0.0015597143210470676,0.0016619469970464706
1690841430079750700,8.227750732421875,0.0003940095193684101,-0.000263553811237216,0.0024334657937288284
1690841430089790700,8.237790771484375,0.0017510224133729935,0.0011754324659705162,0.0015711337327957153
1690841430099830800,8.247830810546875,0.00037949439138174057,-0.0008144814055413008,0.001187903806567192
1690841430109871900,8.257871826171876,0.0004313788376748562,0.00248858449049294,0.0012015607208013535
1690841430119912000,8.267911865234375,0.00001432793214917183,-0.0006014814134687185,0.0019198153167963028
1690841430129952000,8.277951904296875,0.0006356979720294476,0.0019568277057260275,-0.0002080872654914856
1690841430139992800,8.287992919921875,-0.0018817884847521782,0.0008422948885709047,0.0009969938546419144
1690841430150032600,8.29803271484375,0.0006198431365191936,0.0012989959213882685,-0.00027379579842090607
1690841430160072700,8.30807275390625,0.0008621907327324152,0.0015258972998708487,-0.0010357256978750229
1690841430170112800,8.31811279296875,0.00039537716656923294,0.00028136803302913904,0.00044754520058631897
1690841430180183800,8.328183837890625,-0.0016302228905260563,-0.0011210525408387184,0.00047364458441734314
1690841430190224000,8.338223876953125,-0.0008252160623669624,-0.002330028684809804,-0.00040443800389766693
1690841430200265000,8.348264892578126,-0.0007314728572964668,-0.002289548749104142,-0.0013261586427688599
1690841430210305000,8.358304931640625,0.0007679741829633713,-0.0004279713612049818,-0.00512063130736351
1690841430220344800,8.3683447265625,0.0005013914778828621,-0.0019651479087769985,-0.0017994027584791183
1690841430230385700,8.3783857421875,0.0010274637024849653,-0.0008283671922981739,-0.0007418226450681686
1690841430240425700,8.38842578125,0.000978994183242321,0.0018007054459303617,-0.0000581890344619751
1690841430250465800,8.3984658203125,0.00047692982479929924,0.0028577023185789585,-0.0023333746939897537
1690841430260505900,8.408505859375,0.0010183507110923529,0.0042241704650223255,0.0013726800680160522
1690841430270547000,8.418546875,0.00002505723387002945,0.002377110533416271,0.0014744196087121964
1690841430280587000,8.4285869140625,0.0005960389971733093,0.0014428736176341772,0.0011857319623231888
1690841430290626800,8.438626708984375,0.0007368875667452812,-0.0005526125896722078,0.0026741400361061096
1690841430300667600,8.448667724609376,0.001009595114737749,-0.0028615733608603477,0.003962578251957893
1690841430310707700,8.458707763671875,0.0001277509145438671,-0.0020912662148475647,0.0008617416024208069
1690841430320778800,8.46877880859375,0.0009791634511202574,-0.004397030919790268,-0.00008075125515460968
1690841430330818800,8.47881884765625,-0.000427215825766325,-0.006068561226129532,-0.0014847349375486374
1690841430340859000,8.48885888671875,-0.001735360361635685,-0.0010644817957654595,-0.00037446431815624237
1690841430350899000,8.49889892578125,0.0005917400121688843,0.0005048249149695039,-0.0006941519677639008
1690841430360940000,8.50893994140625,-0.0001249168999493122,0.004417541436851025,-0.0020720716565847397
1690841430370979800,8.518979736328125,0.00042647169902920723,0.005753074772655964,-0.0006312262266874313
1690841430381020000,8.52902001953125,-0.0006537064909934998,0.005270509980618954,0.0018092934042215347
1690841430391047700,8.539047607421875,0.00009396346285939217,0.004183286800980568,0.0001539904624223709
1690841430401087500,8.54908740234375,-0.001767852809280157,0.005262133199721575,-0.0011600125581026077
1690841430411127600,8.55912744140625,-0.000843570102006197,-0.0011884133564308286,-0.0012047681957483292
1690841430421167600,8.569167724609375,0.0005961349233984947,-0.007980273105204105,-0.0010287333279848099
1690841430431208700,8.579208740234375,-0.0016213939525187016,-0.004760586656630039,0.0003570355474948883
1690841430441248800,8.589248779296875,-0.0019750618375837803,-0.006642109714448452,-0.0018073152750730515
1690841430451319800,8.59931982421875,-0.0020336415618658066,-0.003072720021009445,-0.0018426589667797089
1690841430461359600,8.609359619140625,-0.00014146557077765465,-0.0007515088655054569,-0.001277802512049675
1690841430471399400,8.6193994140625,0.00033898884430527687,0.000723495613783598,-0.0012097787111997604
1690841430481440500,8.6294404296875,-0.0007044379599392414,0.0053600589744746685,0.0006062313914299011
1690841430491480600,8.63948046875,-0.0009939922019839287,0.007002529688179493,-0.00019678659737110138
1690841430501520600,8.649520751953125,-0.00042460858821868896,0.0073364898562431335,-0.0013027973473072052
1690841430511561700,8.659561767578126,0.0001595970243215561,0.0017298375023528934,-0.0004171077162027359
1690841430521601800,8.669601806640625,0.0017013009637594223,0.0011444747215136886,-0.0011127255856990814
1690841430531641600,8.6796416015625,-0.00022819451987743378,-0.003986887633800507,0.0017785467207431793
1690841430541681400,8.689681396484374,-0.0005831937305629253,-0.004271313082426786,0.0012549683451652527
1690841430551722500,8.699722412109375,-0.0001459987834095955,-0.006140723824501038,-0.0013653431087732315
1690841430561762600,8.709762451171875,-0.00028315139934420586,-0.005529528018087149,-0.00030700303614139557
1690841430571802600,8.719802734375,0.0005753333680331707,-0.00470293965190649,-0.0013245996087789536
1690841430581873700,8.729873779296875,-0.0006736889481544495,0.0020132865756750107,-0.0011980999261140823
1690841430591913700,8.739913818359375,0.0009285607375204563,0.0019257455132901669,-0.002320125699043274
1690841430601954800,8.749954833984376,0.0019168599974364042,0.007461392320692539,0.0002570152282714844
1690841430611994600,8.75999462890625,-0.0007054111920297146,0.007544216699898243,-0.0010527260601520538
1690841430622034400,8.770034423828125,0.0025961094070225954,0.005103695672005415,0.000695105642080307
1690841430632074500,8.780074462890624,-0.00028481194749474525,0.0032240580767393112,-0.0012833960354328156
1690841430642115600,8.790115478515625,0.0007442333735525608,-0.001530749723315239,-0.0004977621138095856
1690841430652155600,8.80015576171875,-0.000037503428757190704,-0.004762804135680199,-0.000843096524477005
1690841430662195700,8.81019580078125,0.00030204933136701584,-0.00657668337225914,-0.00005107186734676361
1690841430672236800,8.82023681640625,-0.00007120473310351372,-0.005226891487836838,-0.00037232786417007446
1690841430682276600,8.830276611328125,-0.00023525534197688103,-0.003418871434405446,-0.0001355726271867752
1690841430692316400,8.84031640625,-0.0005345386452972889,-0.0004062531515955925,-0.00028550997376441956
1690841430702356500,8.8503564453125,0.0004114159382879734,0.002683013677597046,0.00037122517824172974
1690841430712427500,8.860427490234375,0.0008781186770647764,0.006484932266175747,-0.0013162195682525635
1690841430722468600,8.870468505859375,0.0008570796344429255,0.0062958477064967155,0.0013831611722707748
1690841430732508700,8.8805087890625,0.0009564158972352743,0.005268687382340431,-0.0005187001079320908
1690841430742548700,8.890548828125,0.0007721250876784325,0.0014310723636299372,-0.0009354837238788605
1690841430752588500,8.900588623046875,0.00015368498861789703,0.0018956732237711549,-0.000001341104507446289
1690841430762629600,8.910629638671875,-0.0008862791582942009,-0.002796017564833164,-0.00038164108991622925
1690841430772669400,8.92066943359375,-0.000004800502210855484,-0.005378293804824352,0.0003569144755601883
1690841430782709500,8.93070947265625,-0.0004500811919569969,-0.004532739985734224,-0.0005235262215137482
1690841430792750600,8.94075048828125,-0.0003315964713692665,-0.005841150879859924,0.00021249428391456604
1690841430802790700,8.950790771484375,-0.002032557502388954,-0.001993948593735695,-0.0009561013430356979
1690841430812830700,8.960830810546875,-0.0007302197627723217,0.00008240609895437956,-0.000881686806678772
1690841430822870800,8.970870849609375,-0.0010458044707775116,0.0028720672708004713,-0.001252397894859314
1690841430832911600,8.98091162109375,0.0006182380020618439,0.004027859307825565,-0.00033694878220558167
1690841430842981600,8.990981689453125,-0.00005287863314151764,0.006097136065363884,-0.00021071545779705048
1690841430853022500,9.0010224609375,0.0008623148314654827,0.003440551459789276,0.0005957856774330139
1690841430863062500,9.0110625,0.000542202964425087,0.0016269388142973185,-0.0010369978845119476
1690841430873102600,9.0211025390625,0.001844019629061222,-0.002660608384758234,-0.0020061004906892776
1690841430883143700,9.031143798828126,-0.00023484369739890099,-0.0030339835211634636,-0.0021142233163118362
1690841430893183700,9.041183837890625,-0.0002939733676612377,-0.004776510410010815,-0.0012278612703084946
1690841430903223600,9.0512236328125,-0.00002286350354552269,-0.0033985914196819067,-0.0011165402829647064
1690841430913263600,9.061263671875,-0.001002021599560976,-0.0049271006137132645,-0.0005899649113416672
1690841430923304400,9.071304443359375,-0.0006206571124494076,0.0007654061773791909,0.001357339322566986
1690841430933344500,9.081344482421875,-0.001410849392414093,0.0009573432616889477,0.0011133905500173569
1690841430943384600,9.091384521484375,0.00039131147786974907,0.0023850640282034874,0.0006713066250085831
1690841430953425700,9.10142578125,0.0008746078237891197,0.0026777232997119427,0.0026384014636278152
1690841430963465700,9.1114658203125,0.0006032316014170647,0.0028521602507680655,-0.002502297982573509
1690841430973505800,9.121505859375,-0.0001635453663766384,0.0008996956748887897,-0.002932559698820114
1690841430983576600,9.13157666015625,-0.000284719280898571,-0.00004732434172183275,-0.0008217375725507736
1690841430993616600,9.14161669921875,0.0013351887464523315,0.00012752541806548834,0.00018813833594322205
1690841431003656700,9.15165673828125,-0.0008214390836656094,-0.0021153888665139675,0.00021503493189811707
1690841431013697500,9.161697509765625,0.0005715684965252876,-0.0016770778456702828,0.0015748459845781326
1690841431023737600,9.171737548828125,-0.0006979601457715034,-0.003317318856716156,-0.00005447492003440857
1690841431033777700,9.181777587890625,0.000796150416135788,-0.00005265080835670233,0.00003739446401596069
1690841431043818800,9.19181884765625,0.0012683288659900427,0.00019795272964984179,0.001285618171095848
1690841431053858600,9.201858642578125,0.0002987971529364586,0.0013514857273548841,-0.0008232537657022476
1690841431063898600,9.211898681640625,0.0010165190324187279,0.002189316088333726,0.00003827735781669617
1690841431073938700,9.221938720703125,0.0010709159541875124,0.0021374032367020845,-0.00005393289029598236
1690841431083979500,9.2319794921875,0.0012552067637443542,0.0007882458157837391,-0.002202305942773819
1690841431094019600,9.24201953125,-0.0007249056361615658,-0.000049520982429385185,-0.000729680061340332
1690841431104059600,9.2520595703125,-0.0007411511614918709,-0.00007508741691708565,-0.0008825454860925674
1690841431114130700,9.262130615234375,-0.0006534694693982601,-0.001299348077736795,-0.0007795728743076324
1690841431124170500,9.27217041015625,0.0006935573183000088,-0.0024050925858318806,0.0019413791596889496
1690841431134211600,9.282211669921875,-0.0010379338636994362,-0.002941837999969721,0.0028460603207349777
1690841431144251600,9.292251708984375,-0.0018467362970113754,-0.0020131939090788364,0.001126190647482872
1690841431154291700,9.302291748046875,0.0009110295213758945,-0.0030081509612500668,-0.0018954817205667496
1690841431164332500,9.31233251953125,0.000927541172131896,-0.00032182037830352783,-0.00017028674483299255
1690841431174372600,9.32237255859375,0.0009228342678397894,0.00036602490581572056,-0.00017308257520198822
1690841431184412700,9.33241259765625,0.0008477333467453718,0.0011077153030782938,0.0008482392877340317
1690841431194452500,9.342452392578124,-0.0006945841014385223,0.0010110917501151562,0.0002943947911262512
1690841431204493600,9.35249365234375,0.0005373945459723473,-0.0000680210068821907,-0.0023136381059885025
1690841431214533600,9.36253369140625,-0.0008732709102332592,-0.00027248135302215815,-0.000627344474196434
1690841431224573700,9.37257373046875,-0.0005931067280471325,-0.0011989950435236096,-0.0014446694403886795
1690841431234614500,9.382614501953125,-0.00043682893738150597,0.00012462912127375603,-0.0006563439965248108
1690841431244684800,9.392684814453125,-0.00044774776324629784,-0.00016352487727999687,0.0006249025464057922
1690841431254725600,9.4027255859375,-0.0005133352242410183,-0.001915576634928584,-0.00040856748819351196
1690841431264765400,9.412765380859375,-0.0010427716188132763,-0.0017469984013587236,-0.0008309446275234222
1690841431274805500,9.422805419921875,-0.0011246628127992153,0.0010376623831689358,0.00029372982680797577
1690841431284845600,9.432845458984374,0.00039120856672525406,-0.0001855276059359312,-0.00017578527331352234
1690841431294886700,9.44288671875,-0.00032629910856485367,0.001341140829026699,-0.0011410228908061981
1690841431304926700,9.4529267578125,-0.0013585402630269527,0.0014924084534868598,-0.000059779733419418335
1690841431314966800,9.462966796875,0.0009020401630550623,0.00040002050809562206,0.0005144253373146057
1690841431325007600,9.473007568359375,0.00035023316740989685,0.0019702203571796417,-0.000688258558511734
1690841431335047700,9.483047607421875,0.001469719223678112,0.0006127434317022562,-0.00032020360231399536
1690841431345087500,9.49308740234375,0.001499013975262642,0.0010084891691803932,-0.0011958498507738113
1690841431355127600,9.50312744140625,0.0006599803455173969,0.000024635926820337772,-0.00034838728606700897
1690841431365168600,9.513168701171875,-0.0012391195632517338,-0.0007785733323544264,-0.0006759557873010635
1690841431375239700,9.52323974609375,-0.00038060685619711876,-0.0007034260779619217,-0.0010048728436231613
1690841431385279700,9.53327978515625,-0.00015050964429974556,-0.0013953153975307941,0.0005786418914794922
1690841431395320300,9.5433203125,0.0009372432250529528,0.0004966524429619312,0.00026324763894081116
1690841431405360400,9.5533603515625,-0.00010911282151937485,-0.001563302706927061,-0.000921592116355896
1690841431415401500,9.5634013671875,-0.0004940489307045937,-0.0007136940257623792,0.0016565117985010147
1690841431425441300,9.573441162109376,-0.00012946221977472305,0.000036518555134534836,0.001710573211312294
1690841431435481300,9.5834814453125,0.0018347010482102633,0.0017694374546408653,0.00041352957487106323
1690841431445522400,9.5935224609375,-0.0003176657482981682,0.0007979163201525807,0.00012351199984550476
1690841431455562200,9.603562255859375,0.00047426624223589897,-0.00154435308650136,-0.0010546520352363586
1690841431465602300,9.613602294921876,0.0009815983939915895,-0.000330750597640872,0.0010186191648244858
1690841431475642400,9.623642333984375,-0.0015685008838772774,0.0014173501404002309,-0.00036377832293510437
1690841431485683500,9.633683349609376,-0.0007791398093104362,0.000024783192202448845,-0.0004252977669239044
1690841431495723500,9.6437236328125,0.0006273058243095875,0.00006231421139091253,0.0003195330500602722
1690841431505763300,9.653763427734376,-0.001668072771281004,-0.0014516927767544985,0.0008598882704973221
1690841431515834400,9.66383447265625,-0.0000943508930504322,-0.0008652305696159601,0.0006202459335327148
1690841431525874400,9.67387451171875,0.0008300321642309427,0.000735329114831984,-0.00021092593669891357
1690841431535915300,9.683915283203126,-0.001500481739640236,0.0002763171214610338,0.00048012472689151764
1690841431545955300,9.693955322265625,0.0008569483179599047,0.0008262598421424627,-0.0001244116574525833
1690841431555995400,9.703995361328126,0.0007611983455717564,0.001893770880997181,-0.0007842313498258591
1690841431566035200,9.71403515625,0.0021068935748189688,0.0009137276792898774,-0.000028692185878753662
1690841431576076300,9.724076171875,0.0005658729933202267,-0.0010266646277159452,-0.0010453760623931885
1690841431586116400,9.734116455078125,-0.001929508987814188,0.0004732278175652027,-0.0009854547679424286
1690841431596156400,9.744156494140626,-0.00032469769939780235,0.0005588479107245803,-0.00018417276442050934
1690841431606197200,9.754197265625,-0.0010189837776124477,-0.0031834258697927,0.0007450040429830551
1690841431616237300,9.7642373046875,0.0010323149617761374,-0.0000325632281601429,-0.000049874186515808105
1690841431626277400,9.77427734375,0.0003966186195611954,0.0013666616287082434,0.0018276534974575043
1690841431636317200,9.784317138671875,0.0001649400219321251,-0.0009974637068808079,0.001943044364452362
1690841431646388200,9.79438818359375,-0.00006568944081664085,0.0002928378526121378,-0.0013512857258319855
1690841431656428300,9.80442822265625,0.00032569561153650284,-0.0007796760182827711,0.0009721517562866211
1690841431666469400,9.814469482421876,0.00024313759058713913,-0.0006116307340562344,0.0002674795687198639
1690841431676509400,9.824509521484375,0.0001406623050570488,0.0012539101298898458,-0.0008354447782039642
1690841431686549500,9.834549560546876,0.0005795513279736042,0.0008642897009849548,0.000657523050904274
1690841431696590300,9.84459033203125,-0.0005894238129258156,0.0016502240905538201,0.0006859079003334045
1690841431706630400,9.85463037109375,-0.0012046140618622303,-0.00046405941247940063,0.001025194302201271
1690841431716670200,9.864670166015625,0.00003133388236165047,0.00219274521805346,-0.0019355379045009613
1690841431726710300,9.874710205078125,-0.0017820126377046108,-0.0018627163954079151,-0.0008020959794521332
1690841431736751400,9.88475146484375,0.0009208857081830502,-0.0004967364948242903,0.0007621124386787415
1690841431746791400,9.89479150390625,0.0014425988774746656,-0.0013257786631584167,0.0004289504140615463
1690841431756831500,9.90483154296875,0.00030668918043375015,0.0007130232406780124,-0.000055383890867233276
1690841431766872300,9.914872314453126,-0.0005367337726056576,0.0005505704320967197,0.0010615475475788116
1690841431776942300,9.9249423828125,-0.000766492448747158,0.0005802749656140804,0.0009010583162307739
1690841431786983200,9.934983154296875,0.0004303320311009884,0.000980814453214407,-0.0021437332034111023
1690841431797023200,9.945023193359376,0.00020644022151827812,0.00015469023492187262,0.0006229672580957413
1690841431807063300,9.955063232421875,-0.0004851827397942543,0.0008143552113324404,0.0008245687931776047
1690841431817104400,9.9651044921875,-0.000080096535384655,-0.0008517482783645391,0.0015948303043842316
1690841431827144400,9.97514453125,-0.0007458869367837906,-0.00014388002455234528,-0.0008275825530290604
1690841431837184500,9.9851845703125,0.00041684461757540703,-0.0001935295294970274,-0.0002940520644187927
1690841431847224600,9.995224609375,0.0004828912205994129,-0.004338206723332405,-0.00040457211434841156
1690841431857265400,10.005265380859376,0.0008073002099990845,-0.0011463956907391548,0.0008403975516557693
1690841431867305200,10.01530517578125,0.0001649460755288601,0.001551652792841196,-0.000505298376083374
1690841431877345300,10.02534521484375,0.0009918692521750927,-0.0013296396937221289,0.0017412621527910233
1690841431887386400,10.035386474609375,-0.0007762033492326736,0.0006778511451557279,0.000592375174164772
1690841431897426400,10.045426513671876,-0.00043880147859454155,0.0020858014468103647,-0.00011922232806682587
1690841431907497500,10.05549755859375,0.0007465719245374203,0.0009305222192779183,-0.00008220411837100983
1690841431917537500,10.06553759765625,-0.00023840460926294327,0.0026796539314091206,0.0005743559449911118
1690841431927577300,10.075577392578126,-0.0010117869824171066,0.00014272669795900583,-0.0003042202442884445
1690841431937617400,10.085617431640625,0.0005948394536972046,0.0027867548633366823,-0.0005850605666637421
1690841431947658200,10.095658203125,-0.0018446161411702633,-0.0011430056765675545,0.00023306161165237427
1690841431957698300,10.1056982421875,-0.0007105967961251736,-0.00006931670941412449,-0.00037070736289024353
1690841431967738400,10.11573828125,0.0005368278361856937,0.0009794362122192979,-0.0007086619734764099
1690841431977779500,10.125779541015625,0.00009126495569944382,-0.0007774126715958118,0.001637762412428856
1690841431987819500,10.135819580078126,-0.0008509615436196327,0.0006162194767966866,-0.0019982513040304184
1690841431997859600,10.145859619140625,0.0006593102589249611,-0.0007798303849995136,-0.0008339323103427887
1690841432007899400,10.1558994140625,-0.0001684003509581089,0.0004771816311404109,-0.0008850656449794769
1690841432017940200,10.165940185546875,0.0018663238734006882,-0.0020223490428179502,-0.0020411796867847443
1690841432027980300,10.175980224609376,-0.0009417133405804634,-0.0006071452517062426,-0.0009950902312994003
1690841432038051300,10.18605126953125,0.0005939225666224957,0.000320413033477962,0.001443970948457718
1690841432048091400,10.19609130859375,-7.613562047481537e-7,0.0013132395688444376,0.0015118811279535294
1690841432058131500,10.20613134765625,0.0008141407743096352,-0.0006510938983410597,0.0018133260309696198
1690841432068172500,10.216172607421875,0.0018213482107967138,0.000290866126306355,-0.0006745997816324234
1690841432078212400,10.22621240234375,0.0004077511839568615,-0.00038494146429002285,0.002032322809100151
1690841432088252400,10.23625244140625,0.0004152078181505203,0.001759968581609428,-0.0006135273724794388
1690841432098292200,10.246292236328125,-0.00026616547256708145,-0.00012191594578325748,0.0009384658187627792
1690841432108333300,10.256333251953125,-0.0008201031014323235,0.0005633153486996889,0.0010180957615375519
1690841432118373400,10.266373291015626,0.0004693204537034035,-0.0005548549816012383,-0.0006675664335489273
1690841432128413400,10.276413330078125,-0.001805019099265337,-0.0010605892166495323,-0.0007296185940504074
1690841432138454500,10.28645458984375,-0.00023273425176739693,-0.0003812031354755163,-0.00011509843170642853
1690841432148494600,10.29649462890625,0.000024260487407445908,-0.0008850730955600739,-0.0002626366913318634
1690841432158534400,10.306534423828126,-0.0011695814318954945,-0.000656133284792304,-0.0001035686582326889
1690841432168574200,10.31657421875,-0.0007008654065430164,0.001316470094025135,0.000020802021026611328
1690841432178645200,10.326645263671875,-0.0008202963508665562,0.0000992197310552001,-0.002227241173386574
1690841432188686300,10.336686279296876,-0.0008743586950004101,-0.0005375421606004238,0.0007925163954496384
1690841432198726400,10.346726318359375,0.0010405853390693665,-0.0005888319574296474,0.00004606880247592926
1690841432208766500,10.356766357421876,0.000683189369738102,0.0005826926790177822,0.000043138861656188965
1690841432218806300,10.36680615234375,0.0007147910073399544,-0.0004372128751128912,-0.0003435146063566208
1690841432228847400,10.376847412109376,0.0007707173936069012,0.00048637145664542913,-0.00058000348508358
1690841432238887400,10.386887451171875,-0.0004483186639845371,-0.0024607772938907146,0.0011261962354183197
1690841432248927200,10.39692724609375,-0.0019969469867646694,-0.00011320086196064949,0.0002444237470626831
1690841432258968300,10.40696826171875,-0.0012383395805954933,0.00044842890929430723,-0.0009792502969503403
1690841432269008400,10.41700830078125,0.0012929949443787336,-0.00003040744923055172,0.0006013363599777222
1690841432279048400,10.42704833984375,-0.0008721454069018364,0.00004175095818936825,-0.0009698793292045593
1690841432289088300,10.437088134765625,-0.000043369829654693604,0.000008727889508008957,-0.0005190074443817139
1690841432299129600,10.447129638671875,-0.00014094170182943344,0.00041406380478292704,-0.00013609230518341064
1690841432309199400,10.457199462890625,-0.0002517290413379669,0.0007935642497614026,0.0019638091325759888
1690841432319240400,10.467240478515626,0.0009920638985931873,-0.0016489787958562374,-0.00012952275574207306
1690841432329280300,10.4772802734375,0.0009718239307403564,0.0024597460869699717,0.002087293192744255
1690841432339320300,10.4873203125,-0.0008349986746907234,0.00014755164738744497,0.002714483067393303
1690841432349361400,10.497361328125,-0.0003468412905931473,-0.000040733953937888145,0.0020087454468011856
1690841432359401500,10.5074013671875,0.0005358858034014702,0.00014396698679775,0.001550743356347084
1690841432369441300,10.517441162109375,0.0005119172856211662,-0.0013420768082141876,0.000651925802230835
1690841432379481300,10.5274814453125,0.000022716820240020752,0.0005285911029204726,-0.0003062169998884201
1690841432389522400,10.5375224609375,-0.0007938086055219173,0.0005467005539685488,0.000543598085641861
1690841432399554300,10.54755419921875,-0.0006659524515271187,-0.0006895472761243582,0.0001574382185935974
1690841432409594400,10.557594482421875,0.0006898632273077965,0.0000670567387714982,0.0008525233715772629
1690841432419635200,10.56763525390625,-0.0002983296290040016,-0.0006146037485450506,-0.0009872037917375565
1690841432429675300,10.57767529296875,-0.000952934380620718,-0.0003328411839902401,0.00044557638466358185
1690841432439746000,10.58774609375,0.00007625389844179153,0.0004784981720149517,0.0006540659815073013
1690841432449786000,10.5977861328125,-0.00013333698734641075,-0.0016395137645304203,0.0014048106968402863
1690841432459826200,10.607826171875,0.0002128886990249157,0.00033082033041864634,0.00074058398604393
1690841432469867300,10.6178671875,0.0010509856510907412,0.0011279045138508081,-0.0006378684192895889
1690841432479907300,10.6279072265625,-0.0016033719293773174,-0.0006851530633866787,0.0009419843554496765
1690841432489947400,10.637947509765626,-0.00012185564264655113,0.0000014100223779678345,-0.0011464674025774002
1690841432499987200,10.6479873046875,-0.00009415159001946449,-0.0005603802856057882,0.0005775243043899536
1690841432510028000,10.658028076171876,0.0001940024085342884,-0.0011830274015665054,0.0006395764648914337
1690841432520068000,10.668068115234375,0.0006059645675122738,-0.0005871166940778494,0.0014612562954425812
1690841432530108200,10.678108154296876,-0.00045850081369280815,0.00008133682422339916,-0.00031134486198425293
1690841432540149200,10.688149169921875,0.0009279754012823105,0.001445976085960865,-0.0009124055504798889
1690841432550189300,10.698189208984376,0.00034953653812408447,0.0014608897035941482,0.00011157989501953125
1690841432560229400,10.7082294921875,0.0008535147644579411,-0.00024906289763748646,-0.0017613042145967484
1690841432570300400,10.718300537109375,0.0005933241918683052,0.0008004889823496342,-0.0004502292722463608
1690841432580340200,10.72834033203125,-0.000635975506156683,-0.0010726219043135643,0.001414785161614418
1690841432590380300,10.73838037109375,0.0003667045384645462,0.001046188990585506,0.00025657564401626587
1690841432600421000,10.748421142578126,-0.0003745332360267639,-0.000622663414105773,0.000019380822777748108
1690841432610461200,10.758461181640625,-0.0007319296710193157,-0.00003836583346128464,0.00011605210602283478
1690841432620501200,10.768501220703126,0.0006712418980896473,-0.0002872289624065161,-0.00011403113603591919
1690841432630542300,10.778542236328125,-0.0009980276226997375,0.0007966775447130203,0.00026227347552776337
1690841432640582400,10.78858251953125,-0.0018764976412057877,-0.00039351312443614006,0.00014581531286239624
1690841432650622200,10.798622314453125,-0.0001102890819311142,-0.00010855472646653652,-0.0008467454463243484
1690841432660662300,10.808662353515626,-0.0009119529277086258,-0.0013271328061819077,0.0002345256507396698
1690841432670703000,10.818703125,0.0011402787640690804,-0.00015587452799081802,0.0006638281047344208
1690841432680743200,10.8287431640625,-0.0016055521555244923,-0.0021310998126864433,0.0016704164445400238
1690841432690783200,10.838783203125,0.00013402430340647697,-0.0007276139222085476,0.0006123427301645279
1690841432700824300,10.84882421875,0.0002566790208220482,0.0028541316278278828,-0.001094970852136612
1690841432710894300,10.858894287109376,-0.0003481251187622547,-0.0002828058786690235,0.0008930787444114685
1690841432720935400,10.868935302734375,-0.000187775120139122,0.001791150658391416,0.0006048474460840225
1690841432730975200,10.878975341796876,-0.0009180139750242233,-0.0007279333658516407,-0.0005906447768211365
1690841432741015300,10.889015380859375,0.00030830875039100647,-0.0010726642794907093,-0.0004440266638994217
1690841432751055400,10.899055419921876,0.0008004605770111084,0.00010205607395619154,-0.000057602301239967346
1690841432761096200,10.90909619140625,-0.0004052920266985893,-0.00024627335369586945,0.0007809046655893326
1690841432771136300,10.91913623046875,-0.0017288830131292343,-0.002529134973883629,-0.0006042048335075378
1690841432781176300,10.92917626953125,0.0004933830350637436,0.0006533454870805144,0.001460433006286621
1690841432791217400,10.939217529296876,-0.0005071666091680527,-0.001576519338414073,0.0019174311310052872
1690841432801257200,10.94925732421875,0.00047728000208735466,0.0007299649296328425,0.000819401815533638
1690841432811297300,10.95929736328125,0.000016819685697555542,-0.000018117018043994904,0.0000955536961555481
1690841432821337300,10.96933740234375,-0.00048645539209246635,-0.00007202639244496822,-0.0006331056356430054
1690841432831378200,10.979378173828126,-0.0008007083088159561,0.00029176136013120413,0.0016407016664743423
1690841432841449200,10.98944921875,0.001113794045522809,-0.001059838803485036,-0.0014096088707447052
1690841432851489300,10.9994892578125,0.0018845128361135721,-0.0004049676936119795,-0.0005845613777637482
1690841432861529300,11.009529296875,0.0004405309446156025,0.0018113707192242146,0.0002911817282438278
1690841432871569200,11.019569091796875,0.001763056730851531,0.008178455755114555,-0.10530954599380493
1690841432881610200,11.0296103515625,0.00230810628272593,-0.21869157254695892,-0.02309400774538517
1690841432891650300,11.039650390625,0.007784097921103239,0.029576828703284264,-0.07501872628927231
1690841432901690400,11.0496904296875,0.002434444846585393,0.1316474825143814,-0.056452564895153046
1690841432911731200,11.059731201171875,-0.013825484551489353,-0.05977947264909744,-0.0248312596231699
1690841432921771300,11.069771240234376,-0.01960161328315735,-0.0716320052742958,-0.012558571994304657
1690841432931811300,11.079811279296875,-0.021130800247192383,-0.09355781227350235,0.003949563950300217
1690841432941851100,11.08985107421875,-0.014134630560874939,-0.06265424937009811,0.007601061835885048
1690841432951892200,11.099892333984375,-0.0043046376667916775,-0.027225684374570847,0.01049804873764515
1690841432961932300,11.109932373046876,0.005551232490688562,0.0056408969685435295,0.01763935387134552
1690841432972003300,11.12000341796875,0.013868018053472042,0.04155522212386131,0.021479632705450058
1690841432982043400,11.13004345703125,0.017394065856933594,0.06934329867362976,0.025703025981783867
1690841432992083200,11.140083251953126,0.015550890937447548,0.07986145466566086,0.029796037822961807
1690841433002124300,11.150124267578125,0.008973460644483566,0.08120766282081604,0.03536714240908623
1690841433012164400,11.160164306640626,0.002264691051095724,0.06328751891851425,0.03629232570528984
1690841433022204200,11.1702041015625,-0.003966106101870537,0.034231528639793396,0.03708256036043167
1690841433032244200,11.180244140625,-0.008446075953543186,0.000831494340673089,0.037220511585474014
1690841433042285300,11.190285400390625,-0.005746031645685434,-0.02734401263296604,0.03300750255584717
1690841433052325400,11.200325439453126,-0.0035297484137117863,-0.052148159593343735,0.028279326856136322
1690841433062365200,11.210365234375,0.0006803823634982109,-0.058500032871961594,0.02113950066268444
1690841433072406300,11.22040625,0.0013616187497973442,-0.056277357041835785,0.014776143245398998
1690841433082446300,11.2304462890625,0.0012401731219142675,-0.040263112634420395,0.006125634536147118
1690841433092486100,11.240486083984376,0.0001080632209777832,-0.020700596272945404,-0.003985323011875153
1690841433102557200,11.25055712890625,-0.0007530585862696171,0.00532643124461174,-0.009957298636436462
1690841433112597200,11.26059716796875,-0.0014625247567892075,0.0260186605155468,-0.017751039937138557
1690841433122638300,11.270638427734376,-0.0012177452445030212,0.03901577740907669,-0.024913320317864418
1690841433132678100,11.28067822265625,0.0011109227780252695,0.04347763955593109,-0.028138672932982445
1690841433142718200,11.29071826171875,0.0024384865537285805,0.03925000876188278,-0.028212862089276314
1690841433152758300,11.30075830078125,0.0026765731163322926,0.023949885740876198,-0.028934044763445854
1690841433162799400,11.31079931640625,0.0048586102202534676,0.007314526941627264,-0.029267242178320885
1690841433172839200,11.320839111328125,0.003095597494393587,-0.00881916843354702,-0.02617557905614376
1690841433182879200,11.330879150390626,-0.0014995983801782131,-0.02702617645263672,-0.022750945761799812
1690841433192920300,11.34092041015625,-0.002874588593840599,-0.03321536257863045,-0.01570369116961956
1690841433202960100,11.350960205078126,-0.0038261115550994873,-0.03525935485959053,-0.010862138122320175
1690841433213000200,11.361000244140625,-0.0032306285575032234,-0.0285726897418499,-0.006525980308651924
1690841433223040300,11.371040283203126,-0.002328616101294756,-0.0189400352537632,-0.0009256172925233841
1690841433233111000,11.381111083984376,-0.0005078129470348358,-0.004679872654378414,0.002326101064682007
1690841433243151000,11.391151123046875,0.0015808616299182177,0.010463686659932137,0.009058529511094093
1690841433253192200,11.401192138671876,0.002650387119501829,0.020908072590827942,0.012202657759189606
1690841433263232300,11.411232177734375,0.0030380729585886,0.025925494730472565,0.01383921504020691
1690841433273272300,11.421272216796876,0.0025927925016731024,0.02697105146944523,0.01865554228425026
1690841433283313200,11.431313232421875,0.0002009640447795391,0.021841825917363167,0.01995059847831726
1690841433293353200,11.441353271484376,-0.000011023599654436111,0.013500271365046501,0.023158108815550804
1690841433303393000,11.45139306640625,-0.0014034337364137173,0.0013292839284986258,0.021948006004095078
1690841433313433000,11.46143310546875,-0.0007355129346251488,-0.011658420786261559,0.0213602464646101
1690841433323474200,11.47147412109375,-0.00098507571965456,-0.01668698713183403,0.01752483658492565
1690841433333514200,11.48151416015625,-0.0012545878998935223,-0.018563982099294662,0.015976209193468094
1690841433343554300,11.49155419921875,0.000013483688235282898,-0.019170712679624557,0.012589911930263042
1690841433353595100,11.50159521484375,0.00047953706234693527,-0.01325902622193098,0.007465456612408161
1690841433363635200,11.51163525390625,-0.000834594015032053,-0.004285156261175871,0.0014788005501031876
1690841433373706200,11.521706298828125,0.000549717340618372,0.003457718063145876,-0.0024008937180042267
1690841433383746000,11.53174609375,0.0002102414146065712,0.008739097975194454,-0.006855489686131477
1690841433393778400,11.5417783203125,-0.00042465608566999435,0.015268903225660324,-0.011483797803521156
1690841433403818200,11.551818359375,-0.0005389498546719551,0.015286235138773918,-0.012519540265202522
1690841433413859000,11.561859130859375,0.00025094393640756607,0.012101894244551659,-0.014240207150578499
1690841433423899100,11.571899169921876,-0.001141758169978857,0.005621022544801235,-0.01600257121026516
1690841433433939200,11.581939208984375,0.0005355007015168667,-0.002040359191596508,-0.01725904829800129
1690841433443980300,11.591980224609374,0.0010951657313853502,-0.005862460006028414,-0.014744078740477562
1690841433454020400,11.602020263671875,-0.0008960799314081669,-0.010414334014058113,-0.013355506584048271
1690841433464060400,11.612060302734376,-0.001997321378439665,-0.012483330443501472,-0.010974032804369926
1690841433474100200,11.622100341796875,-0.0010444424115121365,-0.0125347301363945,-0.007345208898186684
1690841433484141300,11.632141357421874,-0.0012919548898935318,-0.009922110475599766,-0.006191456690430641
1690841433494181000,11.64218115234375,-0.00032629258930683136,-0.00402081198990345,-0.005492642521858215
1690841433504252200,11.652252197265625,0.00039843935519456863,0.00026895967312157154,-0.0002972688525915146
1690841433514292200,11.662292236328126,-0.00018825475126504898,0.006675459910184145,0.0024998486042022705
1690841433524332300,11.672332275390625,0.0023421093355864286,0.007080362644046545,0.0050600431859493256
1690841433534373400,11.682373291015624,-0.0006752521730959415,0.011566458269953728,0.00731281191110611
1690841433544413400,11.692413330078125,0.0001045851968228817,0.009119370952248573,0.010792164131999016
1690841433554453200,11.702453369140626,0.001891300082206726,0.0070373122580349445,0.011538381688296795
1690841433564494000,11.712494140625,-0.00039297807961702347,0.0009464483009651303,0.012649365700781345
1690841433574534100,11.7225341796875,0.0006810748018324375,-0.0017286969814449549,0.013502376154065132
1690841433584574200,11.73257421875,0.0006977091543376446,-0.006662683095782995,0.011026802472770214
1690841433594614300,11.7426142578125,-0.00008472753688693047,-0.007175608072429895,0.010203619487583637
1690841433604655400,11.7526552734375,0.0001879362389445305,-0.007249889429658651,0.007750809192657471
