time,seconds_elapsed,z,y,x
1690839614493438500,0.0334384765625,-0.9906768798828125,-0.01409912109375,-0.005279541015625
1690839614503447600,0.043447509765625,-0.993255615234375,-0.02557373046875,-0.0055694580078125
1690839614513457700,0.053457763671875,-0.9927520751953125,-0.0297698974609375,-0.002044677734375
1690839614523497500,0.06349755859375,-0.9918212890625,-0.02642822265625,0.0007476806640625
1690839614533538600,0.07353857421875,-0.99066162109375,-0.0181732177734375,0.0053863525390625
1690839614543608300,0.0836083984375,-0.9858551025390625,-0.0048828125,0.0081939697265625
1690839614553649400,0.0936494140625,-0.97906494140625,0.0094451904296875,0.0063629150390625
1690839614563689500,0.103689453125,-0.970458984375,0.022491455078125,0.0019989013671875
1690839614573729500,0.1137294921875,-0.9650115966796875,0.033172607421875,-0.00164794921875
1690839614583770600,0.1237705078125,-0.962890625,0.0390472412109375,-0.00244140625
1690839614593810400,0.133810546875,-0.961212158203125,0.0404510498046875,-0.0012359619140625
1690839614603850500,0.1438505859375,-0.9628753662109375,0.0382080078125,0.000946044921875
1690839614613890300,0.153890380859375,-0.965789794921875,0.031402587890625,0.00372314453125
1690839614623931400,0.163931396484375,-0.972320556640625,0.0214996337890625,0.005523681640625
1690839614633971500,0.173971435546875,-0.9775238037109375,0.009796142578125,0.0052032470703125
1690839614644011500,0.184011474609375,-0.9810333251953125,-0.0012969970703125,0.0022735595703125
1690839614654052600,0.194052490234375,-0.9835052490234375,-0.009857177734375,0.000396728515625
1690839614664092400,0.204092529296875,-0.9844970703125,-0.0136871337890625,-0.00079345703125
1690839614674132500,0.214132568359375,-0.9841766357421875,-0.0126953125,-0.001068115234375
1690839614684172300,0.22417236328125,-0.98291015625,-0.0078125,-0.000091552734375
1690839614694232800,0.23423291015625,-0.9803619384765625,0.0003662109375,0.001556396484375
1690839614704303000,0.24430322265625,-0.976715087890625,0.00927734375,0.003021240234375
1690839614714344000,0.254343994140625,-0.9744720458984375,0.0176849365234375,0.0037994384765625
1690839614724383700,0.2643837890625,-0.9708099365234375,0.024017333984375,0.002960205078125
1690839614734423800,0.274423828125,-0.9681243896484375,0.0292205810546875,0.0014801025390625
1690839614744465000,0.28446484375,-0.967254638671875,0.029571533203125,0.0005035400390625
1690839614754505000,0.2945048828125,-0.9693450927734375,0.0279541015625,0.00042724609375
1690839614764545000,0.304544921875,-0.972076416015625,0.02392578125,0.0014801025390625
1690839614774585000,0.314585205078125,-0.9737091064453125,0.016082763671875,0.001708984375
1690839614784626000,0.3246259765625,-0.9764251708984375,0.0087432861328125,0.001617431640625
1690839614794666000,0.334666015625,-0.9788055419921875,0.0025787353515625,0.0013275146484375
1690839614804705800,0.344705810546875,-0.9808502197265625,-0.001983642578125,0.0015106201171875
1690839614814747000,0.354746826171875,-0.981292724609375,-0.0035247802734375,0.0013885498046875
1690839614824787000,0.364786865234375,-0.9818878173828125,-0.0024261474609375,0.001068115234375
1690839614834827000,0.374826904296875,-0.97894287109375,-0.000213623046875,0.0004119873046875
1690839614844867000,0.3848671875,-0.9782867431640625,0.005096435546875,0.001129150390625
1690839614854938000,0.394938232421875,-0.97564697265625,0.011871337890625,0.001434326171875
1690839614864979000,0.40497900390625,-0.97357177734375,0.017486572265625,0.0023651123046875
1690839614875018800,0.415018798828125,-0.97210693359375,0.02032470703125,0.0024261474609375
1690839614885058800,0.425058837890625,-0.9712677001953125,0.022552490234375,0.001434326171875
1690839614895099000,0.435098876953125,-0.971923828125,0.02203369140625,0.00048828125
1690839614905140000,0.445139892578125,-0.9726409912109375,0.0197296142578125,0.0010528564453125
1690839614915180000,0.455179931640625,-0.9745025634765625,0.01531982421875,0.001068115234375
1690839614925220000,0.46522021484375,-0.97698974609375,0.011322021484375,0.0013275146484375
1690839614935261000,0.475260986328125,-0.9777984619140625,0.007110595703125,0.001953125
1690839614945301000,0.485301025390625,-0.97979736328125,0.0038604736328125,0.0013275146484375
1690839614955340800,0.4953408203125,-0.98040771484375,0.0019073486328125,0.001861572265625
1690839614965380900,0.505380859375,-0.97998046875,0.0026092529296875,0.001739501953125
1690839614975422000,0.515421875,-0.9790802001953125,0.00433349609375,0.000823974609375
1690839614985462000,0.5254619140625,-0.979278564453125,0.0062255859375,0.001434326171875
1690839614995502000,0.535502197265625,-0.9760589599609375,0.011016845703125,0.0020904541015625
1690839615005542100,0.545542236328125,-0.974822998046875,0.0144500732421875,0.0011749267578125
1690839615015613000,0.555613037109375,-0.9751739501953125,0.01678466796875,0.001068115234375
1690839615025653800,0.56565380859375,-0.974334716796875,0.0178985595703125,0.0012664794921875
1690839615035693800,0.57569384765625,-0.974365234375,0.01812744140625,0.0016021728515625
1690839615045734000,0.58573388671875,-0.974853515625,0.016143798828125,0.0013580322265625
1690839615055774000,0.59577392578125,-0.976043701171875,0.014068603515625,0.0010986328125
1690839615065815000,0.60581494140625,-0.9767303466796875,0.011077880859375,0.00152587890625
1690839615075855000,0.615855224609375,-0.977783203125,0.00823974609375,0.00238037109375
1690839615085895200,0.625895263671875,-0.9786529541015625,0.00628662109375,0.0016937255859375
1690839615095936000,0.63593603515625,-0.979522705078125,0.0053863525390625,0.0012054443359375
1690839615105975800,0.645975830078125,-0.980743408203125,0.0045318603515625,0.0025634765625
1690839615116015900,0.656015869140625,-0.9793701171875,0.0067291259765625,0.0006561279296875
1690839615126056000,0.666055908203125,-0.9780120849609375,0.0091552734375,0.001617431640625
1690839615136097000,0.676096923828125,-0.9765625,0.011474609375,0.0019073486328125
1690839615146137000,0.68613720703125,-0.9766845703125,0.013702392578125,0.001556396484375
1690839615156177200,0.69617724609375,-0.9769287109375,0.01513671875,0.0012969970703125
1690839615166248000,0.706248046875,-0.976104736328125,0.0147857666015625,0.0003509521484375
1690839615176288000,0.7162880859375,-0.9759063720703125,0.0153656005859375,0.001312255859375
1690839615186328800,0.726328857421875,-0.9764556884765625,0.0133209228515625,0.0022430419921875
1690839615196369000,0.736368896484375,-0.9775543212890625,0.0115203857421875,0.0012664794921875
1690839615206409000,0.746408935546875,-0.9782562255859375,0.0105743408203125,0.0016632080078125
1690839615216449000,0.756448974609375,-0.978912353515625,0.008758544921875,0.0018463134765625
1690839615226490000,0.766489990234375,-0.978515625,0.0080718994140625,0.001373291015625
1690839615236530000,0.776530029296875,-0.97918701171875,0.0079498291015625,0.0017242431640625
1690839615246570000,0.786570068359375,-0.9794158935546875,0.00799560546875,0.00189208984375
1690839615256610800,0.79661083984375,-0.9793548583984375,0.00921630859375,0.0008544921875
1690839615266651000,0.80665087890625,-0.978424072265625,0.0102386474609375,0.0016021728515625
1690839615276691000,0.81669091796875,-0.977783203125,0.011474609375,0.002197265625
1690839615286731000,0.82673095703125,-0.9773712158203125,0.012786865234375,0.0015106201171875
1690839615296772000,0.836772216796875,-0.977569580078125,0.0139312744140625,0.0013580322265625
1690839615306812200,0.846812255859375,-0.9766082763671875,0.0135498046875,0.002197265625
1690839615316883000,0.856883056640625,-0.9772796630859375,0.0130615234375,0.00152587890625
1690839615326923000,0.866923095703125,-0.9777374267578125,0.011993408203125,0.001312255859375
1690839615336962800,0.876962890625,-0.978607177734375,0.011199951171875,0.0023040771484375
1690839615347004000,0.88700390625,-0.978912353515625,0.0102386474609375,0.0017547607421875
1690839615357044000,0.8970439453125,-0.9786834716796875,0.0092926025390625,0.0013885498046875
1690839615367084000,0.907083984375,-0.9790802001953125,0.0093841552734375,0.00128173828125
1690839615377125000,0.917125,-0.980560302734375,0.0091094970703125,0.0007781982421875
1690839615387165000,0.9271650390625,-0.97930908203125,0.0096893310546875,0.0009918212890625
1690839615397205000,0.937205078125,-0.97991943359375,0.009918212890625,0.001251220703125
1690839615407244800,0.947244873046875,-0.9795379638671875,0.0117034912109375,0.0013427734375
1690839615417286000,0.957285888671875,-0.9782867431640625,0.012237548828125,0.000701904296875
1690839615427326000,0.967325927734375,-0.97760009765625,0.011962890625,0.0009918212890625
1690839615437366000,0.977365966796875,-0.9780120849609375,0.0126800537109375,0.00079345703125
1690839615447407000,0.987406982421875,-0.97808837890625,0.01287841796875,0.0009613037109375
1690839615457447200,0.997447265625,-0.977752685546875,0.0115814208984375,0.0011444091796875
1690839615467487000,1.007487060546875,-0.97918701171875,0.0111083984375,0.0011444091796875
1690839615477558000,1.01755810546875,-0.978668212890625,0.011322021484375,0.000732421875
1690839615487597800,1.027597900390625,-0.978668212890625,0.0109405517578125,0.0012359619140625
1690839615497638000,1.037637939453125,-0.9801025390625,0.010345458984375,0.0016326904296875
1690839615507679000,1.047678955078125,-0.9798431396484375,0.0102081298828125,0.00079345703125
1690839615517719000,1.057718994140625,-0.9791107177734375,0.009796142578125,0.001434326171875
1690839615527758800,1.0677587890625,-0.9786529541015625,0.01092529296875,0.001922607421875
1690839615537800000,1.077800048828125,-0.9786834716796875,0.0106201171875,0.00177001953125
1690839615547840000,1.087840087890625,-0.9794464111328125,0.0113677978515625,0.00152587890625
1690839615557879800,1.0978798828125,-0.979217529296875,0.0113677978515625,0.001739501953125
1690839615567919900,1.107919921875,-0.978515625,0.0120849609375,0.0015411376953125
1690839615577961000,1.1179609375,-0.97900390625,0.012237548828125,0.00079345703125
1690839615588001000,1.1280009765625,-0.979705810546875,0.011138916015625,0.0014190673828125
1690839615598041000,1.138041015625,-0.9800872802734375,0.0108642578125,0.000885009765625
1690839615608082200,1.148082275390625,-0.9797210693359375,0.0119476318359375,0.0015106201171875
1690839615618122000,1.1581220703125,-0.97991943359375,0.011688232421875,0.0020294189453125
1690839615628193000,1.168193115234375,-0.9795684814453125,0.0111083984375,0.001617431640625
1690839615638232800,1.17823291015625,-0.9779205322265625,0.0110015869140625,0.001220703125
1690839615648273000,1.18827294921875,-0.97833251953125,0.0106964111328125,0.0010528564453125
1690839615658313000,1.19831298828125,-0.9788818359375,0.0111236572265625,0.00152587890625
1690839615668354000,1.20835400390625,-0.9788970947265625,0.01025390625,0.001495361328125
1690839615678393900,1.218393798828125,-0.979217529296875,0.0103607177734375,0.0012664794921875
1690839615688434000,1.228433837890625,-0.979339599609375,0.0106048583984375,0.0015106201171875
1690839615698438700,1.238438720703125,-0.9791717529296875,0.0103759765625,0.001800537109375
1690839615708478700,1.248478759765625,-0.979888916015625,0.01068115234375,0.00164794921875
1690839615718518800,1.258518798828125,-0.9796905517578125,0.011199951171875,0.00079345703125
1690839615728558800,1.268558837890625,-0.979339599609375,0.0107421875,0.0012664794921875
1690839615738599700,1.278599609375,-0.97991943359375,0.0114288330078125,0.002044677734375
1690839615748639500,1.288639404296875,-0.979248046875,0.0116729736328125,0.001953125
1690839615758679600,1.298679443359375,-0.979644775390625,0.012298583984375,0.002197265625
1690839615768720600,1.308720703125,-0.980010986328125,0.0116424560546875,0.00213623046875
1690839615778760700,1.3187607421875,-0.9794464111328125,0.0117645263671875,0.001220703125
1690839615788831700,1.328831787109375,-0.9787139892578125,0.01123046875,0.0004425048828125
1690839615798871800,1.338871826171875,-0.978668212890625,0.0103759765625,-0.00079345703125
1690839615808912000,1.348911865234375,-0.97906494140625,0.01068115234375,0.0005340576171875
1690839615818952700,1.35895263671875,-0.9805145263671875,0.009735107421875,0.0008697509765625
1690839615828992500,1.368992431640625,-0.981109619140625,0.0106964111328125,0.0015716552734375
1690839615839032600,1.379032470703125,-0.979400634765625,0.011383056640625,0.001861572265625
1690839615849072600,1.38907275390625,-0.9803314208984375,0.0109710693359375,0.001708984375
1690839615859113700,1.39911376953125,-0.9798736572265625,0.0117340087890625,0.001129150390625
1690839615869153800,1.40915380859375,-0.978790283203125,0.011199951171875,0.000335693359375
1690839615879193900,1.41919384765625,-0.9795379638671875,0.0110626220703125,0.0008544921875
1690839615889234700,1.429234619140625,-0.9799346923828125,0.0117950439453125,0.0009307861328125
1690839615899274500,1.4392744140625,-0.979156494140625,0.01165771484375,0.0010986328125
1690839615909314600,1.449314453125,-0.9801177978515625,0.0114288330078125,0.0019073486328125
1690839615919354600,1.459354736328125,-0.979888916015625,0.0106964111328125,0.0023193359375
1690839615929395700,1.469395751953125,-0.9798431396484375,0.0107574462890625,0.001129150390625
1690839615939465700,1.4794658203125,-0.9789276123046875,0.011260986328125,0.0009307861328125
1690839615949506800,1.4895068359375,-0.9799346923828125,0.011077880859375,0.001373291015625
1690839615959547000,1.499546875,-0.9803619384765625,0.0110931396484375,0.0004730224609375
1690839615969586700,1.509586669921875,-0.979278564453125,0.0107421875,0.001129150390625
1690839615979627500,1.51962744140625,-0.980010986328125,0.011627197265625,0.0010833740234375
1690839615989667600,1.52966748046875,-0.979766845703125,0.01165771484375,0.001190185546875
1690839615999707600,1.539707763671875,-0.9790802001953125,0.011688232421875,0.0023956298828125
1690839616009747700,1.549747802734375,-0.9803009033203125,0.0114288330078125,0.001678466796875
1690839616019788800,1.559788818359375,-0.980926513671875,0.011566162109375,0.002105712890625
1690839616029828900,1.569828857421875,-0.9797210693359375,0.01104736328125,0.0027008056640625
1690839616039868700,1.57986865234375,-0.9807281494140625,0.0105743408203125,0.002044677734375
1690839616049909500,1.589909423828125,-0.9808197021484375,0.0104827880859375,0.002685546875
1690839616059949600,1.599949462890625,-0.980316162109375,0.0105133056640625,0.0014801025390625
1690839616069989600,1.60998974609375,-0.979827880859375,0.010955810546875,0
1690839616080029700,1.62002978515625,-0.9806976318359375,0.0110321044921875,0.0009307861328125
1690839616090070800,1.63007080078125,-0.9796600341796875,0.010894775390625,0.0007476806640625
1690839616100141800,1.640141845703125,-0.9799346923828125,0.0119476318359375,0.0006561279296875
1690839616110182000,1.650181884765625,-0.979034423828125,0.012603759765625,0.0009307861328125
1690839616120221700,1.6602216796875,-0.9796142578125,0.013031005859375,0.001190185546875
1690839616130261800,1.67026171875,-0.9799652099609375,0.0119171142578125,0.0012054443359375
1690839616140302600,1.680302490234375,-0.9803466796875,0.01123046875,0.0015716552734375
1690839616150342700,1.6903427734375,-0.97991943359375,0.0114898681640625,0.0024566650390625
1690839616160382700,1.7003828125,-0.980438232421875,0.010406494140625,0.0009918212890625
1690839616170422800,1.7104228515625,-0.9808197021484375,0.0101318359375,0.001220703125
1690839616180463900,1.7204638671875,-0.9810333251953125,0.0089874267578125,0.0016632080078125
1690839616190503700,1.730503662109375,-0.980621337890625,0.010345458984375,0.001068115234375
1690839616200543700,1.740543701171875,-0.9803466796875,0.0103607177734375,0.000732421875
1690839616210584600,1.75058447265625,-0.980987548828125,0.0101776123046875,0.0009307861328125
1690839616220624600,1.760624755859375,-0.9808349609375,0.011444091796875,0.0013427734375
1690839616230664700,1.770664794921875,-0.9808807373046875,0.0121307373046875,0.0016326904296875
1690839616240704800,1.780704833984375,-0.980133056640625,0.0120086669921875,0.0010986328125
1690839616250775800,1.79077587890625,-0.9798583984375,0.012176513671875,0.0012664794921875
1690839616260817000,1.80081689453125,-0.979705810546875,0.0121917724609375,0.0011444091796875
1690839616270856700,1.810856689453125,-0.979644775390625,0.0111236572265625,0.0024566650390625
1690839616280896800,1.820896728515625,-0.9803314208984375,0.010711669921875,0.002288818359375
1690839616290936800,1.830936767578125,-0.980804443359375,0.0106658935546875,0.0015716552734375
1690839616300977700,1.840977783203125,-0.981414794921875,0.010650634765625,0.001556396484375
1690839616311017700,1.851017822265625,-0.9806060791015625,0.0099639892578125,0.001312255859375
1690839616321057800,1.861057861328125,-0.9808197021484375,0.0098876953125,0.0015869140625
1690839616331099000,1.871098876953125,-0.9815826416015625,0.0095062255859375,0.0012664794921875
1690839616341138700,1.881138671875,-0.981414794921875,0.01007080078125,0.0017547607421875
1690839616351178800,1.8911787109375,-0.979888916015625,0.0114288330078125,0.0010223388671875
1690839616361218800,1.90121875,-0.9796600341796875,0.012176513671875,0.0004425048828125
1690839616371259600,1.911259765625,-0.9804534912109375,0.0111541748046875,0.0005340576171875
1690839616381299700,1.9212998046875,-0.9803619384765625,0.0112457275390625,0.0011749267578125
1690839616391339800,1.93133984375,-0.980255126953125,0.011383056640625,0.001068115234375
1690839616401410600,1.94141064453125,-0.9805145263671875,0.01190185546875,0.0016937255859375
1690839616411450600,1.95145068359375,-0.980438232421875,0.01141357421875,0.0015869140625
1690839616421491700,1.96149169921875,-0.9811859130859375,0.01104736328125,0.0009613037109375
1690839616431531800,1.97153173828125,-0.9814453125,0.0113677978515625,0.0007171630859375
1690839616441571800,1.98157177734375,-0.9816436767578125,0.010498046875,0.000030517578125
1690839616451611600,1.991611572265625,-0.981475830078125,0.0116424560546875,0.0002899169921875
1690839616461652700,2.00165283203125,-0.97991943359375,0.0116424560546875,0.0009002685546875
1690839616471692800,2.01169287109375,-0.9796142578125,0.01092529296875,0.001068115234375
1690839616481732600,2.021732666015625,-0.980194091796875,0.0118255615234375,0.0016937255859375
1690839616491773700,2.031773681640625,-0.9800262451171875,0.0113525390625,0.002044677734375
1690839616501813800,2.041813720703125,-0.9810791015625,0.0114288330078125,0.00146484375
1690839616511853600,2.051853515625,-0.98138427734375,0.01007080078125,0.001739501953125
1690839616521893600,2.0618935546875,-0.980712890625,0.0103912353515625,0.001983642578125
1690839616531934700,2.071934814453125,-0.981597900390625,0.010345458984375,0.0011749267578125
1690839616541974800,2.081974853515625,-0.980743408203125,0.01043701171875,0.0009918212890625
1690839616552014600,2.0920146484375,-0.9813079833984375,0.0111846923828125,0.0008544921875
1690839616562085600,2.102085693359375,-0.9814910888671875,0.0109100341796875,0.0006561279296875
1690839616572125700,2.112125732421875,-0.979156494140625,0.0102081298828125,0.0006103515625
1690839616582166800,2.122166748046875,-0.97930908203125,0.0111541748046875,0.0006866455078125
1690839616592206600,2.13220654296875,-0.980712890625,0.011474609375,0.0006866455078125
1690839616602246700,2.14224658203125,-0.98095703125,0.0103759765625,0.00140380859375
1690839616612286700,2.15228662109375,-0.980682373046875,0.0109100341796875,0.0020904541015625
1690839616622327800,2.162327880859375,-0.9810791015625,0.010894775390625,0.0027008056640625
1690839616632367600,2.17236767578125,-0.9813995361328125,0.010894775390625,0.002838134765625
1690839616642407700,2.18240771484375,-0.9814910888671875,0.0112762451171875,0.00286865234375
1690839616652448800,2.19244873046875,-0.9815826416015625,0.0103759765625,0.0012359619140625
1690839616662488600,2.202488525390625,-0.980712890625,0.0105133056640625,0.0006256103515625
1690839616672528600,2.212528564453125,-0.980926513671875,0.010162353515625,0.000946044921875
1690839616682568700,2.222568603515625,-0.9809722900390625,0.011260986328125,0.0009307861328125
1690839616692612900,2.23261279296875,-0.980560302734375,0.0122833251953125,0.00042724609375
1690839616702653000,2.24265283203125,-0.980743408203125,0.012237548828125,0.0010986328125
1690839616712724000,2.252723876953125,-0.980438232421875,0.01202392578125,0.0016937255859375
1690839616722763800,2.262763671875,-0.9809417724609375,0.01129150390625,0.002166748046875
1690839616732803800,2.272803955078125,-0.9811859130859375,0.011260986328125,0.002227783203125
1690839616742845000,2.282844970703125,-0.981048583984375,0.0114593505859375,0.00091552734375
1690839616752885000,2.292885009765625,-0.9809112548828125,0.011932373046875,0.000732421875
1690839616762924800,2.3029248046875,-0.9813079833984375,0.011199951171875,0.0012664794921875
1690839616772966000,2.3129658203125,-0.9805755615234375,0.0113525390625,0.001251220703125
1690839616783006000,2.323005859375,-0.9800262451171875,0.010986328125,0.00054931640625
1690839616793045800,2.333045654296875,-0.9807891845703125,0.0110931396484375,0.0008697509765625
1690839616803085800,2.3430859375,-0.9814300537109375,0.0120697021484375,0.0012664794921875
1690839616813127000,2.353126953125,-0.9812469482421875,0.01165771484375,0.0010528564453125
1690839616823166700,2.363166748046875,-0.9814453125,0.01068115234375,0.001861572265625
1690839616833206800,2.373206787109375,-0.9803924560546875,0.0104522705078125,0.0020751953125
1690839616843247900,2.383247802734375,-0.9814605712890625,0.0116119384765625,0.0019989013671875
1690839616853288000,2.393287841796875,-0.981689453125,0.010833740234375,0.0015869140625
1690839616863328000,2.403327880859375,-0.9809722900390625,0.010955810546875,0.00115966796875
1690839616873398800,2.413398681640625,-0.9812774658203125,0.0111846923828125,0.001953125
1690839616883438800,2.42343896484375,-0.98016357421875,0.010772705078125,0.001190185546875
1690839616893479000,2.43347900390625,-0.9809722900390625,0.0113372802734375,0.0005645751953125
1690839616903519700,2.443519775390625,-0.9809722900390625,0.0115509033203125,0.000640869140625
1690839616913559800,2.453559814453125,-0.9805908203125,0.01190185546875,0.000946044921875
1690839616923600000,2.463599853515625,-0.980682373046875,0.01141357421875,0.0012359619140625
1690839616933641000,2.473640869140625,-0.9814453125,0.0112152099609375,0.0011444091796875
1690839616943680800,2.4836806640625,-0.9811859130859375,0.010650634765625,0.0012054443359375
1690839616953720800,2.493720947265625,-0.980682373046875,0.01031494140625,0.00213623046875
1690839616963761000,2.503760986328125,-0.981475830078125,0.010009765625,0.0010833740234375
1690839616973801700,2.5138017578125,-0.98150634765625,0.010162353515625,0.00140380859375
1690839616983841800,2.523841796875,-0.9809112548828125,0.010894775390625,0.001373291015625
1690839616993881900,2.5338818359375,-0.98095703125,0.01068115234375,0.0008392333984375
1690839617003923000,2.5439228515625,-0.980255126953125,0.011016845703125,0.0012664794921875
1690839617013962800,2.553962646484375,-0.9803619384765625,0.0117034912109375,0.0010223388671875
1690839617024033800,2.56403369140625,-0.981597900390625,0.0114288330078125,0.0011138916015625
1690839617034073900,2.574073974609375,-0.9815521240234375,0.0107269287109375,0.0017547607421875
1690839617044114000,2.584114013671875,-0.981292724609375,0.00994873046875,0.0015106201171875
1690839617054154800,2.59415478515625,-0.9811248779296875,0.01092529296875,0.00115966796875
1690839617064194800,2.60419482421875,-0.98089599609375,0.011474609375,0.000946044921875
1690839617074235000,2.61423486328125,-0.9815521240234375,0.011016845703125,0.0016326904296875
1690839617084274700,2.624274658203125,-0.9807891845703125,0.0109405517578125,0.0007781982421875
1690839617094315800,2.634315673828125,-0.9809112548828125,0.0106201171875,0.000885009765625
1690839617104355800,2.64435595703125,-0.98175048828125,0.010498046875,0.0013275146484375
1690839617114396000,2.65439599609375,-0.98089599609375,0.01043701171875,0.001068115234375
1690839617124436000,2.66443603515625,-0.9810791015625,0.0104522705078125,0.001190185546875
1690839617134476800,2.674476806640625,-0.9813995361328125,0.0110626220703125,0.0009918212890625
1690839617144516900,2.684516845703125,-0.980621337890625,0.01055908203125,0.0011138916015625
1690839617154556700,2.694556640625,-0.9805908203125,0.011474609375,0.0017547607421875
1690839617164597800,2.70459765625,-0.980316162109375,0.0106964111328125,0.001251220703125
1690839617174667800,2.714667724609375,-0.9811859130859375,0.0107421875,0.0013275146484375
1690839617184708900,2.724708984375,-0.9810028076171875,0.0115509033203125,0.0012054443359375
1690839617194749000,2.7347490234375,-0.9814605712890625,0.0115966796875,0.0016021728515625
1690839617204789000,2.7447890625,-0.9820709228515625,0.0115966796875,0.0010986328125
1690839617214829800,2.754829833984375,-0.981231689453125,0.011322021484375,0.0015411376953125
1690839617224870000,2.764869873046875,-0.9811859130859375,0.0110931396484375,0.0015411376953125
1690839617234909700,2.77490966796875,-0.9806671142578125,0.010986328125,0.00067138671875
1690839617244949800,2.78494970703125,-0.98101806640625,0.010589599609375,0.0013427734375
1690839617254990800,2.794990966796875,-0.98114013671875,0.0107269287109375,0.001861572265625
1690839617265031000,2.805031005859375,-0.9813385009765625,0.0108489990234375,0.00152587890625
1690839617275071000,2.815071044921875,-0.9818115234375,0.011444091796875,0.0012969970703125
1690839617285111800,2.82511181640625,-0.9816131591796875,0.0104217529296875,0.0015411376953125
1690839617295151900,2.83515185546875,-0.9811859130859375,0.0118408203125,0.0016021728515625
1690839617305191700,2.845191650390625,-0.9799652099609375,0.011077880859375,0.001373291015625
1690839617315231700,2.855231689453125,-0.980743408203125,0.0109100341796875,0.0012664794921875
1690839617325272800,2.86527294921875,-0.981475830078125,0.0114593505859375,0.0018768310546875
1690839617335342800,2.8753427734375,-0.9807281494140625,0.010528564453125,0.002197265625
1690839617345384000,2.885384033203125,-0.981109619140625,0.010467529296875,0.00152587890625
1690839617355424000,2.895424072265625,-0.982025146484375,0.0112457275390625,0.0015411376953125
1690839617365464000,2.905464111328125,-0.9820098876953125,0.0113067626953125,0.0012664794921875
1690839617375505000,2.9155048828125,-0.9815521240234375,0.0108642578125,0.00189208984375
1690839617385544700,2.925544677734375,-0.9820709228515625,0.0108489990234375,0.0024261474609375
1690839617395584800,2.935584716796875,-0.9819488525390625,0.0113067626953125,0.0013580322265625
1690839617405624800,2.945624755859375,-0.9813995361328125,0.0116729736328125,0.0007476806640625
1690839617415666000,2.955666015625,-0.9809112548828125,0.0116424560546875,0.001220703125
1690839617425706000,2.9657060546875,-0.9807281494140625,0.0107879638671875,0.0002288818359375
1690839617435746000,2.97574609375,-0.9817657470703125,0.01080322265625,0.0007781982421875
1690839617445787000,2.985786865234375,-0.9816741943359375,0.0110626220703125,0.0013580322265625
1690839617455826700,2.99582666015625,-0.981231689453125,0.0111846923828125,0.0009613037109375
1690839617465866800,3.00586669921875,-0.98150634765625,0.0113983154296875,0.0011749267578125
1690839617475906800,3.01590673828125,-0.982208251953125,0.0109100341796875,0.00177001953125
1690839617485977900,3.025977783203125,-0.980712890625,0.0118865966796875,0.0017852783203125
1690839617496019000,3.03601904296875,-0.98162841796875,0.0118408203125,0.0009002685546875
1690839617506059000,3.04605908203125,-0.981109619140625,0.011383056640625,0.000640869140625
1690839617516099000,3.05609912109375,-0.9822235107421875,0.0109710693359375,0.0012359619140625
1690839617526139000,3.066138916015625,-0.9818115234375,0.01092529296875,0.001129150390625
1690839617536179700,3.0761796875,-0.981903076171875,0.010772705078125,0.000823974609375
1690839617546219800,3.0862197265625,-0.9819793701171875,0.0103912353515625,0.0013275146484375
1690839617556259800,3.096259765625,-0.98114013671875,0.01092529296875,0.001190185546875
1690839617566301000,3.106301025390625,-0.981719970703125,0.0101165771484375,0.000701904296875
1690839617576341000,3.116341064453125,-0.9814605712890625,0.0093841552734375,0.001556396484375
1690839617586381000,3.126381103515625,-0.9811248779296875,0.0109710693359375,0.0016632080078125
1690839617596420900,3.1364208984375,-0.9817047119140625,0.0111083984375,0.001434326171875
1690839617606461700,3.146461669921875,-0.9811553955078125,0.01129150390625,0.0010528564453125
1690839617616501800,3.156501708984375,-0.9808349609375,0.0116119384765625,0.00091552734375
1690839617626541800,3.166541748046875,-0.98095703125,0.01092529296875,0.0013885498046875
1690839617636612900,3.17661279296875,-0.9808807373046875,0.01068115234375,0.001312255859375
1690839617646653000,3.18665283203125,-0.982147216796875,0.01068115234375,0.0012664794921875
1690839617656694000,3.196694091796875,-0.9815216064453125,0.010498046875,0.00238037109375
1690839617666734000,3.206734130859375,-0.9814453125,0.011016845703125,0.0009613037109375
1690839617676774000,3.21677392578125,-0.9808502197265625,0.0103607177734375,0.0012054443359375
1690839617686814000,3.22681396484375,-0.98095703125,0.0108795166015625,0.001495361328125
1690839617696869400,3.236869384765625,-0.9815826416015625,0.010894775390625,0.0012054443359375
1690839617706909400,3.246909423828125,-0.98236083984375,0.01080322265625,0.0011444091796875
1690839617716949500,3.256949462890625,-0.9814910888671875,0.0109405517578125,0.001068115234375
1690839617726990300,3.266990234375,-0.98248291015625,0.0108489990234375,0.001190185546875
1690839617737030400,3.277030517578125,-0.980743408203125,0.0120391845703125,0.001556396484375
1690839617747070500,3.287070556640625,-0.9811248779296875,0.01141357421875,0.0015411376953125
1690839617757110300,3.2971103515625,-0.9800262451171875,0.01104736328125,0.0012969970703125
1690839617767151400,3.3071513671875,-0.98114013671875,0.0114288330078125,0.0020751953125
1690839617777191400,3.31719140625,-0.9817657470703125,0.0117645263671875,0.0010223388671875
1690839617787262500,3.327262451171875,-0.981903076171875,0.0107879638671875,0.0008697509765625
1690839617797302500,3.337302490234375,-0.982757568359375,0.010833740234375,0.0005035400390625
1690839617807342600,3.347342529296875,-0.9822845458984375,0.0109100341796875,0.0010833740234375
1690839617817383400,3.357383544921875,-0.982208251953125,0.0108642578125,0.00115966796875
1690839617827423200,3.36742333984375,-0.9826507568359375,0.0107421875,0.0010833740234375
1690839617837463300,3.37746337890625,-0.9821319580078125,0.01080322265625,0.001495361328125
1690839617847503400,3.38750341796875,-0.9818878173828125,0.0119781494140625,0.00079345703125
1690839617857544400,3.39754443359375,-0.981597900390625,0.010955810546875,0.0011444091796875
1690839617867584500,3.40758447265625,-0.9818878173828125,0.01055908203125,0.0013427734375
1690839617877624600,3.41762451171875,-0.981903076171875,0.011871337890625,0.0009002685546875
1690839617887665400,3.42766552734375,-0.9813690185546875,0.01202392578125,0.0011444091796875
1690839617897705500,3.43770556640625,-0.981689453125,0.0107269287109375,0.0017242431640625
1690839617907745300,3.447745361328125,-0.9815521240234375,0.0101776123046875,0.000640869140625
1690839617917785300,3.457785400390625,-0.981475830078125,0.0106964111328125,0.0007171630859375
1690839617927826400,3.467826416015625,-0.981658935546875,0.01080322265625,0.0012664794921875
1690839617937866500,3.477866455078125,-0.9820709228515625,0.0107421875,0.001007080078125
1690839617947937500,3.4879375,-0.98260498046875,0.011810302734375,0.0011749267578125
1690839617957977600,3.4979775390625,-0.9820404052734375,0.01092529296875,0.001373291015625
1690839617968017400,3.508017333984375,-0.981689453125,0.0107879638671875,0.0005035400390625
1690839617978058200,3.518058349609375,-0.9816741943359375,0.01165771484375,0.0012359619140625
1690839617988098300,3.528098388671875,-0.980804443359375,0.0110626220703125,0.0014801025390625
1690839617998138400,3.538138427734375,-0.9808502197265625,0.011199951171875,0.0015106201171875
1690839618008179500,3.548179443359375,-0.9818267822265625,0.009979248046875,0.001953125
1690839618018219500,3.558219482421875,-0.9810333251953125,0.01080322265625,0.0026397705078125
1690839618028259600,3.568259521484375,-0.981597900390625,0.0107879638671875,0.00244140625
1690839618038299600,3.578299560546875,-0.9818572998046875,0.01043701171875,0.0017852783203125
1690839618048340500,3.588340576171875,-0.9817962646484375,0.0110626220703125,0.002166748046875
1690839618058380300,3.59838037109375,-0.9816741943359375,0.0115966796875,0.0017242431640625
1690839618068420400,3.60842041015625,-0.9819488525390625,0.01104736328125,0.0009765625
1690839618078461400,3.61846142578125,-0.981292724609375,0.0111083984375,0.0007781982421875
1690839618088501500,3.62850146484375,-0.9814300537109375,0.01080322265625,0.001251220703125
1690839618098572500,3.638572509765625,-0.98162841796875,0.0113067626953125,0.001953125
1690839618108612600,3.648612548828125,-0.981414794921875,0.01123046875,0.0022735595703125
1690839618118652400,3.65865234375,-0.981170654296875,0.0101470947265625,0.00115966796875
1690839618128692500,3.6686923828125,-0.9804229736328125,0.0105743408203125,0.0020294189453125
1690839618138733300,3.6787333984375,-0.9814300537109375,0.0104827880859375,0.0027313232421875
1690839618148773400,3.6887734375,-0.9818115234375,0.01123046875,0.0012054443359375
1690839618158813400,3.6988134765625,-0.981170654296875,0.0113677978515625,0.0003204345703125
1690839618168854500,3.7088544921875,-0.9803924560546875,0.0112152099609375,0.001220703125
1690839618178894600,3.71889453125,-0.981170654296875,0.0111083984375,0.0010833740234375
1690839618188934700,3.7289345703125,-0.980255126953125,0.011322021484375,0.000732421875
1690839618198974500,3.738974365234375,-0.980438232421875,0.01129150390625,0.00115966796875
1690839618209015300,3.749015380859375,-0.981781005859375,0.0117950439453125,0.0006256103515625
1690839618219055400,3.759055419921875,-0.9811859130859375,0.011566162109375,0.0005340576171875
1690839618229095400,3.769095458984375,-0.98095703125,0.0107269287109375,0.001220703125
1690839618239136500,3.779136474609375,-0.9821929931640625,0.0103607177734375,0.0014495849609375
1690839618249206500,3.78920654296875,-0.9813079833984375,0.011688232421875,0.0012969970703125
1690839618259247600,3.79924755859375,-0.980926513671875,0.01123046875,0.0020904541015625
1690839618269287400,3.809287353515625,-0.9814453125,0.010711669921875,0.0017547607421875
1690839618279327500,3.819327392578125,-0.9810791015625,0.011474609375,0.0014801025390625
1690839618289367600,3.829367431640625,-0.9819488525390625,0.011688232421875,0.0005340576171875
1690839618299408400,3.839408447265625,-0.9813690185546875,0.012054443359375,0.00128173828125
1690839618309448400,3.849448486328125,-0.9820709228515625,0.0113983154296875,0.0011138916015625
1690839618319488500,3.859488525390625,-0.9817657470703125,0.0110015869140625,0.0013275146484375
1690839618329529600,3.869529541015625,-0.982177734375,0.010986328125,0.001617431640625
1690839618339569400,3.8795693359375,-0.98162841796875,0.0111846923828125,0.0019989013671875
1690839618349609500,3.889609375,-0.982177734375,0.011627197265625,0.00128173828125
1690839618359649500,3.8996494140625,-0.98162841796875,0.011383056640625,0.001129150390625
1690839618369690400,3.9096904296875,-0.981781005859375,0.0108184814453125,0.0015411376953125
1690839618379730400,3.91973046875,-0.9820709228515625,0.0110321044921875,0.0007781982421875
1690839618389770500,3.9297705078125,-0.9819183349609375,0.0108489990234375,0.001220703125
1690839618399811600,3.9398115234375,-0.98193359375,0.0107574462890625,0.0015106201171875
1690839618409881300,3.94988134765625,-0.98175048828125,0.01104736328125,0.0017852783203125
1690839618419922400,3.95992236328125,-0.98211669921875,0.011383056640625,0.0015869140625
1690839618429962500,3.96996240234375,-0.9811553955078125,0.0112152099609375,0.0008544921875
1690839618440002600,3.98000244140625,-0.981292724609375,0.01104736328125,0.0012359619140625
1690839618450043400,3.99004345703125,-0.9815673828125,0.0111541748046875,0.00091552734375
1690839618460083500,4.00008349609375,-0.9821624755859375,0.0112762451171875,0.0008392333984375
1690839618470123500,4.01012353515625,-0.98162841796875,0.0108795166015625,0.0017547607421875
1690839618480163300,4.020163330078125,-0.9816741943359375,0.0109100341796875,0.00146484375
1690839618490204400,4.030204345703125,-0.9810791015625,0.010955810546875,0.0017852783203125
1690839618500244500,4.040244384765625,-0.980743408203125,0.0113372802734375,0.0013275146484375
1690839618510284500,4.050284423828125,-0.9817657470703125,0.011444091796875,0.0009613037109375
1690839618520325400,4.060325439453125,-0.9822998046875,0.0111236572265625,0.001556396484375
1690839618530365400,4.070365478515625,-0.981231689453125,0.0106353759765625,0.00103759765625
1690839618540405500,4.080405517578125,-0.98175048828125,0.0116119384765625,0.00164794921875
1690839618550445600,4.090445556640625,-0.982635498046875,0.01068115234375,0.0012359619140625
1690839618560516400,4.100516357421875,-0.98223876953125,0.0112457275390625,0.0006256103515625
1690839618570556400,4.110556396484375,-0.9814910888671875,0.01165771484375,0.000885009765625
1690839618580597500,4.120597412109375,-0.9820098876953125,0.0118560791015625,0.000579833984375
1690839618590637600,4.130637451171875,-0.9819793701171875,0.0111083984375,0.00079345703125
1690839618600677400,4.140677490234375,-0.981903076171875,0.01116943359375,0.0009307861328125
1690839618610718500,4.150718505859375,-0.9820709228515625,0.010772705078125,0.00128173828125
1690839618620758500,4.160758544921875,-0.98175048828125,0.0108489990234375,0.0013885498046875
1690839618630798300,4.17079833984375,-0.9815216064453125,0.0112457275390625,0.00140380859375
1690839618640838400,4.18083837890625,-0.98162841796875,0.0111236572265625,0.000885009765625
1690839618650879500,4.19087939453125,-0.981903076171875,0.0113372802734375,0.001251220703125
1690839618660919600,4.20091943359375,-0.9818115234375,0.010894775390625,0.000823974609375
1690839618670959400,4.21095947265625,-0.9813690185546875,0.0111846923828125,0.0005035400390625
1690839618681000400,4.22100048828125,-0.9810791015625,0.0108184814453125,0.0003814697265625
1690839618691040500,4.23104052734375,-0.980865478515625,0.0105438232421875,0.001129150390625
1690839618701051000,4.24105078125,-0.9812774658203125,0.010406494140625,0.001007080078125
1690839618711122000,4.251121826171875,-0.98150634765625,0.0109405517578125,0.0007781982421875
1690839618721162000,4.261161865234375,-0.9814453125,0.0114288330078125,0.00128173828125
1690839618731203000,4.271203125,-0.9819488525390625,0.01104736328125,0.001922607421875
1690839618741243100,4.2812431640625,-0.981964111328125,0.0106964111328125,0.0014495849609375
1690839618751283200,4.291283203125,-0.98175048828125,0.0106964111328125,0.001861572265625
1690839618761323000,4.301322998046875,-0.9821014404296875,0.01080322265625,0.0020751953125
1690839618771364000,4.311364013671875,-0.982391357421875,0.0107421875,0.000762939453125
1690839618781404000,4.32140380859375,-0.981048583984375,0.01104736328125,0.0008697509765625
1690839618791444000,4.33144384765625,-0.9813690185546875,0.0110321044921875,0.0013580322265625
1690839618801484000,4.341484130859375,-0.9813690185546875,0.0115509033203125,0.0005950927734375
1690839618811525000,4.351525146484375,-0.9812774658203125,0.0120697021484375,0.0008392333984375
1690839618821565200,4.361565185546875,-0.981414794921875,0.011444091796875,0.0017852783203125
1690839618831605000,4.37160498046875,-0.981201171875,0.0108184814453125,0.0009918212890625
1690839618841646000,4.38164599609375,-0.9816741943359375,0.0110931396484375,0.0014801025390625
1690839618851686000,4.391685791015625,-0.9814910888671875,0.0109100341796875,0.001220703125
1690839618861726000,4.401725830078125,-0.9821319580078125,0.010772705078125,0.002166748046875
1690839618871797000,4.411796875,-0.9824066162109375,0.0108489990234375,0.0021514892578125
1690839618881837000,4.421837158203125,-0.980987548828125,0.0106658935546875,0.0022735595703125
1690839618891878100,4.431878173828125,-0.98089599609375,0.010162353515625,0.00244140625
1690839618901918200,4.441918212890625,-0.98162841796875,0.0107421875,0.002166748046875
1690839618911958000,4.4519580078125,-0.9810638427734375,0.0108642578125,0.0009918212890625
1690839618921998000,4.461998046875,-0.981231689453125,0.010833740234375,0.000732421875
1690839618932039000,4.472038818359375,-0.9821319580078125,0.011505126953125,0.0013275146484375
1690839618942079000,4.482078857421875,-0.9819793701171875,0.011566162109375,0.001556396484375
1690839618952119000,4.492119140625,-0.9813995361328125,0.01129150390625,0.001190185546875
1690839618962160000,4.50216015625,-0.9814605712890625,0.0117340087890625,0.0015716552734375
1690839618972200200,4.5122001953125,-0.981781005859375,0.0106658935546875,0.00189208984375
1690839618982240000,4.522239990234375,-0.9727020263671875,0.007080078125,-0.001983642578125
1690839618992280000,4.532280029296875,-0.984161376953125,-0.00897216796875,-0.0614471435546875
1690839619002321000,4.54232080078125,-1.010223388671875,0.0388031005859375,0.0573577880859375
1690839619012361000,4.55236083984375,-0.9658660888671875,0.000762939453125,0.0339508056640625
1690839619022432000,4.562431884765625,-0.9840087890625,0.023284912109375,0.00396728515625
1690839619032472000,4.57247216796875,-0.98565673828125,0.020050048828125,0.0196075439453125
1690839619042512100,4.58251220703125,-0.980499267578125,-0.007537841796875,-0.0205230712890625
1690839619052553200,4.59255322265625,-0.9774322509765625,0.0074615478515625,-0.0260162353515625
1690839619062593000,4.602593017578125,-0.975860595703125,0.0070037841796875,-0.0140533447265625
1690839619072633000,4.612633056640625,-0.9811859130859375,0.0096435546875,-0.0056304931640625
1690839619082673200,4.622673095703125,-0.984283447265625,0.012115478515625,0.008880615234375
1690839619092714000,4.6327138671875,-0.9830780029296875,0.0133209228515625,0.01861572265625
1690839619102754000,4.642754150390625,-0.9854583740234375,0.0139312744140625,0.018280029296875
1690839619112794000,4.652794189453125,-0.982879638671875,0.013885498046875,0.010040283203125
1690839619122835200,4.662835205078125,-0.978912353515625,0.01275634765625,-0.000946044921875
1690839619132875000,4.672875,-0.97650146484375,0.0123291015625,-0.00958251953125
1690839619142915000,4.6829150390625,-0.980438232421875,0.0135345458984375,-0.0109100341796875
1690839619152955100,4.692955078125,-0.973846435546875,0.01226806640625,-0.0064849853515625
1690839619162996000,4.702995849609375,-0.983978271484375,0.01171875,0.0014495849609375
1690839619173067000,4.71306689453125,-0.98419189453125,0.00897216796875,0.0084228515625
1690839619183107000,4.723107177734375,-0.985992431640625,0.0076446533203125,0.010711669921875
1690839619193147100,4.733147216796875,-0.985595703125,0.0088958740234375,0.0087127685546875
1690839619203187000,4.74318701171875,-0.9831390380859375,0.0087890625,0.0028228759765625
1690839619213228000,4.75322802734375,-0.9836578369140625,0.010223388671875,-0.0023651123046875
1690839619223268000,4.76326806640625,-0.9779815673828125,0.0118255615234375,-0.0050811767578125
1690839619233308200,4.77330810546875,-0.97857666015625,0.01324462890625,-0.00372314453125
1690839619243348200,4.78334814453125,-0.981903076171875,0.0132598876953125,0.000030517578125
1690839619253389000,4.79338916015625,-0.9814300537109375,0.0129547119140625,0.004547119140625
1690839619263429000,4.80342919921875,-0.98199462890625,0.01202392578125,0.0065765380859375
1690839619273469000,4.813468994140625,-0.9843597412109375,0.012054443359375,0.0062713623046875
1690839619283510000,4.823510009765625,-0.98101806640625,0.012542724609375,0.0041351318359375
1690839619293550000,4.833550048828125,-0.981048583984375,0.0118560791015625,0.000823974609375
1690839619303590100,4.843590087890625,-0.9820404052734375,0.0112152099609375,-0.0020751953125
1690839619313630200,4.853630126953125,-0.980072021484375,0.009918212890625,-0.0028839111328125
1690839619323701200,4.863701171875,-0.9817047119140625,0.0094451904296875,-0.0010986328125
1690839619333742000,4.8737421875,-0.9806365966796875,0.0090484619140625,0.00225830078125
1690839619343782100,4.8837822265625,-0.983306884765625,0.0095977783203125,0.00518798828125
1690839619353822000,4.893822021484375,-0.9832000732421875,0.010467529296875,0.005950927734375
1690839619363862000,4.903862060546875,-0.981109619140625,0.0120086669921875,0.0051727294921875
1690839619373903000,4.913903076171875,-0.9817962646484375,0.013031005859375,0.001800537109375
1690839619383943200,4.923943115234375,-0.97979736328125,0.0132904052734375,-0.0007781982421875
1690839619393983200,4.933983154296875,-0.9799041748046875,0.0126800537109375,-0.0022125244140625
1690839619404024000,4.944024169921875,-0.9814300537109375,0.013092041015625,-0.00128173828125
1690839619414064000,4.954064208984375,-0.981689453125,0.0124053955078125,0.001373291015625
1690839619424104000,4.96410400390625,-0.9818572998046875,0.0117340087890625,0.0034332275390625
1690839619434144000,4.97414404296875,-0.9830474853515625,0.010894775390625,0.0037689208984375
1690839619444185000,4.98418505859375,-0.982269287109375,0.0108489990234375,0.003692626953125
1690839619454225200,4.99422509765625,-0.982635498046875,0.0107574462890625,0.0023345947265625
1690839619464265200,5.00426513671875,-0.98162841796875,0.0101776123046875,0.0010528564453125
1690839619474306000,5.01430615234375,-0.979827880859375,0.010040283203125,-0.00103759765625
1690839619484376000,5.0243759765625,-0.9817352294921875,0.0108184814453125,-0.0010223388671875
1690839619494417000,5.0344169921875,-0.9806976318359375,0.01171875,0.0004730224609375
1690839619504457000,5.04445703125,-0.9823150634765625,0.0112152099609375,0.00244140625
1690839619514497000,5.0544970703125,-0.982269287109375,0.011505126953125,0.002716064453125
1690839619524537000,5.064537109375,-0.980987548828125,0.0112457275390625,0.0030975341796875
1690839619534578200,5.074578125,-0.9821624755859375,0.0117950439453125,0.0019073486328125
1690839619544618200,5.0846181640625,-0.98199462890625,0.011444091796875,0.000701904296875
1690839619554658000,5.094657958984375,-0.9806976318359375,0.01226806640625,-0.00042724609375
1690839619564699100,5.10469921875,-0.981964111328125,0.0117340087890625,0.00048828125
1690839619574739000,5.114739013671875,-0.9813079833984375,0.011260986328125,0.0009002685546875
1690839619584779000,5.124779052734375,-0.9815826416015625,0.0118408203125,0.001983642578125
1690839619594819000,5.134819091796875,-0.981689453125,0.010498046875,0.003204345703125
1690839619604860200,5.144860107421875,-0.98114013671875,0.010009765625,0.003021240234375
1690839619614900200,5.154900146484375,-0.9830474853515625,0.0101776123046875,0.0029144287109375
1690839619624940000,5.16493994140625,-0.98223876953125,0.01129150390625,0.001708984375
1690839619635011000,5.175010986328125,-0.9816436767578125,0.0111846923828125,0.0007781982421875
1690839619645051000,5.18505078125,-0.9814605712890625,0.0111541748046875,0.0010223388671875
1690839619655092000,5.195092041015625,-0.9803619384765625,0.0115509033203125,0.0010223388671875
1690839619665132000,5.205132080078125,-0.9807891845703125,0.0124359130859375,0.0017547607421875
1690839619675172000,5.215172119140625,-0.98236083984375,0.01171875,0.0024871826171875
1690839619685213200,5.225213134765625,-0.9820556640625,0.0115203857421875,0.0031585693359375
1690839619695251500,5.23525146484375,-0.9814910888671875,0.0116119384765625,0.0026092529296875
1690839619705291500,5.24529150390625,-0.9819793701171875,0.0114898681640625,0.0019683837890625
1690839619715331600,5.25533154296875,-0.9806671142578125,0.010986328125,0.00103759765625
1690839619725372700,5.26537255859375,-0.981170654296875,0.0109710693359375,0.0013885498046875
1690839619735412500,5.27541259765625,-0.981201171875,0.0111083984375,0.0009002685546875
1690839619745452500,5.28545263671875,-0.9814453125,0.0110015869140625,0.00177001953125
1690839619755492600,5.29549267578125,-0.9822540283203125,0.010772705078125,0.0022430419921875
1690839619765533700,5.30553369140625,-0.980926513671875,0.0119476318359375,0.002197265625
1690839619775573500,5.315573486328125,-0.9827423095703125,0.0112457275390625,0.0030517578125
1690839619785644500,5.32564453125,-0.9814453125,0.0113067626953125,0.0022430419921875
1690839619795684600,5.3356845703125,-0.9800872802734375,0.0111846923828125,0.000946044921875
1690839619805724700,5.345724609375,-0.980804443359375,0.01214599609375,0.00146484375
1690839619815765500,5.355765625,-0.9810943603515625,0.0115814208984375,0.0010986328125
1690839619825805600,5.3658056640625,-0.9815826416015625,0.0112152099609375,0.0024871826171875
1690839619835845400,5.375845458984375,-0.9817962646484375,0.01104736328125,0.0028076171875
1690839619845886500,5.385886474609375,-0.980804443359375,0.0126953125,0.001678466796875
1690839619855926500,5.395926513671875,-0.98162841796875,0.0117340087890625,0.0013885498046875
1690839619865966600,5.405966552734375,-0.9816131591796875,0.0113067626953125,0.0013275146484375
1690839619876006700,5.416006591796875,-0.9819488525390625,0.010498046875,0.001251220703125
1690839619886047500,5.426047607421875,-0.981048583984375,0.01092529296875,0.0013427734375
1690839619896087600,5.436087646484375,-0.98101806640625,0.010833740234375,0.0008544921875
1690839619906127400,5.44612744140625,-0.982025146484375,0.010498046875,0.0009002685546875
1690839619916168700,5.456168701171875,-0.981201171875,0.0114593505859375,0.002838134765625
1690839619926208500,5.46620849609375,-0.9812469482421875,0.01214599609375,0.0018310546875
1690839619936248600,5.47624853515625,-0.98248291015625,0.010833740234375,0.001800537109375
1690839619946319600,5.486319580078125,-0.980804443359375,0.0111541748046875,0.0015411376953125
1690839619956359700,5.496359619140625,-0.98223876953125,0.0121612548828125,0.001007080078125
1690839619966399700,5.506399658203125,-0.9825897216796875,0.0110931396484375,0.0012969970703125
1690839619976440600,5.516440673828125,-0.98291015625,0.010986328125,0.0022735595703125
1690839619986480400,5.52648046875,-0.9807891845703125,0.01177978515625,0.0016632080078125
1690839619996520400,5.5365205078125,-0.981719970703125,0.0123291015625,0.002777099609375
1690839620006561500,5.5465615234375,-0.98114013671875,0.0117340087890625,0.002593994140625
1690839620016601600,5.5566015625,-0.981903076171875,0.0114898681640625,0.0020599365234375
1690839620026641700,5.5666416015625,-0.981292724609375,0.0112457275390625,0.0016021728515625
1690839620036681700,5.576681640625,-0.981903076171875,0.0109405517578125,0.0013885498046875
1690839620046722600,5.58672265625,-0.9812774658203125,0.0111236572265625,0.00091552734375
1690839620056762400,5.596762451171875,-0.982513427734375,0.0113067626953125,0.001708984375
1690839620066802400,5.606802490234375,-0.9813232421875,0.0097808837890625,0.001800537109375
1690839620076843500,5.616843505859375,-0.9834442138671875,0.0106353759765625,0.0017547607421875
1690839620086883600,5.626883544921875,-0.9824066162109375,0.0118255615234375,0.001922607421875
1690839620096954600,5.63695458984375,-0.9836883544921875,0.0114898681640625,0.001922607421875
1690839620106994700,5.64699462890625,-0.9816436767578125,0.011749267578125,0.0025634765625
1690839620117034800,5.65703466796875,-0.98382568359375,0.0117645263671875,0.002288818359375
1690839620127075600,5.66707568359375,-0.98095703125,0.011138916015625,0.0020294189453125
1690839620137115400,5.677115478515625,-0.981353759765625,0.0106201171875,0.00146484375
1690839620147155500,5.687155517578125,-0.9828948974609375,0.0105743408203125,0.002105712890625
1690839620157195500,5.697195556640625,-0.982269287109375,0.0113067626953125,0.0023956298828125
1690839620167236600,5.707236572265625,-0.9816741943359375,0.0106964111328125,0.002532958984375
1690839620177276700,5.717276611328125,-0.981201171875,0.0109100341796875,0.0019683837890625
1690839620187316700,5.727316650390625,-0.980377197265625,0.011383056640625,0.0014495849609375
1690839620197357600,5.737357666015625,-0.9814300537109375,0.011505126953125,0.0011444091796875
1690839620207397400,5.7473974609375,-0.9805908203125,0.01190185546875,0.001495361328125
1690839620217437400,5.7574375,-0.98199462890625,0.0124664306640625,0.0018463134765625
1690839620227477500,5.7674775390625,-0.980194091796875,0.0104522705078125,0.0009613037109375
1690839620237518600,5.7775185546875,-0.9815673828125,0.011444091796875,0.0016937255859375
1690839620247588600,5.787588623046875,-0.9824676513671875,0.0116424560546875,0.00146484375
1690839620257629700,5.797629638671875,-0.9810791015625,0.0111236572265625,0.0012054443359375
1690839620267669800,5.807669677734375,-0.9815826416015625,0.012451171875,0.0017547607421875
1690839620277709600,5.81770947265625,-0.983154296875,0.0119171142578125,0.0012969970703125
1690839620287750400,5.82775048828125,-0.9828643798828125,0.0097808837890625,0.00152587890625
1690839620297790500,5.83779052734375,-0.981231689453125,0.0108795166015625,0.001495361328125
1690839620307830500,5.84783056640625,-0.980010986328125,0.0119476318359375,0.000396728515625
1690839620317870600,5.85787060546875,-0.981109619140625,0.0111236572265625,0.0015106201171875
1690839620327911700,5.86791162109375,-0.98175048828125,0.011688232421875,0.0010528564453125
1690839620337951700,5.87795166015625,-0.9812469482421875,0.011260986328125,0.0015411376953125
1690839620347991600,5.887991455078125,-0.9821319580078125,0.0108642578125,0.002410888671875
1690839620358032400,5.898032470703125,-0.9816741943359375,0.0104827880859375,0.0025787353515625
1690839620368072400,5.908072509765625,-0.981719970703125,0.01092529296875,0.0014801025390625
1690839620378112500,5.918112548828125,-0.9822235107421875,0.011993408203125,0.0016021728515625
1690839620388152600,5.928152587890625,-0.9817352294921875,0.01251220703125,0.001251220703125
1690839620398193700,5.938193603515625,-0.9813385009765625,0.012298583984375,0.0016632080078125
1690839620408263700,5.948263671875,-0.9821319580078125,0.0115814208984375,0.00091552734375
1690839620418304800,5.9583046875,-0.981842041015625,0.011199951171875,0.001434326171875
1690839620428344600,5.968344482421875,-0.9821624755859375,0.0125732421875,0.0017242431640625
1690839620438384600,5.978384521484375,-0.98101806640625,0.01214599609375,0.0016937255859375
1690839620448425500,5.988425537109375,-0.9813385009765625,0.010467529296875,0.00262451171875
1690839620458465500,5.998465576171875,-0.9818115234375,0.0108642578125,0.00213623046875
1690839620468505600,6.008505615234375,-0.98114013671875,0.011810302734375,0.000946044921875
1690839620478545700,6.018545654296875,-0.982086181640625,0.011627197265625,0.00079345703125
1690839620488586800,6.028586669921875,-0.981292724609375,0.0108184814453125,0.00146484375
1690839620498626600,6.03862646484375,-0.9813079833984375,0.01165771484375,0.0015106201171875
1690839620508666600,6.04866650390625,-0.981781005859375,0.0108184814453125,0.0010833740234375
1690839620518707500,6.05870751953125,-0.9809417724609375,0.0114288330078125,0.000885009765625
1690839620528747500,6.06874755859375,-0.980377197265625,0.01275634765625,0.0009307861328125
1690839620538787600,6.07878759765625,-0.981231689453125,0.011749267578125,0.0009918212890625
1690839620548827600,6.08882763671875,-0.98187255859375,0.0122833251953125,0.001373291015625
1690839620558898700,6.098898681640625,-0.9818115234375,0.011749267578125,0.0008392333984375
1690839620568939800,6.108939697265625,-0.9822235107421875,0.0107879638671875,0.0014190673828125
1690839620578979600,6.1189794921875,-0.9818115234375,0.0106201171875,0.0019378662109375
1690839620589019600,6.12901953125,-0.981964111328125,0.010833740234375,0.0008087158203125
1690839620599059500,6.1390595703125,-0.982177734375,0.010894775390625,0.0014190673828125
1690839620609100500,6.1491005859375,-0.98138427734375,0.0107574462890625,0.0021820068359375
1690839620619140600,6.159140625,-0.98248291015625,0.0110931396484375,0.0012664794921875
1690839620629180700,6.1691806640625,-0.9818878173828125,0.01153564453125,0.001708984375
1690839620639221800,6.1792216796875,-0.9819488525390625,0.0118408203125,0.0013275146484375
1690839620649261600,6.189261474609375,-0.98175048828125,0.01251220703125,0.001800537109375
1690839620659301600,6.199301513671875,-0.98065185546875,0.01153564453125,0.00079345703125
1690839620669341400,6.209341552734375,-0.9814910888671875,0.011138916015625,0.0013885498046875
1690839620679382500,6.219382568359375,-0.98248291015625,0.0118255615234375,0.001861572265625
1690839620689422600,6.229422607421875,-0.9822235107421875,0.0117340087890625,0.0011749267578125
1690839620699468800,6.23946875,-0.98199462890625,0.0113372802734375,0.0011444091796875
1690839620709539800,6.249539794921875,-0.9820709228515625,0.0109405517578125,0.0009765625
1690839620719580000,6.259579833984375,-0.981597900390625,0.0113067626953125,0.0009765625
1690839620729621000,6.26962109375,-0.981719970703125,0.01116943359375,0.0012969970703125
1690839620739661000,6.2796611328125,-0.98095703125,0.01116943359375,0.001312255859375
1690839620749701000,6.289701171875,-0.981781005859375,0.01055908203125,0.00140380859375
1690839620759741000,6.299740966796875,-0.981475830078125,0.0112762451171875,0.001312255859375
1690839620769781800,6.30978173828125,-0.9812469482421875,0.0103607177734375,0.0005645751953125
1690839620779821800,6.31982177734375,-0.9817047119140625,0.0114898681640625,0.0013580322265625
1690839620789862000,6.32986181640625,-0.9817657470703125,0.0121612548828125,0.0013275146484375
1690839620799903000,6.339903076171875,-0.9819488525390625,0.011962890625,0.0017242431640625
1690839620809943000,6.349943115234375,-0.9810943603515625,0.0117645263671875,0.00213623046875
1690839620819983000,6.359983154296875,-0.9818115234375,0.0118865966796875,0.00164794921875
1690839620830023200,6.370023193359375,-0.9822540283203125,0.0116424560546875,0.001251220703125
1690839620840064000,6.38006396484375,-0.98138427734375,0.011505126953125,0.001434326171875
1690839620850103800,6.390103759765625,-0.9814605712890625,0.011016845703125,0.001556396484375
1690839620860174800,6.4001748046875,-0.9817352294921875,0.0101470947265625,0.0015869140625
1690839620870215000,6.41021484375,-0.981597900390625,0.0105743408203125,0.0012054443359375
1690839620880255000,6.4202548828125,-0.9821929931640625,0.0104522705078125,0.000823974609375
1690839620890296000,6.430296142578125,-0.9819488525390625,0.010284423828125,0.001312255859375
1690839620900336000,6.440336181640625,-0.9820556640625,0.0105438232421875,0.0018463134765625
1690839620910376000,6.4503759765625,-0.98284912109375,0.011016845703125,0.001800537109375
1690839620920416000,6.460416015625,-0.9821624755859375,0.01092529296875,0.0012054443359375
1690839620930456800,6.470456787109375,-0.98175048828125,0.0115814208984375,0.001373291015625
1690839620940497000,6.480496826171875,-0.981719970703125,0.0114593505859375,0.001739501953125
1690839620950537000,6.490536865234375,-0.9806365966796875,0.0118408203125,0.001708984375
1690839620960578000,6.500578125,-0.981353759765625,0.0117950439453125,0.00213623046875
1690839620970618000,6.5106181640625,-0.9817352294921875,0.011566162109375,0.0018463134765625
1690839620980658200,6.520658203125,-0.981475830078125,0.0109100341796875,0.0019683837890625
1690839620990698000,6.530697998046875,-0.9817352294921875,0.0108489990234375,0.001678466796875
1690839621000738800,6.54073876953125,-0.9813995361328125,0.01129150390625,0.001953125
1690839621010779000,6.55077880859375,-0.9821319580078125,0.01092529296875,0.0019378662109375
1690839621020850000,6.560849853515625,-0.9830169677734375,0.011474609375,0.001861572265625
1690839621030890000,6.570889892578125,-0.9815521240234375,0.01116943359375,0.0017547607421875
1690839621040930000,6.580929931640625,-0.9813690185546875,0.0111846923828125,0.001800537109375
1690839621050971100,6.59097119140625,-0.9813079833984375,0.0106964111328125,0.0011444091796875
1690839621061011000,6.601010986328125,-0.9820709228515625,0.0110931396484375,0.0015716552734375
1690839621071051000,6.611051025390625,-0.9816741943359375,0.0123138427734375,0.0017852783203125
1690839621081091800,6.621091796875,-0.981109619140625,0.011688232421875,0.0011749267578125
1690839621091132000,6.6311318359375,-0.981201171875,0.0116424560546875,0.001678466796875
1690839621101172000,6.641171875,-0.98150634765625,0.0115966796875,0.0012969970703125
1690839621111212000,6.6512119140625,-0.981353759765625,0.0121307373046875,0.0020751953125
1690839621121253000,6.661253173828125,-0.981292724609375,0.0108489990234375,0.0019073486328125
1690839621131293200,6.671293212890625,-0.9816131591796875,0.010955810546875,0.0011138916015625
1690839621141333000,6.6813330078125,-0.9819183349609375,0.0113525390625,0.0010223388671875
1690839621151373800,6.691373779296875,-0.981781005859375,0.0107879638671875,0.001739501953125
1690839621161414000,6.701413818359375,-0.9816741943359375,0.01116943359375,0.00164794921875
1690839621171485000,6.71148486328125,-0.9819183349609375,0.0111236572265625,0.0022430419921875
1690839621181525000,6.72152490234375,-0.9817657470703125,0.0120697021484375,0.00146484375
1690839621191565000,6.73156494140625,-0.9818267822265625,0.011688232421875,0.001983642578125
1690839621201604900,6.74160498046875,-0.9817657470703125,0.010650634765625,0.0023956298828125
1690839621211646000,6.75164599609375,-0.9810638427734375,0.0120697021484375,0.0014801025390625
1690839621221685800,6.761685791015625,-0.9815521240234375,0.0113067626953125,0.0015106201171875
1690839621231725800,6.771725830078125,-0.9809417724609375,0.0109710693359375,0.00115966796875
1690839621241767000,6.781766845703125,-0.98095703125,0.0117645263671875,0.002716064453125
1690839621251807000,6.791806884765625,-0.981170654296875,0.0112152099609375,0.0023345947265625
1690839621261847000,6.801846923828125,-0.98077392578125,0.0110626220703125,0.001983642578125
1690839621271887000,6.81188720703125,-0.981292724609375,0.0108184814453125,0.0005645751953125
1690839621281928000,6.821927978515625,-0.9813385009765625,0.0110015869140625,0.0016326904296875
1690839621291967700,6.8319677734375,-0.9820556640625,0.011627197265625,0.001373291015625
1690839621302007800,6.8420078125,-0.982391357421875,0.0101318359375,0.0019073486328125
1690839621312049000,6.852048828125,-0.9821929931640625,0.0107421875,0.002105712890625
1690839621322119000,6.862118896484375,-0.9822540283203125,0.0113067626953125,0.0022125244140625
1690839621332160000,6.872159912109375,-0.98211669921875,0.0112152099609375,0.0021514892578125
1690839621342200000,6.882199951171875,-0.9821929931640625,0.011383056640625,0.0017242431640625
1690839621352239900,6.892239990234375,-0.9809722900390625,0.0109710693359375,0.0017547607421875
1690839621362280000,6.902280029296875,-0.9807891845703125,0.01116943359375,0.001861572265625
1690839621372320800,6.91232080078125,-0.979766845703125,0.011749267578125,0.0021820068359375
1690839621382360800,6.92236083984375,-0.981109619140625,0.0118560791015625,0.000762939453125
1690839621392401000,6.93240087890625,-0.9818572998046875,0.01123046875,0.001251220703125
1690839621402442000,6.94244189453125,-0.9808807373046875,0.0115814208984375,0.0014801025390625
1690839621412482000,6.95248193359375,-0.9824066162109375,0.0110931396484375,0.001556396484375
1690839621422521900,6.96252197265625,-0.9823455810546875,0.0107879638671875,0.0021209716796875
1690839621432562000,6.97256201171875,-0.9811859130859375,0.01165771484375,0.0020751953125
1690839621442602800,6.982602783203125,-0.9800567626953125,0.0108489990234375,0.0015869140625
1690839621452642800,6.992642822265625,-0.982147216796875,0.0112762451171875,0.001617431640625
1690839621462683000,7.002682861328125,-0.981201171875,0.011749267578125,0.0012054443359375
1690839621472724000,7.012723876953125,-0.9822845458984375,0.011138916015625,0.0001678466796875
1690839621482794000,7.0227939453125,-0.981231689453125,0.0117340087890625,0.0008544921875
1690839621492835000,7.0328349609375,-0.98089599609375,0.011962890625,0.001190185546875
1690839621502875000,7.042875,-0.981414794921875,0.0116424560546875,0.001556396484375
1690839621512915000,7.0529150390625,-0.98187255859375,0.0119171142578125,0.001617431640625
1690839621522955800,7.062955810546875,-0.9824371337890625,0.01129150390625,0.0014190673828125
1690839621532995800,7.072995849609375,-0.981536865234375,0.0111541748046875,0.0016326904296875
1690839621543036000,7.083035888671875,-0.9818267822265625,0.0104827880859375,0.00225830078125
1690839621553076000,7.093075927734375,-0.9817962646484375,0.0106353759765625,0.001708984375
1690839621563117000,7.103116943359375,-0.981292724609375,0.01123046875,0.001800537109375
1690839621573156900,7.113156982421875,-0.9814300537109375,0.0115814208984375,0.001800537109375
1690839621583197000,7.123197021484375,-0.9811553955078125,0.011138916015625,0.0013427734375
1690839621593237800,7.13323779296875,-0.98126220703125,0.0112152099609375,0.000518798828125
1690839621603277800,7.14327783203125,-0.9813232421875,0.01171875,0.0013580322265625
1690839621613318000,7.15331787109375,-0.98175048828125,0.0121917724609375,0.00213623046875
1690839621623358000,7.16335791015625,-0.9817962646484375,0.011871337890625,0.0016937255859375
1690839621633429000,7.173428955078125,-0.9818572998046875,0.011688232421875,0.001129150390625
1690839621643468800,7.18346875,-0.9826202392578125,0.0119171142578125,0.0019378662109375
1690839621653510000,7.193510009765625,-0.982177734375,0.01153564453125,0.0020599365234375
1690839621663550000,7.203550048828125,-0.9823760986328125,0.010955810546875,0.0023956298828125
1690839621673590000,7.213590087890625,-0.9806671142578125,0.0109405517578125,0.00164794921875
1690839621683630800,7.223630859375,-0.982086181640625,0.0113067626953125,0.0012969970703125
1690839621693671000,7.2336708984375,-0.981597900390625,0.011138916015625,0.00115966796875
1690839621703682300,7.243682373046875,-0.9815673828125,0.0111541748046875,0.000762939453125
1690839621713722000,7.25372216796875,-0.982025146484375,0.0114288330078125,0.0014190673828125
1690839621723763200,7.26376318359375,-0.9813690185546875,0.011016845703125,0.0021209716796875
1690839621733803300,7.27380322265625,-0.9813232421875,0.010711669921875,0.001312255859375
1690839621743843000,7.283843017578125,-0.9819488525390625,0.0120849609375,0.0009002685546875
1690839621753884200,7.29388427734375,-0.981658935546875,0.011383056640625,0.0015411376953125
1690839621763924200,7.30392431640625,-0.980987548828125,0.011932373046875,0.0008087158203125
1690839621773964300,7.31396435546875,-0.9814300537109375,0.011383056640625,0.0014190673828125
1690839621784035300,7.324035400390625,-0.9815673828125,0.01220703125,0.0022125244140625
1690839621794075100,7.3340751953125,-0.981719970703125,0.011383056640625,0.0016326904296875
1690839621804116200,7.3441162109375,-0.9814300537109375,0.0115509033203125,0.0020904541015625
1690839621814156300,7.35415625,-0.981903076171875,0.01129150390625,0.0015716552734375
1690839621824196000,7.364196044921875,-0.9814910888671875,0.011444091796875,0.001129150390625
1690839621834236200,7.374236083984375,-0.9812774658203125,0.0110321044921875,0.0018310546875
1690839621844277200,7.38427734375,-0.9820404052734375,0.0110626220703125,0.0011138916015625
1690839621854317300,7.3943173828125,-0.9817657470703125,0.0106201171875,0.001373291015625
1690839621864357000,7.404357177734375,-0.9810333251953125,0.01171875,0.0018157958984375
1690839621874397200,7.414397216796875,-0.9822540283203125,0.011474609375,0.00177001953125
1690839621884438300,7.424438232421875,-0.98199462890625,0.0115966796875,0.001800537109375
1690839621894478000,7.43447802734375,-0.98175048828125,0.01116943359375,0.0025177001953125
1690839621904518100,7.44451806640625,-0.9814453125,0.0114593505859375,0.00177001953125
1690839621914559200,7.454559326171875,-0.982177734375,0.0116119384765625,0.0012359619140625
1690839621924599300,7.464599365234375,-0.982513427734375,0.011199951171875,0.0017242431640625
1690839621934639000,7.47463916015625,-0.9814453125,0.0102691650390625,0.001708984375
1690839621944710100,7.484710205078125,-0.981292724609375,0.011627197265625,0.001251220703125
1690839621954750200,7.494750244140625,-0.9815673828125,0.011993408203125,0.001708984375
1690839621964791300,7.504791259765625,-0.982147216796875,0.01123046875,0.0012359619140625
1690839621974831000,7.5148310546875,-0.982177734375,0.010955810546875,0.0016632080078125
1690839621984871200,7.52487109375,-0.98260498046875,0.010894775390625,0.001800537109375
1690839621994911200,7.5349111328125,-0.9826507568359375,0.0117034912109375,0.001953125
1690839622004952300,7.544952392578125,-0.9815826416015625,0.01129150390625,0.001495361328125
1690839622014992100,7.5549921875,-0.981597900390625,0.01116943359375,0.001495361328125
1690839622025032200,7.5650322265625,-0.981292724609375,0.0105743408203125,0.001007080078125
1690839622035073300,7.5750732421875,-0.9813690185546875,0.011138916015625,0.0010986328125
1690839622045113000,7.585113037109375,-0.98138427734375,0.0107574462890625,0.001617431640625
1690839622055153200,7.595153076171875,-0.9808349609375,0.0105438232421875,0.0011444091796875
1690839622065193200,7.605193115234375,-0.9815673828125,0.0115966796875,0.001373291015625
1690839622075234000,7.615234130859375,-0.98193359375,0.011138916015625,0.00128173828125
1690839622085274000,7.625274169921875,-0.98260498046875,0.0110626220703125,0.00079345703125
1690839622095345200,7.63534521484375,-0.9815673828125,0.0112457275390625,0.00189208984375
1690839622105385200,7.64538525390625,-0.9813232421875,0.011138916015625,0.001617431640625
1690839622115425000,7.655425048828125,-0.9811248779296875,0.010650634765625,0.0011749267578125
1690839622125466000,7.665466064453125,-0.9815826416015625,0.010833740234375,0.000946044921875
1690839622135506200,7.675506103515625,-0.98095703125,0.0115966796875,0.0007171630859375
1690839622145546200,7.685546142578125,-0.9814605712890625,0.0116424560546875,0.001678466796875
1690839622155586300,7.69558642578125,-0.9814910888671875,0.01080322265625,0.0008544921875
1690839622165627100,7.705627197265625,-0.981719970703125,0.010589599609375,0.0015106201171875
1690839622175667200,7.715667236328125,-0.9825439453125,0.0108489990234375,0.00201416015625
1690839622185707000,7.72570703125,-0.982330322265625,0.0105438232421875,0.0014190673828125
1690839622195748000,7.735748046875,-0.9827423095703125,0.011505126953125,0.00225830078125
1690839622205788200,7.7457880859375,-0.9827117919921875,0.011505126953125,0.001800537109375
1690839622215828200,7.755828125,-0.9820709228515625,0.0104827880859375,0.0019683837890625
1690839622225868300,7.765868408203125,-0.9814910888671875,0.0105743408203125,0.002166748046875
1690839622235909000,7.7759091796875,-0.980255126953125,0.0111846923828125,0.00201416015625
1690839622245980200,7.785980224609375,-0.981292724609375,0.010986328125,0.0009918212890625
1690839622256020200,7.796020263671875,-0.9815826416015625,0.0116119384765625,0.0015716552734375
1690839622266060000,7.80606005859375,-0.982147216796875,0.0112152099609375,0.001495361328125
1690839622276100000,7.81610009765625,-0.9820709228515625,0.0115966796875,0.0013580322265625
1690839622286141200,7.82614111328125,-0.982391357421875,0.011016845703125,0.001678466796875
1690839622296181200,7.83618115234375,-0.982208251953125,0.0116119384765625,0.000946044921875
1690839622306221300,7.84622119140625,-0.9818115234375,0.0120697021484375,0.000732421875
1690839622316262100,7.85626220703125,-0.9815216064453125,0.0119171142578125,0.00201416015625
1690839622326302200,7.86630224609375,-0.982421875,0.0118255615234375,0.0022430419921875
1690839622336342000,7.876342041015625,-0.9818115234375,0.0121002197265625,0.00103759765625
1690839622346382000,7.886382080078125,-0.982391357421875,0.010498046875,0.0009765625
1690839622356423200,7.896423095703125,-0.9814453125,0.0110015869140625,0.0008697509765625
1690839622366463200,7.906463134765625,-0.9815216064453125,0.011016845703125,0.0011444091796875
1690839622376503300,7.91650341796875,-0.9823455810546875,0.011444091796875,0.0010986328125
1690839622386543400,7.92654345703125,-0.982208251953125,0.0120849609375,0.0024871826171875
1690839622396614400,7.936614501953125,-0.9818878173828125,0.0109710693359375,0.0021209716796875
1690839622406655200,7.9466552734375,-0.981597900390625,0.01055908203125,0.001373291015625
1690839622416695000,7.956695068359375,-0.98138427734375,0.01141357421875,0.0016632080078125
1690839622426735000,7.966735107421875,-0.9814605712890625,0.0117950439453125,0.0020294189453125
1690839622436775200,7.976775146484375,-0.981170654296875,0.0098724365234375,0.0024566650390625
1690839622446816300,7.986816162109375,-0.9820098876953125,0.0105438232421875,0.0023956298828125
1690839622456856300,7.996856201171875,-0.9820556640625,0.011932373046875,0.001739501953125
1690839622466896400,8.006896484375,-0.982086181640625,0.0105133056640625,0.0016937255859375
1690839622476937200,8.016937255859375,-0.98223876953125,0.0105133056640625,0.0020904541015625
1690839622486977000,8.02697705078125,-0.9814910888671875,0.0112457275390625,0.00146484375
1690839622497017000,8.03701708984375,-0.981414794921875,0.0113525390625,0.0019989013671875
1690839622507057200,8.04705712890625,-0.9822845458984375,0.01092529296875,0.0013580322265625
1690839622517098200,8.05709814453125,-0.9815216064453125,0.011505126953125,0.00164794921875
1690839622527138300,8.06713818359375,-0.9806671142578125,0.01104736328125,0.0013580322265625
1690839622537178400,8.077178466796875,-0.9812774658203125,0.010772705078125,0.001800537109375
1690839622547219200,8.08721923828125,-0.9814300537109375,0.011444091796875,0.0020294189453125
1690839622557289200,8.097289306640626,-0.98114013671875,0.0121307373046875,0.0015869140625
1690839622567330000,8.107330078125,-0.981292724609375,0.0112457275390625,0.0021209716796875
1690839622577370000,8.1173701171875,-0.9800872802734375,0.0111541748046875,0.0015106201171875
1690839622587410200,8.12741015625,-0.98162841796875,0.0111846923828125,0.0012054443359375
1690839622597450200,8.1374501953125,-0.982818603515625,0.0108184814453125,0.0019989013671875
1690839622607491300,8.1474912109375,-0.9813995361328125,0.0111541748046875,0.0013427734375
1690839622617531400,8.157531494140626,-0.980133056640625,0.0109710693359375,0.001678466796875
1690839622627571200,8.1675712890625,-0.9813232421875,0.01055908203125,0.00146484375
1690839622637612000,8.177612060546876,-0.9817657470703125,0.010955810546875,0.001251220703125
1690839622647652000,8.187652099609375,-0.9814453125,0.0108795166015625,0.0014801025390625
1690839622657692200,8.197692138671876,-0.9807281494140625,0.0113067626953125,0.0023193359375
1690839622667732200,8.207732177734375,-0.9816436767578125,0.011871337890625,0.001007080078125
1690839622677773300,8.217773193359376,-0.98248291015625,0.010833740234375,0.0003509521484375
1690839622687813400,8.2278134765625,-0.9818572998046875,0.01092529296875,0.00250244140625
1690839622697860400,8.2378603515625,-0.9822540283203125,0.0113677978515625,0.001800537109375
1690839622707931400,8.247931396484375,-0.9825286865234375,0.0115203857421875,0.0012359619140625
1690839622717971500,8.257971435546875,-0.98126220703125,0.01080322265625,0.0015106201171875
1690839622728012500,8.268012451171876,-0.9808807373046875,0.0109100341796875,0.0019989013671875
1690839622738052400,8.27805224609375,-0.9814605712890625,0.0106048583984375,0.0016326904296875
1690839622748092400,8.288092529296875,-0.981109619140625,0.0111541748046875,0.00140380859375
1690839622758133500,8.298133544921875,-0.9812164306640625,0.01104736328125,0.0010986328125
1690839622768173600,8.308173583984376,-0.9819183349609375,0.01153564453125,0.0006256103515625
1690839622778213400,8.31821337890625,-0.9817962646484375,0.0124969482421875,0.0008087158203125
1690839622788253400,8.32825341796875,-0.98114013671875,0.0122222900390625,0.001861572265625
1690839622798294500,8.33829443359375,-0.9818115234375,0.01123046875,0.002044677734375
1690839622808334300,8.348334228515625,-0.981781005859375,0.0109405517578125,0.0022125244140625
1690839622818374400,8.35837451171875,-0.9814453125,0.0106048583984375,0.0020294189453125
1690839622828415500,8.36841552734375,-0.981292724609375,0.0121612548828125,0.001617431640625
1690839622838455600,8.37845556640625,-0.9809417724609375,0.011383056640625,0.00189208984375
1690839622848495400,8.388495361328125,-0.9802093505859375,0.0113677978515625,0.0009918212890625
1690839622858566400,8.39856640625,-0.9816131591796875,0.0112152099609375,0.001739501953125
1690839622868606200,8.408606201171875,-0.981781005859375,0.01116943359375,0.001312255859375
1690839622878646300,8.418646240234375,-0.982025146484375,0.0111083984375,0.00115966796875
1690839622888687400,8.428687255859375,-0.9814910888671875,0.0113983154296875,0.0010528564453125
1690839622898727400,8.4387275390625,-0.9809417724609375,0.01123046875,0.0019378662109375
1690839622908767500,8.448767578125,-0.9810943603515625,0.011474609375,0.0019989013671875
1690839622918808600,8.45880859375,-0.980499267578125,0.011077880859375,0.0017242431640625
1690839622928848400,8.468848388671875,-0.9815216064453125,0.0109405517578125,0.0027313232421875
1690839622938888400,8.478888427734375,-0.9822540283203125,0.0111541748046875,0.001739501953125
1690839622948928300,8.48892822265625,-0.980987548828125,0.01165771484375,0.0015411376953125
1690839622958969300,8.49896923828125,-0.9822998046875,0.0115203857421875,0.0013275146484375
1690839622969009400,8.509009521484375,-0.980621337890625,0.0108795166015625,0.001800537109375
1690839622979049500,8.519049560546875,-0.981414794921875,0.0119781494140625,0.0016937255859375
1690839622989090600,8.529090576171875,-0.9814300537109375,0.010986328125,0.001129150390625
1690839622999130400,8.53913037109375,-0.9817657470703125,0.0117645263671875,0.0013580322265625
1690839623009170400,8.54917041015625,-0.9820098876953125,0.011199951171875,0.0018768310546875
1690839623019241200,8.5592412109375,-0.9827880859375,0.01104736328125,0.0014495849609375
1690839623029281300,8.56928125,-0.9816131591796875,0.0109405517578125,0.0023040771484375
1690839623039321300,8.5793212890625,-0.98175048828125,0.011505126953125,0.0023345947265625
1690839623049362400,8.589362548828126,-0.9811553955078125,0.011627197265625,0.001953125
1690839623059402500,8.599402587890625,-0.9812164306640625,0.0111541748046875,0.001556396484375
1690839623069442600,8.609442626953125,-0.98077392578125,0.01104736328125,0.001708984375
1690839623079483400,8.6194833984375,-0.9808807373046875,0.0112152099609375,0.00189208984375
1690839623089523500,8.6295234375,-0.9820404052734375,0.01153564453125,0.001129150390625
1690839623099563300,8.639563232421875,-0.9818572998046875,0.0116119384765625,0.001678466796875
1690839623109603300,8.649603271484375,-0.9807891845703125,0.0103607177734375,0.00152587890625
1690839623119644400,8.65964453125,-0.9818115234375,0.0111083984375,0.0015716552734375
1690839623129684500,8.6696845703125,-0.981353759765625,0.0111541748046875,0.00201416015625
1690839623139724500,8.679724609375,-0.981842041015625,0.0116729736328125,0.0021820068359375
1690839623149765400,8.689765380859376,-0.98187255859375,0.011810302734375,0.0020294189453125
1690839623159805400,8.699805419921875,-0.98046875,0.011260986328125,0.0017242431640625
1690839623169876200,8.709876220703125,-0.9805755615234375,0.0109710693359375,0.0012359619140625
1690839623179916300,8.719916259765625,-0.9809722900390625,0.0110626220703125,0.001434326171875
1690839623189956400,8.729956298828125,-0.98095703125,0.01153564453125,0.0009765625
1690839623199997400,8.73999755859375,-0.982086181640625,0.01153564453125,0.0008697509765625
1690839623210037500,8.75003759765625,-0.981658935546875,0.0105743408203125,0.0008697509765625
1690839623220077600,8.76007763671875,-0.9825592041015625,0.0106048583984375,0.0020599365234375
1690839623230117600,8.77011767578125,-0.982208251953125,0.011260986328125,0.0020294189453125
1690839623240158500,8.780158447265626,-0.9824371337890625,0.0105133056640625,0.0016632080078125
1690839623250198300,8.7901982421875,-0.9816436767578125,0.0112457275390625,0.0019989013671875
1690839623260238300,8.80023828125,-0.9811859130859375,0.01129150390625,0.0018463134765625
1690839623270279400,8.810279541015625,-0.981536865234375,0.011383056640625,0.0017852783203125
1690839623280319500,8.820319580078126,-0.9814605712890625,0.0112152099609375,0.00146484375
1690839623290359600,8.830359619140625,-0.9825592041015625,0.01116943359375,0.0010528564453125
1690839623300399600,8.840399658203125,-0.98187255859375,0.0115203857421875,0.000946044921875
1690839623310440400,8.8504404296875,-0.9815521240234375,0.0114593505859375,0.0022735595703125
1690839623320510500,8.860510498046875,-0.982147216796875,0.011474609375,0.0020294189453125
1690839623330551300,8.87055126953125,-0.9819793701171875,0.0114898681640625,0.0010223388671875
1690839623340591400,8.88059130859375,-0.98138427734375,0.0115509033203125,0.0019989013671875
1690839623350631400,8.89063134765625,-0.9822235107421875,0.010894775390625,0.0016326904296875
1690839623360672500,8.900672607421875,-0.98211669921875,0.011444091796875,0.0027008056640625
1690839623370712600,8.910712646484376,-0.98175048828125,0.0114898681640625,0.001678466796875
1690839623380752600,8.920752685546875,-0.9813232421875,0.01080322265625,0.0017547607421875
1690839623390792400,8.93079248046875,-0.9813995361328125,0.011383056640625,0.001861572265625
1690839623400833300,8.940833251953125,-0.968017578125,0.010162353515625,-0.000701904296875
1690839623410873300,8.950873291015625,-0.9702606201171875,0.07342529296875,-0.008026123046875
1690839623420913400,8.960913330078125,-1.0094146728515625,-0.032958984375,-0.0041961669921875
1690839623430954500,8.97095458984375,-0.9728240966796875,0.00738525390625,0.0323486328125
1690839623440994600,8.98099462890625,-0.9959869384765625,-0.0072479248046875,0.025421142578125
1690839623451034600,8.99103466796875,-0.9953765869140625,-0.00799560546875,-0.0045623779296875
1690839623461074400,9.001074462890625,-0.976959228515625,0.0014495849609375,-0.0282440185546875
1690839623471145500,9.0111455078125,-0.9724578857421875,0.01318359375,-0.0157318115234375
1690839623481186300,9.021186279296876,-0.9761962890625,0.0258941650390625,-0.0062713623046875
1690839623491226400,9.031226318359375,-0.973602294921875,0.026092529296875,0.002593994140625
1690839623501266400,9.041266357421875,-0.9848175048828125,0.0242767333984375,0.01171875
1690839623511306500,9.051306396484375,-0.9757232666015625,0.0223541259765625,0.01483154296875
1690839623521347600,9.06134765625,-0.98541259765625,0.020721435546875,0.0139923095703125
1690839623531387400,9.071387451171875,-0.980804443359375,0.0186614990234375,0.0087890625
1690839623541427500,9.081427490234375,-0.978424072265625,0.0149383544921875,0.0010528564453125
1690839623551467500,9.091467529296875,-0.977691650390625,0.010223388671875,-0.0064697265625
1690839623561508400,9.10150830078125,-0.9855804443359375,0.0058746337890625,-0.0097198486328125
1690839623571548400,9.11154833984375,-0.9763641357421875,0.001434326171875,-0.0087432861328125
1690839623581588500,9.12158837890625,-0.987548828125,0.0001373291015625,-0.0017547607421875
1690839623591629600,9.131629638671875,-0.9862823486328125,-0.000244140625,0.0040435791015625
1690839623601669600,9.141669677734376,-0.9877471923828125,0.002166748046875,0.008514404296875
1690839623611709400,9.15170947265625,-0.9868927001953125,0.0056915283203125,0.0102386474609375
1690839623621749500,9.16174951171875,-0.9849090576171875,0.01019287109375,0.0078277587890625
1690839623631820500,9.171820556640625,-0.982513427734375,0.014556884765625,0.00262451171875
1690839623641861400,9.181861328125,-0.9766693115234375,0.0174560546875,-0.0030059814453125
1690839623651901400,9.1919013671875,-0.9739532470703125,0.019287109375,-0.005340576171875
1690839623661941500,9.20194140625,-0.9800262451171875,0.0196533203125,-0.005096435546875
1690839623671981300,9.211981201171875,-0.974395751953125,0.01934814453125,-0.001495361328125
1690839623682022400,9.2220224609375,-0.9805450439453125,0.0181884765625,0.003448486328125
1690839623692062500,9.2320625,-0.9823455810546875,0.014190673828125,0.007293701171875
1690839623702088000,9.242087890625,-0.98223876953125,0.0113067626953125,0.0076751708984375
1690839623712128800,9.252128662109374,-0.9835205078125,0.0094757080078125,0.005523681640625
1690839623722168800,9.2621689453125,-0.9857025146484375,0.00628662109375,0.0015869140625
1690839623732209000,9.272208984375,-0.98388671875,0.005126953125,-0.0017852783203125
1690839623742249000,9.2822490234375,-0.9827423095703125,0.0056915283203125,-0.003265380859375
1690839623752290000,9.2922900390625,-0.9813690185546875,0.0068206787109375,-0.0024871826171875
1690839623762330000,9.302330078125,-0.983123779296875,0.0088958740234375,0.0000152587890625
1690839623772370000,9.312369873046874,-0.9831390380859375,0.011016845703125,0.0022125244140625
1690839623782441000,9.32244091796875,-0.981842041015625,0.0124664306640625,0.004730224609375
1690839623792481000,9.33248095703125,-0.9838714599609375,0.0142822265625,0.0057373046875
1690839623802521900,9.34252197265625,-0.9820709228515625,0.0154571533203125,0.0041656494140625
1690839623812562000,9.35256201171875,-0.9768218994140625,0.0159454345703125,0.001678466796875
1690839623822602000,9.36260205078125,-0.9807281494140625,0.0162811279296875,0.0001983642578125
1690839623832641800,9.372641845703125,-0.9785614013671875,0.0153350830078125,-0.001129150390625
1690839623842683000,9.382682861328124,-0.9796905517578125,0.0148162841796875,-0.0010986328125
1690839623852723000,9.392722900390625,-0.9816131591796875,0.0132904052734375,0.0000152587890625
1690839623862763000,9.402762939453124,-0.98175048828125,0.009674072265625,0.0015411376953125
1690839623872803800,9.412803955078125,-0.983367919921875,0.0088043212890625,0.003326416015625
1690839623882844000,9.422843994140624,-0.98211669921875,0.0089263916015625,0.0034332275390625
1690839623892884000,9.432884033203125,-0.984405517578125,0.0073394775390625,0.003021240234375
1690839623902924000,9.442924072265624,-0.983428955078125,0.0081787109375,0.0017242431640625
1690839623912965000,9.452965087890625,-0.98095703125,0.01007080078125,0.0008544921875
1690839623923005000,9.4630048828125,-0.9832305908203125,0.0106353759765625,-0.0001220703125
1690839623933076000,9.473075927734374,-0.981719970703125,0.0120391845703125,-0.000030517578125
1690839623943116000,9.483115966796875,-0.979248046875,0.0127105712890625,0.0013427734375
1690839623953156000,9.493156005859374,-0.981475830078125,0.0140380859375,0.0015716552734375
1690839623963197000,9.503197021484375,-0.981658935546875,0.01470947265625,0.0023193359375
1690839623973237000,9.513237060546874,-0.9801483154296875,0.0139312744140625,0.0040435791015625
1690839623983276800,9.52327685546875,-0.9810028076171875,0.013946533203125,0.0031585693359375
1690839623993316900,9.53331689453125,-0.98028564453125,0.012359619140625,0.0013885498046875
1690839624003358000,9.54335791015625,-0.9806365966796875,0.011871337890625,0.0007781982421875
1690839624013398000,9.55339794921875,-0.9808807373046875,0.0100555419921875,0.001983642578125
1690839624023438000,9.56343798828125,-0.9804840087890625,0.010009765625,0.0007781982421875
1690839624033479000,9.57347900390625,-0.983428955078125,0.00970458984375,0.0004119873046875
1690839624043519000,9.58351904296875,-0.9814300537109375,0.0099029541015625,0.001861572265625
1690839624053559000,9.59355908203125,-0.9825897216796875,0.0098724365234375,0.0024871826171875
1690839624063598800,9.603598876953125,-0.98406982421875,0.010040283203125,0.002349853515625
1690839624073640000,9.613639892578124,-0.9821624755859375,0.0115509033203125,0.0022430419921875
1690839624083680000,9.623679931640625,-0.9817962646484375,0.012054443359375,0.0016632080078125
1690839624093751000,9.6337509765625,-0.981719970703125,0.01141357421875,0.0012359619140625
1690839624103791000,9.643791015625,-0.9803009033203125,0.0123443603515625,0.000762939453125
1690839624113831200,9.6538310546875,-0.980316162109375,0.01177978515625,0.0012054443359375
1690839624123872000,9.6638720703125,-0.980255126953125,0.0123138427734375,0.0005035400390625
1690839624133911800,9.673911865234375,-0.980804443359375,0.012664794921875,0.00140380859375
1690839624143952000,9.683951904296874,-0.98150634765625,0.0117950439453125,0.0017852783203125
1690839624153993000,9.693992919921875,-0.981658935546875,0.01171875,0.0023651123046875
1690839624164033000,9.704032958984374,-0.9823455810546875,0.0116729736328125,0.0026702880859375
1690839624174073000,9.714072998046875,-0.982421875,0.0106353759765625,0.0023956298828125
1690839624184113200,9.724113037109374,-0.9823760986328125,0.0106201171875,0.001434326171875
1690839624194154000,9.734154052734375,-0.9827117919921875,0.0104522705078125,0.0011749267578125
1690839624204193800,9.74419384765625,-0.982269287109375,0.0101776123046875,0.0008087158203125
1690839624214233900,9.75423388671875,-0.9820404052734375,0.010009765625,0.0010986328125
1690839624224275000,9.76427490234375,-0.9822845458984375,0.0114898681640625,0.00103759765625
1690839624234315000,9.77431494140625,-0.981597900390625,0.0122528076171875,0.0022735595703125
1690839624244386000,9.784385986328125,-0.980865478515625,0.0120849609375,0.0023345947265625
1690839624254426000,9.794426025390624,-0.9811553955078125,0.01300048828125,0.002166748046875
1690839624264466000,9.8044658203125,-0.981689453125,0.0122528076171875,0.0017852783203125
1690839624274505700,9.814505615234374,-0.9815673828125,0.011627197265625,0.0022125244140625
1690839624284546800,9.824546875,-0.980865478515625,0.0124664306640625,0.00152587890625
1690839624294587000,9.8345869140625,-0.9810943603515625,0.0115509033203125,0.001312255859375
1690839624304627000,9.844626953125,-0.982147216796875,0.011199951171875,0.0019989013671875
1690839624314668000,9.85466796875,-0.980712890625,0.0116119384765625,0.0029296875
1690839624324708000,9.8647080078125,-0.9823760986328125,0.01080322265625,0.0018463134765625
1690839624334748000,9.874747802734374,-0.982818603515625,0.0112457275390625,0.001190185546875
1690839624344787700,9.88478759765625,-0.9811248779296875,0.0110931396484375,0.0015411376953125
1690839624354828800,9.894828857421874,-0.98150634765625,0.01104736328125,0.0018768310546875
1690839624364868900,9.904868896484375,-0.981597900390625,0.0111083984375,0.0015716552734375
1690839624374909000,9.914908935546874,-0.98150634765625,0.0116424560546875,0.00146484375
1690839624384950000,9.924949951171875,-0.98162841796875,0.0116729736328125,0.00140380859375
1690839624395020000,9.93502001953125,-0.9804840087890625,0.011932373046875,0.0013275146484375
1690839624405061000,9.94506103515625,-0.9817657470703125,0.0120391845703125,0.001861572265625
1690839624415101000,9.955100830078125,-0.9825439453125,0.0120697021484375,0.0022430419921875
1690839624425140700,9.965140625,-0.981597900390625,0.0120086669921875,0.0023040771484375
1690839624435181800,9.975181884765625,-0.98162841796875,0.011138916015625,0.0022430419921875
1690839624445222000,9.985221923828124,-0.9809417724609375,0.011474609375,0.0022125244140625
1690839624455262000,9.995261962890625,-0.9808349609375,0.011688232421875,0.00164794921875
1690839624465302000,10.005302001953124,-0.981903076171875,0.0118560791015625,0.0013275146484375
1690839624475343000,10.015343017578125,-0.9814910888671875,0.0115966796875,0.002227783203125
1690839624485383000,10.0253828125,-0.981201171875,0.011962890625,0.0022125244140625
1690839624495422700,10.035422607421875,-0.98175048828125,0.0122222900390625,0.0015106201171875
1690839624505462800,10.045462890625,-0.9807891845703125,0.0114593505859375,0.0006866455078125
1690839624515503900,10.05550390625,-0.9810028076171875,0.01092529296875,0.0023345947265625
1690839624525544000,10.0655439453125,-0.9817657470703125,0.011322021484375,0.0027618408203125
1690839624535584000,10.075583984375,-0.9816741943359375,0.01141357421875,0.0022430419921875
1690839624545625000,10.085625,-0.981475830078125,0.0117950439453125,0.0015411376953125
1690839624555695000,10.095695068359374,-0.9817657470703125,0.01092529296875,0.001922607421875
1690839624565736000,10.10573583984375,-0.981658935546875,0.0113067626953125,0.00177001953125
1690839624575775700,10.115775634765624,-0.981658935546875,0.0117034912109375,0.0012969970703125
1690839624585815800,10.12581591796875,-0.9808349609375,0.0111083984375,0.0018157958984375
1690839624595857000,10.13585693359375,-0.98236083984375,0.0114593505859375,0.001800537109375
1690839624605897000,10.14589697265625,-0.9808197021484375,0.0123138427734375,0.0022125244140625
1690839624615937000,10.15593701171875,-0.981719970703125,0.01214599609375,0.0023193359375
1690839624625977000,10.16597705078125,-0.9820404052734375,0.0126495361328125,0.0014801025390625
1690839624636018000,10.176017822265624,-0.981689453125,0.0123138427734375,0.0022125244140625
1690839624646057700,10.1860576171875,-0.981597900390625,0.0110931396484375,0.001800537109375
1690839624656097800,10.196097900390624,-0.9813690185546875,0.0123291015625,0.002105712890625
1690839624666139000,10.206138916015625,-0.981170654296875,0.0122222900390625,0.0019378662109375
1690839624676179000,10.216178955078124,-0.981597900390625,0.0116119384765625,0.0019073486328125
1690839624686219000,10.226218994140625,-0.9820098876953125,0.0122833251953125,0.0022430419921875
1690839624696259000,10.236259033203124,-0.9813385009765625,0.0108489990234375,0.00244140625
1690839624706315000,10.24631494140625,-0.9824371337890625,0.010833740234375,0.001708984375
1690839624716355000,10.25635498046875,-0.98211669921875,0.01171875,0.00213623046875
1690839624726396200,10.266396240234375,-0.9827423095703125,0.0111541748046875,0.001434326171875
1690839624736436000,10.27643603515625,-0.982269287109375,0.0117645263671875,0.0004119873046875
1690839624746476000,10.28647607421875,-0.981842041015625,0.01251220703125,0.0015106201171875
1690839624756516900,10.296516845703126,-0.98114013671875,0.0115203857421875,0.001373291015625
1690839624766557000,10.306556884765625,-0.981231689453125,0.012054443359375,0.0018463134765625
1690839624776597000,10.316596923828126,-0.982757568359375,0.0111541748046875,0.0026092529296875
1690839624786637000,10.326636962890625,-0.9810943603515625,0.011474609375,0.002166748046875
1690839624796678100,10.33667822265625,-0.9814910888671875,0.011505126953125,0.0023193359375
1690839624806718000,10.346718017578125,-0.9814453125,0.011383056640625,0.0024871826171875
1690839624816758000,10.356758056640626,-0.981475830078125,0.0120849609375,0.0014495849609375
1690839624826798800,10.366798828125,-0.9820404052734375,0.01171875,0.0019989013671875
1690839624836839000,10.3768388671875,-0.981475830078125,0.0118865966796875,0.0014801025390625
1690839624846879000,10.38687890625,-0.98162841796875,0.0107879638671875,0.0011444091796875
1690839624856950000,10.396949951171875,-0.9812164306640625,0.0110321044921875,0.0018157958984375
1690839624866990000,10.406989990234376,-0.982269287109375,0.011474609375,0.0020904541015625
1690839624877031200,10.41703125,-0.98138427734375,0.0113525390625,0.0018157958984375
1690839624887071000,10.427071044921876,-0.9819488525390625,0.011016845703125,0.0010986328125
1690839624897111000,10.437111083984375,-0.9815521240234375,0.01171875,0.001861572265625
1690839624907151000,10.447151123046876,-0.9814605712890625,0.012847900390625,0.0014190673828125
1690839624917192000,10.45719189453125,-0.9808197021484375,0.012542724609375,0.0022430419921875
1690839624927232000,10.46723193359375,-0.981231689453125,0.0112457275390625,0.002899169921875
1690839624937272000,10.47727197265625,-0.9824676513671875,0.01214599609375,0.0021514892578125
1690839624947313200,10.487313232421876,-0.9818878173828125,0.0110626220703125,0.0020751953125
1690839624957353000,10.49735302734375,-0.98095703125,0.011810302734375,0.001312255859375
1690839624967393000,10.50739306640625,-0.9806060791015625,0.0106201171875,0.0015411376953125
1690839624977433000,10.51743310546875,-0.9809112548828125,0.0110626220703125,0.00164794921875
1690839624987474000,10.527473876953126,-0.9815673828125,0.011199951171875,0.001800537109375
1690839624997514000,10.537513916015625,-0.980133056640625,0.0114288330078125,0.001708984375
1690839625007585000,10.5475849609375,-0.9817047119140625,0.011566162109375,0.0018310546875
1690839625017625000,10.557625,-0.982147216796875,0.0117034912109375,0.0015869140625
1690839625027665000,10.567664794921875,-0.9813995361328125,0.01214599609375,0.0021209716796875
1690839625037706000,10.5777060546875,-0.981353759765625,0.01165771484375,0.0024261474609375
1690839625047746000,10.58774609375,-0.982025146484375,0.0121002197265625,0.001739501953125
1690839625057786000,10.5977861328125,-0.981597900390625,0.0118560791015625,0.0011749267578125
1690839625067826000,10.607825927734375,-0.9815216064453125,0.011322021484375,0.0010528564453125
1690839625077867000,10.617866943359376,-0.9808502197265625,0.011505126953125,0.00152587890625
1690839625087907000,10.627906982421875,-0.9820709228515625,0.01116943359375,0.0013427734375
1690839625097947000,10.63794677734375,-0.9808197021484375,0.0111846923828125,0.0012969970703125
1690839625107988000,10.647988037109375,-0.9814300537109375,0.012176513671875,0.00189208984375
1690839625118028000,10.658028076171876,-0.9815826416015625,0.0115814208984375,0.001708984375
1690839625128068000,10.668068115234375,-0.981842041015625,0.0111541748046875,0.002593994140625
1690839625138108000,10.67810791015625,-0.9808502197265625,0.01177978515625,0.00244140625
1690839625148149000,10.68814892578125,-0.981597900390625,0.0113525390625,0.0020751953125
1690839625158189000,10.69818896484375,-0.981903076171875,0.0114593505859375,0.00128173828125
1690839625168260000,10.708260009765626,-0.9812469482421875,0.0119781494140625,0.00079345703125
1690839625178300000,10.7182998046875,-0.981781005859375,0.0120849609375,0.0014190673828125
1690839625188340000,10.728340087890626,-0.981048583984375,0.011871337890625,0.0019378662109375
1690839625198381000,10.738381103515625,-0.9813232421875,0.011688232421875,0.0017852783203125
1690839625208420900,10.7484208984375,-0.98162841796875,0.012054443359375,0.0016021728515625
1690839625218461000,10.7584609375,-0.9806060791015625,0.0112152099609375,0.0015869140625
1690839625228501000,10.7685009765625,-0.981597900390625,0.012725830078125,0.0013580322265625
1690839625238542000,10.7785419921875,-0.9821929931640625,0.0118408203125,0.0019378662109375
1690839625248582000,10.788581787109376,-0.981903076171875,0.0107421875,0.00140380859375
1690839625258622000,10.7986220703125,-0.9811859130859375,0.01141357421875,0.0012359619140625
1690839625268663000,10.8086630859375,-0.9820404052734375,0.01177978515625,0.00244140625
1690839625278702800,10.818702880859375,-0.9815521240234375,0.010986328125,0.0019073486328125
1690839625288743000,10.828742919921876,-0.981109619140625,0.010894775390625,0.0017242431640625
1690839625298783000,10.838782958984375,-0.982391357421875,0.0113067626953125,0.00299072265625
1690839625308824000,10.848823974609376,-0.9809112548828125,0.0116729736328125,0.0013427734375
1690839625318895000,10.85889501953125,-0.981597900390625,0.01153564453125,0.0012969970703125
1690839625328935000,10.868934814453125,-0.981842041015625,0.011810302734375,0.001861572265625
1690839625338975000,10.87897509765625,-0.98162841796875,0.0118255615234375,0.0014495849609375
1690839625349015000,10.88901513671875,-0.9813690185546875,0.0121307373046875,0.0020294189453125
1690839625359056000,10.899055908203126,-0.981292724609375,0.0113983154296875,0.0015411376953125
1690839625369096000,10.909095947265625,-0.9813995361328125,0.011383056640625,0.0013275146484375
1690839625379136000,10.919135986328126,-0.981414794921875,0.01251220703125,0.00128173828125
1690839625389177000,10.929177001953125,-0.981658935546875,0.012054443359375,0.0026397705078125
1690839625399217000,10.939216796875,-0.9810333251953125,0.0117950439453125,0.0017852783203125
1690839625409257000,10.949257080078125,-0.9816131591796875,0.011688232421875,0.0022735595703125
1690839625419297000,10.959297119140626,-0.982391357421875,0.01177978515625,0.002105712890625
1690839625429337900,10.969337890625,-0.98199462890625,0.0108795166015625,0.0016326904296875
1690839625439378000,10.9793779296875,-0.9818572998046875,0.012481689453125,0.001220703125
1690839625449418000,10.98941796875,-0.9817657470703125,0.01177978515625,0.0015106201171875
1690839625459459000,10.999458984375,-0.981292724609375,0.0114288330078125,0.0021514892578125
1690839625469528800,11.00952880859375,-0.9817352294921875,0.011016845703125,0.002288818359375
1690839625479570000,11.01956982421875,-0.9813385009765625,0.011383056640625,0.001861572265625
1690839625489610000,11.02960986328125,-0.98101806640625,0.01165771484375,0.001617431640625
1690839625499650000,11.039650146484375,-0.9813690185546875,0.01190185546875,0.0013580322265625
1690839625509690000,11.049690185546876,-0.98187255859375,0.0123291015625,0.0020294189453125
1690839625519731000,11.05973095703125,-0.9819488525390625,0.012481689453125,0.0016021728515625
1690839625529771000,11.06977099609375,-0.982177734375,0.01263427734375,0.0016937255859375
1690839625539810800,11.079810791015625,-0.9817657470703125,0.011505126953125,0.002471923828125
1690839625549852000,11.089851806640626,-0.98162841796875,0.01141357421875,0.0014190673828125
1690839625559892000,11.09989208984375,-0.9808807373046875,0.0114288330078125,0.00103759765625
1690839625569932000,11.10993212890625,-0.9812164306640625,0.011993408203125,0.001434326171875
1690839625579972000,11.11997216796875,-0.9808807373046875,0.0115814208984375,0.0020751953125
1690839625590013000,11.130012939453126,-0.9818267822265625,0.0117034912109375,0.0023193359375
1690839625600053000,11.140052978515625,-0.982635498046875,0.011474609375,0.00152587890625
1690839625610092800,11.1500927734375,-0.9823150634765625,0.0120849609375,0.0019989013671875
1690839625620163800,11.160163818359376,-0.981597900390625,0.0117950439453125,0.0013885498046875
1690839625630204000,11.170203857421875,-0.9820404052734375,0.011199951171875,0.001495361328125
1690839625640245000,11.180244873046876,-0.981658935546875,0.01165771484375,0.001617431640625
1690839625650285000,11.19028515625,-0.9821319580078125,0.01165771484375,0.001617431640625
1690839625660325000,11.2003251953125,-0.9819488525390625,0.011322021484375,0.0013580322265625
1690839625670365200,11.210365234375,-0.9810791015625,0.01153564453125,0.0017547607421875
1690839625680406000,11.220406005859376,-0.98199462890625,0.011138916015625,0.0023345947265625
1690839625690445800,11.23044580078125,-0.981964111328125,0.0119781494140625,0.0016326904296875
1690839625700499200,11.240499267578125,-0.982147216796875,0.0117340087890625,0.0022430419921875
1690839625710540300,11.250540283203126,-0.9822540283203125,0.0113677978515625,0.0025177001953125
1690839625720580400,11.260580322265625,-0.9821319580078125,0.0112457275390625,0.0020294189453125
1690839625730620400,11.270620361328126,-0.98260498046875,0.0112762451171875,0.0013580322265625
1690839625740660500,11.280660400390625,-0.98199462890625,0.0117340087890625,0.0017547607421875
1690839625750701300,11.290701416015626,-0.9813690185546875,0.011962890625,0.00128173828125
1690839625760741000,11.3007412109375,-0.982452392578125,0.0120849609375,0.001708984375
1690839625770781200,11.31078125,-0.98187255859375,0.011627197265625,0.001495361328125
1690839625780852200,11.320852294921876,-0.980987548828125,0.01251220703125,0.0018768310546875
1690839625790892300,11.330892333984375,-0.9817352294921875,0.0121917724609375,0.0009002685546875
1690839625800933400,11.340933349609376,-0.9810333251953125,0.0120086669921875,0.0010223388671875
1690839625810973400,11.350973388671875,-0.9811859130859375,0.0114898681640625,0.002349853515625
1690839625821013200,11.36101318359375,-0.9816741943359375,0.01165771484375,0.0017547607421875
1690839625831054300,11.371054443359375,-0.9822235107421875,0.0117034912109375,0.002044677734375
1690839625841094100,11.38109423828125,-0.9818267822265625,0.0112457275390625,0.002349853515625
1690839625851134200,11.39113427734375,-0.982177734375,0.0115203857421875,0.0023345947265625
1690839625861174300,11.40117431640625,-0.9813995361328125,0.0114593505859375,0.0027008056640625
1690839625871215400,11.41121533203125,-0.9815216064453125,0.010894775390625,0.002197265625
1690839625881255400,11.42125537109375,-0.9822540283203125,0.01153564453125,0.00189208984375
1690839625891295500,11.43129541015625,-0.9812164306640625,0.0121917724609375,0.00115966796875
1690839625901336300,11.44133642578125,-0.980804443359375,0.0121002197265625,0.0016632080078125
1690839625911376100,11.451376220703125,-0.9814910888671875,0.0116119384765625,0.0014190673828125
1690839625921416200,11.461416259765626,-0.9803619384765625,0.01202392578125,0.0008697509765625
1690839625931487200,11.4714873046875,-0.981201171875,0.012176513671875,0.0018157958984375
1690839625941527300,11.48152734375,-0.982757568359375,0.012481689453125,0.0009307861328125
1690839625951567400,11.4915673828125,-0.9817962646484375,0.012054443359375,0.0022735595703125
1690839625961608400,11.5016083984375,-0.981414794921875,0.0118560791015625,0.002655029296875
1690839625971648300,11.511648193359376,-0.9813079833984375,0.0120391845703125,0.00238037109375
1690839625981688300,11.521688232421875,-0.982086181640625,0.011138916015625,0.00286865234375
1690839625991729200,11.531729248046876,-0.9817047119140625,0.0113677978515625,0.0018768310546875
1690839626001769200,11.541769287109375,-0.9813232421875,0.0121612548828125,0.0016937255859375
1690839626011809300,11.551809326171876,-0.98126220703125,0.01165771484375,0.00140380859375
1690839626021849300,11.561849365234375,-0.9816131591796875,0.0113372802734375,0.0005340576171875
1690839626031890400,11.571890380859376,-0.9819488525390625,0.012298583984375,0.0007171630859375
1690839626041930500,11.581930419921875,-0.9822998046875,0.0125732421875,0.00042724609375
1690839626051970300,11.59197021484375,-0.9824981689453125,0.0128021240234375,0.00128173828125
1690839626062011100,11.60201123046875,-0.9813232421875,0.012054443359375,0.001861572265625
1690839626072051200,11.61205126953125,-0.9814453125,0.01239013671875,0.0015869140625
1690839626082122200,11.622122314453126,-0.9819183349609375,0.011505126953125,0.0020599365234375
1690839626092162300,11.632162353515625,-0.98175048828125,0.011260986328125,0.00213623046875
1690839626102202400,11.642202392578126,-0.9814910888671875,0.0117950439453125,0.00262451171875
1690839626112242200,11.6522421875,-0.9815216064453125,0.011962890625,0.0020751953125
1690839626122283300,11.662283203125,-0.981689453125,0.012054443359375,0.0021820068359375
1690839626132323300,11.6723232421875,-0.980804443359375,0.0117645263671875,0.001373291015625
1690839626142363400,11.68236328125,-0.981201171875,0.011505126953125,0.001556396484375
1690839626152404200,11.692404296875,-0.9814605712890625,0.011505126953125,0.001495361328125
1690839626162444300,11.7024443359375,-0.982513427734375,0.011566162109375,0.001190185546875
1690839626172484400,11.712484375,-0.9827117919921875,0.0119171142578125,0.0017242431640625
1690839626182524200,11.722524169921876,-0.9825286865234375,0.011566162109375,0.0023956298828125
1690839626192565200,11.732565185546875,-0.981170654296875,0.011566162109375,0.0026092529296875
1690839626202605300,11.742605224609376,-0.9817352294921875,0.0121917724609375,0.0024566650390625
1690839626212645400,11.752645263671875,-0.981689453125,0.0117950439453125,0.00238037109375
1690839626222686200,11.762686279296876,-0.982635498046875,0.011199951171875,0.0022735595703125
1690839626232726300,11.772726318359375,-0.9824676513671875,0.011871337890625,0.00225830078125
1690839626242797300,11.78279736328125,-0.981689453125,0.0120086669921875,0.002166748046875
1690839626252837400,11.79283740234375,-0.9806671142578125,0.0119476318359375,0.00146484375
1690839626262877200,11.802877197265625,-0.9803924560546875,0.0114593505859375,0.0012359619140625
1690839626272918300,11.812918212890626,-0.980377197265625,0.0114593505859375,0.00128173828125
1690839626282958300,11.822958251953125,-0.9810943603515625,0.0115509033203125,0.0017852783203125
1690839626292998400,11.832998291015626,-0.9812469482421875,0.0113677978515625,0.001312255859375
1690839626303038500,11.84303857421875,-0.9813690185546875,0.01177978515625,0.0019378662109375
1690839626313079300,11.853079345703126,-0.9814910888671875,0.0109405517578125,0.0026397705078125
1690839626323119400,11.863119384765625,-0.982513427734375,0.0111846923828125,0.00213623046875
1690839626333159200,11.8731591796875,-0.982208251953125,0.0111236572265625,0.002532958984375
1690839626343200300,11.8832001953125,-0.9811553955078125,0.011474609375,0.0015716552734375
1690839626353240300,11.893240234375,-0.981597900390625,0.011871337890625,0.001251220703125
1690839626363280400,11.9032802734375,-0.9811553955078125,0.0116424560546875,0.0020294189453125
1690839626373320400,11.913320556640626,-0.981658935546875,0.01214599609375,0.0018157958984375
1690839626383361300,11.923361328125,-0.9814910888671875,0.0120086669921875,0.0020294189453125
1690839626393431600,11.933431640625,-0.9812469482421875,0.0117340087890625,0.00164794921875
1690839626403472400,11.943472412109376,-0.9812774658203125,0.0124053955078125,0.00079345703125
1690839626413512200,11.95351220703125,-0.9814605712890625,0.011444091796875,0.0018768310546875
1690839626423552300,11.96355224609375,-0.98284912109375,0.0113677978515625,0.0009918212890625
1690839626433593300,11.97359326171875,-0.9818878173828125,0.0120697021484375,0.0014801025390625
1690839626443633400,11.98363330078125,-0.9815521240234375,0.0124359130859375,0.0023651123046875
1690839626453673500,11.993673583984375,-0.9812164306640625,0.0110321044921875,0.00164794921875
1690839626463713300,12.00371337890625,-0.9815673828125,0.011566162109375,0.0017242431640625
1690839626473754400,12.01375439453125,-0.9819488525390625,0.011566162109375,0.001861572265625
1690839626483794200,12.023794189453126,-0.982086181640625,0.0121917724609375,0.0011749267578125
1690839626493834200,12.033834228515625,-0.9815673828125,0.01190185546875,0.0011444091796875
1690839626503875300,12.043875244140626,-0.9816131591796875,0.011474609375,0.00091552734375
1690839626513915400,12.053915283203125,-0.9817352294921875,0.011566162109375,0.0014190673828125
1690839626523955500,12.06395556640625,-0.981201171875,0.01214599609375,0.0016021728515625
1690839626533995300,12.073995361328125,-0.9808807373046875,0.011444091796875,0.0017547607421875
1690839626544066300,12.08406640625,-0.9812774658203125,0.011932373046875,0.0027313232421875
1690839626554107400,12.094107421875,-0.98175048828125,0.011627197265625,0.002532958984375
1690839626564147200,12.104147216796875,-0.981689453125,0.0118255615234375,0.002471923828125
1690839626574187300,12.114187255859376,-0.9809722900390625,0.0106201171875,0.0019989013671875
1690839626584227300,12.124227294921875,-0.981353759765625,0.01141357421875,0.0018768310546875
1690839626594268400,12.134268310546876,-0.9828033447265625,0.0118865966796875,0.00225830078125
1690839626604308500,12.14430859375,-0.9810638427734375,0.0113677978515625,0.002227783203125
1690839626614348300,12.154348388671876,-0.9808349609375,0.0111236572265625,0.0014495849609375
1690839626624388000,12.16438818359375,-0.9811859130859375,0.012115478515625,0.001953125
1690839626634429200,12.17442919921875,-0.982208251953125,0.013031005859375,0.0015716552734375
1690839626644469200,12.18446923828125,-0.98150634765625,0.0125274658203125,0.0017242431640625
1690839626654509300,12.19450927734375,-0.9814453125,0.0114593505859375,0.0016326904296875
1690839626664550400,12.20455029296875,-0.9813995361328125,0.0115814208984375,0.0019073486328125
1690839626674590500,12.214590576171876,-0.9822235107421875,0.0118560791015625,0.0019683837890625
1690839626684630300,12.22463037109375,-0.9821014404296875,0.0113677978515625,0.0018157958984375
1690839626694701300,12.234701416015625,-0.9820709228515625,0.0113525390625,0.0014495849609375
1690839626704728300,12.244728271484375,-0.9816131591796875,0.0116729736328125,0.0018463134765625
1690839626714769400,12.254769287109376,-0.98162841796875,0.0116729736328125,0.00164794921875
1690839626724809500,12.2648095703125,-0.98114013671875,0.011993408203125,0.0015411376953125
1690839626734849500,12.274849609375,-0.981414794921875,0.01055908203125,0.0016021728515625
1690839626744889600,12.2848896484375,-0.9821014404296875,0.0111846923828125,0.0011749267578125
1690839626754930400,12.294930419921876,-0.982208251953125,0.0116119384765625,0.001739501953125
1690839626764970500,12.304970458984375,-0.9816131591796875,0.01220703125,0.0025787353515625
1690839626775010300,12.31501025390625,-0.9805755615234375,0.01214599609375,0.0017547607421875
1690839626785051400,12.325051513671875,-0.981903076171875,0.011505126953125,0.00177001953125
1690839626795091500,12.335091552734376,-0.9815216064453125,0.011932373046875,0.002410888671875
1690839626805131500,12.345131591796875,-0.981719970703125,0.0119476318359375,0.00201416015625
1690839626815171600,12.355171630859376,-0.9819488525390625,0.011871337890625,0.00146484375
1690839626825212400,12.36521240234375,-0.982421875,0.0117340087890625,0.00177001953125
1690839626835252500,12.37525244140625,-0.981109619140625,0.0120391845703125,0.001251220703125
1690839626845292300,12.385292236328125,-0.9818115234375,0.0123443603515625,0.0018768310546875
1690839626855363300,12.39536328125,-0.9816741943359375,0.012054443359375,0.0021820068359375
1690839626865403400,12.4054033203125,-0.9813690185546875,0.0113983154296875,0.002288818359375
1690839626875444500,12.415444580078125,-0.9819793701171875,0.01104736328125,0.002197265625
1690839626885484500,12.425484619140626,-0.980987548828125,0.011505126953125,0.00213623046875
1690839626895524600,12.435524658203125,-0.9817352294921875,0.011505126953125,0.00238037109375
1690839626905564700,12.445564697265626,-0.981842041015625,0.011444091796875,0.001953125
1690839626915605500,12.45560546875,-0.982421875,0.0117034912109375,0.0018768310546875
1690839626925645300,12.465645263671876,-0.981842041015625,0.01202392578125,0.001129150390625
1690839626935685400,12.475685302734375,-0.9816436767578125,0.0117950439453125,0.0012969970703125
1690839626945726500,12.4857265625,-0.981903076171875,0.01214599609375,0.001434326171875
1690839626955766500,12.4957666015625,-0.9813232421875,0.011444091796875,0.002288818359375
1690839626965806600,12.505806640625,-0.98150634765625,0.011749267578125,0.001739501953125
1690839626975846700,12.5158466796875,-0.9816131591796875,0.0115966796875,0.00189208984375
1690839626985887500,12.525887451171876,-0.9815673828125,0.0114898681640625,0.001739501953125
1690839626995927300,12.53592724609375,-0.9821014404296875,0.0117034912109375,0.001708984375
1690839627005998300,12.545998291015625,-0.981597900390625,0.0118408203125,0.00152587890625
1690839627016038400,12.556038330078126,-0.98223876953125,0.0114898681640625,0.002105712890625
1690839627026078500,12.566078369140625,-0.98095703125,0.0118255615234375,0.001983642578125
1690839627036119600,12.57611962890625,-0.9815826416015625,0.011474609375,0.0022430419921875
1690839627046159600,12.58615966796875,-0.9815673828125,0.0116424560546875,0.0017547607421875
1690839627056199400,12.596199462890626,-0.9814453125,0.0112152099609375,0.00164794921875
1690839627066240500,12.606240478515625,-0.9821014404296875,0.011016845703125,0.00115966796875
1690839627076280300,12.6162802734375,-0.9817352294921875,0.0117645263671875,0.001312255859375
1690839627086320400,12.6263203125,-0.9819488525390625,0.010772705078125,0.0018463134765625
1690839627096360400,12.6363603515625,-0.9815521240234375,0.0118560791015625,0.0019378662109375
1690839627106401500,12.646401611328125,-0.980712890625,0.0124053955078125,0.0017547607421875
1690839627116441600,12.656441650390626,-0.981475830078125,0.011962890625,0.0015869140625
1690839627126481400,12.6664814453125,-0.9818267822265625,0.01177978515625,0.0025177001953125
1690839627136521200,12.676521240234376,-0.98211669921875,0.010894775390625,0.0017242431640625
1690839627146562300,12.686562255859375,-0.9823150634765625,0.0114593505859375,0.0023345947265625
1690839627156633300,12.69663330078125,-0.981597900390625,0.0107421875,0.00201416015625
1690839627166673400,12.70667333984375,-0.9812774658203125,0.01202392578125,0.001861572265625
1690839627176713500,12.71671337890625,-0.9819793701171875,0.0119171142578125,0.001861572265625
1690839627186753500,12.72675341796875,-0.9816436767578125,0.011627197265625,0.001861572265625
1690839627196794600,12.736794677734375,-0.9809722900390625,0.011871337890625,0.0021820068359375
1690839627206834400,12.74683447265625,-0.9815673828125,0.0118255615234375,0.0021209716796875
1690839627216874200,12.756874267578125,-0.981109619140625,0.0115509033203125,0.0014801025390625
1690839627226915300,12.766915283203126,-0.981719970703125,0.01171875,0.001800537109375
1690839627236955400,12.776955322265625,-0.9819793701171875,0.0119781494140625,0.0009918212890625
1690839627246995500,12.786995361328126,-0.981353759765625,0.011993408203125,0.0011138916015625
1690839627257035500,12.797035400390625,-0.98187255859375,0.0115814208984375,0.001190185546875
1690839627267076600,12.80707666015625,-0.982421875,0.0103759765625,0.00244140625
1690839627277116400,12.817116455078125,-0.9819488525390625,0.0110626220703125,0.0026397705078125
1690839627287156200,12.82715625,-0.982177734375,0.011627197265625,0.0023193359375
1690839627297197300,12.837197265625,-0.9816436767578125,0.01116943359375,0.0016326904296875
1690839627307267300,12.847267333984375,-0.9820709228515625,0.0108795166015625,0.001556396484375
1690839627317308400,12.857308349609376,-0.98223876953125,0.01153564453125,0.0019073486328125
1690839627327348500,12.867348388671875,-0.981597900390625,0.0112762451171875,0.0011749267578125
1690839627337388500,12.877388427734376,-0.9815673828125,0.0117340087890625,0.0007476806640625
1690839627347428600,12.8874287109375,-0.9808807373046875,0.011749267578125,0.002044677734375
1690839627357469400,12.897469482421876,-0.9806976318359375,0.01104736328125,0.0018310546875
1690839627367509200,12.90750927734375,-0.9811553955078125,0.011322021484375,0.0022735595703125
1690839627377549300,12.91754931640625,-0.9809417724609375,0.011566162109375,0.0012969970703125
1690839627387590400,12.92759033203125,-0.9815216064453125,0.01177978515625,0.0018463134765625
1690839627397630500,12.93763037109375,-0.98114013671875,0.0117340087890625,0.002105712890625
1690839627407670500,12.94767041015625,-0.9824371337890625,0.011016845703125,0.0027618408203125
1690839627417710600,12.957710693359376,-0.982269287109375,0.011260986328125,0.0021514892578125
1690839627427751400,12.96775146484375,-0.9808502197265625,0.0121612548828125,0.001800537109375
1690839627437791200,12.977791259765626,-0.9809722900390625,0.011474609375,0.0010986328125
1690839627447831300,12.987831298828125,-0.9808197021484375,0.011810302734375,0.0008544921875
1690839627457872400,12.997872314453126,-0.9813995361328125,0.01202392578125,0.0014190673828125
1690839627467942400,13.0079423828125,-0.98175048828125,0.0125732421875,0.001556396484375
1690839627477983500,13.0179833984375,-0.9808502197265625,0.0115509033203125,0.0016326904296875
1690839627488023600,13.0280234375,-0.9813079833984375,0.011566162109375,0.0015106201171875
1690839627498063600,13.038063720703125,-0.982574462890625,0.0126190185546875,0.001800537109375
1690839627508104400,13.0481044921875,-0.982025146484375,0.011016845703125,0.001953125
1690839627518144300,13.058144287109375,-0.981353759765625,0.011749267578125,0.001800537109375
1690839627528184300,13.068184326171876,-0.9827880859375,0.01190185546875,0.001220703125
1690839627538224400,13.078224365234375,-0.9821624755859375,0.0113372802734375,0.0015869140625
1690839627548265500,13.088265380859376,-0.98138427734375,0.0121612548828125,0.002349853515625
