time,seconds_elapsed,z,y,x
1690839614656066300,0.19606640625,0.17058569924235342,-0.13399360603466628,-0.004100981603510445
1690839614666106400,0.2061064453125,0.15696633921265601,-0.19732560293413698,-0.018253594559960763
1690839614676146400,0.216146484375,0.15154431416392325,-0.21306082260664552,-0.025279400401876772
1690839614686187500,0.2261875,0.1589630659878254,-0.19564702046373858,-0.022793367156246677
1690839614696246800,0.236246826171875,0.17938100011646746,-0.13362643495639787,-0.00765498543230351
1690839614706286800,0.246286865234375,0.20892215189933774,-0.059197262581763783,0.004934493835183093
1690839614716327000,0.256326904296875,0.2395236263900995,0.022762917219055816,0.019872942815034184
1690839614726368000,0.266367919921875,0.2668570389956236,0.08839548267847858,0.01895121116050286
1690839614736438000,0.27643798828125,0.30200901639759536,0.14935944440551102,0.005666364331776276
1690839614746479000,0.28647900390625,0.3177624658465385,0.39523225715924054,0.013926722645550034
1690839614756519000,0.296518798828125,0.3146785283565521,0.4016592945320531,0.007742362321657128
1690839614766559000,0.30655908203125,0.285769244736433,0.3869534544399008,0.016356397477886638
1690839614776599800,0.316599853515625,0.26156010163128374,0.3076164444832131,0.0178880046590697
1690839614786640000,0.326639892578125,0.2473012746542692,0.20366240474022923,0.014839622539654374
1690839614796680000,0.336679931640625,0.21684885324537753,0.10311788117978721,0.00745407144492201
1690839614806720000,0.346719970703125,0.19720716418623924,0.012399436588102252,0.003578037724929163
1690839614816761000,0.356760986328125,0.18596037850677966,-0.054602244675392285,-0.00039799775808351114
1690839614826801200,0.36680126953125,0.17728490462005136,-0.09038976176823489,-0.00010429377482505515
1690839614836841000,0.376841064453125,0.18995149396955965,-0.10380416467720642,-0.006493215068866265
1690839614846881800,0.3868818359375,0.21173428671061992,-0.08621390085569583,-0.004530036653560819
1690839614856921900,0.396921875,0.22355741097331044,-0.040351299610733984,0.005957267861528089
1690839614866962000,0.4069619140625,0.2504424952894449,0.023640092779230324,0.006042295246879803
1690839614877002000,0.417001953125,0.26334581600427626,0.06516968805487268,0.013211169671162497
1690839614887073000,0.427072998046875,0.2802010892152786,0.09726065218471922,0.005449683665571501
1690839614897114000,0.437114013671875,0.2777753233730793,0.11933431763113475,-0.005114192075422033
1690839614907154000,0.44715380859375,0.2701058116585016,0.1155719876892399,-0.005395510359498439
1690839614917194000,0.457194091796875,0.2640601017534733,0.0900404186076019,-0.000984357695118524
1690839614927234000,0.467234130859375,0.23448797031044957,0.05644728345361072,-0.00010639782529906369
1690839614937275000,0.47727490234375,0.22403262726962564,0.020303445470076984,0.0056156365082482805
1690839614947315000,0.48731494140625,0.20620821676552295,-0.023867891919426617,0.004234168112679617
1690839614957355000,0.49735498046875,0.1920972738265991,-0.05465343600651249,0.0009167700683348812
1690839614967396000,0.50739599609375,0.191879247161746,-0.06762704547857866,0.005727760821435367
1690839614977436000,0.517435791015625,0.2018225490272045,-0.06089503380982205,-0.001395641909749247
1690839614987476000,0.52747607421875,0.20158990931510923,-0.055936927345255384,-0.0015996423325384966
1690839614997516000,0.53751611328125,0.21319617595672608,-0.028388282820163292,0.006332236370473401
1690839615007556900,0.547556884765625,0.24593115534484386,0.013722966534644365,0.002638714473135769
1690839615017597000,0.557596923828125,0.2405395254343748,0.04055062157511711,-0.0042104732849053104
1690839615027637000,0.567636962890625,0.24565350744724274,0.05764841657141223,-0.00045369401767384257
1690839615037678000,0.577677978515625,0.2536310621976852,0.07232017173087224,0.002787685356615111
1690839615047747800,0.587747802734375,0.24650223323106765,0.06358822754970751,0.0008685824034095276
1690839615057789000,0.597788818359375,0.24265900180637834,0.05368017052756622,0.00047680204026983116
1690839615067829000,0.6078291015625,0.23027590557336805,0.026876206889934837,-0.003097913499700371
1690839615077869000,0.617869140625,0.2246089658528566,0.001973738625226542,0.0064902034111612005
1690839615087908900,0.627908935546875,0.20859540416300296,-0.024512756561068817,0.007097559328807983
1690839615097950000,0.637949951171875,0.20887246753871438,-0.03668053867612034,-0.00411940545947873
1690839615107990000,0.647989990234375,0.18938567678034304,-0.051658108381740744,0.008496554247912718
1690839615118029800,0.65802978515625,0.19323299985826015,-0.05133823791076429,0.00398163639002596
1690839615128071000,0.66807080078125,0.20785773753821848,-0.02663215986783616,-0.005408813940710388
1690839615138111000,0.678111083984375,0.22383622791469096,-0.01001271383985877,0.004965222333587007
1690839615148151000,0.688151123046875,0.22875731770396232,0.014546110352640971,0.0019021301271626725
1690839615158190800,0.69819091796875,0.22771043899953364,0.03150286204358563,0.0008760738734097686
1690839615168232000,0.70823193359375,0.22488193757534025,0.03822104611638933,-0.004904441190214129
1690839615178272000,0.71827197265625,0.23852175587117672,0.038801713814865794,-0.006871374473674223
1690839615188312000,0.72831201171875,0.2355588144123554,0.03991395850623958,0.0066080998780089426
1690839615198382800,0.7383828125,0.22541092988550662,0.019807665876345706,0.0033377729704487137
1690839615208423000,0.7484228515625,0.2143535292983055,0.005442885173670947,-0.0016279813693894538
1690839615218464000,0.758464111328125,0.2106190189450979,-0.0034948929110541938,0.005150210953585337
1690839615228504000,0.768504150390625,0.20657412746846673,-0.019240962771140038,-0.00017454143286449835
1690839615238544000,0.7785439453125,0.21059972972273824,-0.026190708843804894,-0.0007379463276418391
1690839615248584000,0.788583984375,0.19980653302967546,-0.02716733532361686,0.004496632140880683
1690839615258625000,0.798625,0.2026286047130823,-0.02273115210761316,-0.0010200477797188796
1690839615268664800,0.808664794921875,0.20694822147786615,-0.009687628337647766,-0.005701360296632629
1690839615278705000,0.818704833984375,0.21381927629113195,-0.0037566308534704145,0.006150145243748556
1690839615288746000,0.82874609375,0.21875264104008674,0.010611382985906675,0.006544102722598472
1690839615298786000,0.8387861328125,0.22025077064335344,0.021736770775401964,-0.00019774192865006624
1690839615308825900,0.848825927734375,0.22849077572226523,0.029361100774537772,0.0023011370988213456
1690839615318866000,0.858865966796875,0.22356734784543514,0.02271983612915501,0.007797838243894511
1690839615328907000,0.868906982421875,0.22163667204380033,0.02153045281465165,-0.004039581688918406
1690839615338947000,0.878947021484375,0.21521453004181385,0.009342997884750365,0.006003720227093436
1690839615349017900,0.889017822265625,0.20444763683378694,0.0025100831247866153,0.007140866464283317
1690839615359058000,0.899057861328125,0.2071434517890215,-0.00832742763403803,-0.0005301088383072056
1690839615369098000,0.909097900390625,0.20728841321766375,-0.013095153492502867,-0.0019517117397976106
1690839615379139000,0.91913916015625,0.19575638085603714,-0.015221653260337187,-0.004132538935687625
1690839615389179000,0.929178955078125,0.19499591787755488,-0.01451420824388042,-0.006140249470819253
1690839615399219000,0.939218994140625,0.2008206785082817,-0.013159843626013025,-0.0012543953917105682
1690839615409260000,0.949260009765625,0.1966208887308836,-0.0012221713392529636,-0.00034656896494561804
1690839615419299800,0.9592998046875,0.20604338159263133,0.009889142259117216,-0.004334631670825183
1690839615429340000,0.96933984375,0.21412205862998962,0.011413438350101932,-0.00831543580214493
1690839615439380000,0.9793798828125,0.21846505627036095,0.008885499908216297,-0.003357078175828792
1690839615449421000,0.989421142578125,0.21039047088623045,0.023326734247431157,-0.006878712963336147
1690839615459460900,0.9994609375,0.21997546083331107,0.010869632063293829,-0.0032770169432507824
1690839615469501000,1.0095009765625,0.20846096412837503,0.006634780105669051,-0.0012052430373383684
1690839615479542000,1.0195419921875,0.2045768161714077,0.002546076886774972,-0.004881206445099087
1690839615489582000,1.02958203125,0.21295827554762362,0.005141107481811195,-0.006956573105673305
1690839615499622000,1.039621826171875,0.20263152732253073,-0.002212625415017828,0.003751927278889343
1690839615509693000,1.04969287109375,0.19275193834304807,-0.006323001609602943,-0.0023930622991290874
1690839615519733000,1.05973291015625,0.19978081406652926,-0.008791830275394022,-0.004468496316717937
1690839615529773000,1.06977294921875,0.2102490165889263,-0.006425082877743989,0.005389932285371469
1690839615539814000,1.07981396484375,0.2081494139611721,0.000647248394973576,0.002461681972374208
1690839615549854000,1.08985400390625,0.2059007582515478,-0.0018186393950600176,0.00472678649330046
1690839615559893800,1.099893798828125,0.1981184338122606,0.005833957717334851,0.0020543935128487646
1690839615569934800,1.109934814453125,0.20964052930176258,0.004290755996480584,0.006118518271268112
1690839615579975000,1.119974853515625,0.20739830333292483,0.014226358612673356,-0.002153340967342956
1690839615590015000,1.130014892578125,0.20201544125080106,0.005652865529386326,-0.0016081978150410577
1690839615600055000,1.140054931640625,0.19663433273434638,0.0013814444210380316,-0.0016949148339801467
1690839615610095900,1.150095947265625,0.19469138197302818,0.005051785230543464,-0.0030736467081238514
1690839615620136000,1.160135986328125,0.19873218179643154,0.010456265489431097,0.007076526815578108
1690839615630175700,1.17017578125,0.19678689294755458,0.003302155951084569,0.004691144357761368
1690839615640216800,1.180216796875,0.20800795966386793,0.004794732596399262,0.0031607655858621
1690839615650257000,1.1902568359375,0.21668343355059622,0.0002864522585645318,-0.0012473640043695923
1690839615660328000,1.200327880859375,0.2093470993131399,0.00035768173071555793,-0.0012090743956621735
1690839615670368000,1.210367919921875,0.2056049901753664,-0.002886168161872774,0.0024664426291710695
1690839615680408000,1.220407958984375,0.20710195073485374,-0.008397031404683366,0.001261781830433756
1690839615690411800,1.230411865234375,0.2023147164583206,-0.003697265349049121,0.00045075656684930433
1690839615700452900,1.240452880859375,0.20261399166584013,-0.0039712325853761285,0.003200168297777418
1690839615710492700,1.25049267578125,0.20306231995522975,-0.005192718938039615,0.004111111413524486
1690839615720532700,1.26053271484375,0.19438158537149428,0.001531082024797797,-0.00038988523357547816
1690839615730573600,1.270573486328125,0.203656778717041,0.00010504041020758449,-0.0037849093831726346
1690839615740613600,1.280613525390625,0.1958715316683054,-0.0013191928397864102,0.0051615851559035945
1690839615750653700,1.29065380859375,0.20080606546103952,0.004377246969845146,0.006784086632577236
1690839615760693800,1.30069384765625,0.2008037273734808,0.010612780358549206,0.006355141180381179
1690839615770734800,1.31073486328125,0.1984101102352142,0.008221884900331497,0.011219817757431883
1690839615780774700,1.320774658203125,0.19796470455527304,0.00581430316879414,0.0025398674833413677
1690839615790814700,1.330814697265625,0.20634908654093742,0.009862930105626583,-0.001784890105796512
1690839615800855600,1.34085546875,0.2088981865018606,-0.0033000735918525606,-0.01576378247164539
1690839615810895600,1.3508955078125,0.20979893473386763,-0.0024072346716653556,-0.014568107555317691
1690839615820966700,1.360966552734375,0.19663199464678763,-0.0066559142252430314,-0.004434403392515378
1690839615831006700,1.3710068359375,0.18271394393146037,-0.009775598882045596,-0.003189646903763059
1690839615841046800,1.381046875,0.19497896674275397,0.004886466000461951,0.007223117370659019
1690839615851088000,1.391087890625,0.1988642837435007,0.0009730828158557415,0.002532087177329231
1690839615861127700,1.401127685546875,0.1919756932735443,0.0022721644493751227,0.006221381565765478
1690839615871167700,1.411167724609375,0.2031950064241886,0.005567233072547242,-0.007405574965209234
1690839615881207800,1.421207763671875,0.20469255150556562,-0.0013597257795743643,-0.007622839011659379
1690839615891248600,1.43124853515625,0.1946691701412201,0.001650214892439544,-0.0018339762447983957
1690839615901288700,1.441288818359375,0.20350129589438437,0.008408192119514568,-0.002875306557852309
1690839615911328800,1.451328857421875,0.1994651722460985,0.005499693394824862,0.002026377561339177
1690839615921369900,1.461369873046875,0.19692308654785154,0.0023407270404044536,0.009855720621772342
1690839615931409700,1.47140966796875,0.1967728644222021,-0.003994439931027591,0.0067465653504943475
1690839615941449700,1.48144970703125,0.20230711767375467,0.00042821708312258124,-0.008028143293363973
1690839615951489800,1.49148974609375,0.2030512140393257,-0.0005327825692947953,0.003687022516247816
1690839615961530600,1.501530517578125,0.1937713445186615,0.00025071422490291294,-0.002666884546627989
1690839615971601000,1.511600830078125,0.19511516034305096,-0.0014936178249306976,-0.007446155854058452
1690839615981641700,1.521641845703125,0.19945406633019447,-0.0016754132657777517,-0.0003417443760670721
1690839615991681800,1.531681884765625,0.19346856217980385,0.007141734113963321,-0.0033301890272588934
1690839616001721600,1.5417216796875,0.202149881285429,0.006170030404441058,0.007162611363566248
1690839616011762700,1.5517626953125,0.20065584333539008,0.0028422833543736486,0.006770969139388762
1690839616021802800,1.561802734375,0.1867424687951803,0.005762235054839402,0.0066951959228608755
1690839616031842800,1.5718427734375,0.19347849905192852,0.002064394317055121,0.013333749162993626
1690839616041883000,1.5818828125,0.1946761844038963,-0.00023758988184854386,0.01020022435215069
1690839616051923700,1.591923828125,0.18629589407145977,-0.0055662192923948165,0.009833740543760358
1690839616061963800,1.6019638671875,0.18809037627279757,-0.007327767338510602,0.013342392552108503
1690839616072003600,1.612003662109375,0.19826514880657195,-0.0005541176182683557,-0.009062129408534382
1690839616082044700,1.622044677734375,0.19078034600913524,-0.0006567468756809831,-0.005150779492454603
1690839616092084700,1.632084716796875,0.19227321491539476,-0.0014209635806735604,-0.0026482449198840185
1690839616102124800,1.642124755859375,0.1999012255758047,0.0014072638488840312,-0.005411544753913767
1690839616112164600,1.65216455078125,0.19705460397303104,0.009929154609097168,-0.004184667556791101
1690839616122235600,1.662235595703125,0.2073778450667858,0.01620271845324896,-0.0010618536529189441
1690839616132276700,1.67227685546875,0.19570728101730345,0.013504629342537372,0.003272804275725502
1690839616142316500,1.682316650390625,0.191370128595829,0.0023312011602334677,-0.0021000718435680026
1690839616152356600,1.692356689453125,0.19556407315433025,0.0036096418645232913,0.010388702978822401
1690839616162396700,1.702396728515625,0.19257541273236273,0.000836496489914134,0.007437011283088941
1690839616172437800,1.712437744140625,0.1919803694486618,-0.008468982396041973,-0.005651234119659057
1690839616182477800,1.722477783203125,0.18300269774496555,-0.01378673421954736,0.005238425809866749
1690839616192517600,1.732517578125,0.18838848243653772,-0.013605669431062414,0.0009897896387730724
1690839616202557700,1.7425576171875,0.19287410341799258,-0.005100894202431663,-0.006057721144874813
1690839616212598800,1.752598876953125,0.18823007700443267,-0.007235531610948965,-0.002868740961392177
1690839616222638600,1.762638671875,0.18523206423223018,-0.007401535827619954,-0.002894946265016915
1690839616232678700,1.7726787109375,0.18896774362921714,0.009379302173992618,0.0057294310470693745
1690839616242719700,1.7827197265625,0.18731880737841128,0.0065821731355972584,-0.0021022946250508537
1690839616252759800,1.792759765625,0.19719605827033518,0.007266429072711617,-0.00010768902502022684
1690839616262799600,1.802799560546875,0.19705051231980322,0.00990230313478969,-0.002314432688523084
1690839616272839700,1.812839599609375,0.19660802924931048,0.004625760104507207,0.007351577472360804
1690839616282910500,1.822910400390625,0.1967646811157465,-0.0015209807558916508,0.011221178597456308
1690839616292951600,1.83295166015625,0.1891384240210056,-0.0021040687403175978,0.006764393268129788
1690839616302991600,1.84299169921875,0.1858493193477392,-0.004095607883716002,0.003260195955901872
1690839616313031700,1.85303173828125,0.18465104947388172,-0.005708641704078764,0.002751300010626437
1690839616323071700,1.86307177734375,0.18763970989584922,-0.012503288546577096,0.002449349930475
1690839616333112800,1.87311279296875,0.1861380731612444,-0.013467539602005854,0.002071003295999253
1690839616343152600,1.883152587890625,0.17655542130172253,-0.014391659576445818,0.0034910912354825996
1690839616353192700,1.893192626953125,0.18911971932053565,-0.00394420758113265,0.0014697848581941798
1690839616363233800,1.90323388671875,0.20019114843308924,0.006814630184601992,-0.004825723672995809
1690839616373273600,1.913273681640625,0.19360709386765956,0.005169785587023943,-0.008110743542900308
1690839616383313700,1.923313720703125,0.1901683515906334,-0.002487094974843785,-0.002914065382373519
1690839616393353700,1.933353759765625,0.1922667851746082,0.0032104864791035652,-0.0002454329782980494
1690839616403394800,1.943394775390625,0.1897276220858097,0.006134429368097335,0.003044320148939732
1690839616413434600,1.9534345703125,0.19302257197797298,0.009258160012355073,0.005929711992677766
1690839616423474700,1.963474609375,0.18853578195273876,-0.003454213840793818,0.0026224380501254927
1690839616433545500,1.97354541015625,0.17895897531211374,0.004175751314684748,-0.005398569966264768
1690839616443585500,1.98358544921875,0.18284546135663984,-0.0012299162542913108,-0.0041383464803220705
1690839616453626600,1.993626708984375,0.1794014583826065,-0.000277839693846181,-0.012371591883240034
1690839616463666700,2.003666748046875,0.18777941062748432,0.006342683557607233,-0.0050005550835165195
1690839616473706800,2.013706787109375,0.201543732085824,0.000009708543261513113,-0.0009035429772920906
1690839616483746800,2.023746826171875,0.1961585319161415,0.0022156576223205772,0.0038567519183212422
1690839616493787600,2.03378759765625,0.19541209746301172,0.005551907639252022,0.008964675224805251
1690839616503827700,2.04382763671875,0.18913140975832937,0.004683646037895232,0.005420580868673278
1690839616513867500,2.053867431640625,0.18269874636232852,-0.0020329853986389935,0.003074991565127857
1690839616523908600,2.06390869140625,0.18404665383994578,-0.011518816687026992,0.009876718885672743
1690839616533948700,2.07394873046875,0.18419570692181586,-0.004381822680262848,0.003279234016512055
1690839616543988700,2.08398876953125,0.18359423389732837,-0.009338111647078767,0.0006455918690713588
1690839616554028800,2.09402880859375,0.18733283590376376,-0.0038626667775213718,-0.001117852448252961
1690839616564069600,2.104069580078125,0.17835224159061908,0.002087839124724269,-0.005494542295671999
1690839616574109700,2.114109619140625,0.1927162825077772,-0.006861373669467866,-0.004407403504446847
1690839616584149500,2.1241494140625,0.2054337252616882,-0.008339455998549237,-0.00493669606706826
1690839616594220500,2.134220458984375,0.19555881245732307,0.007312277508433908,-0.004761071213748073
1690839616604260600,2.144260498046875,0.18703239165246485,-0.0022610767997801305,-0.0020581769221113063
1690839616614301700,2.1543017578125,0.18523907849490642,-0.004157485005632042,0.004098813620954752
1690839616624341800,2.164341796875,0.19092764552533625,0.0011429503568913786,0.013828497851907741
1690839616634381800,2.1743818359375,0.18090251059532164,-0.003274966550059616,0.014939308638020883
1690839616644422700,2.184422607421875,0.18464345068931579,0.0032430735744535923,0.02103020710835699
1690839616654462700,2.194462646484375,0.17865736201703547,-0.004590926253143697,0.00685275425488362
1690839616664502500,2.20450244140625,0.18524141658246515,-0.004918276777677238,-0.00232853770404472
1690839616674542600,2.21454248046875,0.18464111260175703,-0.009086082247924059,-0.004132467012095731
1690839616684583700,2.224583740234375,0.1849386342436075,-0.006089960038708523,-0.00043646203837124627
1690839616694626800,2.234626708984375,0.186733700966835,0.00716717908247374,-0.00473634662280092
1690839616704667000,2.2446669921875,0.18703239165246485,0.012984779320051893,-0.005105757607216947
1690839616714707000,2.25470703125,0.19167174189090727,0.009411186016444117,0.004240645802527433
1690839616724747800,2.264747802734375,0.18763211111128328,0.0033497670856304463,0.004027195989736355
1690839616734787800,2.274787841796875,0.1861374886393547,0.00034519670847803354,0.014202209410461363
1690839616744859000,2.28485888671875,0.18404373123049736,0.0019631350328214465,0.0016923963666195048
1690839616754898700,2.294898681640625,0.18883447263836858,0.008433618821715935,-0.003588506603304995
1690839616764938800,2.304938720703125,0.18464461973309515,0.0048746568316593766,-0.002052744978456758
1690839616774979800,2.314979736328125,0.1846428661674261,-0.00026998518095351756,0.003253694291523425
1690839616785020000,2.32502001953125,0.19556407315433025,0.0022218225016258654,-0.0030716259976848958
1690839616795060000,2.33506005859375,0.19182137949466704,-0.0028427948110271244,-0.005461119516682811
1690839616805100800,2.345100830078125,0.18254443258345127,0.003315755218174308,0.0027073090302059425
1690839616815140900,2.355140869140625,0.18434066835045815,0.010275977019080892,-0.0012134605931234546
1690839616825180700,2.3651806640625,0.18254560162723063,0.0017769374114926903,0.0034837093633366747
1690839616835220700,2.375220703125,0.18793313988447188,-0.0071878565443214025,0.009903153659804957
1690839616845261800,2.38526171875,0.18718495186567305,0.0007905475894920528,0.007510891653341241
1690839616855302000,2.395302001953125,0.17596213158369065,0.00035010121245868505,0.009794894954271148
1690839616865342000,2.405342041015625,0.18538930062055586,-0.004283239410305396,0.002892677817761432
1690839616875382800,2.4153828125,0.1810486410677433,0.0036814375922549513,0.004821451639966108
1690839616885422800,2.4254228515625,0.18927812475264072,-0.004621056529926136,0.007220669685245957
1690839616895493600,2.43549365234375,0.1918225485384464,-0.0002497369773685932,-0.00042619637268362566
1690839616905533700,2.44553369140625,0.18464052807986736,0.004269119553407654,-0.00388577480011736
1690839616915573800,2.45557373046875,0.19047756367027757,0.009030443070549517,-0.0035152826785342767
1690839616925613800,2.46561376953125,0.18913257880210876,0.006195603237114846,0.001435848339262884
1690839616935655000,2.475655029296875,0.1852443391919136,0.003405324064614251,0.0011650628656439948
1690839616945695000,2.485695068359375,0.1831482436954975,-0.0003942600145936012,0.0008364462575642392
1690839616955735000,2.495735107421875,0.18793781605958937,-0.007670507228421047,0.00871618606467382
1690839616965776000,2.50577587890625,0.18674071522951124,-0.007807769407797605,0.0051943035403499375
1690839616975815700,2.515815673828125,0.17626491392254828,-0.011523940386716275,0.0011517844006069934
1690839616985855700,2.525855712890625,0.1862894643306732,-0.004313031760370359,0.0044495849786268075
1690839616995895800,2.535895751953125,0.18539105418622492,-0.0009272526464425027,-0.00031706545089255084
1690839617005937000,2.54593701171875,0.18883213455080985,-0.0011405392040964215,-0.0012792021810484585
1690839617015977000,2.55597705078125,0.19631284569501875,0.0019387312439270317,0.0018317431885167023
1690839617026017000,2.56601708984375,0.18493980328738688,0.00677121116798371,-0.0014664980642090084
1690839617036057900,2.576057861328125,0.180002931407094,-0.001483452623942867,0.0021754740256932563
1690839617046097700,2.58609765625,0.18209961142539977,-0.00763674195613712,0.008472915360709885
1690839617056168700,2.596168701171875,0.18195114286541939,-0.006918483284721151,0.0039955313429934905
1690839617066208800,2.606208740234375,0.18539339227378368,0.0037889987531118095,-0.0006576761741540394
1690839617076248800,2.616248779296875,0.18374737863242624,0.003348588908696547,0.0035681933259940706
1690839617086290000,2.6262900390625,0.18060498895347118,-0.0006836805483791977,0.004102163205377291
1690839617096330000,2.636330078125,0.18883505716025828,-0.003074502941360697,-0.004879643534030765
1690839617106370000,2.6463701171875,0.1806038199096918,-0.0025674210689030585,0.002780477014405187
1690839617116409900,2.656409912109375,0.18240064019858837,-0.0062483746039681135,-0.000041538728430168704
1690839617126450700,2.66645068359375,0.18928396997153757,-0.007698911338998004,0.0021263673370936886
1690839617136490800,2.67649072265625,0.17746318379640577,-0.003617697306815535,0.0030266200954676605
1690839617146530800,2.68653076171875,0.1883855598270893,-0.0011902600973378867,-0.00358144781650044
1690839617156572000,2.696572021484375,0.18718845899701117,-0.002945917258784175,0.003925002840452362
1690839617166612000,2.706612060546875,0.19586685549318789,0.0052186388305854045,0.004995189355232287
1690839617176652000,2.716652099609375,0.18778525584638117,-0.00774404738866724,0.0005253664478193968
1690839617186691800,2.72669189453125,0.18404431575238703,0.0010783332886174321,0.0013350856703065802
1690839617196732700,2.736732666015625,0.18269699279665946,0.005822952266130596,0.003060412767215166
1690839617206803000,2.746802978515625,0.17970657880902288,0.00649985601385124,0.0036684913457138463
1690839617216843800,2.75684375,0.17536884186565874,0.003341163654066622,-0.0007630145535280462
1690839617226883800,2.7668837890625,0.18733985016644,-0.0008446523969061672,0.00833692268981249
1690839617236924000,2.776923828125,0.1850970396757126,-0.00022646569963544606,0.00011871502582216635
1690839617246965000,2.786965087890625,0.19123335047364234,-0.0038749600035138426,-0.0029657590369926764
1690839617257005000,2.797005126953125,0.18330372651815413,-0.0023997911507263776,0.007952924915973563
1690839617267044900,2.807044921875,0.18480068707764147,-0.004568038567900657,0.003950226329965517
1690839617277085000,2.8170849609375,0.17986206163167953,0.004034086954826489,0.004223951537697576
1690839617287125800,2.827125732421875,0.17731646880209445,-0.0015002941608894616,0.0021715399193810297
1690839617297165800,2.837165771484375,0.1789618979215622,-0.000356339157000184,0.005599600972188637
1690839617307206000,2.847205810546875,0.19123159690797328,0.004965294257178903,0.0037999003146833273
1690839617317247000,2.8572470703125,0.19736673866212368,-0.005054680440528318,0.003181720467278501
1690839617327287000,2.867287109375,0.18390052336752413,0.0053810628506820645,0.004400705477246083
1690839617337326800,2.877326904296875,0.18464929590821266,-0.000524051273567602,0.012023859582736622
1690839617347367000,2.887366943359375,0.19003741868734358,-0.007157068680413067,0.006889825729106087
1690839617357438000,2.89743798828125,0.17896540505290032,-0.0024160116331651805,0.002002309415873606
1690839617367478000,2.90747802734375,0.17776947326660156,0.005032843068055808,0.0024596224460285156
1690839617377518800,2.917518798828125,0.17657178791463374,-0.0008711202787235379,0.0029074484119191763
1690839617387559000,2.927558837890625,0.17926468026041983,-0.0022964677735697477,0.012562503353948705
1690839617397599000,2.937598876953125,0.1737275043994188,-0.0020507219847291707,0.006754899353999644
1690839617407640000,2.94764013671875,0.1804606120467186,0.00760473938267678,0.0008220592558966017
1690839617417680000,2.957679931640625,0.18524726180136203,0.0032675686948932707,-0.002298561549244914
1690839617427720000,2.967719970703125,0.18928806162476539,0.002442835708009079,-0.0011598078768583946
1690839617437760000,2.977760009765625,0.1831535043925047,-0.0021784948165528475,-0.009347438881138806
1690839617447800800,2.98780078125,0.1797112549841404,-0.0016132347497623413,0.0031074211135623045
1690839617457841000,2.9978408203125,0.17761632853150366,0.00044946993370540436,-0.0001817235172551591
1690839617467881000,3.007880859375,0.18554653700888155,0.0036905524804722516,0.0015010990201320964
1690839617477922000,3.017922119140625,0.1728261716455221,0.0001615472372621298,0.0029622336393455044
1690839617487961900,3.0279619140625,0.18359891007244586,0.0023062493820674716,0.007862584317976143
1690839617498002000,3.038001953125,0.184346513569355,0.010760710062412544,0.00565953387383488
1690839617508042000,3.0480419921875,0.18299919061362743,0.0035483857971150426,-0.004534323527966626
1690839617518113000,3.058113037109375,0.18015666066408156,0.002826793524296954,0.0003637678365630563
1690839617528153900,3.06815380859375,0.17432254768311978,-0.0016162669570650905,0.002004359809064772
1690839617538194000,3.07819384765625,0.17701953168213366,-0.0005942395661026239,-0.000331187591078924
1690839617548233700,3.088233642578125,0.17612229058146475,-0.004555772741371766,-0.0011021890882402657
1690839617558273800,3.098273681640625,0.1807610562980175,-0.003246096648601815,0.005155614356131991
1690839617568315000,3.10831494140625,0.18420155214071274,-0.0028784597794525323,-0.003481305060407612
1690839617578355000,3.11835498046875,0.1776151594877243,-0.01594112664130516,-0.0015970987490029074
1690839617588395000,3.12839501953125,0.18539339227378368,-0.00618151991283521,0.008832995686132926
1690839617598435800,3.138435791015625,0.1812012012809515,0.0004717730970587581,0.00009146283435984514
1690839617608476000,3.148475830078125,0.1786561929732561,0.0012824044933542609,0.004737431184900925
1690839617618516000,3.158515869140625,0.18853169029951095,0.002891675454052165,-0.0009313557161134667
1690839617628555800,3.1685556640625,0.18509002541303635,0.006006245544319972,-0.0014381875684659462
1690839617638596900,3.178596923828125,0.18853344386518,-0.006241853531636297,0.004719591850822325
1690839617648637000,3.188636962890625,0.18075404203534126,-0.00022813706691376864,-0.0019065186079125851
1690839617658676700,3.1986767578125,0.1765659426957369,-0.008157176500512286,0.009647579455049708
1690839617668747800,3.208747802734375,0.18195523451864717,-0.0009083652828820049,0.004843366644252092
1690839617678787800,3.218787841796875,0.18419979857504368,-0.004361501411441713,0.00011314836813835427
1690839617688829000,3.228828857421875,0.18823942935466764,-0.005142632718617097,0.00017538624965818597
1690839617698883600,3.238883544921875,0.1846463732987642,0.0015400051167700438,0.00481236871778965
1690839617708923400,3.24892333984375,0.17641396700441836,-0.004512892580870538,-0.0010403325159219093
1690839617718963500,3.25896337890625,0.17551672590374945,-0.0017735672774724662,0.00011251018896582536
1690839617729004300,3.26900439453125,0.17731120810508727,-0.00440197955230251,0.0006609618264948949
1690839617739044400,3.27904443359375,0.17641338248252866,0.005018029091414064,-0.0006956506890302989
1690839617749084400,3.28908447265625,0.1879360624939203,0.009286326660914347,0.006794165068597067
1690839617759125500,3.29912548828125,0.19138006546795366,0.0006562536853365599,0.003523214823240414
1690839617769165600,3.30916552734375,0.18809037627279757,0.0011955573269631713,0.004670692941488233
1690839617779205600,3.31920556640625,0.18105916246175766,0.007163516687508672,0.006379325773566961
1690839617789245400,3.329245361328125,0.17702186976969242,0.0024806652340572328,-0.0023893530967470725
1690839617799286300,3.339286376953125,0.17298282351195812,-0.001874817428551614,-0.0032829352273838594
1690839617809326300,3.349326416015625,0.168342888751626,-0.0018310878846794366,-0.0033681795251555738
1690839617819397400,3.3593974609375,0.1776192511409521,0.0013632694435305893,0.003270749315957073
1690839617829437400,3.3694375,0.1737280889213085,-0.0016878252227790652,-0.0015852713138912804
1690839617839477500,3.3794775390625,0.1720814907580614,-0.0030927966498769817,0.0022140638868557287
1690839617849518600,3.3895185546875,0.17746785997152328,0.005368194235954434,-0.00003205508909886703
1690839617859558400,3.399558349609375,0.17926234217286108,0.005441935325600207,-0.00212312050065957
1690839617869598500,3.409598388671875,0.17791618826091288,-0.00455445756711997,0.0019023927053553051
1690839617879638500,3.419638427734375,0.17671967195272445,-0.0006142137750517576,-0.00011501381495036184
1690839617889679400,3.429679443359375,0.17911504265666006,0.013536924176942557,-0.001606875790923368
1690839617899719400,3.439719482421875,0.18255787658691405,0.0021227643076330424,0.0035536373609676955
1690839617909759500,3.449759521484375,0.177919695392251,-0.004115828687837347,0.0029331593835551758
1690839617919800600,3.459800537109375,0.18001462184488773,-0.007977098092716187,-0.007526979705039411
1690839617929840600,3.469840576171875,0.18240823898315428,0.00017551183053292333,-0.0012214087208500131
1690839617939880400,3.47988037109375,0.1768704786002636,-0.0018661500649061052,0.0031195796255255115
1690839617949920500,3.48992041015625,0.17118308061361312,0.002818948144558817,-0.002437246217438951
1690839617959961300,3.49996142578125,0.1708826363623142,0.004383439248614013,0.003177244079916272
1690839617970001400,3.51000146484375,0.17686697146892547,-0.0039397962674964215,-0.001516998700518161
1690839617980072400,3.520072509765625,0.1774672754496336,0.0026037253581453115,-0.005470498124737059
1690839617990112500,3.530112548828125,0.18390344597697256,0.003534055877663195,0.0061593377637793306
1690839618000152300,3.54015234375,0.18824293648600576,0.004435388631559908,0.0020819847726728765
1690839618010193400,3.550193359375,0.18210896377563476,-0.006842641569534316,0.006191388286300934
1690839618020233500,3.5602333984375,0.181362529322505,-0.007125276169506833,0.01173559667628724
1690839618030273500,3.5702734375,0.18465397208333015,0.00026929106120951473,0.015157023633975768
1690839618040314400,3.580314453125,0.17612345962524412,-0.00818927040551789,0.00957541383455973
1690839618050354400,3.5903544921875,0.17881576744914054,-0.0005403174217790365,0.008379970672028138
1690839618060394500,3.60039453125,0.17806582586467265,0.00394393358649686,0.010874098175857215
1690839618070434300,3.610434326171875,0.17641981222331524,0.004059404059173539,0.0015234387161035556
1690839618080475400,3.620475341796875,0.1786643762797117,0.0007712766334414482,-0.0024137055116472766
1690839618090515500,3.630515380859375,0.18420155214071274,-0.0012488858162425457,-0.00041175913866609335
1690839618100555500,3.640555419921875,0.17836627011597156,-0.0006263974031899124,0.0070036647920554964
1690839618110596400,3.650596435546875,0.18031331253051758,0.004776904678763821,0.011442883640294894
1690839618120636400,3.660636474609375,0.18151216692626476,-0.0037386659385170787,0.006517129092349205
1690839618130707500,3.67070751953125,0.18959201300740242,-0.006940229325648397,0.0031595200519135684
1690839618140747500,3.68074755859375,0.18884265594482422,-0.0041896793753374365,0.015023770909436279
1690839618150787300,3.690787353515625,0.17702011620402336,-0.0017106672422494739,0.010911646857403683
1690839618160827400,3.700827392578125,0.18046178109049796,0.0015469280479010195,-0.006932387370843207
1690839618170868500,3.710868408203125,0.18883973333537576,0.004683079782314598,-0.0011606675350281875
1690839618180908500,3.720908447265625,0.18779051654338835,-0.0011212591148912906,0.002504543866566382
1690839618190948600,3.730948486328125,0.1846475423425436,0.0042037900990806515,-0.0031386039864039045
1690839618200989400,3.740989501953125,0.19661855064332484,0.0007402056417427957,0.0023907002370397094
1690839618211029500,3.751029541015625,0.18255320041179657,0.005316436649253592,-0.004448914833413436
1690839618221069300,3.7610693359375,0.18090835581421852,0.007239221405377611,-0.004595282767852768
1690839618231109400,3.771109375,0.18868951120972632,0.0011037143250461666,-0.005443207117368001
1690839618241150500,3.781150390625,0.1788134293615818,-0.004870510379504412,0.0075048569214879535
1690839618251190500,3.7911904296875,0.17372516631186008,-0.002135514191351831,0.002464708471455378
1690839618261230600,3.801230712890625,0.18958558326661587,0.008400310207158326,0.007417816817207494
1690839618271271400,3.811271484375,0.18015666066408156,-0.002070038606552407,0.006577010620001237
1690839618281341400,3.821341552734375,0.18674013070762158,-0.000021444646827876566,0.007680341352557297
1690839618291382500,3.831382568359375,0.17761106783449648,0.0041959903851151465,-0.001455643310054438
1690839618301422300,3.84142236328125,0.17865970010459423,0.008049925866909325,-0.003548128927143989
1690839618311462400,3.85146240234375,0.1782107872933149,0.006723563500819728,0.004396424311061855
1690839618321502500,3.86150244140625,0.1786608691483736,-0.0010002904831897467,-0.0004520397750602569
1690839618331543600,3.87154345703125,0.17327449993491173,0.002200067327544093,0.003150351506413426
1690839618341583600,3.88158349609375,0.17881226031780242,-0.0014347546440083533,0.00934505170287448
1690839618351623400,3.89162353515625,0.17596914584636686,0.0020329305997118354,0.0064445547631941736
1690839618361664500,3.90166455078125,0.17581892372071742,0.005110273952130228,-0.00023711724110180512
1690839618371704300,3.911704345703125,0.18315058178305624,-0.0009289605463389306,0.003728715366660617
1690839618381744400,3.921744384765625,0.17117840443849563,-0.0037422826677095144,0.001706657787412405
1690839618391784400,3.931784423828125,0.17865911558270453,0.0007984569013118743,-0.002307776902162004
1690839618401825500,3.941825439453125,0.17551672590374945,-0.0013308376118075101,0.0037528554357180834
1690839618411865600,3.951865478515625,0.1788087531864643,-0.0014693875659722833,0.0064717612888838625
1690839618421905400,3.961905517578125,0.17342121492922305,0.0035786622043699023,0.005040861977729946
1690839618431946500,3.971946533203125,0.18269874636232852,0.00002138984790071845,0.00186004683439387
1690839618442016300,3.982016357421875,0.18105214819908141,0.001737619181256741,-0.003050593484455021
1690839618452057300,3.992057373046875,0.18284896848797796,-0.0009880063903518021,0.00328563864112366
1690839618462097400,4.002097412109375,0.1744686781555414,0.0022962303115520626,-0.006543900651554577
1690839618472137500,4.012137451171875,0.17731179262697697,-0.0008547171331942081,0.0041896999249351205
1690839618482178600,4.022178466796875,0.17970540976524352,-0.0016369992178399116,0.004747619218775071
1690839618492218400,4.03221826171875,0.18000526949465273,-0.002478838603151962,0.006366237963130697
1690839618502258400,4.042258544921875,0.18688859926760196,0.001248840150469914,0.003735718212893698
1690839618512298200,4.05229833984375,0.1853922232300043,0.004214494156185538,-0.002480353565159021
1690839618522339300,4.06233935546875,0.17417115651369094,0.0016779888153541833,0.0027795031918038146
1690839618532379400,4.07237939453125,0.17880992223024367,-0.0005403174217790365,0.0015731767340097576
1690839618542419500,4.08241943359375,0.18254969328045845,0.0028012937568593767,0.0017647286671795882
1690839618552460500,4.09246044921875,0.17416940294802188,0.0009441855149343609,0.006407115679502021
1690839618562500400,4.102500244140625,0.16953005270957947,0.0009000541122630238,-0.0037652205853024494
1690839618572540400,4.11254052734375,0.18015373805463314,0.0035215617222711442,-0.0028022710043936966
1690839618582580200,4.122580322265625,0.17955401859581469,0.009574742547702044,-0.00401286835357314
1690839618592651300,4.1326513671875,0.1722211914896965,0.00457669679839164,-0.0058468777060566935
1690839618602691300,4.14269140625,0.18000117784142494,0.001197648819349706,-0.00006294113441836089
1690839618612732400,4.152732421875,0.1740168427348137,-0.0018478654895443469,-0.002285226001992123
1690839618622772500,4.1627724609375,0.1773088700175285,-0.003446998648717999,0.0012023866432602517
1690839618632812500,4.1728125,0.1807511194258928,-0.0012989629025105386,0.00571087932693772
1690839618642853400,4.182853271484375,0.17880583057701588,0.000026650544907897708,-0.0007044710330141242
1690839618652893400,4.1928935546875,0.1807517039477825,0.000055054655484855174,-0.00039270167010254227
1690839618662933200,4.202933349609375,0.1743167024642229,0.0005962579932529479,0.00027052746200351976
1690839618672973300,4.212973388671875,0.1826952392309904,-0.002340032920660451,-0.0047965774936135856
1690839618683014400,4.223014404296875,0.18269407018721104,0.0005499802992679179,-0.006494542801205534
1690839618693054500,4.233054443359375,0.18733283590376376,-0.004061385953705757,-0.0066214183005969965
1690839618703065000,4.243065185546875,0.1847907502055168,-0.005854644312337041,0.0041924124718294474
1690839618713106200,4.253106201171875,0.18015139996707438,-0.004987031164951622,-0.006815445318643469
1690839618723146000,4.26314599609375,0.18329495868980883,0.003620866511436179,-0.002748616004840005
1690839618733186000,4.27318603515625,0.17760931426882742,0.0032709844946861265,0.005942927667277399
1690839618743257000,4.283257080078125,0.17386954321861267,-0.0014392390228807925,0.0036154026017407885
1690839618753297200,4.293297119140625,0.18000526949465273,-0.003334596915962174,0.004852543181262444
1690839618763338000,4.303337890625,0.1788081686645746,-0.0028856749715283512,0.0074891478957026265
1690839618773378000,4.3133779296875,0.17087679114341736,-0.0047149727579206225,0.0027444581362418828
1690839618783418000,4.323418212890625,0.1798544628471136,-0.00047766398172825573,-0.007681082279718247
1690839618793458000,4.3334580078125,0.18374445602297781,0.0003842044114600867,0.00113563470011577
1690839618803499000,4.3434990234375,0.1810486410677433,0.0010646974889095872,0.000432753977633547
1690839618813539000,4.3535390625,0.18299334539473056,0.006097988081537187,-0.00860399211118347
1690839618823579100,4.3635791015625,0.1823947949796915,0.011643913504574447,0.003650161104579456
1690839618833619200,4.373619140625,0.1853881315767765,-0.0041657596436329184,-0.00032717927788617087
1690839618843660000,4.383659912109375,0.17910393674075603,0.0023596235371194777,0.001972083240968641
1690839618853700000,4.3937001953125,0.1820984423816204,-0.001714375302987173,-0.0011765752069244626
1690839618863740000,4.403739990234375,0.17611352275311945,-0.003451985351089388,0.0050584147590852805
1690839618873781000,4.413781005859375,0.17042729381024838,-0.001926757678342983,0.008815393814072012
1690839618883821000,4.423821044921875,0.18030279113650322,-0.00197895365646109,0.008147260177985298
1690839618893892000,4.43389208984375,0.19002806633710861,-0.006570309167867526,0.0132587899388629
1690839618903932200,4.44393212890625,0.18045067517459393,-0.004858673811238259,0.008711409424856537
1690839618913972200,4.45397216796875,0.180599728256464,-0.0035542036165483295,0.006633741209341678
1690839618924013000,4.464012939453125,0.186733700966835,-0.003050026087230071,-0.005990897278138436
1690839618934053000,4.47405322265625,0.17865327036380768,-0.0009769187407568096,-0.0009665982761420309
1690839618944093000,4.484093017578125,0.17506313691735267,0.00585524710053578,0.0024122487735003233
1690839618954133000,4.494133056640625,0.17670973508059978,-0.0018577110301237552,0.0034677286262041885
1690839618964174000,4.504174072265625,0.18194705121219157,0.005323861903883517,-0.00033696773624978957
1690839618974214100,4.514214111328125,0.17895488365888595,0.004373959034215658,0.007636493077676277
1690839618984254200,4.524254150390625,0.1775584608644247,-0.0071411861246917395,-0.016027035376068668
1690839618994295000,4.534294921875,0.291110605764389,-0.2227300202384591,-0.3189859797595069
1690839619004335000,4.544335205078125,-0.015642974811792373,0.29879752527149395,-0.1402103342582006
1690839619014375000,4.554375,0.09661094697117804,-0.044446204241551455,0.5757837258271873
1690839619024415000,4.5644150390625,0.24586685793697832,0.020082034971471874,0.062393186245975084
1690839619034456000,4.5744560546875,0.14831249263584612,0.17705051134228705,0.10027242862079291
1690839619044496100,4.58449609375,0.1563964303702116,-0.11148103771433233,0.05059763041022233
1690839619054567200,4.594567138671875,0.20262626662552355,-0.09595752456374466,-0.31768761051204053
1690839619064607200,4.604607177734375,0.2409142039656639,-0.031646051640249785,-0.1964365816725418
1690839619074647300,4.614647216796875,0.20917641892135141,-0.02792491222526878,-0.12554644274478777
1690839619084688100,4.624688232421875,0.1600689814031124,-0.0014552859753835946,-0.012519319516059476
1690839619094728000,4.63472802734375,0.15871113705337048,0.019164289938891306,0.12165228485045954
1690839619104768000,4.64476806640625,0.14479425538182258,0.021586238122498616,0.17092550738966092
1690839619114808000,4.65480810546875,0.15721768362522123,0.02884452955452725,0.12526645675962791
1690839619124849200,4.66484912109375,0.165163089671731,0.021141645293310283,0.027525384663802104
1690839619134889200,4.67488916015625,0.24688041889369486,0.008805593939265235,-0.07424541330556385
1690839619144929300,4.68492919921875,0.18838263721764087,0.025512389457132665,-0.12387925845123826
1690839619154970000,4.69497021484375,0.23597557851970194,0.018107309965556487,-0.11166930856173857
1690839619165010000,4.705010009765625,0.21428221762776373,0.014121281669847666,-0.04852720821117982
1690839619175050000,4.715050048828125,0.13991408212482928,-0.0032509280873462554,0.03149670629743487
1690839619185090000,4.725090087890625,0.155028649148345,-0.03017059052651748,0.07514192375387065
1690839619195131100,4.735131103515625,0.12644669778645037,-0.024025913759041576,0.08298527593170292
1690839619205202200,4.7452021484375,0.16026012006103993,-0.020602058523893355,0.036900410238187756
1690839619215242200,4.7552421875,0.15995266154706478,-0.015121709150355309,-0.017450263979064764
1690839619225282000,4.765281982421875,0.1840320407927036,0.000382788772508502,-0.0577348573124269
1690839619235322000,4.775322021484375,0.22636837674081325,0.01218376513547264,-0.06812547825369983
1690839619245363000,4.785363037109375,0.18685703508555887,0.02334798709801398,-0.04040766030731611
1690839619255403000,4.795403076171875,0.1798234831869602,0.018860786080826072,0.0027527441906859164
1690839619265443000,4.805443115234375,0.1789303337395191,0.01392957675633952,0.03678993331774836
1690839619275484200,4.815484130859375,0.16502397346198558,0.007725105226179584,0.04629984188475646
1690839619285524200,4.825524169921875,0.15934826591312884,0.014141767335450276,0.030867062057810833
1690839619295564300,4.835564208984375,0.1999094088822603,0.013607578260358423,0.008265855331154306
1690839619305604000,4.84560400390625,0.16983868026733398,0.005777752284379676,-0.02828295471558813
1690839619315645000,4.85564501953125,0.19108897356688975,-0.0032453659962397067,-0.045010450528189534
1690839619325685000,4.86568505859375,0.18539982201457023,-0.013361147484928369,-0.045569079924793914
1690839619335725000,4.87572509765625,0.18195172738730905,-0.016918693836033342,-0.01596574962590821
1690839619345765000,4.88576513671875,0.1813444091439247,-0.017185445880284533,0.016463127521681598
1690839619355836200,4.895836181640625,0.15365385366380213,-0.008516977123077958,0.0380011882540537
1690839619365877200,4.905877197265625,0.18043313951790332,-0.002016152994846925,0.03531824191354681
1690839619375917000,4.9159169921875,0.17863515018522738,0.015881615006411446,0.017649720657477153
1690839619385957000,4.92595703125,0.18656535866260526,0.021319750939728693,-0.016570369022130035
1690839619395997000,4.935996826171875,0.20332535480558872,0.016303849873319266,-0.034804141211835664
1690839619406038000,4.9460380859375,0.18566987112760544,0.01688151276395656,-0.04198851802428253
1690839619416078000,4.956078125,0.1804372311711311,0.014593876750813797,-0.021386222038371486
1690839619426118100,4.9661181640625,0.17984335693120956,0.010593098410544916,0.003952427420206368
1690839619436159200,4.9761591796875,0.17221593079268932,0.0017998068304266779,0.016598519687668886
1690839619446199300,4.98619921875,0.1659334895223379,-0.002845397760067135,0.015781195972394198
1690839619456239000,4.996239013671875,0.17521160547733305,-0.0009791198309976607,0.00896612739637494
1690839619466279000,5.00627880859375,0.1704214485913515,-0.00676074457289651,-0.0009483228339347987
1690839619476320000,5.016320068359375,0.19331249483525753,-0.00978437584354542,-0.0203693685794482
1690839619486360000,5.026360107421875,0.18642448888719082,-0.008183680914947762,-0.03246831867541186
1690839619496400100,5.036400146484375,0.18327800755500792,0.004502416852628812,-0.023883511896955315
1690839619506441200,5.046441162109375,0.18417291056811808,0.0031270916451234367,-0.004099943848827388
1690839619516511000,5.056510986328125,0.17010580677092074,0.0016715042756404728,0.004822896961669903
1690839619526552000,5.066552001953125,0.18102935184538363,0.002658697815239429,0.007923093750001862
1690839619536592100,5.076592041015625,0.1814794337004423,0.004489210311183706,0.006989205866795964
1690839619546632000,5.0866318359375,0.17055822671353815,0.00311759316441603,-0.006918259522435255
1690839619556672000,5.096672119140625,0.18597323798835277,0.009732106800191103,-0.020156132254144175
1690839619566713000,5.106713134765625,0.18028817808926104,0.010475235051382332,-0.0207897083167918
1690839619576753200,5.116753173828125,0.17969021219611167,0.0029417890729382633,-0.01234768470962299
1690839619586793200,5.126793212890625,0.1819365298181772,0.005680612052837386,-0.005864083427540026
1690839619596834300,5.136834228515625,0.17490356244146824,0.002422751901205629,0.005321962207742035
1690839619606874000,5.1468740234375,0.18807108705043793,-0.00886570836235769,0.01336437148847617
1690839619616914000,5.156913818359375,0.1734066018819809,-0.013696389054972677,0.008279407790827099
1690839619626954000,5.1669541015625,0.16592355265021322,-0.0017399664019700138,0.005801016712246928
1690839619636995000,5.1769951171875,0.17744272553026674,0.0009560312163550406,-0.0068559919581632125
1690839619647035100,5.18703515625,0.17998364218473434,-0.001816063845483586,-0.011231537877977826
1690839619657075200,5.1970751953125,0.1889601448446512,0.002376967397565022,-0.00830719998005079
1690839619667146000,5.20714599609375,0.19105331773161888,0.00913266133600846,-0.008194834779913071
1690839619677186000,5.21718603515625,0.1798316664934158,0.008794844216387718,0.0031366083921398964
1690839619687227100,5.22722705078125,0.1677121896326542,0.0024741806943435222,0.0064621406522346655
1690839619697265700,5.237265625,0.1817804624736309,0.003853716286085546,0.012901110491435974
1690839619707305700,5.2473056640625,0.17624562470018862,0.005053840190311893,0.003976575480774045
1690839619717346600,5.2573466796875,0.18298107043504713,0.0013057853689417242,-0.0021666673814412203
1690839619727386400,5.267386474609375,0.18911796575486658,-0.0018452716736588625,-0.008287472366273868
1690839619737426400,5.277426513671875,0.18283377091884612,-0.0002452617316506803,-0.0070690022378927094
1690839619747466500,5.287466552734375,0.18597440703213214,-0.0000754215900786221,-0.010375683667045086
1690839619757507600,5.297507568359375,0.17519816147387027,-0.004942169109918177,0.0013862073611235245
1690839619767547600,5.307547607421875,0.18192951555550096,0.0033720337163656946,0.0011218527699355036
1690839619777587700,5.317587646484375,0.17923311607837675,0.005026696455059573,0.007105288260825909
1690839619787628500,5.327628662109375,0.16636252858936787,0.0015794968769419937,0.007798321159440093
1690839619797668400,5.33766845703125,0.1940460698068142,-0.0010984079622663556,-0.006465850996260997
1690839619807708400,5.34770849609375,0.19120353985726832,0.008090696268714963,-0.009395534072874578
1690839619817779500,5.357779541015625,0.18611819941699503,0.005025536544434726,-0.006838056725962087
1690839619827819500,5.367819580078125,0.18282792569994927,0.004897855044156313,-0.006417381345189641
1690839619837859600,5.377859619140625,0.18013678691983223,-0.004766657279385253,0.011244271778676193
1690839619847900700,5.387900634765625,0.1835796208500862,0.009416757240705191,-0.00008584251939319074
1690839619857940700,5.397940673828125,0.1858241849064827,0.011365772416628896,-0.002064599813031964
1690839619867980500,5.40798046875,0.17415069824755192,0.001906463808985427,-0.004995616330206394
1690839619878021400,5.418021484375,0.17908698560595512,-0.0020192400010768325,-0.005014958068204577
1690839619888061400,5.4280615234375,0.17908523204028606,-0.003792688547540456,-0.007832428925018757
1690839619898101500,5.4381015625,0.1865647741407156,-0.0021997476671356707,-0.004459938550926744
1690839619908141600,5.4481416015625,0.1804290478646755,-0.00389347290773876,-0.01566351527632214
1690839619918182700,5.4581826171875,0.17638883256316185,-0.005556474216515198,0.0030563736296258864
1690839619928222700,5.46822265625,0.18641513653695582,0.009437726963497697,0.004919295124406926
1690839619938262500,5.478262451171875,0.174447050845623,0.0017009678321424871,-0.003507605120510561
1690839619948303400,5.488303466796875,0.1777414162158966,-0.0027277992623858153,-0.0008085433288419153
1690839619958343400,5.498343505859375,0.18507482784390447,0.0059188777881208805,-0.0030937830305658278
1690839619968383500,5.508383544921875,0.16517302654385566,0.004001426794240251,-0.011628735343395964
1690839619978454500,5.51845458984375,0.17444821988940237,-0.001863063058676198,0.001269966278533684
1690839619988494600,5.52849462890625,0.17085399478971958,0.0002632266466040164,0.000058682801120448854
1690839619998534700,5.53853466796875,0.19015315402150154,0.011157755689136684,0.0004399714529979974
1690839620008575700,5.54857568359375,0.17608663474619388,0.008874768451647832,0.007740727486996911
1690839620018615600,5.558615478515625,0.18656302057504653,0.00209625076004304,0.0032461697138380257
1690839620028655600,5.568655517578125,0.1736976937830448,0.0026946093788370487,-0.002596512449358124
1690839620038696400,5.578696533203125,0.18327625398933886,-0.0032899814561009404,-0.0028967900205869226
1690839620048736500,5.588736572265625,0.17819266711473464,0.00003929996392689645,-0.005978045788075542
1690839620058776600,5.598776611328125,0.1798404343217611,0.0023110808208119124,-0.009161915971600683
1690839620068816600,5.608816650390625,0.175649996894598,-0.007594793377397582,0.0008945787861244752
1690839620078857700,5.618857666015625,0.17414894468188286,-0.013231922481535001,-0.004059006766951642
1690839620088897500,5.6288974609375,0.16666238831877708,0.0014702004167251289,0.0018541924823424778
1690839620098937600,5.6389375,0.16456337021291256,0.0055732518213801084,-0.0023720971429138445
1690839620108978400,5.648978515625,0.1684521943449974,0.003181580045027658,0.004489059614134021
1690839620119018500,5.6590185546875,0.17458792062103748,0.006355223378771916,0.004151861265732441
1690839620129089500,5.669089599609375,0.1638169357597828,0.0040715876873116934,0.002022635251272004
1690839620139129600,5.679129638671875,0.1934481039136648,-0.0039046975546516475,-0.004885507019236683
1690839620149169700,5.689169677734375,0.1728010372042656,-0.00770515841669403,-0.0031642521676025354
1690839620159210800,5.699210693359375,0.16846330026090145,0.0004289020697120577,0.004918847599835135
1690839620169250600,5.70925048828125,0.17774083169400692,-0.0007598053913563489,0.003059603341395268
1690839620179290600,5.71929052734375,0.1786380727946758,-0.0038532870278228074,0.003484345259220572
1690839620189330700,5.72933056640625,0.19030571423470974,-0.0017910938010085374,-0.004690379456069786
1690839620199371500,5.73937158203125,0.1859627165943384,0.00391257946700789,-0.007510145017958711
1690839620209411600,5.74941162109375,0.18446400246918201,0.001765849761897698,-0.008467886417498812
1690839620219451600,5.75945166015625,0.18476386219859123,0.013028892456414178,-0.00008575347113655879
1690839620229492700,5.76949267578125,0.17952888415455817,0.001827452889177948,-0.004549843040795531
1690839620239532500,5.779532470703125,0.19299860658049584,-0.006453669651411474,-0.008786587844695895
1690839620249572600,5.789572509765625,0.17130290760099887,0.007300020815059542,-0.00008508903414476663
1690839620259612700,5.79961279296875,0.17803718429207802,-0.0008338935408741235,-0.008990273173653985
1690839620269653500,5.809653564453125,0.18507073619067668,0.00591246631364338,-0.002330685137002729
1690839620279723500,5.8197236328125,0.17115210095345973,0.014250844599958509,-0.005705657445837278
1690839620289764600,5.8297646484375,0.1630675786972046,-0.004327736139157786,-0.0038157920035591813
1690839620299804700,5.8398046875,0.17683190015554426,-0.0109595571027603,-0.0033252194495522417
1690839620309844500,5.849844482421875,0.18865268633067606,0.005442163654463365,-0.011422967655205866
1690839620319885600,5.859885498046875,0.19374153390228746,0.002715935294656083,-0.010327820229105418
1690839620329925600,5.869925537109375,0.1795271305888891,0.001015442386548966,-0.00337212733119959
1690839620339965700,5.879965576171875,0.18087620711028574,0.00301106405002065,-0.0062042192267661445
1690839620350005500,5.890005615234375,0.17953122224211693,-0.0023632128668483344,0.0016279939274769276
1690839620360046600,5.900046630859375,0.1733978340536356,-0.004752336493087932,0.008066898692952235
1690839620370086700,5.910086669921875,0.17968261341154573,-0.005647915359633043,-0.0001709441116254311
1690839620380126500,5.92012646484375,0.17579028214812278,0.002405910364259034,-0.005223450861376477
1690839620390167600,5.93016748046875,0.17578794406056403,0.011324180030915886,-0.0031208457090717272
1690839620400207600,5.94020751953125,0.18252046718597412,0.010772537497524172,-0.00516889624610194
1690839620410247700,5.95024755859375,0.1778811169475317,0.009337408394180237,-0.00709840985382325
1690839620420287500,5.96028759765625,0.1748877803504467,0.00002627608557231724,-0.008066962625033921
1690839620430358500,5.970358642578125,0.1760854657024145,0.006089731709845364,-0.0018083429049758706
1690839620440398300,5.9803984375,0.17982932840585708,0.01617820506650023,-0.0027907655129791238
1690839620450439400,5.990439453125,0.1868646338701248,-0.0003695091658271849,0.004717526616255054
1690839620460479500,6.0004794921875,0.1751964079082012,-0.007714839560491964,0.0058909988339291884
1690839620470519600,6.01051953125,0.18537293400764465,0.003929713264899328,-0.003599070238159038
1690839620480560600,6.020560546875,0.17833938210904599,0.009688897846126929,-0.009779619753325823
1690839620490600700,6.0306005859375,0.1775894405245781,-0.003512474233517423,-0.007581304849806474
1690839620500640500,6.040640625,0.1847691228955984,0.002209154816297814,-0.00175290694028954
1690839620510680600,6.0506806640625,0.17922843990325926,0.002144309419160709,-0.0056440668766445014
1690839620520721700,6.0607216796875,0.18296821095347404,-0.006332929348573088,-0.009105928592709823
1690839620530761500,6.070761474609375,0.18910276818573474,0.013631479725753888,-0.0074330543438903985
1690839620540801500,6.080801513671875,0.1900017628520727,0.006841664321999997,-0.009065945925482082
1690839620550842600,6.090842529296875,0.17788170146942137,0.009164746107859537,-0.003916137972340221
1690839620560882700,6.100882568359375,0.17788403955698012,0.009352870824793353,-0.006404944272013381
1690839620570922500,6.110922607421875,0.17684066798388956,0.0014491850281599908,-0.009233406880300025
1690839620580962600,6.120962646484375,0.17474749509692192,-0.00496322103110142,0.0002036054138559848
1690839620591033300,6.131033447265625,0.17878887944221494,-0.0030826131825800983,-0.0065556835625378874
1690839620601074400,6.141074462890625,0.1738508385181427,-0.0035353893182240425,-0.006541365059529198
1690839620611114500,6.151114501953125,0.17789046929776667,-0.0011973291589412838,0.00015777524444274605
1690839620621154600,6.161154541015625,0.1775888560026884,-0.0053339357733260834,-0.002419218512048246
1690839620631194600,6.171194580078125,0.17160042924284935,0.0009845175253227353,-0.00153400463424623
1690839620641235700,6.181235595703125,0.1799772124439478,0.005784282489866018,-0.004268251903727651
1690839620651275500,6.191275634765625,0.17623510330617426,0.008238251513242721,-0.0022515326533000916
1690839620661315600,6.201315673828125,0.18656068248748778,0.009469857401121407,-0.003147112661489518
1690839620671356700,6.211356689453125,0.18446400246918201,-0.003996111298305914,-0.009243559523200382
1690839620681396500,6.221396484375,0.17832827619314193,0.00405296518523246,0.001330395795457298
1690839620691436500,6.2314365234375,0.16800503509938716,0.004666393508994952,-0.002058057049458148
1690839620701483000,6.24148291015625,0.17788228599131106,0.004909655079804361,-0.008975382706843083
1690839620711524000,6.251524169921875,0.17384323973357677,-0.00037382001476362345,-0.007981654395180521
1690839620721564200,6.261564208984375,0.17788462407886982,-0.0014431754124816507,-0.00907505853041075
1690839620731604000,6.27160400390625,0.1777367400407791,-0.0005762746511492878,-0.007573936677392339
1690839620741675000,6.281675048828125,0.18297347165048122,0.00016275281365960836,-0.005172429635259323
1690839620751715000,6.291715087890625,0.18237667480111122,-0.00437468055342324,-0.004005255869275424
1690839620761756000,6.301755859375,0.1781856528520584,-0.0014698533568531275,-0.004821914005914005
1690839620771796000,6.3117958984375,0.18536650426685808,-0.007029916903097182,-0.007322556873853318
1690839620781836000,6.3218359375,0.18012685004770754,-0.0036680757871828972,-0.00876059374526958
1690839620791875800,6.331875732421875,0.17847908284068106,0.008428266793163493,-0.004262643005204154
1690839620801917000,6.3419169921875,0.1781780540674925,0.0059125850446522235,-0.0034383472680929116
1690839620811957000,6.35195703125,0.18087153093516825,0.008144928940292447,0.0025870276683825064
1690839620821996800,6.361996826171875,0.18356442328095435,0.004952014650497585,0.0007221585283987223
1690839620832038000,6.372037841796875,0.1723421875208616,0.0072525649441406125,-0.0025147592999041077
1690839620842078000,6.382077880859375,0.17877894257009028,0.0032478502142708745,-0.0074894881057087324
1690839620852118000,6.392117919921875,0.1831225247323513,0.0015299312473274766,-0.0024748280066705774
1690839620862158000,6.402157958984375,0.1799848112285137,-0.006465615817531943,-0.0030522602851560804
1690839620872199200,6.41219921875,0.18058453068733216,-0.00890617737006396,-0.005794736526865745
1690839620882239000,6.422239013671875,0.17489771722257136,-0.005362486014375463,-0.007282050191884627
1690839620892310000,6.43231005859375,0.17639292421638963,-0.005902191514801234,-0.011157404062687419
1690839620902349800,6.442349853515625,0.178486681625247,-0.009601365693146362,-0.00010351060682442039
1690839620912390000,6.452389892578125,0.16845803956389427,-0.0028257980104535816,0.0019041702455549966
1690839620922431000,6.462430908203125,0.1684557014763355,-0.0027278540613129734,-0.004127834219462238
1690839620932471000,6.472470947265625,0.17833119880259035,0.0012661657446064055,-0.005955602202471345
1690839620942510800,6.4825107421875,0.17354221096038816,0.002570827735541388,-0.000056233974063070486
1690839620952551000,6.492551025390625,0.18476620028614996,0.0038450671887490895,-0.0008655810205033048
1690839620962592000,6.502592041015625,0.18566402590870856,0.006397948275646195,-0.0007938606412964872
1690839620972631800,6.5126318359375,0.17893384087085723,0.004129838946880773,0.00026183954876032655
1690839620982672000,6.522671875,0.1828261721342802,0.0022067527966573835,0.0018535520198813174
1690839620992713000,6.532712890625,0.1772919188827276,-0.0036930092990398403,-0.00006278016256983392
1690839621002753000,6.5427529296875,0.18043547760546205,0.0019545498675666746,0.000021758599014719948
1690839621012793000,6.55279296875,0.1795364829391241,-0.0018784432908985763,0.0013545963716635014
1690839621022833000,6.5628330078125,0.16756547463834284,0.0033271899276413022,0.001224858769972343
1690839621032874000,6.5728740234375,0.17324995001554488,0.0003538732052780688,-0.0023799196897656655
1690839621042913800,6.582913818359375,0.18207681507170198,0.000503501675883308,0.0008452951426559593
1690839621052984800,6.59298486328125,0.18222645267546175,-0.0036605866004712877,-0.004328059224499157
1690839621063025000,6.60302490234375,0.17863456566333769,-0.005047008590726182,-0.0072371036551718134
1690839621073065000,6.61306494140625,0.17623977948129177,0.0071922221921849995,-0.00010656907194643281
1690839621083106000,6.62310595703125,0.18416998795866965,0.00862908659488894,-0.0043797551624069455
1690839621093145900,6.633145751953125,0.1843202100843191,0.0035976135000120846,-0.0023182320808060467
1690839621103186000,6.64318603515625,0.18147768013477325,0.00354080527885817,-0.0037075390062469523
1690839621113227000,6.65322705078125,0.18207739959359168,0.010480011691199616,-0.004286741975066252
1690839621123266800,6.663266845703125,0.1846218233793974,0.002739590164879337,0.00220711469790549
1690839621133307000,6.673306884765625,0.1805816080778837,-0.0035165476204361765,-0.0047243365245987655
1690839621143347000,6.683346923828125,0.178486681625247,-0.0011392240298446266,-0.01055684663694119
1690839621153388000,6.693387939453125,0.1775882714807987,0.0015295293885283171,-0.006311141066806158
1690839621163427800,6.703427734375,0.18073066115975378,-0.002632522194366902,-0.0021455081456922924
1690839621173468000,6.713468017578125,0.17609131092131136,0.00103143454012461,0.00007150232514250092
1690839621183509000,6.723509033203125,0.1793839227259159,0.004685436136182397,-0.00016960153791005723
1690839621193548800,6.733548828125,0.17534370742440222,0.009776977988379076,-0.0028251735310128425
1690839621203619800,6.743619873046875,0.18043080143034457,-0.0016657869209069757,0.005068576535140164
1690839621213660000,6.753659912109375,0.1814794337004423,0.0010000986869446932,0.0012681590555817818
1690839621223700000,6.763699951171875,0.18297639425992965,0.007030711487540975,-0.0035509773297118952
1690839621233739800,6.77373974609375,0.18148177178800104,-0.001654744937084615,-0.007789960898115532
1690839621243780900,6.78378076171875,0.19135960720181464,0.0017532825412694363,0.002989393357618246
1690839621253821000,6.793821044921875,0.18462649955451488,0.005249180099321529,0.006940912028949242
1690839621263861000,6.803861083984375,0.18702128573656082,-0.002613653097115457,0.004389002481364878
1690839621273901800,6.81390185546875,0.1876192516297102,-0.0008414740591309964,-0.006575278745574177
1690839621283942000,6.82394189453125,0.18268237974941728,-0.004507887612190098,-0.006208177307609003
1690839621293982000,6.83398193359375,0.17894143965542314,0.007784351999592035,-0.003712102158577181
1690839621304021800,6.844021728515625,0.17056173384487627,-0.005086756079224869,-0.002980283035978209
1690839621314062800,6.854062744140625,0.17415362085700034,-0.006958605232555419,0.0018942025490337982
1690839621324103000,6.86410302734375,0.17325521071255207,-0.0022774434126913547,0.0010891697764629498
1690839621334143000,6.87414306640625,0.17759411669969558,-0.0005153382441494613,0.0036124023604788814
1690839621344183800,6.884183837890625,0.17071137144863605,0.0031306079096160826,0.0013346118879155255
1690839621354254000,6.894254150390625,0.18208324481248855,0.0029160427103284746,-0.003697948052349966
1690839621364295000,6.904294921875,0.18821838656663895,-0.0013943952341563999,0.0000920713307801634
1690839621374335000,6.9143349609375,0.19076281035244463,0.003144335040869191,0.004423840899305651
1690839621384374800,6.924374755859375,0.1948041946977377,0.007015148592228069,-0.001398968661285471
1690839621394415900,6.934415771484375,0.17789572999477385,0.006502495495509356,-0.009284401848597917
1690839621404456000,6.9444560546875,0.1823854426294565,0.002949214327568188,-0.004631956949853338
1690839621414496000,6.95449609375,0.17999182549118994,0.0025636308097746223,-0.003983467587508494
1690839621424536000,6.9645361328125,0.168469730001688,-0.004611959908017888,-0.002130284318741178
1690839621434577000,6.974576904296875,0.17655016060471534,0.0030098128078505397,0.004387680457247188
1690839621444617000,6.984616943359375,0.19480536374151705,0.00025817601215094327,-0.0030453282208705787
1690839621454656800,6.99465673828125,0.18283318639695642,-0.0011980598113033919,-0.0027000892715528606
1690839621464696800,7.00469677734375,0.17939093698859213,0.002992742942040786,-0.005242842831724556
1690839621474738000,7.014738037109375,0.1795411591142416,0.0040755606095306575,-0.010702458802843465
1690839621484778000,7.024778076171875,0.17565116593837737,0.0026452446786221114,-0.0162925110619748
1690839621494818000,7.034818115234375,0.18717326142787932,0.00999037414388731,-0.00457737265182659
1690839621504859000,7.04485888671875,0.18163900817632675,0.005261637722095474,-0.008069468534307088
1690839621514929200,7.05492919921875,0.18059212947189807,0.00983013294772245,-0.0019765927360160273
1690839621524970000,7.064969970703125,0.170416772416234,0.0025229791389778256,-0.004663402400887571
1690839621535009800,7.075009765625,0.17281097407639026,0.004280590795492753,-0.007030074450012761
1690839621545049900,7.0850498046875,0.18238719619512556,-0.0025104027851950376,0.003424905547918752
1690839621555091000,7.095091064453125,0.1735585775732994,-0.005360476720379665,-0.0011334473096067084
1690839621565131000,7.105131103515625,0.18343290585577487,-0.0002721771380398422,-0.0020156301217502913
1690839621575171000,7.115171142578125,0.18103636610805987,0.00252391985389404,-0.002350306577858282
1690839621585211100,7.125211181640625,0.18507541236579417,0.002247888524644077,-0.0035333263669454023
1690839621595252000,7.135251953125,0.18462591503262518,-0.001257324851024896,-0.013011332825192947
1690839621605291800,7.145291748046875,0.18342881420254706,0.004264087185263633,-0.008465192136913538
1690839621615331800,7.155331787109375,0.17968787410855291,0.00832412143209949,-0.0017255999499000607
1690839621625373000,7.165373046875,0.18073709090054035,0.008903437423706055,0.0008901560560450888
1690839621635413000,7.1754130859375,0.17849311136603355,0.007801257468620315,-0.005998883080127416
1690839621645453000,7.185453125,0.17340777092576026,0.007075865803519263,-0.003608492228697287
1690839621655493000,7.1954931640625,0.17295885811448097,0.008113264293549582,0.0009094966523989569
1690839621665564200,7.205564208984375,0.17220950105190277,0.000686146500101313,0.0033907395584799813
1690839621675604000,7.21560400390625,0.17953999007046223,-0.0014474588619545101,0.0033995941517932803
1690839621685644800,7.225644775390625,0.1841775867432356,-0.0024523981207981702,-0.007292847863823408
1690839621695684900,7.235684814453125,0.17250468460619447,0.00475366993364878,-0.005419148105056956
1690839621705696000,7.245696044921875,0.18417407961189747,-0.0012790800251066684,-0.008418035376805346
1690839621715737000,7.255737060546875,0.17564356715381144,0.0031149902153760193,-0.008579484432656317
1690839621725777200,7.265777099609375,0.17699030558764933,0.00028839762047864494,0.000709479426627513
1690839621735817200,7.275817138671875,0.18626900606453417,-0.007429647677252069,0.0006078650910116266
1690839621745857300,7.285857177734375,0.1783382130652666,0.0032330636370927093,-0.00905159545643255
1690839621755898000,7.295898193359375,0.177889884775877,0.006444636961584911,-0.0029767587799753525
1690839621765938200,7.305938232421875,0.182380766454339,0.005375327229639515,-0.009478189121338073
1690839621775978000,7.31597802734375,0.18417583317756653,0.004458212384721264,-0.009543293671734863
1690839621786019000,7.32601904296875,0.178790633007884,0.006547951205587014,0.00097361253881827
1690839621796059100,7.33605908203125,0.18163374747931957,0.007049818046810105,-0.0012314757404266856
1690839621806099200,7.34609912109375,0.18163374747931957,0.0022747673984151334,-0.0032581307213346007
1690839621816170200,7.356170166015625,0.18043547760546205,0.005027902031457051,-0.000042576483113225545
1690839621826210300,7.366210205078125,0.17624620922207831,0.0016115816487930715,-0.006554468852985882
1690839621836251100,7.376251220703125,0.18462474598884582,0.0001986004451755434,-0.0029517168119084086
1690839621846291200,7.386291259765625,0.17549568311572075,-0.0006913797976449131,-0.004226253092638217
1690839621856331000,7.3963310546875,0.1775894405245781,-0.004956288966815919,-0.0072216263831825925
1690839621866371000,7.40637109375,0.1805821925997734,0.0028219894850160924,-0.0028335178093169813
1690839621876412200,7.416412109375,0.18237667480111122,0.0046859293265268205,0.0015929682798683643
1690839621886452200,7.4264521484375,0.17025544437468051,0.004151913781370967,-0.0037252801589143926
1690839621896492300,7.4364921875,0.179532975807786,0.001028612395375967,0.0011935868488741107
1690839621906533000,7.446533203125,0.17654080825448035,0.0025456019627396018,0.001256824810814578
1690839621916573200,7.4565732421875,0.18252689692676066,0.003361585387587547,-0.004536129609274212
1690839621926613000,7.466613037109375,0.16861176882088183,0.002396466682478785,-0.007195964502252172
1690839621936653000,7.476653076171875,0.1751969924300909,-0.00484534853878431,0.0010601891355065162
1690839621946694100,7.486694091796875,0.18222995980679987,-0.005131042745523154,-0.007348343194014159
1690839621956734200,7.496734130859375,0.1805827771216631,0.0105254765344318,-0.004240601278399117
1690839621966805200,7.50680517578125,0.17998422670662403,0.00360365964830853,-0.0058909623013110824
1690839621976845300,7.51684521484375,0.1705570576697588,0.001216280454583466,-0.005490151531633455
1690839621986885400,7.526885498046875,0.17325111905932425,-0.004242030617082491,-0.004030667730100686
1690839621996926200,7.53692626953125,0.16771452772021292,0.0012605671208817512,0.0007879138160555157
1690839622006966000,7.546966064453125,0.1769914746314287,0.004215480536874383,-0.0026428152595181016
1690839622017006000,7.557006103515625,0.17953531389534472,0.0010670629759319127,-0.004949742778309155
1690839622027046100,7.567046142578125,0.18267536548674104,-0.0024132351541891694,-0.004916831455973442
1690839622037087200,7.577087158203125,0.1828255876123905,-0.004446467148000374,-0.011842664646799676
1690839622047127300,7.587127197265625,0.17953356032967566,0.002438744054781273,-0.004223321350035257
1690839622057167400,7.59716748046875,0.1870177786052227,-0.00949997854474932,-0.006398900407005566
1690839622067208200,7.607208251953125,0.18327917659878729,0.0017812665267381816,-0.008259748675709125
1690839622077248000,7.617248046875,0.1777420007377863,0.0011278532524593174,-0.004195638758665882
1690839622087288000,7.6272880859375,0.17235387795865534,-0.001068031090311706,-0.011698084527358878
1690839622097328000,7.637328125,0.174896548178792,-0.0002798946536146104,-0.004675356558518251
1690839622107369200,7.647369140625,0.17938509176969528,0.0006802921480499207,-0.0005728816842427477
1690839622117409300,7.6574091796875,0.1862678370207548,-0.0011753091233782469,-0.005040574283362366
1690839622127480300,7.667480224609375,0.1802823328703642,-0.007017294883541763,-0.006991639852477237
1690839622137520400,7.677520263671875,0.18507132071256638,-0.0011892554503399877,-0.01025700631548534
1690839622147560200,7.687560302734375,0.1835755291968584,0.006943517261277884,-0.006687377942586318
1690839622157601000,7.69760107421875,0.17998422670662403,0.0010051584545522929,-0.0051019022743625094
1690839622167641000,7.70764111328125,0.1826782880961895,-0.0065774695610161865,-0.010673082011309452
1690839622177681200,7.71768115234375,0.17340075666308402,-0.0047530397459864615,0.003894853155716555
1690839622187721200,7.72772119140625,0.1708575019210577,-0.004294546255609021,-0.005015124748274684
1690839622197762300,7.73776220703125,0.17175532754361628,-0.0011871913574170322,0.00039973419908783395
1690839622207802400,7.74780224609375,0.16771511224210262,0.006159161950554698,-0.00019403729284531436
1690839622217842200,7.75784228515625,0.17265315316617488,-0.0006269545256160199,0.001559416495071491
1690839622227883000,7.767883056640625,0.17818915998339652,-0.007402951466571539,-0.0009538803584640845
1690839622237923000,7.777923095703125,0.18821487943530082,-0.00246133947907947,0.004109193451073952
1690839622247963100,7.787963134765625,0.18776772018969057,-0.00006451660357415676,-0.003943482636992121
1690839622258003200,7.798003173828125,0.18178338508307934,0.0004588953491766006,-0.007704223409999394
1690839622268044300,7.808044189453125,0.1760983251839876,0.0027997776532080023,-0.0011223676515219267
1690839622278115300,7.818115234375,0.1784942804098129,0.0029355237289331853,-0.0034773161551682275
1690839622288155100,7.828155029296875,0.17235913865566252,0.00008660057121887803,-0.0017525370475312229
1690839622298195200,7.8381953125,0.17265724481940267,0.0013570588984526692,-0.0017616656354803126
1690839622308235300,7.8482353515625,0.17250585364997387,0.007001293596811592,-0.012848295742098706
1690839622318276000,7.858276123046875,0.1814835253536701,0.01101484922026284,-0.005404504233418265
1690839622328316200,7.868316162109375,0.17280395981371402,0.004705757405003532,0.005301999415236059
1690839622338356200,7.878356201171875,0.17549568311572075,0.008251110994815826,-0.003213114544318523
1690839622348397300,7.888397216796875,0.17399813803434372,0.0012657364863436669,-0.009357379178196424
1690839622358437400,7.898437255859375,0.174447050845623,-0.00829900525715202,-0.007983462759776738
1690839622368477200,7.908477294921875,0.18492226763069627,0.0001744889172259718,-0.008884305748261977
1690839622378517200,7.918517333984375,0.17534604551196098,-0.0036890272436663507,-0.006496021230594487
1690839622388558000,7.92855810546875,0.171306414732337,0.010250294588552786,-0.003156994734687032
1690839622398598100,7.93859814453125,0.17729133436083794,0.001247753305081278,0.00931719672321342
1690839622408638200,7.94863818359375,0.1765431463420391,-0.0033909210799261927,-0.004338866029592463
1690839622418679300,7.95867919921875,0.1837234132349491,-0.004364953743852674,-0.004070643547462532
1690839622428749000,7.9687490234375,0.1804290478646755,0.007399791395105421,-0.0007472062046872452
1690839622438790100,7.9787900390625,0.18162439512908457,-0.003055661243572831,0.0028851030077261383
1690839622448830200,7.988830322265625,0.18147417300343513,-0.016028941922076045,0.00741976674569887
1690839622458870300,7.998870361328125,0.17399229281544684,0.0037339806302450597,0.001724989170191111
1690839622468910300,8.008910400390626,0.1763864944756031,0.0005900109155569226,-0.0017374833255831617
1690839622478951200,8.018951171875,0.17204758848845958,-0.010444849046273156,0.004921108055580407
1690839622488991200,8.0289912109375,0.17863164305388926,-0.0009955412428360431,-0.0027987170656386296
1690839622499031300,8.03903125,0.18207389246225356,0.0023774971205275503,-0.0013444368788972495
1690839622509072400,8.049072265625,0.17593991975188256,0.00020861951569095254,-0.0007722378979553469
1690839622519112200,8.0591123046875,0.17414485302865504,-0.00046975466990843413,-0.0068491158344491845
1690839622529152300,8.06915234375,0.18431962556242942,0.00007025222461670637,0.00019844175661564803
1690839622539192300,8.0791923828125,0.18910685983896255,-0.004471583322947845,-0.004345411076454911
1690839622549233200,8.089233154296876,0.17773440195322035,-0.001373041918873787,0.003226156688982155
1690839622559273200,8.099273193359375,0.18596505468189714,0.005551597111998125,-0.0009907166539574973
1690839622569313300,8.109313232421876,0.18117548231780528,0.005340685174521059,0.000017268511920701713
1690839622579354400,8.119354248046875,0.18865736250579357,-0.0018537746405228972,0.0034848932484921533
1690839622589424000,8.129424072265625,0.18970248764455316,-0.0011669705532956869,-0.006926848112622974
1690839622599465200,8.13946533203125,0.17010054607391356,-0.002622165197134018,0.00005486742581706494
1690839622609505300,8.14950537109375,0.1756371374130249,-0.0059592371979728335,-0.00002910051360959187
1690839622619545300,8.15954541015625,0.18940321243703365,-0.00014778357339091598,-0.00433963778114994
1690839622629585200,8.169585205078125,0.19194763622283934,-0.004922724623931571,0.0005995630535471718
1690839622639626200,8.179626220703126,0.17399112377166748,-0.005059329216182231,-0.006742894964019069
1690839622649666300,8.189666259765625,0.1829699645191431,-0.004435753957740963,-0.0026879958333156538
1690839622659706000,8.1997060546875,0.1817752017766237,-0.0015473116403911262,-0.0005820970371598378
1690839622669747200,8.209747314453125,0.18865911607146263,0.007199894041987135,0.0028580665870395023
1690839622679787300,8.219787353515626,0.17369594021737575,-0.0008181205830071121,-0.01583197859484935
1690839622689827300,8.229827392578125,0.17459435036182402,-0.0004608315779361874,-0.003790186063200235
1690839622699874300,8.239874267578125,0.17743863387703895,-0.0027535638913046565,0.008926987262652255
1690839622709915400,8.249915283203125,0.17055530410408973,0.004582953009242192,-0.007064370586903532
1690839622719955500,8.25995556640625,0.1762427020907402,0.0006081950262188911,-0.001899908487324137
1690839622729995500,8.26999560546875,0.1876134064108133,-0.0022544369964394716,-0.002273448799230391
1690839622740066600,8.280066650390625,0.18222703719735145,-0.00519703892013058,0.0031831144149880855
1690839622750106400,8.2901064453125,0.1816284867823124,-0.004140077213104814,-0.005066156249190681
1690839622760147500,8.3001474609375,0.1862678370207548,-0.0005043784587178379,-0.004762967484956607
1690839622770187300,8.310187255859375,0.17833762854337692,-0.000145609882613644,-0.009239625416888156
1690839622780227300,8.320227294921875,0.1765431463420391,0.008289059251872823,-0.012779702326672849
1690839622790268400,8.330268310546876,0.18103227445483205,0.01356408617850393,-0.004315417796990368
1690839622800308500,8.34030859375,0.1796849514991045,0.0037894919434562323,0.00250099677767721
1690839622810348500,8.3503486328125,0.17729016531705855,0.0008583521286956965,0.0015780880878563039
1690839622820388600,8.360388671875,0.18013211074471472,-0.007949050175165758,0.00589341683659004
1690839622830429400,8.370429443359376,0.18057926999032498,0.0018788177502341568,0.00018143810617621056
1690839622840469200,8.38046923828125,0.18087620711028574,0.005405494039040059,0.0003672532766591757
1690839622850509300,8.39050927734375,0.1912006172478199,0.0005870974392630159,-0.00437013680904638
1690839622860550400,8.40055029296875,0.1855149728268385,0.0013829970573075116,-0.004321239041356602
1690839622870590500,8.410590576171876,0.18087562258839607,-0.0009496014755684881,-0.00038409024702850726
1690839622880630500,8.420630615234375,0.1753402002930641,0.00007626184029504656,-0.003957178943848703
1690839622890701600,8.43070166015625,0.1780336771607399,-0.00035363574326038356,-0.007498529928689822
1690839622900741400,8.440741455078125,0.18417057248055935,0.000431084893643856,-0.002593014451174531
1690839622910781400,8.450781494140625,0.18372224419116973,0.0033227786140050735,0.0014117550776223651
1690839622920822300,8.460822265625,0.1868646338701248,-0.0005411394056864082,0.00017178778677480296
1690839622930862300,8.4708623046875,0.18746259976327417,-0.0018323847926221787,0.006574395112873753
1690839622940902400,8.48090234375,0.1739934618592262,-0.0007563987247180194,0.005197682807524688
1690839622950943500,8.490943603515625,0.18207155437469483,0.001112573484936729,0.00008084097564569674
1690839622960983600,8.500983642578126,0.17758125721812248,0.0058223403447773305,-0.0060716332225070795
1690839622971023600,8.511023681640625,0.1808732845008373,-0.004985031004110351,0.002614915755728725
1690839622981063400,8.5210634765625,0.18670915104746819,0.0037324279939755793,-0.0018046839349437503
1690839622991104300,8.531104248046875,0.17877894257009028,0.0015663360012695192,-0.0019844095746462697
1690839623001144300,8.541144287109375,0.1816226415634155,0.0016227149641606957,-0.007116579123109113
1690839623011184400,8.551184326171875,0.17788170146942137,0.0037094763766508548,0.0008992663776851258
1690839623021225500,8.5612255859375,0.16815408818125724,-0.0011525675686076282,-0.0011652740698424168
1690839623031265500,8.571265625,0.17698212228119373,-0.0038821477961260824,0.0019606919139856472
1690839623041336600,8.581336669921875,0.17832827619314193,0.0007016454633325338,0.006583675539516843
1690839623051376400,8.59137646484375,0.17907646421194076,0.0013004424735438079,0.003672102366684703
1690839623061416400,8.60141650390625,0.1840156741797924,0.0027195063580758867,-0.0029666974686202593
1690839623071456500,8.61145654296875,0.1859592094630003,-0.0034259649938438086,-0.0023725161263777406
1690839623081497300,8.621497314453125,0.19119652559459208,-0.0004438621768262237,0.0014316482298250776
1690839623091537400,8.631537353515625,0.17937749298512934,0.0019917035401798783,-0.0014686066812602803
1690839623101577500,8.641577392578125,0.17189502827525138,0.006592721929075196,-0.006150378139188979
1690839623111618600,8.65161865234375,0.18506196836233138,-0.006237661413708701,0.0023278641338984013
1690839623121658600,8.66165869140625,0.18161971895396709,-0.006414798945747316,-0.003906867820495972
1690839623131698400,8.671698486328125,0.17922493277192114,-0.0009328695364762097,0.00199977839042549
1690839623141738500,8.681738525390625,0.18146891230642795,0.0005164707553107291,0.0007739400896301958
1690839623151779300,8.691779296875,0.1736883414328098,0.006245351529819891,0.005676478158769896
1690839623161819400,8.7018193359375,0.18565876521170138,0.0038275315320584922,0.0008192873434978537
1690839623171859500,8.711859375,0.19538579397797584,-0.0033566443509887903,-0.004049761731282342
1690839623181900500,8.721900634765625,0.1841635582178831,-0.00013480536080896853,-0.0053433566222200165
1690839623191940600,8.731940673828126,0.1885030487269163,-0.0005967237841337919,-0.004210788378736469
1690839623202011400,8.742011474609376,0.1808703618913889,0.0017041644362267106,-0.008652166076377034
1690839623212051500,8.752051513671875,0.17653028686046598,-0.0016123305674642324,-0.008658701990084955
1690839623222091500,8.762091552734375,0.1736883414328098,-0.008863973062997684,-0.003333174427144695
1690839623232132400,8.77213232421875,0.1733884817034006,-0.0014190547513775527,0.0034330123642052055
1690839623242172400,8.78217236328125,0.17353753478527068,-0.003277642564335838,-0.002507967657869449
1690839623252212500,8.79221240234375,0.1742851382821798,-0.007679174592066556,0.00028306614152388647
1690839623262252300,8.802252197265625,0.18655425274670123,0.0013362261729780583,0.0013706627321196719
1690839623272293400,8.81229345703125,0.1787736818730831,-0.002049260680004954,0.0009180487099685706
1690839623282333400,8.82233349609375,0.18191548703014848,0.0011533164872787893,-0.0014309061610198112
1690839623292373500,8.83237353515625,0.17428338471651075,-0.00308022942924872,-0.0037996331699134316
1690839623302414300,8.842414306640626,0.17413491615653037,0.002687531184079125,-0.012186241361993597
1690839623312454400,8.852454345703125,0.1786257978349924,0.0025377839824650434,-0.00030665822130977174
1690839623322494500,8.862494384765625,0.1781780540674925,0.0025077815698459744,0.006002865135500906
1690839623332534500,8.872534423828125,0.17488544226288794,0.0012704948598518968,-0.00493569712829194
1690839623342575600,8.88257568359375,0.18131985922455787,0.00334287155396305,-0.0032395173524098933
1690839623352645400,8.892645263671875,0.17757658104300497,-0.00027699944362975657,-0.00029256233894266187
1690839623362686500,8.9026865234375,0.17248831799328326,-0.003914744024630636,0.0018966901919979136
1690839623372726500,8.9127265625,0.1786217061817646,0.002069490617280826,0.005166963442275301
1690839623382766600,8.9227666015625,0.17832126193046569,-0.002828830217756331,-0.0009488993643142748
1690839623392807400,8.932807373046876,0.1858019730746746,-0.001912939215544611,0.0016956911521148867
1690839623402847500,8.942847412109375,0.17565525759160516,0.009265375204430892,-0.0075252398391021415
1690839623412887300,8.95288720703125,0.4785743745714426,0.19258085609246045,-0.06598479013030882
1690839623422927400,8.96292724609375,-0.2021194861471653,-0.015941391502786426,-0.22058133603828026
1690839623432968400,8.972968505859376,0.2361819147467613,-0.21248223726740106,0.18526753740441054
1690839623443008500,8.983008544921875,0.06795300776362419,-0.08284318231358193,0.25223326943004504
1690839623453048600,8.993048583984375,0.04291384357511997,-0.21653960463311522,0.15900270387846976
1690839623463089400,9.00308935546875,0.1559562853872776,-0.13264295861069111,-0.25078495205156504
1690839623473129500,9.01312939453125,0.23457623311579226,-0.06191073192469775,-0.2539856295227073
1690839623483169500,9.02316943359375,0.26607728679478165,0.08535398695757612,-0.13675000120387412
1690839623493209300,9.033209228515625,0.24403671990036963,0.1308291689206846,-0.062151166784181255
1690839623503280400,9.0432802734375,0.19046528871059418,0.12098450512411073,0.03368428403616417
1690839623513321500,9.053321533203125,0.20008301188349722,0.10580368619766085,0.09582323065958917
1690839623523361500,9.063361572265626,0.18174363759458065,0.09032725445865653,0.11133533650017342
1690839623533401600,9.073401611328125,0.1614724184602499,0.08137266223644837,0.08331734829712659
1690839623543441400,9.08344140625,0.1896791067689657,0.058042329526133835,0.02072455010911217
1690839623553482500,9.093482421875,0.23268238219320772,0.017033351457957178,-0.056610570556810125
1690839623563522300,9.103522216796875,0.16298282302320002,-0.018256582243135196,-0.11711986558521166
1690839623573562400,9.113562255859375,0.18827800779938697,-0.06916064825402572,-0.1276589048541151
1690839623583602400,9.1236025390625,0.1929039140343666,-0.09320046267425641,-0.09121849507680162
1690839623593643500,9.1336435546875,0.10593640919923782,-0.10419873521905391,-0.02310814361028606
1690839623603683600,9.14368359375,0.13852116646170615,-0.09986620417376979,0.02434086374301696
1690839623613723400,9.153723388671875,0.11783026061058044,-0.07246029258761555,0.060411506342887875
1690839623623764500,9.163764404296876,0.1339496207624674,-0.03780604470786638,0.058707949261437166
1690839623633804500,9.173804443359375,0.16384090115725994,0.0039445272415410725,0.02224819089625962
1690839623643844400,9.18384423828125,0.1876058076262474,0.038221995964460076,-0.03412150184307247
1690839623653884400,9.193884521484375,0.2619628372132778,0.05803988184072077,-0.07695935757253318
1690839623663955500,9.20395556640625,0.21468144607841969,0.07340734591307119,-0.08787400695448741
1690839623673996500,9.21399658203125,0.22307927206754682,0.07224539859476499,-0.06853533769622444
1690839623684036600,9.22403662109375,0.23328619330525396,0.07222400874686427,-0.028268686444929334
1690839623694076400,9.234076416015625,0.17092530646026133,0.04819274295927025,0.02358792648386443
1690839623704102100,9.24410205078125,0.1757511191815138,0.013120077871205284,0.042309137413930144
1690839623714143000,9.25414306640625,0.1712929707288742,-0.0011521291771903633,0.034117462705483194
1690839623724182800,9.264182861328125,0.14572364518642425,-0.029125090928422286,0.003711892096023075
1690839623734222800,9.274222900390624,0.14647650938034057,-0.052787413805769755,-0.032977864216302985
1690839623744264000,9.284263916015625,0.1632236460417509,-0.055197972945682704,-0.06063976214081049
1690839623754304000,9.294303955078124,0.17621815217137335,-0.04797434183508158,-0.06255107565484941
1690839623764344000,9.304343994140625,0.17469196551740168,-0.035821282365126536,-0.05015529347020201
1690839623774384000,9.314384033203124,0.15834990252554415,-0.011665303352475166,-0.022015736130543518
1690839623784425000,9.324425048828125,0.17298925325274467,-0.00013664112486876546,-0.0008895989336189813
1690839623794465000,9.334465087890624,0.17027940977215766,0.014995004897611216,0.016795325467980002
1690839623804504800,9.3445048828125,0.1511199512720108,0.029571921380469574,0.02195849180126097
1690839623814575900,9.354575927734375,0.2123269919067621,0.037465588106587525,-0.008202072804875206
1690839623824616000,9.364615966796874,0.20605624107420442,0.040793536086054516,-0.022579975567315703
1690839623834657000,9.374656982421875,0.19200959554314612,0.04300543084871024,-0.039985799899743865
1690839623844697000,9.384697021484374,0.21253157456815241,0.035497639901330695,-0.04462216359665617
1690839623854737200,9.394737060546875,0.18396949695050716,0.030871779332123695,-0.04066475404065568
1690839623864777000,9.40477685546875,0.18144085525572298,0.0036235242594033477,-0.02617822382156737
1690839623874817800,9.41481787109375,0.16843173607885836,-0.020939099325379355,-0.01174599020613823
1690839623884857900,9.42485791015625,0.1688824024558067,-0.020371994361374525,0.00016238292090129107
1690839623894898000,9.43489794921875,0.16513912427425384,-0.030007052261568603,-0.0018389172813971526
1690839623904939000,9.44493896484375,0.14911854832172394,-0.038348015230614686,-0.010949273170763626
1690839623914979000,9.45497900390625,0.18052900110781192,-0.019120313799846918,-0.020396555697184522
1690839623925019100,9.46501904296875,0.17527707192897796,-0.011375663622980937,-0.029914734335616228
1690839623935059000,9.475058837890625,0.16523849299550056,-0.003183982064668089,-0.03674970405534841
1690839623945099800,9.485099853515624,0.19754910949170587,0.007526723976712673,-0.027957065495778807
1690839623955139800,9.495139892578125,0.19544950686395168,0.01559930920000188,-0.01766407569310395
1690839623965211000,9.5052109375,0.17435235829949378,0.028399790594866497,-0.021613840798765886
1690839623975251000,9.5152509765625,0.18827333162426949,0.02634928780584596,-0.00027458829083479937
1690839623985291000,9.525291015625,0.19142565817534923,0.02490062336749397,0.003926852304243948
1690839623995332000,9.53533203125,0.18844401201605795,0.013806279170233755,-0.011732884129392914
1690839624005372200,9.5453720703125,0.19518939462304113,0.008220670190779492,-0.024657286448159718
1690839624015412000,9.555411865234374,0.1841243952512741,-0.004700259245978668,-0.019550736539787613
1690839624025452800,9.565452880859375,0.19430384396016598,-0.013561346232146023,-0.017298923041985836
1690839624035492900,9.575492919921874,0.1702121897548437,-0.012912052010558546,-0.030781304020097013
1690839624045533000,9.585532958984375,0.17020751357972622,-0.01390355639909394,-0.02225477361738449
1690839624055573000,9.595572998046874,0.18052724754214286,-0.013078796012746169,-0.00882078009195393
1690839624065614000,9.605614013671875,0.15986965943872927,-0.015687489806953815,-0.010434542281390168
1690839624075654100,9.615654052734374,0.16465046397447586,-0.007264684640197083,-0.010186172993911896
1690839624085694000,9.62569384765625,0.18050503571033477,0.004690934295207262,-0.014565242028085049
1690839624095733800,9.635733642578124,0.1734673921585083,0.00009651917703449725,-0.016548262221598997
1690839624105774800,9.64577490234375,0.1888788963019848,0.0032947124301455914,-0.024879598845774308
1690839624115846000,9.655845947265625,0.19381810626983642,0.007752130230423063,-0.02435850214769598
1690839624125886000,9.665885986328124,0.19052841707468032,0.002005841663386673,-0.025462903742620255
1690839624135926000,9.675926025390625,0.19143091887235641,0.012008929158374666,-0.025284935093519742
1690839624145966000,9.685966064453124,0.18275778307318685,0.007938830175250768,-0.018859292810061015
1690839624156007200,9.696007080078125,0.17932196340560913,0.0020056316008325663,-0.016126162068720442
1690839624166047000,9.706046875,0.17708149100244044,0.005033117062691599,-0.007670667058625258
1690839624176086800,9.716086669921875,0.1694534803420305,-0.0019053312978241591,-0.007846512249298393
1690839624186128000,9.7261279296875,0.17588789730370044,-0.009741121223708614,-0.015589600656740367
1690839624196168000,9.73616796875,0.16780571313500403,-0.006728824197826906,-0.020787164733256213
1690839624206208000,9.7462080078125,0.17079437355697155,-0.011991073841275646,-0.02286448246396612
1690839624216248000,9.756248046875,0.17647651084661484,-0.014888009992334991,-0.025598012780817223
1690839624226289200,9.7662890625,0.17333002951443194,-0.006866433437075465,-0.023016741283074953
1690839624236329000,9.776328857421875,0.17631810541450976,0.006640159533685073,-0.018834366148069964
1690839624246368800,9.78636865234375,0.18394786964058876,0.004853239584295079,-0.007977687181183137
1690839624256409900,9.796409912109375,0.18454583553373813,0.009249446982936933,-0.011305637443938758
1690839624266450000,9.806449951171874,0.18245266264677046,0.014137730481149628,-0.013774210381403099
1690839624276521000,9.81652099609375,0.17572306213080882,-0.0006534498068969697,-0.01414331083856523
1690839624286561000,9.82656103515625,0.18485446309149264,0.007320762208988889,-0.011016340207739266
1690839624296601000,9.83660107421875,0.18575638036727904,0.008105035321321338,-0.02078497505945852
1690839624306641000,9.846640869140625,0.17842822943627834,-0.0019882329414598644,-0.018430388457060326
1690839624316682000,9.856681884765624,0.18097382226586342,0.0030023327542934566,-0.009136652524536475
1690839624326721800,9.8667216796875,0.1860632543593645,-0.004042242861818522,-0.007169213492644485
1690839624336761900,9.876761962890624,0.16541268051862715,-0.004857687430549412,-0.020516031058121005
1690839624346803000,9.886802978515625,0.17633447202742097,0.0012504475856665522,-0.019962902103830126
1690839624356843000,9.896843017578124,0.18830372676253318,-0.0033146409733220933,-0.01595453639543848
1690839624366883000,9.906883056640625,0.17707798387110232,-0.004289093762356788,-0.017400237125146666
1690839624376923000,9.9169228515625,0.18321137205958365,-0.00018545783581212162,-0.016339918983832465
1690839624386964000,9.9269638671875,0.17752455859482288,0.003203645746363327,-0.01858302858537063
1690839624397003800,9.937003662109374,0.1885989103168249,0.00408799996599555,-0.019038626865763218
1690839624407043800,9.9470439453125,0.18650573742985724,0.0046972909707576034,-0.017303466786362694
1690839624417085000,9.9570849609375,0.17034370718002317,0.006821589648351073,-0.0141051000033156
1690839624427155000,9.967155029296874,0.17543255475163458,0.009569089125050232,-0.011166101109085138
1690839624437196000,9.977196044921875,0.18201719383895396,-0.002186586791463196,-0.00906696198892314
1690839624447236000,9.987236083984374,0.18022154259383677,0.0011127926806453615,-0.012372588538727722
1690839624457276000,9.99727587890625,0.1927905167877674,0.0001576839128974825,-0.013723400359484366
1690839624467317000,10.00731689453125,0.17872516655623913,0.005537294592009857,-0.02079570423273835
1690839624477356800,10.017356689453125,0.17707739934921263,0.0036240631155204026,-0.0160463588477578
1690839624487396900,10.02739697265625,0.18410919768214223,0.0018646978933364153,-0.009513089188071899
1690839624497437000,10.03743701171875,0.18276304377019403,0.007631015468249097,-0.014201516432361677
1690839624507478000,10.04747802734375,0.17902151915431022,0.0048895621398463845,-0.023856055351160466
1690839624517518000,10.05751806640625,0.19054419916570187,-0.002682754544261843,-0.021068984199187252
1690839624527558000,10.067557861328124,0.180668701839447,-0.004516564108990133,-0.006452073632657993
1690839624537599000,10.077598876953125,0.17947160100936888,0.00027967545790597795,-0.008415758938039652
1690839624547638800,10.087638671875,0.1796235767006874,0.005066781870275735,-0.016112352739076595
1690839624557678800,10.097678955078125,0.1808212620526552,-0.000745831664931029,-0.017083396578184327
1690839624567719000,10.107718994140624,0.1775268966823816,-0.0042559312782716,-0.012414441219344735
1690839624577790000,10.1177900390625,0.1778244183242321,0.0026853666264563796,-0.019376498784311115
1690839624587829800,10.127829833984375,0.1866518679022789,-0.001641903721820563,-0.017691192028892692
1690839624597871000,10.13787109375,0.17632628872096537,-0.004624262267164885,-0.014783748183550778
1690839624607911000,10.147910888671875,0.176774617010355,0.0065378590698353944,-0.016217354333377444
1690839624617951000,10.157950927734374,0.18605214844346046,0.006966962068947031,-0.0070929037032881745
1690839624627991800,10.16799169921875,0.1740811401426792,0.009823566209618002,-0.019011962621123528
1690839624638032000,10.178031982421874,0.1775239740729332,0.010874984091846271,-0.01406619504832197
1690839624648072000,10.188072021484375,0.1808171703994274,0.0018493176611140368,-0.012545803380897268
1690839624658112000,10.198112060546874,0.18111761465072632,0.00014846855998039245,-0.015033982917841058
1690839624668153000,10.208153076171875,0.18037118019759654,0.01048382934979163,-0.01173714931255672
1690839624678193000,10.21819287109375,0.1847124242722988,0.0043626978546846655,-0.01445138355718227
1690839624688233000,10.22823291015625,0.1743868450909853,0.007039369718031957,-0.013074046772392467
1690839624698259000,10.238259033203125,0.17992343643009662,0.002870029877824709,-0.010456009761104359
1690839624708299000,10.248299072265626,0.17648060249984263,-0.006656316084042191,-0.011131593767995945
1690839624718339000,10.258339111328125,0.1731879906952381,0.0007571841760072856,-0.018788232301268727
1690839624728379100,10.268379150390626,0.17243746458888054,0.0014314575752243399,-0.012035346807842143
1690839624738450200,10.2784501953125,0.16809680503606794,-0.00342708837185055,-0.02900392136732116
1690839624748490000,10.288489990234375,0.17782266475856304,0.010897515584062784,-0.02514584171666065
1690839624758531000,10.298531005859376,0.1797667845636606,0.008219053622428328,-0.017612021278881
1690839624768571000,10.30857080078125,0.18769816208481788,0.001147927926108241,-0.020610643689148125
1690839624778611000,10.31861083984375,0.1728834547907114,0.004683034116541966,-0.01311542909555137
1690839624788652000,10.328652099609375,0.1766255639284849,-0.0034713567718397823,-0.009621159522293601
1690839624798692000,10.338692138671876,0.18231237739324568,0.004072153942892328,-0.011336142180056775
1690839624808732200,10.348732177734375,0.18156535841822624,-0.0021021233784034848,-0.009584761618217454
1690839624818772000,10.35877197265625,0.1812666677325964,0.004243153995089233,-0.0140698186273803
1690839624828813000,10.36881298828125,0.1779758094936609,0.005998235767800361,-0.019536408903624396
1690839624838852900,10.378852783203126,0.17827566922307014,0.0030399065520148724,-0.012713494947867002
1690839624848893000,10.388892822265625,0.1815671119838953,0.0024940361722838133,-0.025171878056926653
1690839624858934000,10.39893408203125,0.1788736351162195,-0.008474087829422204,-0.018602285841689443
1690839624868974000,10.40897412109375,0.1809697306126356,-0.0018307408248074352,-0.012479432746954261
1690839624879014000,10.419013916015626,0.1734855123370886,0.0011016593652777374,-0.013447506027552299
1690839624889085000,10.4290849609375,0.18440847288966178,-0.0036229306043591347,-0.02139660643506795
1690839624899125000,10.439125,0.17453122199773788,-0.002225384431891143,-0.018792744079604743
1690839624909166000,10.449166015625,0.1808165858775377,0.010965530185820534,-0.018977681325608863
1690839624919206000,10.459205810546875,0.18380992247462272,0.013986677238438277,-0.01650116711028386
1690839624929246000,10.469245849609376,0.18829963510930536,0.004299048900790512,-0.006706886360654607
1690839624939286000,10.4792861328125,0.17184066773951054,0.0028902141493279483,-0.006623929918091744
1690839624949327000,10.4893271484375,0.17543255475163458,0.0035350787909701462,-0.012257076966855674
1690839624959367000,10.499366943359375,0.1788736351162195,-0.0027719854639843104,-0.015220299270178657
1690839624969407000,10.509406982421876,0.1914443628758192,0.002556580014480278,-0.02018004741927143
1690839624979448000,10.519447998046875,0.18875322409570217,-0.009226860691793263,-0.015404709076508878
1690839624989487900,10.52948779296875,0.18172025671899317,-0.000013233940908685326,-0.014959837686107494
1690839624999528000,10.53952783203125,0.1854611968129873,-0.003948628027923405,-0.017160982725885697
1690839625009568000,10.549568115234376,0.19234277302026748,0.004185258928546682,-0.015314742937847039
1690839625019609000,10.559609130859375,0.17258944028019904,-0.0005902209781110286,-0.017985743112233468
1690839625029649000,10.56964892578125,0.17947277005314827,0.008803338050097226,-0.016250354703969787
1690839625039720000,10.579719970703126,0.1841109512478113,0.0020669150677043945,-0.009701239021180664
1690839625049760000,10.589760009765625,0.17812603161931037,0.004043704166542738,-0.012673393549630417
1690839625059799800,10.5997998046875,0.17857669799625872,0.0074534304116386915,-0.02065780273254495
1690839625069841000,10.6098408203125,0.18156945007145403,0.00039328276705928144,-0.023047339634026866
1690839625079881000,10.619880859375,0.1847124242722988,0.001023360831523314,-0.019981394458457362
1690839625089921000,10.629921142578125,0.17857845156192778,-0.001156339561427012,-0.017858938394789584
1690839625099961000,10.639961181640626,0.1788794803351164,-0.002075463700341061,-0.018958204873581415
1690839625110002000,10.650001953125,0.18486556900739667,0.004253273530304432,-0.016816560052253772
1690839625120042000,10.6600419921875,0.17843056752383707,0.007644112411839887,-0.01575171643287176
1690839625130081800,10.670081787109375,0.17797990114688872,-0.0035836854393593966,-0.010979896637890488
1690839625140123000,10.680122802734376,0.1833662703603506,0.000695206589391455,-0.00655291964164935
1690839625150163000,10.690162841796875,0.18351532344222068,0.0031534864617045965,-0.007483311809960287
1690839625160203000,10.700203125,0.17588205208480356,-0.001972834442928433,-0.015874340448831206
1690839625170243000,10.7102431640625,0.18037118019759654,0.004720397851709276,-0.023983229961362665
1690839625180284000,10.720283935546876,0.179622407656908,0.007355860921833664,-0.02171047185694333
1690839625190324000,10.730323974609375,0.17962182313501834,0.005362924405792727,-0.016776803430600555
1690839625200394800,10.740394775390625,0.1863543462604284,0.0036758481016848235,-0.009068790903117041
1690839625210434800,10.750434814453126,0.17917174127995966,0.0053128107869066295,-0.018918032693397254
1690839625220475000,10.760474853515625,0.18306290349960327,0.0013793437954969703,-0.015107534494530409
1690839625230516000,10.770515869140626,0.1874006404429674,0.003581292552873492,-0.018367264659551436
1690839625240556000,10.78055615234375,0.17318448356389998,0.012221813857229426,-0.014695823304925578
1690839625250596000,10.79059619140625,0.1770744767397642,-0.006538991580996662,-0.013979875321604777
1690839625260636200,10.80063623046875,0.17842179969549177,-0.0016606540880631654,-0.02073815165949054
1690839625270677000,10.810677001953126,0.18410978220403193,0.00030103790634311735,-0.013776596418023108
1690839625280716800,10.820716796875,0.1743862605690956,0.0014315306404605508,-0.009723334405268541
1690839625290756900,10.8307568359375,0.1868073507249355,-0.006079776571411639,-0.01771977195269428
1690839625300798000,10.8407978515625,0.1769306843549013,-0.001776151960203424,-0.00791547213254962
1690839625310838000,10.850838134765626,0.1776759497642517,0.0008147595821414143,-0.008475261439778841
1690839625320878000,10.860878173828125,0.18605390200912952,0.00169690357837826,-0.021738661338388917
1690839625330918100,10.870918212890626,0.17513035693466664,0.0009958426369354129,-0.016277907147887162
1690839625340959000,10.880958984375,0.17991817573308944,0.003936216070922091,-0.01526659751376137
1690839625351029800,10.89102978515625,0.1779723023623228,0.00412506230706349,-0.01637181195943849
1690839625361069800,10.90106982421875,0.18470541000962257,0.003036015828186646,-0.013269092137168627
1690839625371110000,10.91110986328125,0.17931962531805037,-0.004079487865976989,-0.01923006920107873
1690839625381150000,10.92114990234375,0.18425766624212264,0.003546221239492297,-0.020687485484755595
1690839625391191000,10.93119091796875,0.17602818255722522,0.011997713644616305,-0.012130957236001267
1690839625401231000,10.941231201171876,0.18485913926661013,0.003624875966273248,-0.009410998786776327
1690839625411271200,10.951271240234375,0.18231705356836317,0.003287990428414196,-0.013322285912418737
1690839625421312000,10.96131201171875,0.17348901946842668,0.004538922071270645,-0.0077543313206639135
1690839625431351800,10.971351806640625,0.17453706721663473,-0.00452954232157208,-0.01588466319673462
1690839625441391900,10.981391845703126,0.1782768382668495,0.00408043771404773,-0.015444438298698513
1690839625451432000,10.991431884765625,0.17513386406600473,0.007318972110701725,-0.0221029874390224
1690839625461473000,11.00147314453125,0.1833615941852331,0.0012590966830030082,-0.014150395883189048
1690839625471513000,11.01151318359375,0.18096622348129748,-0.0019512345324736086,-0.010844397157337517
1690839625481553200,11.02155322265625,0.178721659424901,-0.0058603708002250635,-0.013425746286893263
1690839625491594000,11.031593994140625,0.18455694144964216,0.0026437377081252635,-0.013535134078655392
1690839625501664000,11.0416640625,0.18291092780828475,0.0018526238630525767,-0.01924657281130785
1690839625511704800,11.051704833984376,0.1796194850474596,0.007301838312810286,-0.014598810937546659
1690839625521745000,11.061744873046875,0.17632687324285506,0.008900313884858041,-0.014291957495058885
1690839625531785000,11.071784912109376,0.17707681482732296,0.011102363106934353,-0.017407002509362064
1690839625541825000,11.081824951171875,0.17483283529281615,0.0051396187776234,-0.009004119035915937
1690839625551866000,11.0918662109375,0.1802203735500574,-0.00034566249935887754,-0.011905804427328984
1690839625561906200,11.10190625,0.1830646570652723,-0.0005289009786210954,-0.020253779375762677
1690839625571946000,11.111946044921876,0.18650632195174693,0.0059396831141319125,-0.018138273642689454
1690839625581986800,11.12198681640625,0.18635785339176653,0.0017154438820667563,-0.014959883351880124
1690839625592027000,11.13202685546875,0.18321487919092178,0.0033554205082822587,-0.008504916792525909
1690839625602067000,11.14206689453125,0.17288930000960825,-0.0007692764726001769,-0.012639936521311755
1690839625612107000,11.15210693359375,0.16884733114242553,0.00406190654351376,-0.014042270750040187
1690839625622148000,11.162148193359375,0.17812369353175161,0.004206027721939608,-0.013280102154950145
1690839625632188200,11.172188232421876,0.1775233895510435,-0.00029104623529128726,-0.018286940848780794
1690839625642228000,11.18222802734375,0.1773719983816147,-0.0028305381176527587,-0.015054345285857562
1690839625652299000,11.192299072265625,0.1785690992116928,0.0031866854784078896,-0.019107171190483493
1690839625662339000,11.202339111328126,0.17453063747584818,-0.00025065029282122847,-0.014947686024010181
1690839625672380000,11.2123798828125,0.18141572081446647,-0.0010146021363325417,-0.019734860935038886
1690839625682420000,11.222419921875,0.18186463362574576,-0.00020618096343241632,-0.011137674165621865
1690839625692460000,11.2324599609375,0.1742337003558874,-0.0004605393169913441,-0.012907366702286526
1690839625702513200,11.24251318359375,0.17842355326116083,0.005679379076976329,-0.01726253198777558
1690839625712554200,11.25255419921875,0.1734855123370886,-0.00042270065778866406,-0.005118133031600154
1690839625722594300,11.26259423828125,0.17468319768905638,-0.0010281009387224911,-0.007312083428900223
1690839625732634400,11.27263427734375,0.17213935842514036,-0.002103191957483068,-0.016463495131151282
1690839625742675200,11.28267529296875,0.17079320451319216,0.001999996444489807,-0.015514667690428904
1690839625752715300,11.29271533203125,0.18246435308456418,0.0035592816504649814,-0.017798958685726392
1690839625762755300,11.30275537109375,0.17692776174545288,0.006214015676639974,-0.01532828512272099
1690839625772795400,11.31279541015625,0.17318565260767935,0.004300245344033464,-0.019164586766413413
1690839625782836500,11.32283642578125,0.18425766624212264,0.003204294200334698,-0.01462228999454528
1690839625792876300,11.332876220703126,0.18096446991562842,0.011338071558950467,-0.017652387538598848
1690839625802916400,11.342916259765625,0.18156302033066749,0.005219999670609832,-0.02596773429248715
1690839625812987400,11.3529873046875,0.18470599453151226,0.003388208533031866,-0.016132708257227204
1690839625823027500,11.36302734375,0.18036825758814812,-0.0013699457794893533,-0.010419700905284844
1690839625833068300,11.373068359375,0.17692776174545288,0.0027863519160542635,-0.012538448908214922
1690839625843108400,11.3831083984375,0.1730360150039196,0.00009505787231028079,-0.010841890106420032
1690839625853148200,11.393148193359375,0.1769265927016735,-0.0015103314977139234,-0.008928978290339
1690839625863189200,11.403189208984376,0.17677870866358278,0.002029304737364873,-0.007501525603374466
1690839625873229300,11.413229248046875,0.1829126813739538,-0.0031192827980034052,-0.00764388636626536
1690839625883269400,11.423269287109376,0.17453122199773788,-0.0013651600065175443,-0.011397411947196814
1690839625893309400,11.433309326171875,0.17782091119289398,0.0030649222622625527,-0.0171232947637327
1690839625903350300,11.443350341796876,0.18620003248155115,0.008798470078734681,-0.01839920101764146
1690839625913390300,11.453390380859375,0.18425299006700516,0.0043442397493869064,-0.014173135154671035
1690839625923430100,11.46343017578125,0.18619710987210272,0.0014434037413448095,-0.02485059194699861
1690839625933471200,11.47347119140625,0.19233166710436342,0.005639467191696166,-0.0155474260324263
1690839625943511300,11.48351123046875,0.17302900074124336,0.009498261511698365,-0.02110358743839897
1690839625953551400,11.49355126953125,0.1725818414956331,0.006536863555992022,-0.01906973895665724
1690839625963622400,11.503622314453125,0.17827099304795263,0.0037958942847792056,-0.005615915069461334
1690839625973662500,11.513662353515626,0.184708332619071,0.0034666349309496578,-0.007443774384015705
1690839625983702500,11.52370263671875,0.1793231324493885,0.004454531723447144,-0.005940970888920128
1690839625993743400,11.533743408203126,0.17692893078923225,-0.00605568330977112,-0.009147114553046412
1690839626003783200,11.543783203125,0.18171558054387568,0.005338584548979997,-0.016953267392492852
1690839626013823200,11.5538232421875,0.18335925609767437,0.004038498268462717,-0.014342735550936776
1690839626023864300,11.5638642578125,0.18230945478379726,-0.0006707206021063029,-0.023824696665094233
1690839626033904400,11.573904296875,0.17721943816840646,0.00437943892693147,-0.02567119674803689
1690839626043944400,11.5839443359375,0.17631868993639946,0.011335505142528563,-0.026063509117427747
1690839626053984500,11.593984619140626,0.170631291949749,0.012200780202355235,-0.027497567358403464
1690839626064025300,11.604025390625,0.1775152062445879,0.009409761244338006,-0.014209651789756025
1690839626074065200,11.614065185546876,0.1852969461619854,0.005880500272801146,-0.01757647047488717
1690839626084105200,11.624105224609375,0.17946049509346484,0.007003704749606549,-0.014491512354882434
1690839626094146300,11.634146240234376,0.1778162350177765,-0.0035834845099598166,-0.0139506674934295
1690839626104186400,11.644186279296875,0.1788654518097639,0.0025200656626839187,-0.008299452781723811
1690839626114257400,11.65425732421875,0.18066344114243982,0.004923409610521048,-0.009713205736898817
1690839626124297500,11.66429736328125,0.17752105146348476,0.00671153513630852,-0.011972745883429888
1690839626134337500,11.674337646484375,0.18290742067694662,0.0012665493370965122,-0.013857817561225965
1690839626144378400,11.68437841796875,0.18500176260769366,0.003182091501681134,-0.019809789334773086
1690839626154418200,11.694418212890625,0.18245792334377764,-0.002353586521977559,-0.016604472221131435
1690839626164458200,11.704458251953126,0.17722177625596522,0.002666707591759041,-0.021400540541380176
1690839626174498300,11.714498291015625,0.16614917809963226,0.0015195742500945925,-0.0191693999388488
1690839626184539400,11.724539306640626,0.17183599156439303,0.0042976241286844016,-0.011269351421005557
1690839626194579500,11.734579345703125,0.17452946843206882,-0.003438870141189545,-0.005843723342812154
1690839626204619500,11.74461962890625,0.18470482548773287,0.00675095383124426,-0.008268178577336948
1690839626214659300,11.754659423828125,0.1784200461298227,0.006166285811085253,-0.008407192039093934
1690839626224700200,11.7647001953125,0.17438041535019874,-0.0008787281964439898,-0.010962936369935049
1690839626234740200,11.774740234375,0.16704817276597023,-0.0014591401665937154,-0.009041749915853142
1690839626244780300,11.7847802734375,0.17333119855821133,0.006481279177544638,-0.010235329914861358
1690839626254821400,11.7948212890625,0.1864993076890707,0.0038796179123222825,-0.015878315654338802
1690839626264891400,11.804891357421875,0.19039105443060397,0.0032348263359162953,-0.018487436423520555
1690839626274932500,11.814932373046876,0.19518062679469583,-0.0017456928898580372,-0.02231402039079694
1690839626284972500,11.82497265625,0.1848562166571617,0.003895345204416662,-0.017322456897911613
1690839626295012400,11.835012451171876,0.18785013777613638,-0.0004755359567236155,-0.015469842168013564
1690839626305053200,11.84505322265625,0.18006956690251827,0.0016338756789918989,-0.02179028877763776
1690839626315093200,11.85509326171875,0.18036942663192748,-0.001294807317201048,-0.003934104028937872
1690839626325133300,11.86513330078125,0.1793225479274988,-0.001470958468550816,-0.013926944124547298
1690839626335173400,11.87517333984375,0.16750059270858764,-0.002142765916045755,-0.005642887558066286
1690839626345214500,11.88521435546875,0.1829120968520641,-0.00015887122298590837,-0.012605881271371617
1690839626355254500,11.895254638671876,0.17962065409123895,0.003113474111724645,-0.019896049695985855
1690839626365294300,11.90529443359375,0.18395722199082373,0.002745371451694518,-0.015700595883699132
1690839626375335200,11.915335205078126,0.18290917424261569,0.00389715356901288,-0.012604913156991825
1690839626385375200,11.925375244140625,0.1775233895510435,0.007424231716617941,-0.01466902662954526
1690839626395415300,11.935415283203126,0.1848568011790514,0.0030278325217310336,-0.010748718230519443
1690839626405455400,11.945455322265625,0.18051964875757692,0.009014149522874503,-0.021933969281357713
1690839626415496400,11.955496337890626,0.18680618168115615,0.004264443378290161,-0.015991573620331472
1690839626425566500,11.96556640625,0.17289105357527731,0.002295828452752903,-0.018766383512353057
1690839626435607600,11.975607666015625,0.16944997321069238,0.00020890264348126948,-0.023559266644960733
1690839626445647400,11.9856474609375,0.179475108140707,0.013331428200099617,-0.011004688585852272
1690839626455687200,11.995687255859375,0.18336451679468155,0.0008329162933398038,-0.011235134057572576
1690839626465728300,12.005728271484376,0.1839624826878309,-0.0006049984221346676,-0.016694671255233696
1690839626475768300,12.015768310546875,0.1793231324493885,0.0005195851610042154,-0.010503814975183922
1690839626485808400,12.025808349609376,0.1748345888584852,0.00460228789737448,-0.015952417503588365
1690839626495848400,12.035848388671875,0.17603227421045303,0.00924975751019083,-0.019498698108585084
1690839626505889500,12.0458896484375,0.18082009300887583,0.0007341229608282447,-0.02233647653448861
1690839626515929300,12.055929443359375,0.17737842812240123,-0.00016002200045622884,-0.02071536900552455
1690839626525969200,12.06596923828125,0.18156886554956436,0.0037861492088995872,-0.015921248330478557
1690839626536010200,12.07601025390625,0.18411328933537005,0.004244816229213029,-0.015127435638243331
1690839626546050300,12.08605029296875,0.18665829764306544,0.004355089936964213,-0.011043143732985481
1690839626556090400,12.09609033203125,0.17902736437320707,0.004700962498877197,-0.004853650576248765
1690839626566130400,12.10613037109375,0.1757365061342716,0.0011749985961243509,-0.007909416851098649
1690839626576201500,12.116201416015626,0.18606150079369543,0.0008878978835884481,-0.008923642244806977
1690839626586242600,12.12624267578125,0.1853138972967863,-0.0076232979526743285,-0.012649021726776845
1690839626596282400,12.136282470703126,0.1754372309267521,0.006236145310057326,-0.012590135712968185
1690839626606322200,12.146322265625,0.17453998982608318,0.0034314448865596205,-0.009264532670925836
1690839626616362200,12.1563623046875,0.18950433472394942,-0.0035702049032784997,-0.015037357618438545
1690839626626403300,12.1664033203125,0.18905483739078044,0.0008799611723050475,-0.01744351686115842
1690839626636443400,12.176443359375,0.17319149782657622,0.012082524117548017,-0.011749976828088983
1690839626646483500,12.1864833984375,0.17708149100244044,0.016615080380113795,-0.014247908290778285
