time,seconds_elapsed,z,y,x
1690839614575743500,0.115743408203125,-0.003156378399580717,-0.0002942793071269989,-0.06625012308359146
1690839614585784300,0.125784423828125,-0.001797101111151278,0.004049070179462433,-0.014179734513163567
1690839614595824400,0.135824462890625,-0.00025513084256090224,0.005218996666371822,0.036015257239341736
1690839614605864400,0.145864501953125,-0.004038417246192694,0.007300789933651686,0.07822396606206894
1690839614615905500,0.155905517578125,-0.00444028852507472,-0.0017741979099810123,0.09789114445447922
1690839614625945600,0.165945556640625,-0.00692102313041687,-0.007981494069099426,0.09893962740898132
1690839614635985400,0.1759853515625,-0.004256530199199915,-0.013570137321949005,0.07691501826047897
1690839614646025500,0.186025390625,-0.003326288191601634,-0.01167449913918972,0.04153759032487869
1690839614656066300,0.19606640625,-0.0027928571216762066,-0.0079133166000247,-0.0017395768081769347
1690839614666106400,0.2061064453125,-0.0021521004382520914,0.0012684636749327183,-0.046602122485637665
1690839614676146400,0.216146484375,-0.0046762446872889996,0.004849083721637726,-0.08207143098115921
1690839614686187500,0.2261875,-0.0073074474930763245,0.0024346618447452784,-0.10491789132356644
1690839614696246800,0.236246826171875,-0.008539692498743534,0.0015012238873168826,-0.10992357134819031
1690839614706286800,0.246286865234375,-0.008498147130012512,-0.0033803503029048443,-0.10012553632259369
1690839614716327000,0.256326904296875,-0.0076360818929970264,-0.002865294925868511,-0.0792040079832077
1690839614726368000,0.266367919921875,-0.003896470880135894,-0.006090116687119007,-0.049663692712783813
1690839614736438000,0.27643798828125,-0.0035598473623394966,-0.0020724718924611807,-0.014795457944273949
1690839614746479000,0.28647900390625,-0.0044072652235627174,-0.0018959043081849813,0.014596253633499146
1690839614756519000,0.296518798828125,-0.004285824950784445,0.0007683219737373292,0.037575606256723404
1690839614766559000,0.30655908203125,-0.005031510256230831,-0.0017156084068119526,0.04831666499376297
1690839614776599800,0.316599853515625,-0.0041401502676308155,-0.0030029804911464453,0.04434802383184433
1690839614786640000,0.326639892578125,-0.004965996369719505,-0.004366785287857056,0.032817866653203964
1690839614796680000,0.336679931640625,-0.0038573225028812885,-0.004333495628088713,0.01119273342192173
1690839614806720000,0.346719970703125,-0.0027838023379445076,-0.0017012272728607059,-0.0150388702750206
1690839614816761000,0.356760986328125,-0.005273325368762016,-0.00129695946816355,-0.039445675909519196
1690839614826801200,0.36680126953125,-0.005091165192425251,-0.0030770162120461464,-0.059115517884492874
1690839614836841000,0.376841064453125,-0.005516471806913614,0.00043995422311127186,-0.07141479104757309
1690839614846881800,0.3868818359375,-0.0067423246800899506,-0.0031704932916909456,-0.07275675982236862
1690839614856921900,0.396921875,-0.0073013221845030785,-0.002712962217628956,-0.0654517114162445
1690839614866962000,0.4069619140625,-0.0044352286495268345,-0.004203266929835081,-0.050090331584215164
1690839614877002000,0.417001953125,-0.005302620120346546,-0.0011944277212023735,-0.030061762779951096
1690839614887073000,0.427072998046875,-0.004552674014121294,-0.0008050735923461616,-0.008754076436161995
1690839614897114000,0.437114013671875,-0.004747883416712284,-0.0011685950448736548,0.009521067142486572
1690839614907154000,0.44715380859375,-0.004009388852864504,-0.0008791094878688455,0.01890658028423786
1690839614917194000,0.457194091796875,-0.003940945956856012,-0.0020184097811579704,0.02123790979385376
1690839614927234000,0.467234130859375,-0.0036996633280068636,-0.0015313175972551107,0.01452887523919344
1690839614937275000,0.47727490234375,-0.004313255660235882,-0.0018021611031144857,0.005681055132299662
1690839614947315000,0.48731494140625,-0.0057348511181771755,-0.0013627394801005721,-0.011828163638710976
1690839614957355000,0.49735498046875,-0.004539357963949442,-0.0036341496743261814,-0.029770145192742348
1690839614967396000,0.50739599609375,-0.005645635072141886,-0.004598480183631182,-0.04316052049398422
1690839614977436000,0.517435791015625,-0.004319647327065468,-0.00035473305615596473,-0.05242032930254936
1690839614987476000,0.52747607421875,-0.004848817363381386,-0.0011888351291418076,-0.05247971788048744
1690839614997516000,0.53751611328125,-0.005420598201453686,-0.0011824434623122215,-0.04869190603494644
1690839615007556900,0.547556884765625,-0.006670153234153986,-0.002442118711769581,-0.03780490159988403
1690839615017597000,0.557596923828125,-0.0029614351224154234,-0.0039020637050271034,-0.025312013924121857
1690839615027637000,0.567636962890625,-0.005688512232154608,-0.0013787185307592154,-0.012832707725465298
1690839615037678000,0.577677978515625,-0.003852795111015439,-0.0009957558941096067,-0.0023989754263311625
1690839615047747800,0.587747802734375,-0.005590774118900299,-0.000966727442573756,0.005210208240896463
1690839615057789000,0.597788818359375,-0.006705040577799082,0.00044048685231246054,0.003919374197721481
1690839615067829000,0.6078291015625,-0.0038687740452587605,-0.0013973605819046497,0.0001430117554264143
1690839615077869000,0.617869140625,-0.004309527110308409,-0.004606469534337521,-0.005252552684396505
1690839615087908900,0.627908935546875,-0.00461685610935092,-0.0012897689593955874,-0.017362212762236595
1690839615097950000,0.637949951171875,-0.003221359569579363,-0.0011885687708854675,-0.028292357921600342
1690839615107990000,0.647989990234375,-0.00467651104554534,-0.0022679478861391544,-0.035959865897893906
1690839615118029800,0.65802978515625,-0.004581968765705824,-0.001303084660321474,-0.03817135468125343
1690839615128071000,0.66807080078125,-0.005476790945976973,0.0005334311863407493,-0.04000174626708031
1690839615138111000,0.678111083984375,-0.005043760873377323,-0.0008506136364303529,-0.03482802212238312
1690839615148151000,0.688151123046875,-0.0054725296795368195,-0.0012905678013339639,-0.02702682465314865
1690839615158190800,0.69819091796875,-0.005398227367550135,-0.0010450243717059493,-0.019398465752601624
1690839615168232000,0.70823193359375,-0.003156911116093397,-0.0003097256412729621,-0.013468137942254543
1690839615178272000,0.71827197265625,-0.0039880839176476,-0.0007451524725183845,-0.008686965331435204
1690839615188312000,0.72831201171875,-0.005432316102087498,-0.002981142606586218,-0.0038578552193939686
1690839615198382800,0.7383828125,-0.004356931429356337,-0.0033928672783076763,-0.008451808243989944
1690839615208423000,0.7484228515625,-0.004249872639775276,-0.003799265483394265,-0.01131124421954155
1690839615218464000,0.758464111328125,-0.004341751337051392,-0.001990712946280837,-0.01477654930204153
1690839615228504000,0.768504150390625,-0.0051992894150316715,-0.0029265477787703276,-0.021766548976302147
1690839615238544000,0.7785439453125,-0.006293582264333963,-0.002912432886660099,-0.027060113847255707
1690839615248584000,0.788583984375,-0.004780906718224287,-0.0010221211705356836,-0.03073767200112343
1690839615258625000,0.798625,-0.004621649626642466,-0.0013819142477586865,-0.03123754821717739
1690839615268664800,0.808664794921875,-0.004726844374090433,-0.0023965786676853895,-0.030960312113165855
1690839615278705000,0.818704833984375,-0.005571865476667881,-0.0020471718162298203,-0.026990339159965515
1690839615288746000,0.82874609375,-0.006628075148910284,-0.0006745787104591727,-0.022071480751037598
1690839615298786000,0.8387861328125,-0.005440305452793837,-0.0010434264549985528,-0.017948640510439873
1690839615308825900,0.848825927734375,-0.004808603785932064,-0.0018184063956141472,-0.01575952209532261
1690839615318866000,0.858865966796875,-0.005339637864381075,-0.001722532557323575,-0.011788216419517994
1690839615328907000,0.868906982421875,-0.005539907608181238,-0.002573412610217929,-0.011663313955068588
1690839615338947000,0.878947021484375,-0.005044825840741396,-0.003376621985808015,-0.013050021603703499
1690839615349017900,0.889017822265625,-0.004870122764259577,-0.0012428972404450178,-0.016562199220061302
1690839615359058000,0.899057861328125,-0.004979312419891357,-0.0015960324089974165,-0.019333217293024063
1690839615369098000,0.909097900390625,-0.004232828039675951,-0.000040480048483004794,-0.02136414498090744
1690839615379139000,0.91913916015625,-0.00606295233592391,-0.002897785510867834,-0.025188710540533066
1690839615389179000,0.929178955078125,-0.006548446603119373,-0.0023121563717722893,-0.027400998398661613
1690839615399219000,0.939218994140625,-0.004765193909406662,-0.001109739183448255,-0.025608157739043236
1690839615409260000,0.949260009765625,-0.004760134033858776,-0.002814428647980094,-0.02610936388373375
1690839615419299800,0.9592998046875,-0.004781705792993307,-0.0009739180095493793,-0.02281237207353115
1690839615429340000,0.96933984375,-0.005115399602800608,-0.00018961707246489823,-0.020859209820628166
1690839615439380000,0.9793798828125,-0.003914047963917255,-0.002523345174267888,-0.01912868767976761
1690839615449421000,0.989421142578125,-0.005927663762122393,-0.003745203372091055,-0.016211461275815964
1690839615459460900,0.9994609375,-0.004823517519980669,-0.0031076427549123764,-0.01458826381713152
1690839615469501000,1.0095009765625,-0.005304484162479639,-0.0013401026371866465,-0.015458318404853344
1690839615479542000,1.0195419921875,-0.004219778813421726,-0.0007864314829930663,-0.017125191166996956
1690839615489582000,1.02958203125,-0.0028511802665889263,-0.002662362065166235,-0.020067717880010605
1690839615499622000,1.039621826171875,-0.004065847955644131,-0.002025866648182273,-0.02184724248945713
1690839615509693000,1.04969287109375,-0.0049556102603673935,-0.0015374429058283567,-0.021753765642642975
1690839615519733000,1.05973291015625,-0.004180363845080137,-0.001062334980815649,-0.02220969833433628
1690839615529773000,1.06977294921875,-0.005568669643253088,-0.002834934974089265,-0.022778814658522606
1690839615539814000,1.07981396484375,-0.006759369280189276,-0.002569684060290456,-0.024034496396780014
1690839615549854000,1.08985400390625,-0.00509942090138793,-0.0020817930344492197,-0.0222091656178236
1690839615559893800,1.099893798828125,-0.005637645721435547,-0.0033361418172717094,-0.020292755216360092
1690839615569934800,1.109934814453125,-0.005746036302298307,-0.0019238675013184547,-0.018798189237713814
1690839615579975000,1.119974853515625,-0.005169461946934462,-0.0034788872580975294,-0.017607223242521286
1690839615590015000,1.130014892578125,-0.005181978922337294,-0.001574194524437189,-0.015385880134999752
1690839615600055000,1.140054931640625,-0.0056980992667376995,-0.0025979136116802692,-0.017969679087400436
1690839615610095900,1.150095947265625,-0.004064782522618771,-0.003094326937571168,-0.01913055032491684
1690839615620136000,1.160135986328125,-0.005602225661277771,-0.0014780544443055987,-0.02021339163184166
1690839615630175700,1.17017578125,-0.0036458675749599934,-0.0036101811565458775,-0.02159610576927662
1690839615640216800,1.180216796875,-0.0046424223110079765,-0.0014439659425988793,-0.02178465761244297
1690839615650257000,1.1902568359375,-0.004209392238408327,0.0002825613773893565,-0.023755928501486778
1690839615660328000,1.200327880859375,-0.003870105603709817,-0.0017837852938100696,-0.021568674594163895
1690839615670368000,1.210367919921875,-0.005287706386297941,-0.002162220422178507,-0.020798755809664726
1690839615680408000,1.220407958984375,-0.005239769350737333,-0.003826429834589362,-0.019035210832953453
1690839615690448100,1.2304482421875,-0.0052325790748000145,-0.003719637170433998,-0.016895093023777008
1690839615700452900,1.240452880859375,-0.006044044159352779,-0.0018852517241612077,-0.0181752759963274
1690839615710492700,1.25049267578125,-0.005203017964959145,-0.0016943031223490834,-0.020769460126757622
1690839615720532700,1.26053271484375,-0.00472631212323904,-0.0016724651213735342,-0.02142805978655815
1690839615730573600,1.270573486328125,-0.00484269205480814,-0.0006093312404118478,-0.02430027909576893
1690839615740613600,1.280613525390625,-0.004493285436183214,-0.003370230318978429,-0.024166056886315346
1690839615750653700,1.29065380859375,-0.006133526097983122,-0.0019976370967924595,-0.02418949268758297
1690839615760693800,1.30069384765625,-0.0054757255129516125,-0.0023124227300286293,-0.0229167677462101
1690839615770734800,1.31073486328125,-0.004085022956132889,-0.004892759490758181,-0.019093267619609833
1690839615780774700,1.320774658203125,-0.005060272291302681,-0.0030514500103890896,-0.01726207695901394
1690839615790814700,1.330814697265625,-0.005079713650047779,-0.0017395768081769347,-0.01563728228211403
1690839615800855600,1.34085546875,-0.00509835546836257,-0.00133877107873559,-0.01630467176437378
1690839615810895600,1.3508955078125,-0.003947337158024311,-0.0016373114194720984,-0.018159296363592148
1690839615820966700,1.360966552734375,-0.005595833994448185,0.0013651363551616669,-0.02040673792362213
1690839615831006700,1.3710068359375,-0.004798483569175005,0.0003664509567897767,-0.021104220300912857
1690839615841046800,1.381046875,-0.004762797150760889,-0.0002378202771069482,-0.022719694301486015
1690839615851088000,1.391087890625,-0.005209143273532391,-0.0018852517241612077,-0.0250393059104681
1690839615861127700,1.401127685546875,-0.004251203965395689,-0.002630936913192272,-0.023966319859027863
1690839615871167700,1.411167724609375,-0.0057465690188109875,-0.0017584852175787091,-0.02149330824613571
1690839615881207800,1.421207763671875,-0.00418409239500761,-0.00145195540972054,-0.0183478482067585
1690839615891248600,1.43124853515625,-0.005709018558263779,-0.0009800433181226254,-0.018583005294203758
1690839615901288700,1.441288818359375,-0.0046999468468129635,-0.000322775129461661,-0.017101755365729332
1690839615911328800,1.451328857421875,-0.004689293913543224,-0.0034618431236594915,-0.017370734363794327
1690839615921369900,1.461369873046875,-0.006277070846408606,-0.002243180526420474,-0.019153721630573273
1690839615931409700,1.47140966796875,-0.0022213426418602467,-0.0029403960797935724,-0.020369719713926315
1690839615941449700,1.48144970703125,-0.005747634451836348,-0.003486876841634512,-0.022468557581305504
1690839615951489800,1.49148974609375,-0.005797967780381441,-0.003631486324593425,-0.02443024143576622
1690839615961530600,1.501530517578125,-0.004767857491970062,-0.0005691175465472043,-0.02316630631685257
1690839615971601000,1.511600830078125,-0.0040914141573011875,-0.002558765234425664,-0.01992150954902172
1690839615981641700,1.521641845703125,-0.004637895151972771,-0.0034045851789414883,-0.0208301804959774
1690839615991681800,1.531681884765625,-0.003859186777845025,-0.0013909690314903855,-0.01900564879179001
1690839616001721600,1.5417216796875,-0.004704740364104509,-0.002195776207372546,-0.018619224429130554
1690839616011762700,1.5517626953125,-0.0067572384141385555,0.00021997711155563593,-0.018560901284217834
1690839616021802800,1.561802734375,-0.004759867675602436,-0.0032527849543839693,-0.018503909930586815
1690839616031842800,1.5718427734375,-0.004426972474902868,-0.0026085663121193647,-0.01666233316063881
1690839616041883000,1.5818828125,-0.005034439731389284,-0.0024983114562928677,-0.02009301818907261
1690839616051923700,1.591923828125,-0.005389172583818436,-0.003070891136303544,-0.021351894363760948
1690839616061963800,1.6019638671875,-0.005694104824215174,-0.002930009737610817,-0.018931346014142036
1690839616072003600,1.612003662109375,-0.006373477168381214,-0.0032418658956885338,-0.021581990644335747
1690839616082044700,1.622044677734375,-0.004785966593772173,-0.002326271263882518,-0.023068834096193314
1690839616092084700,1.632084716796875,-0.004278901033103466,-0.002323075430467725,-0.021916484460234642
1690839616102124800,1.642124755859375,-0.0057345847599208355,-0.0030892668291926384,-0.023390809074044228
1690839616112164600,1.65216455078125,-0.006262423470616341,-0.001383512164466083,-0.022895729169249535
1690839616122235600,1.662235595703125,-0.005349758081138134,-0.0003203782835043967,-0.01998063176870346
1690839616132276700,1.67227685546875,-0.00558225205168128,-0.0012543488992378116,-0.018424812704324722
1690839616142316500,1.682316650390625,-0.005275988485664129,-0.0008492820779792964,-0.01793612353503704
1690839616152356600,1.692356689453125,-0.006228601094335318,-0.004562527406960726,-0.015842612832784653
1690839616162396700,1.702396728515625,-0.0038924762047827244,-0.0019329222850501537,-0.01871616393327713
1690839616172437800,1.712437744140625,-0.005425924435257912,-0.002922020386904478,-0.017433052882552147
1690839616182477800,1.722477783203125,-0.003519101068377495,-0.00012996226723771542,-0.020168917253613472
1690839616192517600,1.732517578125,-0.005760417319834232,-0.001285241567529738,-0.02160702459514141
1690839616202557700,1.7425576171875,-0.004575044382363558,-0.002712962217628956,-0.023082682862877846
1690839616212598800,1.752598876953125,-0.004327903036028147,-0.000007190534688561456,-0.024355141445994377
1690839616222638600,1.762638671875,-0.005712480284273624,-0.0024285365361720324,-0.025248898193240166
1690839616232678700,1.7726787109375,-0.0037321539130061865,-0.0024077638518065214,-0.023251526057720184
1690839616242719700,1.7827197265625,-0.0054765245877206326,-0.0013036173768341541,-0.02184084989130497
1690839616252759800,1.792759765625,-0.0044112601317465305,-0.0015757924411445856,-0.019517509266734123
1690839616262799600,1.802799560546875,-0.0057036918587982655,-0.0035457327030599117,-0.01673583686351776
1690839616272839700,1.812839599609375,-0.004600078333169222,-0.002642388455569744,-0.015633022412657738
1690839616282910500,1.822910400390625,-0.004199538845568895,-0.003568103304132819,-0.014873754233121872
1690839616292951600,1.83295166015625,-0.00526799913495779,-0.004129497334361076,-0.017243169248104095
1690839616302991600,1.84299169921875,-0.0054514906369149685,-0.0007917577750049531,-0.018078869208693504
1690839616313031700,1.85303173828125,-0.0035814191214740276,-0.0018783274572342634,-0.021816348657011986
1690839616323071700,1.86307177734375,-0.005280515644699335,-0.0036125779151916504,-0.026138925924897194
1690839616333112800,1.87311279296875,-0.005111671518534422,-0.00290391081944108,-0.024157799780368805
1690839616343152600,1.883152587890625,-0.003992344718426466,-0.0006966829532757401,-0.02347336709499359
1690839616353192700,1.893192626953125,-0.004848018288612366,-0.002752376953139901,-0.023317839950323105
1690839616363233800,1.90323388671875,-0.004316185135394335,-0.0032325449865311384,-0.021138574928045273
1690839616373273600,1.913273681640625,-0.004554271697998047,-0.0014868428697809577,-0.019475430250167847
1690839616383313700,1.923313720703125,-0.0054363105446100235,-0.0011776498286053538,-0.016744891181588173
1690839616393353700,1.933353759765625,-0.0054336474277079105,-0.002965163439512253,-0.01739976368844509
1690839616403394800,1.943394775390625,-0.00564084155485034,-0.004110589157789946,-0.019770242273807526
1690839616413434600,1.9534345703125,-0.002341983839869499,-0.0010450243717059493,-0.01842188462615013
1690839616423474700,1.963474609375,-0.005073588341474533,-0.003762780223041773,-0.01985146850347519
1690839616433545500,1.97354541015625,-0.004229099955409765,-0.0008322378271259367,-0.021555891260504723
1690839616443585500,1.98358544921875,-0.005735383834689856,0.0008266451768577099,-0.0231106448918581
1690839616453626600,1.993626708984375,-0.005640575196594,0.0003398193512111902,-0.02297802083194256
1690839616463666700,2.003666748046875,-0.003719104453921318,-0.0024080302100628614,-0.02226695604622364
1690839616473706800,2.013706787109375,-0.004698348697274923,-0.0017310547409579158,-0.02009035460650921
1690839616483746800,2.023746826171875,-0.0051894355565309525,-0.002116147894412279,-0.017043964937329292
1690839616493787600,2.03378759765625,-0.005323392804712057,-0.0014583469601348042,-0.017958227545022964
1690839616503827700,2.04382763671875,-0.003929493948817253,-0.008930377662181854,-0.018977951258420944
1690839616513867500,2.053867431640625,-0.005650694947689772,-0.0011193265672773123,-0.018191786482930183
1690839616523908600,2.06390869140625,-0.00469515286386013,-0.0012242551892995834,-0.020785706117749214
1690839616533948700,2.07394873046875,-0.0049191247671842575,-0.0023699470330029726,-0.021830463781952858
1690839616543988700,2.08398876953125,-0.004058657679706812,-0.004542287439107895,-0.022117286920547485
1690839616554028800,2.09402880859375,-0.004280765075236559,-0.00047936898772604764,-0.022054169327020645
1690839616564069600,2.104069580078125,-0.004257329273968935,-0.0025875272694975138,-0.021620340645313263
1690839616574109700,2.114109619140625,-0.004478371702134609,-0.0022927154786884785,-0.022893864661455154
1690839616584149500,2.1241494140625,-0.005315402988344431,-0.0002567287301644683,-0.02123737707734108
1690839616594220500,2.134220458984375,-0.006315686274319887,-0.0023640880826860666,-0.017768876627087593
1690839616604260600,2.144260498046875,-0.005327653605490923,-0.0008250473183579743,-0.018034128472208977
1690839616614301700,2.1543017578125,-0.005783853121101856,-0.0029166939202696085,-0.019105784595012665
1690839616624341800,2.164341796875,-0.005343100056052208,-0.0025326660834252834,-0.01992950029671192
1690839616634381800,2.1743818359375,-0.003840810852125287,-0.0008721852791495621,-0.019273828715085983
1690839616644422700,2.184422607421875,-0.006006759591400623,-0.003353186184540391,-0.02027065120637417
1690839616654462700,2.194462646484375,-0.00612260727211833,-0.0029590383637696505,-0.020962540060281754
1690839616664502500,2.20450244140625,-0.0046610645949840546,-0.0009486179915256798,-0.020917266607284546
1690839616674542600,2.21454248046875,-0.004060788080096245,-0.0011582087026908994,-0.021754298359155655
1690839616684583700,2.224583740234375,-0.004044010303914547,-0.0016759273130446672,-0.02250424399971962
1690839616694626800,2.234626708984375,-0.003982757218182087,0.0000327568814100232,-0.019212577491998672
1690839616704667000,2.2446669921875,-0.004689027555286884,-0.002633600030094385,-0.019893014803528786
1690839616714707000,2.25470703125,-0.004063717555254698,-0.0019747340120375156,-0.020653879269957542
1690839616724747800,2.264747802734375,-0.0036887445021420717,-0.002861832967028022,-0.01955798827111721
1690839616734787800,2.274787841796875,-0.0036642432678490877,-0.002549976808950305,-0.02076839469373226
1690839616744859000,2.28485888671875,-0.00446878420189023,-0.0018761969404295087,-0.016696687787771225
1690839616754898700,2.294898681640625,-0.005185973364859819,-0.0030269487760961056,-0.019697804003953934
1690839616764938800,2.304938720703125,-0.004087153356522322,-0.00247567449696362,-0.02100301906466484
1690839616774979800,2.314979736328125,-0.003933222498744726,-0.001139566651545465,-0.022711703553795815
1690839616785020000,2.32502001953125,-0.005363872740417719,-0.0006522081675939262,-0.021935392171144485
1690839616795060000,2.33506005859375,-0.004278101958334446,-0.0025070998817682266,-0.02101154252886772
1690839616805100800,2.345100830078125,-0.004969458561390638,-0.0018879148410633206,-0.018873821943998337
1690839616815140900,2.355140869140625,-0.0049026133492589,-0.002335326047614217,-0.01950259506702423
1690839616825180700,2.3651806640625,-0.006130862981081009,-0.0015776565996930003,-0.019184347242116928
1690839616835220700,2.375220703125,-0.005618470720946789,-0.0035228293854743242,-0.020841898396611214
1690839616845261800,2.38526171875,-0.004055994097143412,-0.0013512879377231002,-0.018873555585741997
1690839616855302000,2.395302001953125,-0.004327903036028147,-0.0010314423125237226,-0.01900911144912243
1690839616865342000,2.405342041015625,-0.0037092508282512426,-0.0013901700731366873,-0.020555075258016586
1690839616875382800,2.4153828125,-0.005662412848323584,-0.0033811493776738644,-0.02262834645807743
1690839616885422800,2.4254228515625,-0.004049602895975113,-0.0034376082476228476,-0.020428575575351715
1690839616895493600,2.43549365234375,-0.004473311826586723,-0.002977147698402405,-0.019841615110635757
1690839616905533700,2.44553369140625,-0.004603273700922728,-0.0015931029338389635,-0.02141367830336094
1690839616915573800,2.45557373046875,-0.004706870764493942,-0.0016966998809948564,-0.018704179674386978
1690839616925613800,2.46561376953125,-0.005273325368762016,-0.003052248852327466,-0.018518291413784027
1690839616935655000,2.475655029296875,-0.002825613832101226,-0.0023150858469307423,-0.02075827494263649
1690839616945695000,2.485695068359375,-0.004084490239620209,-0.0027081684675067663,-0.020192619413137436
1690839616955735000,2.495735107421875,-0.0027483822777867317,-0.002630404196679592,-0.01997450739145279
1690839616965776000,2.50577587890625,-0.0041132522746920586,-0.004199805203825235,-0.021696772426366806
1690839616975815700,2.515815673828125,-0.004316451493650675,-0.004263720940798521,-0.021195566281676292
1690839616985855700,2.525855712890625,-0.0027539748698472977,-0.003290335414931178,-0.02100728079676628
1690839616995895800,2.535895751953125,-0.005745503585785627,-0.0020967067684978247,-0.021137775853276253
1690839617005937000,2.54593701171875,-0.003849599277600646,-0.0016295883106067777,-0.019906597211956978
1690839617015977000,2.55597705078125,-0.004641090985387564,-0.0028724854346364737,-0.021468540653586388
1690839617026017000,2.56601708984375,-0.005594502668827772,-0.0035926043055951595,-0.019727099686861038
1690839617036057900,2.576057861328125,-0.006277603097259998,-0.00041492050513625145,-0.019779296591877937
1690839617046097700,2.58609765625,-0.006691991351544857,-0.004838431254029274,-0.019043199717998505
1690839617056168700,2.596168701171875,-0.005681854207068682,-0.0017797905020415783,-0.02056732587516308
1690839617066208800,2.606208740234375,-0.0052112736739218235,0.00035979304811917245,-0.019393937662243843
1690839617076248800,2.616248779296875,-0.005053347907960415,-0.002040247665718198,-0.01882561855018139
1690839617086290000,2.6262900390625,-0.004824582487344742,-0.001586178783327341,-0.019773704931139946
1690839617096330000,2.636330078125,-0.005714344792068005,-0.0018005631864070892,-0.021030716598033905
1690839617106370000,2.6463701171875,-0.005092762876302004,-0.002311091171577573,-0.021444838494062424
1690839617116409900,2.656409912109375,-0.004514856729656458,-0.001924666459672153,-0.019652264192700386
1690839617126450700,2.66645068359375,-0.004159324802458286,-0.0016314524691551924,-0.02106400579214096
1690839617136490800,2.67649072265625,-0.005377721041440964,-0.0015305186389014125,-0.01961631141602993
1690839617146530800,2.68653076171875,-0.005942577496170998,-0.0008173241512849927,-0.021732725203037262
1690839617156572000,2.696572021484375,-0.005210208240896463,-0.0025896579027175903,-0.020720990374684334
1690839617166612000,2.706612060546875,-0.004769721534103155,-0.00014940333494450897,-0.020974524319171906
1690839617176652000,2.716652099609375,-0.0034639735240489244,-0.0006444850005209446,-0.02016439102590084
1690839617186691800,2.72669189453125,-0.004197674337774515,-0.001918807509355247,-0.02123870886862278
1690839617196732700,2.736732666015625,-0.005544435232877731,-0.005301821045577526,-0.018736137077212334
1690839617206803000,2.746802978515625,-0.005146292503923178,-0.0017781927017495036,-0.019153986126184464
1690839617216843800,2.75684375,-0.003942809998989105,-0.0028130970895290375,-0.019108712673187256
1690839617226883800,2.7668837890625,-0.0037859496660530567,-0.0008013451588340104,-0.02021179534494877
1690839617236924000,2.776923828125,-0.004781972151249647,-0.003436276689171791,-0.019821908324956894
1690839617246965000,2.786965087890625,-0.004870655480772257,-0.0008753810543566942,-0.02021019719541073
1690839617257005000,2.797005126953125,-0.005763080436736345,-0.003040530951693654,-0.019352925941348076
1690839617267044900,2.807044921875,-0.0043801008723676205,-0.0012868394842371345,-0.020016850903630257
1690839617277085000,2.8170849609375,-0.002698581200093031,-0.0021992383990436792,-0.022550582885742188
1690839617287125800,2.827125732421875,-0.004339354578405619,-0.001859685406088829,-0.0222720168530941
1690839617297165800,2.837165771484375,-0.0051806471310555935,-0.001499359728768468,-0.021494906395673752
1690839617307206000,2.847205810546875,-0.003019491909071803,-0.002740659052506089,-0.01901550218462944
1690839617317247000,2.8572470703125,-0.0046541402116417885,-0.0015089471125975251,-0.021344169974327087
1690839617327287000,2.867287109375,-0.005744704511016607,-0.0027830032631754875,-0.01956384815275669
1690839617337326800,2.877326904296875,-0.00564137427136302,-0.002766491612419486,-0.01792067661881447
1690839617347367000,2.887366943359375,-0.00566907087340951,-0.0013262542197480798,-0.019573701545596123
1690839617357438000,2.89743798828125,-0.003448793664574623,-0.0010665960144251585,-0.019638948142528534
1690839617367478000,2.90747802734375,-0.004175037611275911,-0.00202240445651114,-0.02039395458996296
1690839617377518800,2.917518798828125,-0.005258944351226091,-0.0018136126454919577,-0.020308466628193855
1690839617387559000,2.927558837890625,-0.003495665267109871,-0.003841077210381627,-0.0193135105073452
1690839617397599000,2.937598876953125,-0.005403819959610701,-0.003494866192340851,-0.01907835341989994
1690839617407640000,2.94764013671875,-0.0027838023379445076,-0.0033723609521985054,-0.022768428549170494
1690839617417680000,2.957679931640625,-0.0034562505315989256,-0.0021313277538865805,-0.0204584039747715
1690839617427720000,2.967719970703125,-0.005594502668827772,-0.0028788771014660597,-0.019722571596503258
1690839617437760000,2.977760009765625,-0.004195810295641422,-0.0010892328573390841,-0.019601929932832718
1690839617447800800,2.98780078125,-0.00458702864125371,-0.0036541232839226723,-0.02177959680557251
1690839617457841000,2.9978408203125,-0.00395852280780673,-0.00046072687837295234,-0.017781926319003105
1690839617467881000,3.007880859375,-0.004308728501200676,-0.0010090717114508152,-0.021148428320884705
1690839617477922000,3.017922119140625,-0.004852545913308859,-0.003091131104156375,-0.020919395610690117
1690839617487961900,3.0279619140625,-0.004328169394284487,-0.0035582494456321,-0.02136680670082569
1690839617498002000,3.038001953125,-0.005046690348535776,-0.0011922972043976188,-0.021315675228834152
1690839617508042000,3.0480419921875,-0.004448277875781059,-0.0015398397808894515,-0.020352676510810852
1690839617518113000,3.058113037109375,-0.005574794951826334,-0.00088976213010028,-0.019061574712395668
1690839617528153900,3.06815380859375,-0.005751362536102533,-0.003388606244698167,-0.017072459682822227
1690839617538194000,3.07819384765625,-0.005224056541919708,-0.00375985074788332,-0.01895158737897873
1690839617548233700,3.088233642578125,-0.005254683084785938,-0.002067678142338991,-0.019753998145461082
1690839617558273800,3.098273681640625,-0.004289287142455578,-0.0017707358347252011,-0.021465344354510307
1690839617568315000,3.10831494140625,-0.005757754202932119,-0.0009781790431588888,-0.021316207945346832
1690839617578355000,3.11835498046875,-0.003733485471457243,-0.0038514635525643826,-0.022538598626852036
1690839617588395000,3.12839501953125,-0.00592686515301466,-0.0020450414158403873,-0.022233134135603905
1690839617598435800,3.138435791015625,-0.004320180043578148,-0.002430933527648449,-0.02262701466679573
1690839617608476000,3.148475830078125,-0.005078914575278759,-0.0017696705181151628,-0.02027544379234314
1690839617618516000,3.158515869140625,-0.005511944647878408,-0.0027047062758356333,-0.020134296268224716
1690839617628555800,3.1685556640625,-0.005703159607946873,0.0003020024741999805,-0.019238941371440887
1690839617638596900,3.178596923828125,-0.004011785611510277,-0.002435460686683655,-0.01938142068684101
1690839617648637000,3.188636962890625,-0.0027864654548466206,-0.0025891251862049103,-0.019571304321289062
1690839617658676700,3.1986767578125,-0.002781938062980771,-0.0011853729374706745,-0.019224826246500015
1690839617668747800,3.208747802734375,-0.005458947736769915,-0.0016194682102650404,-0.018618958070874214
1690839617678787800,3.218787841796875,-0.004938832018524408,-0.0029949909076094627,-0.020603012293577194
1690839617688829000,3.228828857421875,-0.004202468320727348,-0.00447038235142827,-0.020870661363005638
1690839617698883600,3.238883544921875,-0.003795803524553776,-0.003546265186741948,-0.023539947345852852
1690839617708923400,3.24892333984375,-0.0038285604678094387,-0.00185089698061347,-0.02189517952501774
1690839617718963500,3.25896337890625,-0.005224855616688728,-0.003099386813119054,-0.020244285464286804
1690839617729004300,3.26900439453125,-0.0026881948579102755,-0.0021558289881795645,-0.021512215957045555
1690839617739044400,3.27904443359375,-0.005945240613073111,-0.003028546692803502,-0.019355587661266327
1690839617749084400,3.28908447265625,-0.005209675524383783,-0.0006468818173743784,-0.018692728132009506
1690839617759125500,3.29912548828125,-0.0041643851436674595,-0.0009100021561607718,-0.017074324190616608
1690839617769165600,3.30916552734375,-0.004198207054287195,-0.0026546388398855925,-0.01769244484603405
1690839617779205600,3.31920556640625,-0.002671150490641594,-0.0028477180749177933,-0.019519904628396034
1690839617789245400,3.329245361328125,-0.005139101762324572,-0.0015736619243398309,-0.018279938027262688
1690839617799286300,3.339286376953125,-0.005073854699730873,-0.00043542683124542236,-0.021878933534026146
1690839617809326300,3.349326416015625,-0.0046301716938614845,-0.00270683690905571,-0.02063523791730404
1690839617819397400,3.3593974609375,-0.003769438248127699,-0.0031033814884722233,-0.020171048119664192
1690839617829437400,3.3694375,-0.0038458709605038166,-0.00290417717769742,-0.019891150295734406
1690839617839477500,3.3794775390625,-0.004594485275447369,-0.0025273398496210575,-0.020626448094844818
1690839617849518600,3.3895185546875,-0.005169994663447142,-0.0013949638232588768,-0.021159879863262177
1690839617859558400,3.399558349609375,-0.0041002025827765465,-0.0007787083159200847,-0.020187826827168465
1690839617869598500,3.409598388671875,-0.004370247479528189,-0.002551840851083398,-0.019153455272316933
1690839617879638500,3.419638427734375,-0.005183043889701366,-0.0028399948496371508,-0.01896383799612522
1690839617889679400,3.429679443359375,-0.003795803524553776,-0.001972603378817439,-0.019597137346863747
1690839617899719400,3.439719482421875,-0.004689826630055904,-0.0011835087789222598,-0.019228288903832436
1690839617909759500,3.449759521484375,-0.005423794034868479,-0.001469798618927598,-0.02070288173854351
1690839617919800600,3.459800537109375,-0.002858903491869569,-0.003191798459738493,-0.02003442868590355
1690839617929840600,3.469840576171875,-0.006338589824736118,-0.0035571842454373837,-0.022843796759843826
1690839617939880400,3.47988037109375,-0.005263205152004957,0.00042557314736768603,-0.021151890978217125
1690839617949920500,3.48992041015625,-0.003937750123441219,-0.0010045443195849657,-0.021639514714479446
1690839617959961300,3.49996142578125,-0.005136705003678799,-0.0017986990278586745,-0.021529793739318848
1690839617970001400,3.51000146484375,-0.004160123877227306,-0.003870904678478837,-0.019723903387784958
1690839617980072400,3.520072509765625,-0.005775597412139177,-0.0018226674292236567,-0.019063705578446388
1690839617990112500,3.530112548828125,-0.004261590540409088,-0.0016911072889342904,-0.01938754692673683
1690839618000152300,3.54015234375,-0.004289287142455578,-0.0020580908749252558,-0.019932428374886513
1690839618010193400,3.550193359375,-0.00523577444255352,-0.0016532903537154198,-0.01937982253730297
1690839618020233500,3.5602333984375,-0.0049646650440990925,-0.0028386632911860943,-0.019460249692201614
1690839618030273500,3.5702734375,-0.004576109815388918,-0.004545749630779028,-0.021433919668197632
1690839618040314400,3.580314453125,-0.0026849990244954824,-0.0015571502735838294,-0.02141980454325676
1690839618050354400,3.5903544921875,-0.005261607468128204,-0.005021922755986452,-0.022427810356020927
1690839618060394500,3.60039453125,-0.003665042342618108,-0.001969407545402646,-0.021452561020851135
1690839618070434300,3.610434326171875,-0.006229932885617018,-0.0037942056078463793,-0.0194338858127594
1690839618080475400,3.620475341796875,-0.004888498689979315,-0.0035539884120225906,-0.01980353146791458
1690839618090515500,3.630515380859375,-0.005150287412106991,-0.003727360162883997,-0.02064642310142517
1690839618100555500,3.640555419921875,-0.0033153691329061985,-0.00011078749957960099,-0.01966691203415394
1690839618110596400,3.650596435546875,-0.00458729499951005,-0.002743588527664542,-0.01792627014219761
1690839618120636400,3.660636474609375,-0.006660832092165947,-0.002532399957999587,-0.01948714815080166
1690839618130707500,3.67070751953125,-0.00407596817240119,-0.0010466222884133458,-0.02056892402470112
1690839618140747500,3.68074755859375,-0.005064267199486494,-0.0008311725687235594,-0.020295949652791023
1690839618150787300,3.690787353515625,-0.004748149774968624,-0.0022309301421046257,-0.021991051733493805
1690839618160827400,3.700827392578125,-0.0059750680811703205,-0.0024557008873671293,-0.02046213112771511
1690839618170868500,3.710868408203125,-0.004001399502158165,-0.00047643951256759465,-0.021160412579774857
1690839618180908500,3.720908447265625,-0.004856806714087725,-0.0024261397775262594,-0.02149330824613571
1690839618190948600,3.730948486328125,-0.003941744565963745,-0.0021726067643612623,-0.020380105823278427
1690839618200989400,3.740989501953125,-0.004986502695828676,-0.0007033408619463444,-0.0206283126026392
1690839618211029500,3.751029541015625,-0.00433003343641758,-0.0013070794520899653,-0.020016584545373917
1690839618221069300,3.7610693359375,-0.003948136232793331,-0.00012383698776829988,-0.0206951592117548
1690839618231109400,3.771109375,-0.004483431577682495,-0.0007422229973599315,-0.01979660801589489
1690839618241150500,3.781150390625,-0.0049095372669398785,-0.002776079112663865,-0.021196365356445312
1690839618251190500,3.7911904296875,-0.0031707596499472857,-0.0007621967233717442,-0.020924989134073257
1690839618261230600,3.801230712890625,-0.005008607171475887,-0.0024144218768924475,-0.02394501306116581
1690839618271271400,3.811271484375,-0.004092745948582888,-0.0007669904152862728,-0.020953219383955002
1690839618281341400,3.821341552734375,-0.005501558072865009,-0.0009749832679517567,-0.020721789449453354
1690839618291382500,3.831382568359375,-0.004987834487110376,-0.0011757856700569391,-0.018853316083550453
1690839618301422300,3.84142236328125,-0.0055803875438869,-0.004397145472466946,-0.01926184445619583
1690839618311462400,3.85146240234375,-0.00498170917853713,-0.004537227563560009,-0.01950259506702423
1690839618321502500,3.86150244140625,-0.00440992834046483,-0.0031473238486796618,-0.01973428949713707
1690839618331543600,3.87154345703125,-0.003961718175560236,-0.0023928501177579165,-0.018311629071831703
1690839618341583600,3.88158349609375,-0.005568137392401695,-0.000847950461320579,-0.019886888563632965
1690839618351623400,3.89162353515625,-0.0051782503724098206,-0.00281948852352798,-0.02263021096587181
1690839618361664500,3.90166455078125,-0.005601692944765091,-0.0037952708080410957,-0.018822424113750458
1690839618371704300,3.911704345703125,-0.00336197461001575,-0.0033630398102104664,-0.02076386846601963
1690839618381744400,3.921744384765625,-0.004402471706271172,-0.003680754918605089,-0.022836606949567795
1690839618391784400,3.931784423828125,-0.004750546533614397,-0.0038754320703446865,-0.020871460437774658
1690839618401825500,3.941825439453125,-0.005468801129609346,-0.0024165522772818804,-0.019773971289396286
1690839618411865600,3.951865478515625,-0.004930576309561729,-0.0013097425689920783,-0.020803548395633698
1690839618421905400,3.961905517578125,-0.0035454663448035717,-0.0025044367648661137,-0.02052631415426731
1690839618431946500,3.971946533203125,-0.004685831721872091,-0.003070358419790864,-0.02053057588636875
1690839618442016300,3.982016357421875,-0.003940679598599672,-0.00022450447431765497,-0.02153804898262024
1690839618452057300,3.992057373046875,-0.004279699642211199,0.00038056570338085294,-0.01878540590405464
1690839618462097400,4.002097412109375,-0.0046908920630812645,0.00035180358099751174,-0.02003629319369793
1690839618472137500,4.012137451171875,-0.004375040996819735,-0.001508680754341185,-0.019712451845407486
1690839618482178600,4.022178466796875,-0.005306082312017679,-0.001654622028581798,-0.02118384838104248
1690839618492218400,4.03221826171875,-0.004797418136149645,-0.0004237089306116104,-0.019897541031241417
1690839618502258400,4.042258544921875,-0.003990747034549713,-0.0038839541375637054,-0.02112099714577198
1690839618512298200,4.05229833984375,-0.005119660869240761,-0.0002210423699580133,-0.01998462714254856
1690839618522339300,4.06233935546875,-0.0037111148703843355,-0.0030067088082432747,-0.018863702192902565
1690839618532379400,4.07237939453125,-0.004171042703092098,-0.0026905916165560484,-0.021679729223251343
1690839618542419500,4.08241943359375,-0.003921504598110914,-0.0029875340405851603,-0.020022710785269737
1690839618552460500,4.09246044921875,-0.004848551005125046,-0.0008940231637097895,-0.02040008082985878
1690839618562500400,4.102500244140625,-0.005346295889467001,-0.003090598387643695,-0.021456290036439896
1690839618572540400,4.11254052734375,-0.004601676017045975,0.000313986703986302,-0.021518608555197716
1690839618582580200,4.122580322265625,-0.0026117621455341578,-0.0020722055342048407,-0.021891184151172638
1690839618592651300,4.1326513671875,-0.0032083101104944944,-0.0016948357224464417,-0.0206283126026392
1690839618602691300,4.14269140625,-0.003796069882810116,-0.002718554809689522,-0.02022617496550083
1690839618612732400,4.152732421875,-0.005061337724328041,-0.0006921555614098907,-0.020264258608222008
1690839618622772500,4.1627724609375,-0.0036826191935688257,-0.0009147958480753005,-0.02075934037566185
1690839618632812500,4.1728125,-0.005628324579447508,0.00017496968212071806,-0.019934292882680893
1690839618642853400,4.182853271484375,-0.006451241206377745,-0.004207794554531574,-0.019583022221922874
1690839618652893400,4.1928935546875,-0.004626443609595299,-0.0024564997293055058,-0.020441358909010887
1690839618662933200,4.202933349609375,-0.0037713022902607918,-0.004965463653206825,-0.02154364064335823
1690839618672973300,4.212973388671875,-0.0038666436448693275,-0.0029909962322562933,-0.020201142877340317
1690839618683014400,4.223014404296875,-0.004988899454474449,-0.0015869776252657175,-0.02178012952208519
1690839618693054500,4.233054443359375,-0.0057321880012750626,-0.0021084246691316366,-0.01798672415316105
1690839618703065000,4.243065185546875,-0.006464290898293257,-0.0021555626299232244,-0.019646406173706055
1690839618713106200,4.253106201171875,-0.00564084155485034,-0.0014066817238926888,-0.019283948466181755
1690839618723146000,4.26314599609375,-0.004849350079894066,-0.0008916263468563557,-0.019275160506367683
1690839618733186000,4.27318603515625,-0.005418733693659306,-0.0015912387752905488,-0.01799178309738636
1690839618743257000,4.283257080078125,-0.004098072182387114,-0.0032519858796149492,-0.020242154598236084
1690839618753297200,4.293297119140625,-0.005630454979836941,-0.0019283948931843042,-0.02081659808754921
1690839618763338000,4.303337890625,-0.004495948553085327,-0.0014114753575995564,-0.01901550218462944
1690839618773378000,4.3133779296875,-0.005850432440638542,-0.0038128476589918137,-0.020729780197143555
1690839618783418000,4.323418212890625,-0.004476507660001516,-0.0017659420846030116,-0.01955239661037922
1690839618793458000,4.3334580078125,-0.005379052832722664,-0.003011502558365464,-0.02124696597456932
1690839618803499000,4.3434990234375,-0.005392368417233229,-0.0008016114588826895,-0.02262408658862114
1690839618813539000,4.3535390625,-0.005664010997861624,-0.003040797309949994,-0.01980592869222164
1690839618823579100,4.3635791015625,-0.004938565660268068,-0.0007211840129457414,-0.021520471200346947
1690839618833619200,4.373619140625,-0.005294364411383867,-0.00133903743699193,-0.01888580620288849
1690839618843660000,4.383659912109375,-0.004568652715533972,-0.0023086944129318,-0.020656809210777283
1690839618853700000,4.3937001953125,-0.003727360162883997,-0.0017054883064702153,-0.017773138359189034
1690839618863740000,4.403739990234375,-0.004246410448104143,-0.00008149272616719827,-0.020659206435084343
1690839618873781000,4.413781005859375,-0.005598763469606638,-0.0011688614031299949,-0.020914070308208466
1690839618883821000,4.423821044921875,-0.0038807583041489124,-0.0021646174136549234,-0.020292755216360092
1690839618893892000,4.43389208984375,-0.0041553303599357605,-0.0022485069930553436,-0.02268240973353386
1690839618903932200,4.44393212890625,-0.0028213527984917164,-0.004649879410862923,-0.020666928961873055
1690839618913972200,4.45397216796875,-0.005804625805467367,-0.0037822213489562273,-0.020655477419495583
1690839618924013000,4.464012939453125,-0.0030562435276806355,-0.005690642632544041,-0.02159317582845688
1690839618934053000,4.47405322265625,-0.00384400668554008,-0.0020301276817917824,-0.020116453990340233
1690839618944093000,4.484093017578125,-0.006131129339337349,-0.0028333370573818684,-0.01853586733341217
1690839618954133000,4.494133056640625,-0.005705822724848986,-0.002552639925852418,-0.018976088613271713
1690839618964174000,4.504174072265625,-0.002989398315548897,-0.00039947417099028826,-0.019714316353201866
1690839618974214100,4.514214111328125,-0.004479969386011362,-0.0006900250446051359,-0.019584354013204575
1690839618984254200,4.524254150390625,0.020206734538078308,0.07911692559719086,-0.06937188655138016
1690839618994295000,4.534294921875,0.03229828551411629,-0.0750417560338974,-0.03353319317102432
1690839619004335000,4.544335205078125,-0.0036546560004353523,-0.010803645476698875,-0.028272118419408798
1690839619014375000,4.554375,-0.024594025686383247,-0.03893834352493286,-0.008711466565728188
1690839619024415000,4.5644150390625,-0.02731737494468689,-0.15090934932231903,-0.011001251637935638
1690839619034456000,4.5744560546875,-0.014767494052648544,-0.051006194204092026,-0.006549512036144733
1690839619044496100,4.58449609375,0.0004548678989522159,0.008173241280019283,-0.018932145088911057
1690839619054567200,4.594567138671875,0.008007059805095196,0.030766168609261513,-0.02810833416879177
1690839619064607200,4.604607177734375,0.007829426787793636,0.04963253438472748,-0.03388020396232605
1690839619074647300,4.614647216796875,0.0011488876771181822,0.04284520074725151,-0.032461803406476974
1690839619084688100,4.624688232421875,-0.007348460145294666,0.015681758522987366,-0.029944583773612976
1690839619094728000,4.63472802734375,-0.013921407982707024,-0.01817021518945694,-0.026684608310461044
1690839619104768000,4.64476806640625,-0.013409548439085484,-0.03855591267347336,-0.022669360041618347
1690839619114808000,4.65480810546875,-0.007378287613391876,-0.03648344427347183,-0.017251158133149147
1690839619124849200,4.66484912109375,-0.0010759170399978757,-0.01949487254023552,-0.012536564841866493
1690839619134889200,4.67488916015625,0.0008383630774915218,0.004210457671433687,-0.011022823862731457
1690839619144929300,4.68492919921875,-0.0005310343112796545,0.021934859454631805,-0.008887501433491707
1690839619154970000,4.69497021484375,-0.0048424256965518,0.02497539110481739,-0.009268865920603275
1690839619165010000,4.705010009765625,-0.007446730975061655,0.015743009746074677,-0.014271347783505917
1690839619175050000,4.715050048828125,-0.008739962242543697,-0.0012631373247131705,-0.01660321094095707
1690839619185090000,4.725090087890625,-0.007765245158225298,-0.01889086700975895,-0.021748971194028854
1690839619195131100,4.735131103515625,-0.002142246812582016,-0.02286323718726635,-0.02598446235060692
1690839619205202200,4.7452021484375,-0.0008492820779792964,-0.017193101346492767,-0.02780952677130699
1690839619215242200,4.7552421875,-0.00358860963024199,-0.004667988512665033,-0.03134700283408165
1690839619225282000,4.765281982421875,-0.004530569538474083,0.007635282818228006,-0.03014352172613144
1690839619235322000,4.775322021484375,-0.005284510552883148,0.014371216297149658,-0.025892850011587143
1690839619245363000,4.785363037109375,-0.005775064695626497,0.015005847439169884,-0.02062857896089554
1690839619255403000,4.795403076171875,-0.0046823699958622456,0.002672215923666954,-0.01889992132782936
1690839619265443000,4.805443115234375,-0.004066380672156811,-0.009948504157364368,-0.014727280475199223
1690839619275484200,4.815484130859375,-0.003352653468027711,-0.017525464296340942,-0.01363245490938425
1690839619285524200,4.825524169921875,-0.003319630166515708,-0.015358982607722282,-0.013920608907938004
1690839619295564300,4.835564208984375,-0.0049795787781476974,-0.009380718693137169,-0.014682539738714695
1690839619305604000,4.84560400390625,-0.006777478381991386,0.0031254857312887907,-0.01630041003227234
1690839619315645000,4.85564501953125,-0.004031226970255375,0.006081328261643648,-0.01938088797032833
1690839619325685000,4.86568505859375,-0.004564658273011446,0.009005479514598846,-0.022606775164604187
1690839619335725000,4.87572509765625,-0.004459463059902191,0.0038037928752601147,-0.025661688297986984
1690839619345765000,4.88576513671875,-0.0034906051587313414,-0.003564374754205346,-0.028741633519530296
1690839619355836200,4.895836181640625,-0.00427144393324852,-0.008327704854309559,-0.02750805765390396
1690839619365877200,4.905877197265625,-0.005932990461587906,-0.012134160846471786,-0.02449735254049301
1690839619375917000,4.9159169921875,-0.005365204066038132,-0.007196393795311451,-0.022733008489012718
1690839619385957000,4.92595703125,-0.004537227563560009,-0.003227218519896269,-0.02034655027091503
1690839619395997000,4.935996826171875,-0.004548146389424801,0.00515907583758235,-0.017792046070098877
1690839619406038000,4.9460380859375,-0.0023433153983205557,0.006597981322556734,-0.017362745478749275
1690839619416078000,4.956078125,-0.002186721656471491,0.004230431281030178,-0.01582956314086914
1690839619426118100,4.9661181640625,-0.003382480936124921,-0.0020546286832541227,-0.016812002286314964
1690839619436159200,4.9761591796875,-0.005289570428431034,-0.006845122668892145,-0.017314542084932327
1690839619446199300,4.98619921875,-0.004959871061146259,-0.009972739033401012,-0.02040327526628971
1690839619456239000,4.996239013671875,-0.005738845560699701,-0.007505054119974375,-0.021501297131180763
1690839619466279000,5.00627880859375,-0.006453638430684805,-0.004210191313177347,-0.023617444559931755
1690839619476320000,5.016320068359375,-0.005759884603321552,0.001100950757972896,-0.023960992693901062
1690839619486360000,5.026360107421875,-0.0038163098506629467,0.0026972496416419744,-0.022470155730843544
1690839619496400100,5.036400146484375,-0.0038341530598700047,0.0015483618481084704,-0.023915719240903854
1690839619506441200,5.046441162109375,-0.006116215605288744,-0.0006585997180081904,-0.02136813849210739
1690839619516511000,5.056510986328125,-0.005774798337370157,-0.002445314545184374,-0.020865334197878838
1690839619526552000,5.066552001953125,-0.0065567027777433395,-0.005976932588964701,-0.021401960402727127
1690839619536592100,5.076592041015625,-0.004462126176804304,-0.006352171767503023,-0.020238958299160004
1690839619546632000,5.0866318359375,-0.005568137392401695,-0.005119128152728081,-0.019483420997858047
1690839619556672000,5.096672119140625,-0.005142297595739365,-0.002147839404642582,-0.01932203210890293
1690839619566713000,5.106713134765625,-0.004769987892359495,0.0012482235906645656,-0.019219234585762024
1690839619576753200,5.116753173828125,-0.004595017991960049,0.0013195963110774755,-0.017911622300744057
1690839619586793200,5.126793212890625,-0.005562810692936182,-0.00010918960470007733,-0.01847940869629383
1690839619596834300,5.136834228515625,-0.007208378054201603,-0.003002181416377425,-0.021811023354530334
1690839619606874000,5.1468740234375,-0.005081044975668192,-0.0017678063595667481,-0.018866898491978645
1690839619616914000,5.156913818359375,-0.004705006722360849,-0.0060296631418168545,-0.020964937284588814
1690839619626954000,5.1669541015625,-0.005539108533412218,-0.002797118155285716,-0.02245151251554489
1690839619636995000,5.1769951171875,-0.0075671058148145676,-0.0029790119733661413,-0.022550849243998528
1690839619647035100,5.18703515625,-0.003787015099078417,-0.00005699164830730297,-0.021095963194966316
1690839619657075200,5.1970751953125,-0.00506852800026536,0.0007217166712507606,-0.022348981350660324
1690839619667146000,5.20714599609375,-0.005078115500509739,-0.001686846255324781,-0.020549217239022255
1690839619677186000,5.21718603515625,-0.006681604776531458,-0.002810966456308961,-0.02022324688732624
1690839619687227100,5.22722705078125,-0.005315669346600771,-0.004266384057700634,-0.019336147233843803
1690839619697265700,5.237265625,-0.005422994960099459,-0.003172357566654682,-0.018673818558454514
1690839619707305700,5.2473056640625,-0.006380667444318533,-0.0036221654154360294,-0.019145730882883072
1690839619717346600,5.2573466796875,-0.004236023873090744,-0.002092445734888315,-0.01962243765592575
1690839619727386400,5.267386474609375,-0.004858671221882105,-0.0008908273885026574,-0.018255436792969704
1690839619737426400,5.277426513671875,-0.0026844663079828024,0.0002721750643104315,-0.019951337948441505
1690839619747466500,5.287466552734375,-0.005230980925261974,-0.0007214503129944205,-0.021893315017223358
1690839619757507600,5.297507568359375,-0.004054662771522999,-0.003614974906668067,-0.022299446165561676
1690839619767547600,5.307547607421875,-0.0040916805155575275,-0.0035577169619500637,-0.0227950606495142
1690839619777587700,5.317587646484375,-0.0049398974515497684,-0.0046120621263980865,-0.021261079236865044
1690839619787628500,5.327628662109375,-0.005231780000030994,-0.0038834214210510254,-0.021797707304358482
1690839619797668400,5.33766845703125,-0.004193679895251989,-0.003011502558365464,-0.02015107497572899
1690839619807708400,5.34770849609375,-0.004326038993895054,0.0010996191995218396,-0.019715381786227226
1690839619817779500,5.357779541015625,-0.005116997752338648,-0.0019912454299628735,-0.017301758751273155
1690839619827819500,5.367819580078125,-0.004462126176804304,0.00014434332842938602,-0.01902216114103794
1690839619837859600,5.377859619140625,-0.005254949443042278,-0.003733219113200903,-0.01878300867974758
1690839619847900700,5.387900634765625,-0.00518757151439786,0.00020453077740967274,-0.021767346188426018
1690839619857940700,5.397940673828125,-0.003307912265881896,-0.0029606360476464033,-0.02117905393242836
1690839619867980500,5.40798046875,-0.005619269795715809,-0.002466087229549885,-0.022491194307804108
1690839619878021400,5.418021484375,-0.005056810099631548,-0.00264771468937397,-0.02153671719133854
1690839619888061400,5.4280615234375,-0.005592904519289732,-0.0012961605098098516,-0.023922642692923546
1690839619898101500,5.4381015625,-0.004460262134671211,-0.001374457380734384,-0.021408619359135628
1690839619908141600,5.4481416015625,-0.005364139098674059,-0.0020216056145727634,-0.0202738456428051
1690839619918182700,5.4581826171875,-0.005616340320557356,-0.0027624969370663166,-0.020252007991075516
1690839619928222700,5.46822265625,-0.005080245900899172,-0.003480751533061266,-0.018199244514107704
1690839619938262500,5.478262451171875,-0.0040852888487279415,-0.0029638318810611963,-0.016624515876173973
1690839619948303400,5.488303466796875,-0.005605687852948904,-0.0021457087714225054,-0.01938115432858467
1690839619958343400,5.498343505859375,-0.004760666750371456,-0.002487126039341092,-0.019362246617674828
1690839619968383500,5.508383544921875,-0.0055228634737432,-0.0010610034223645926,-0.021143900230526924
1690839619978454500,5.51845458984375,-0.0051963599398732185,-0.0007281082216650248,-0.021977737545967102
1690839619988494600,5.52849462890625,-0.005337773822247982,0.0008404936525039375,-0.02256815880537033
1690839619998534700,5.53853466796875,-0.005568403284996748,-0.0028003137558698654,-0.022057898342609406
1690839620008575700,5.54857568359375,-0.0043960800394415855,-0.002026133006438613,-0.019097793847322464
1690839620018615600,5.558615478515625,-0.004632036201655865,-0.004746818449348211,-0.017675932496786118
1690839620028655600,5.568655517578125,-0.006657103542238474,-0.004721784498542547,-0.017555024474859238
1690839620038696400,5.578696533203125,-0.004285026341676712,-0.0029577065724879503,-0.017290573567152023
1690839620048736500,5.588736572265625,-0.0038461373187601566,-0.0018634138396009803,-0.016100939363241196
1690839620058776600,5.598776611328125,-0.004856806714087725,-0.0009100021561607718,-0.019055183976888657
1690839620068816600,5.608816650390625,-0.004189951345324516,-0.000821318884845823,-0.023025691509246826
1690839620078857700,5.618857666015625,-0.004266384057700634,-0.002660498023033142,-0.02323208563029766
1690839620088897500,5.6288974609375,-0.005304217804223299,-0.001252484624274075,-0.024476580321788788
1690839620098937600,5.6389375,-0.0057319216430187225,-0.0008189220097847283,-0.02231915481388569
1690839620108978400,5.648978515625,-0.0057708038948476315,-0.004662395920604467,-0.021269602701067924
1690839620119018500,5.6590185546875,-0.004526308737695217,-0.003469033632427454,-0.017232250422239304
1690839620129089500,5.669089599609375,-0.004452805500477552,-0.0021347899455577135,-0.018077537417411804
1690839620139129600,5.679129638671875,-0.0034826158080250025,-0.0009456885163672268,-0.017594972625374794
1690839620149169700,5.689169677734375,-0.0037476003635674715,-0.004357197787612677,-0.017313476651906967
1690839620159210800,5.699210693359375,-0.006499444600194693,-0.0015880429418757558,-0.019725235179066658
1690839620169250600,5.70925048828125,-0.003768905531615019,-0.004007258452475071,-0.019155317917466164
1690839620179290600,5.71929052734375,-0.00532499048858881,-0.0033808830194175243,-0.02191009186208248
1690839620189330700,5.72933056640625,-0.0051750545389950275,0.000050866376113845035,-0.023507190868258476
1690839620199371500,5.73937158203125,-0.003975034225732088,0.0002569950302131474,-0.022185463458299637
1690839620209411600,5.74941162109375,-0.004248008131980896,0.00014540860138367862,-0.021764684468507767
1690839620219451600,5.75945166015625,-0.0038599856197834015,-0.0036637107841670513,-0.020025106146931648
1690839620229492700,5.76949267578125,-0.004080761689692736,-0.0018924422329291701,-0.018191253766417503
1690839620239532500,5.779532470703125,-0.006618488114327192,-0.0035635759122669697,-0.019331352785229683
1690839620249572600,5.789572509765625,-0.005705822724848986,-0.0014085458824411035,-0.018679412081837654
1690839620259612700,5.79961279296875,-0.004025900736451149,-0.0014700648607686162,-0.019658923149108887
1690839620269653500,5.809653564453125,-0.0017728663515299559,-0.004093811381608248,-0.0207500196993351
1690839620279723500,5.8197236328125,-0.0029204224701970816,-0.0018074874533340335,-0.023790551349520683
1690839620289764600,5.8297646484375,-0.005653358530253172,-0.001984853995963931,-0.02299133501946926
1690839620299804700,5.8398046875,-0.0049004824832081795,-0.0011592740193009377,-0.021647771820425987
1690839620309844500,5.849844482421875,-0.005318332463502884,-0.0024714134633541107,-0.020125241950154305
1690839620319885600,5.859885498046875,-0.003463707398623228,-0.0027270768769085407,-0.018995795398950577
1690839620329925600,5.869925537109375,-0.005339371506124735,-0.00045300371129997075,-0.017596837133169174
1690839620339965700,5.879965576171875,-0.004144677426666021,-0.0010578075889497995,-0.01864452473819256
1690839620350005500,5.890005615234375,-0.005271993577480316,-0.003936418332159519,-0.01732040010392666
1690839620360046600,5.900046630859375,-0.004598213825374842,-0.0025992451701313257,-0.01918727718293667
1690839620370086700,5.910086669921875,-0.005565473809838295,-0.0018759306985884905,-0.02050953544676304
1690839620380126500,5.92012646484375,-0.004875981714576483,-0.003742540255188942,-0.02329493686556816
1690839620390167600,5.93016748046875,-0.004770254250615835,-0.0027473168447613716,-0.02197001315653324
1690839620400207600,5.94020751953125,-0.004466121084988117,-0.002371811307966709,-0.02045867033302784
1690839620410247700,5.95024755859375,-0.0036674391012638807,-0.0021166803780943155,-0.020674385130405426
1690839620420287500,5.96028759765625,-0.004605138208717108,-0.001172323478385806,-0.020505009219050407
1690839620430358500,5.970358642578125,-0.003947337158024311,-0.0024048343766480684,-0.018513763323426247
1690839620440398300,5.9803984375,-0.0037441381718963385,-0.002086320426315069,-0.018553178757429123
1690839620450439400,5.990439453125,-0.005533782299607992,-0.0036069853231310844,-0.01721227541565895
1690839620460479500,6.0004794921875,-0.005224056541919708,-0.0026972496416419744,-0.01775742508471012
1690839620470519600,6.01051953125,-0.005319397896528244,-0.003748399205505848,-0.02052178606390953
1690839620480560600,6.020560546875,-0.003740143496543169,-0.0035984632559120655,-0.022400381043553352
1690839620490600700,6.0306005859375,-0.0048980857245624065,-0.0019736685790121555,-0.02195749618113041
1690839620500640500,6.040640625,-0.005511145573109388,-0.0031561122741550207,-0.0248401015996933
1690839620510680600,6.0506806640625,-0.004829642828553915,-0.003228283952921629,-0.02088876999914646
1690839620520721700,6.0607216796875,-0.005631786771118641,-0.003739344421774149,-0.020979849621653557
1690839620530761500,6.070761474609375,-0.006311958190053701,-0.0012191950809210539,-0.01980113610625267
1690839620540801500,6.080801513671875,-0.004926049150526524,-0.0033635725267231464,-0.017948906868696213
1690839620550842600,6.090842529296875,-0.004560130648314953,-0.0009494169498793781,-0.018337994813919067
1690839620560882700,6.100882568359375,-0.004147606901824474,-0.0034288198221474886,-0.01806049235165119
1690839620570922500,6.110922607421875,-0.004564924165606499,-0.00264771468937397,-0.019180884584784508
1690839620580962600,6.120962646484375,-0.004281031433492899,-0.0016908409306779504,-0.01866103522479534
1690839620591033300,6.131033447265625,-0.00330231967382133,-0.0037910097744315863,-0.017788318917155266
1690839620601074400,6.141074462890625,-0.004365986213088036,-0.002055161399766803,-0.019300727173686028
1690839620611114500,6.151114501953125,-0.0038043255917727947,-0.0008266451768577099,-0.022852584719657898
1690839620621154600,6.161154541015625,-0.005870139691978693,-0.0029025792609900236,-0.02316683903336525
1690839620631194600,6.171194580078125,-0.004056526813656092,-0.0022298647090792656,-0.022765234112739563
1690839620641235700,6.181235595703125,-0.005032309330999851,-0.00101146858651191,-0.021812355145812035
1690839620651275500,6.191275634765625,-0.002776345470920205,-0.003899933071807027,-0.02147652953863144
1690839620661315600,6.201315673828125,-0.0041063278913497925,0.0002865561400540173,-0.020488496869802475
1690839620671356700,6.211356689453125,-0.006403038278222084,-0.0010439591715112329,-0.019517509266734123
1690839620681396500,6.221396484375,-0.0038341530598700047,-0.0015923039754852653,-0.019026953727006912
1690839620691436500,6.2314365234375,-0.005674397107213736,-0.0007954862085171044,-0.01805303618311882
1690839620701483000,6.24148291015625,-0.004543619230389595,-0.0010125337867066264,-0.01858486980199814
1690839620711524000,6.251524169921875,-0.004039482679218054,-0.002121474128216505,-0.018823489546775818
1690839620721564200,6.261564208984375,-0.004984638653695583,-0.0005896238726563752,-0.018940402194857597
1690839620731604000,6.27160400390625,-0.005626726895570755,-0.002662095706909895,-0.018160894513130188
1690839620741675000,6.281675048828125,-0.004484763368964195,-0.0019861855544149876,-0.02082858234643936
1690839620751715000,6.291715087890625,-0.005341502372175455,-0.003067961661145091,-0.020673586055636406
1690839620761756000,6.301755859375,-0.0046821036376059055,-0.0021260015200823545,-0.02267575077712536
1690839620771796000,6.3117958984375,-0.00472498033195734,-0.0033185649663209915,-0.021278923377394676
1690839620781836000,6.3218359375,-0.0034322820138186216,-0.002098304685205221,-0.022823823615908623
1690839620791875800,6.331875732421875,-0.004777977243065834,-0.002432531211525202,-0.02346431277692318
1690839620801917000,6.3419169921875,-0.004012318328022957,-0.0021196098532527685,-0.02008928917348385
1690839620811957000,6.35195703125,-0.004707669839262962,0.0001001348573481664,-0.02143019065260887
1690839620821996800,6.361996826171875,-0.004490089602768421,-0.0026905916165560484,-0.019661584869027138
1690839620832038000,6.372037841796875,-0.005542570725083351,-0.001770203118212521,-0.019784357398748398
1690839620842078000,6.382077880859375,-0.005331914871931076,-0.002653307281434536,-0.016996294260025024
1690839620852118000,6.392117919921875,-0.0043955473229289055,-0.004570783115923405,-0.016931312158703804
1690839620862158000,6.402157958984375,-0.004883971065282822,-0.0032772859558463097,-0.017004283145070076
1690839620872199200,6.41219921875,-0.004674113821238279,-0.0001358212175546214,-0.022219551727175713
1690839620882239000,6.422239013671875,-0.004347876645624638,-0.0014516890514642,-0.02056892402470112
1690839620892310000,6.43231005859375,-0.0035811527632176876,-0.0016476977616548538,-0.021028585731983185
1690839620902349800,6.442349853515625,-0.004450141917914152,-0.0020956413354724646,-0.02263340726494789
1690839620912390000,6.452389892578125,-0.005437375977635384,-0.0027811392210423946,-0.023189209401607513
1690839620922431000,6.462430908203125,-0.005190767347812653,-0.0013427657540887594,-0.021805962547659874
1690839620932471000,6.472470947265625,-0.003967311233282089,-0.0022535668686032295,-0.02033616416156292
1690839620942510800,6.4825107421875,-0.004630970768630505,-0.0010287790792062879,-0.020898889750242233
1690839620952551000,6.492551025390625,-0.005075452383607626,-0.0034466630313545465,-0.01962083950638771
1690839620962592000,6.502592041015625,-0.004589425399899483,-0.0035358788445591927,-0.020131632685661316
1690839620972631800,6.5126318359375,-0.003930293023586273,-0.00030413299100473523,-0.017964620143175125
1690839620982672000,6.522671875,-0.004702343605458736,-0.0031260184478014708,-0.01883014664053917
1690839620992713000,6.532712890625,-0.004729507956653833,-0.002669020090252161,-0.0183478482067585
1690839621002753000,6.5427529296875,-0.003879959462210536,-0.0011675298446789384,-0.01950552500784397
1690839621012793000,6.55279296875,-0.0035779569298028946,-0.0010077401529997587,-0.01954600401222706
1690839621022833000,6.5628330078125,-0.002692189533263445,-0.0021603561472147703,-0.021134845912456512
1690839621032874000,6.5728740234375,-0.004600344225764275,-0.0030634342692792416,-0.022915169596672058
1690839621042913800,6.582913818359375,-0.0038029940333217382,-0.0009297095239162445,-0.021272530779242516
1690839621052984800,6.59298486328125,-0.005044293589890003,-0.0009174589649774134,-0.019150258973240852
1690839621063025000,6.60302490234375,-0.0037180392537266016,-0.0014330470003187656,-0.02167227305471897
1690839621073065000,6.61306494140625,-0.004083957523107529,-0.0000804274677648209,-0.020369186997413635
1690839621083106000,6.62310595703125,-0.004826713353395462,-0.0033878071699291468,-0.02118624560534954
1690839621093145900,6.633145751953125,-0.005586512852460146,-0.0013933659065514803,-0.01972923055291176
1690839621103186000,6.64318603515625,-0.004553206264972687,-0.002359027974307537,-0.01902269385755062
1690839621113227000,6.65322705078125,-0.004999818746000528,-0.003644003299996257,-0.019710054621100426
1690839621123266800,6.663266845703125,-0.005238970275968313,-0.0013712616637349129,-0.020303940400481224
1690839621133307000,6.673306884765625,-0.004175303969532251,-0.0012455604737624526,-0.021502895280718803
1690839621143347000,6.683346923828125,-0.00589623861014843,-0.002484196564182639,-0.020173445343971252
1690839621153388000,6.693387939453125,-0.003973170183598995,-0.002906307578086853,-0.02045094594359398
1690839621163427800,6.703427734375,-0.003485811408609152,-0.0014503574930131435,-0.020252807065844536
1690839621173468000,6.713468017578125,-0.0041492050513625145,-0.0016801883466541767,-0.02142752707004547
1690839621183509000,6.723509033203125,-0.004322576802223921,-0.003349723992869258,-0.01877208985388279
1690839621193548800,6.733548828125,-0.0046967510133981705,-0.0021347899455577135,-0.019773971289396286
1690839621203619800,6.743619873046875,-0.004064782522618771,-0.0029878003988415003,-0.019401393830776215
1690839621213660000,6.753659912109375,-0.005630454979836941,-0.0019177423091605306,-0.01998808979988098
1690839621223700000,6.763699951171875,-0.00439048744738102,-0.002549177734181285,-0.01841096580028534
1690839621233739800,6.77373974609375,-0.0044048684649169445,-0.003453853540122509,-0.018804047256708145
1690839621243780900,6.78378076171875,-0.005757754202932119,-0.0019291938515380025,-0.01967223733663559
1690839621253821000,6.793821044921875,-0.0037553233560174704,-0.0038101845420897007,-0.019115105271339417
1690839621263861000,6.803861083984375,-0.00501073757186532,-0.0017129451734945178,-0.020182233303785324
1690839621273901800,6.81390185546875,-0.0049673281610012054,-0.0011507519520819187,-0.020245883613824844
1690839621283942000,6.82394189453125,-0.004720719531178474,-0.003754524514079094,-0.01793638989329338
1690839621293982000,6.83398193359375,-0.00509835546836257,-0.0012873720843344927,-0.020437629893422127
1690839621304021800,6.844021728515625,-0.005407548509538174,-0.001377653214149177,-0.01991751603782177
1690839621314062800,6.854062744140625,-0.0057678744196891785,-0.0014929680619388819,-0.020487697795033455
1690839621324103000,6.86410302734375,-0.004767591133713722,-0.001514806062914431,-0.02167014218866825
1690839621334143000,6.87414306640625,-0.003525758860632777,-0.0030631679110229015,-0.018920959904789925
1690839621344183800,6.884183837890625,-0.004247741773724556,-0.002429601736366749,-0.021077588200569153
1690839621354254000,6.894254150390625,-0.0046211169101297855,-0.0013755226973444223,-0.02197001315653324
1690839621364295000,6.904294921875,-0.003899666713550687,-0.0020804614759981632,-0.019750801846385002
1690839621374335000,6.9143349609375,-0.003937750123441219,-0.000597879639826715,-0.019032813608646393
1690839621384374800,6.924374755859375,-0.005437642335891724,0.0001496696495451033,-0.018734272569417953
1690839621394415900,6.934415771484375,-0.004067711997777224,-0.001356347929686308,-0.019475430250167847
1690839621404456000,6.9444560546875,-0.004971588961780071,-0.0023635553661733866,-0.019876236096024513
1690839621414496000,6.95449609375,-0.005116198677569628,-0.0008551410282962024,-0.019666112959384918
1690839621424536000,6.9645361328125,-0.0036677054595202208,-0.002886600326746702,-0.020054135471582413
1690839621434577000,6.974576904296875,-0.004947886802256107,-0.004741225857287645,-0.020229104906320572
1690839621444617000,6.984616943359375,-0.005034706089645624,-0.001327053178101778,-0.02149117738008499
1690839621454656800,6.99465673828125,-0.0049529471434652805,-0.001972337020561099,-0.02124510146677494
1690839621464696800,7.00469677734375,-0.004178766161203384,-0.0007161240209825337,-0.01896543614566326
1690839621474738000,7.014738037109375,-0.0036549223586916924,-0.0014343785587698221,-0.019846942275762558
1690839621484778000,7.024778076171875,-0.004732969682663679,-0.001431182725355029,-0.019640546292066574
1690839621494818000,7.034818115234375,-0.005657352972775698,-0.002785133896395564,-0.017941715195775032
1690839621504859000,7.04485888671875,-0.002796585438773036,0.0003174488083459437,-0.019104186445474625
1690839621514929200,7.05492919921875,-0.004238686989992857,-0.0018413095967844129,-0.020062390714883804
1690839621524970000,7.064969970703125,-0.005357214715331793,-0.002901514060795307,-0.021923407912254333
1690839621535009800,7.075009765625,-0.0038072550669312477,-0.001919073867611587,-0.020715931430459023
1690839621545049900,7.0850498046875,-0.005403553601354361,-0.0037894118577241898,-0.020664798095822334
1690839621555091000,7.095091064453125,-0.003796069882810116,-0.0017893778858706355,-0.021631259471178055
1690839621565131000,7.105131103515625,-0.0046695866622030735,-0.0021845910232514143,-0.02129596658051014
1690839621575171000,7.115171142578125,-0.004778243601322174,-0.0032264196779578924,-0.023495472967624664
1690839621585211100,7.125211181640625,-0.0051779840141534805,-0.0015483618481084704,-0.020352410152554512
1690839621595252000,7.135251953125,-0.005394765175879002,-0.002692189533263445,-0.020787037909030914
1690839621605291800,7.145291748046875,-0.003748132847249508,-0.002284725895151496,-0.01846476085484028
1690839621615331800,7.155331787109375,-0.004733236040920019,-0.0018482337472960353,-0.01859126053750515
1690839621625373000,7.165373046875,-0.0037414750549942255,-0.0027627632953226566,-0.019227489829063416
1690839621635413000,7.1754130859375,-0.0030810111202299595,-0.0027241474017500877,-0.019580891355872154
1690839621645453000,7.185453125,-0.004356931429356337,-0.0019718045368790627,-0.020410733297467232
1690839621655493000,7.1954931640625,-0.004258128348737955,-0.0031734227668493986,-0.020723653957247734
1690839621665564200,7.205564208984375,-0.0049255164340138435,-0.003260241821408272,-0.02262328751385212
1690839621675604000,7.21560400390625,-0.003973170183598995,-0.002427204977720976,-0.019989952445030212
1690839621685644800,7.225644775390625,-0.00392736354842782,-0.00130947632715106,-0.021403824910521507
1690839621695684900,7.235684814453125,-0.005200354848057032,-0.004204598721116781,-0.022916501387953758
1690839621705696000,7.245696044921875,-0.005738579668104649,-0.0015425028977915645,-0.02190769650042057
1690839621715737000,7.255737060546875,-0.004837898537516594,-0.001984587637707591,-0.020228838548064232
1690839621725777200,7.265777099609375,-0.0040823593735694885,-0.0017390442080795765,-0.018746789544820786
1690839621735817200,7.275817138671875,-0.004088218789547682,0.00013502225920092314,-0.019104452803730965
1690839621745857300,7.285857177734375,-0.003203782718628645,-0.0005627259379252791,-0.018806444481015205
1690839621755898000,7.295898193359375,-0.004464789759367704,0.0008167914929799736,-0.01835956610739231
1690839621765938200,7.305938232421875,-0.005152684170752764,-0.0018399780383333564,-0.019601929932832718
1690839621775978000,7.31597802734375,-0.005576925817877054,-0.0022682142443954945,-0.018123876303434372
1690839621786019000,7.32601904296875,-0.004019509069621563,-0.0010242518037557602,-0.01996864750981331
1690839621796059100,7.33605908203125,-0.005554022267460823,-0.0007949535502120852,-0.01840910129249096
1690839621806099200,7.34609912109375,-0.005577458068728447,-0.002243180526420474,-0.020444555208086967
1690839621816170200,7.356170166015625,-0.004821120295673609,-0.0013771206140518188,-0.021031249314546585
1690839621826210300,7.366210205078125,-0.0026290726382285357,-0.0010761833982542157,-0.018878350034356117
1690839621836251100,7.376251220703125,-0.006317550782114267,-0.003069559345021844,-0.020983312278985977
1690839621846291200,7.386291259765625,-0.005636313930153847,0.00032410668791271746,-0.02154603786766529
1690839621856331000,7.3963310546875,-0.006584133021533489,-0.0010508833220228553,-0.019847474992275238
1690839621866371000,7.40637109375,-0.0038160434924066067,-0.002844256116077304,-0.02034628391265869
1690839621876412200,7.416412109375,-0.004057059530168772,-0.0033814155030995607,-0.021630194038152695
1690839621886452200,7.4264521484375,-0.005518868565559387,-0.0020695424173027277,-0.019332418218255043
1690839621896492300,7.4364921875,-0.004896488040685654,-0.0009195895399898291,-0.018814433366060257
1690839621906533000,7.446533203125,-0.005822202656418085,-0.002749447477981448,-0.018972359597682953
1690839621916573200,7.4565732421875,-0.0027172232512384653,-0.0021371867042034864,-0.020179037004709244
1690839621926613000,7.466613037109375,-0.0035950010642409325,-0.001112668658606708,-0.01955399475991726
1690839621936653000,7.476653076171875,-0.0041183121502399445,-0.0033907366450875998,-0.020238159224390984
1690839621946694100,7.486694091796875,-0.004255198873579502,-0.0012887036427855492,-0.01978994905948639
1690839621956734200,7.496734130859375,-0.0036754286848008633,-0.0014207963831722736,-0.019597670063376427
1690839621966805200,7.50680517578125,-0.0051960935816168785,-0.000993891735561192,-0.019847208634018898
1690839621976845300,7.51684521484375,-0.006809703074395657,-0.0038402783684432507,-0.018864501267671585
1690839621986885400,7.526885498046875,-0.004235225263983011,-0.004599545616656542,-0.01991511881351471
1690839621996926200,7.53692626953125,-0.005259742960333824,-0.0024053670931607485,-0.020184097811579704
1690839622006966000,7.546966064453125,-0.004227768164128065,-0.0024000408593565226,-0.018279671669006348
1690839622017006000,7.557006103515625,-0.004749215207993984,-0.001972337020561099,-0.021267471835017204
1690839622027046100,7.567046142578125,-0.003992877434939146,-0.0011502192355692387,-0.020682908594608307
1690839622037087200,7.577087158203125,-0.004993160720914602,-0.0010705908061936498,-0.018967831507325172
1690839622047127300,7.587127197265625,-0.00532445777207613,-0.0013741911388933659,-0.0207500196993351
1690839622057167400,7.59716748046875,-0.004798217210918665,-0.0011251855175942183,-0.019243203103542328
1690839622067208200,7.607208251953125,-0.003786748740822077,-0.0051657333970069885,-0.01884585991501808
1690839622077248000,7.617248046875,-0.004351871553808451,-0.001561944023706019,-0.020849354565143585
1690839622087288000,7.6272880859375,-0.00538544449955225,-0.002335326047614217,-0.022191854193806648
1690839622097328000,7.637328125,-0.004597947467118502,-0.0016623451374471188,-0.020660802721977234
1690839622107369200,7.647369140625,-0.004501807503402233,-0.003728159237653017,-0.020538032054901123
1690839622117409300,7.6574091796875,-0.005302886478602886,-0.002447711303830147,-0.01973455585539341
1690839622127480300,7.667480224609375,-0.0033595776185393333,-0.004717523697763681,-0.021766548976302147
1690839622137520400,7.677520263671875,-0.005517537239938974,-0.004786499310284853,-0.019399264827370644
1690839622147560200,7.687560302734375,-0.004163053352385759,-0.0007054713787510991,-0.018795259296894073
1690839622157601000,7.69760107421875,-0.0037835529074072838,-0.001386441639624536,-0.017951304093003273
1690839622167641000,7.70764111328125,-0.0032503881957381964,-0.0020911141764372587,-0.019104719161987305
1690839622177681200,7.71768115234375,-0.004264253657311201,-0.0021499700378626585,-0.019631491973996162
1690839622187721200,7.72772119140625,-0.004513259045779705,-0.003989148885011673,-0.020781444385647774
1690839622197762300,7.73776220703125,-0.004446680191904306,-0.0028133634477853775,-0.019788086414337158
1690839622207802400,7.74780224609375,-0.004014182835817337,-0.002368349116295576,-0.021100224927067757
1690839622217842200,7.75784228515625,-0.0041188448667526245,-0.0028628981672227383,-0.019467175006866455
1690839622227883000,7.767883056640625,-0.0056829191744327545,-0.0012405004817992449,-0.018819227814674377
1690839622237923000,7.777923095703125,-0.004863997455686331,-0.0000876179983606562,-0.01877049170434475
1690839622247963100,7.787963134765625,-0.005539108533412218,-0.0019859191961586475,-0.019641345366835594
1690839622258003200,7.798003173828125,-0.00421232171356678,-0.002913231961429119,-0.018127072602510452
1690839622268044300,7.808044189453125,-0.0041092573665082455,-0.003291134489700198,-0.019357185810804367
1690839622278115300,7.818115234375,-0.0055004931055009365,-0.00112465291749686,-0.019465044140815735
1690839622288155100,7.828155029296875,-0.004839762579649687,-0.001677791471593082,-0.021221665665507317
1690839622298195200,7.8381953125,-0.005373992491513491,-0.0027598338201642036,-0.02238493412733078
1690839622308235300,7.8482353515625,-0.004083158448338509,-0.0035057852510362864,-0.02263686992228031
1690839622318276000,7.858276123046875,-0.006068012677133083,-0.0027659591287374496,-0.020749486982822418
1690839622328316200,7.868316162109375,-0.003838680451735854,-0.0012186624808236957,-0.02100514993071556
1690839622338356200,7.878356201171875,-0.0038282941095530987,-0.0001054611784638837,-0.02178279310464859
1690839622348397300,7.888397216796875,-0.005608617328107357,-0.0033095101825892925,-0.021821942180395126
1690839622358437400,7.898437255859375,-0.003989148885011673,-0.002153964713215828,-0.0181739442050457
1690839622368477200,7.908477294921875,-0.0051715923473238945,-0.00373108871281147,-0.018753979355096817
1690839622378517200,7.918517333984375,-0.005277319811284542,-0.0036373452749103308,-0.019836289808154106
1690839622388558000,7.92855810546875,-0.004593420308083296,-0.002397643867880106,-0.019331619143486023
1690839622398598100,7.93859814453125,-0.004577707499265671,-0.0020841897930949926,-0.02034255675971508
1690839622408638200,7.94863818359375,-0.005230181850492954,-0.003031476167961955,-0.020300211384892464
1690839622418679300,7.95867919921875,-0.00569889834150672,-0.0013470269041135907,-0.021444572135806084
1690839622428749000,7.9687490234375,-0.004007524810731411,-0.0026234800461679697,-0.022888271138072014
1690839622438790100,7.9787900390625,-0.005477056838572025,-0.0027148264925926924,-0.02100195363163948
1690839622448830200,7.988830322265625,-0.005826197564601898,-0.0037028591614216566,-0.021311946213245392
1690839622458870300,7.998870361328125,-0.004027498420327902,-0.001145159243606031,-0.020323913544416428
1690839622468910300,8.008910400390626,-0.005056543741375208,-0.0019022959750145674,-0.01954706944525242
1690839622478951200,8.018951171875,-0.004252269398421049,-0.0014330470003187656,-0.02058703452348709
1690839622488991200,8.0289912109375,-0.003419232554733753,-0.0009536779834888875,-0.02099662832915783
1690839622499031300,8.03903125,-0.0057500312104821205,-0.00207699928432703,-0.018973158672451973
1690839622509072400,8.049072265625,-0.004084756597876549,-0.0014884406700730324,-0.019659189507365227
1690839622519112200,8.0591123046875,-0.003937750123441219,-0.002796585438773036,-0.02009062096476555
1690839622529152300,8.06915234375,-0.004471180960536003,-0.002046106616035104,-0.021382519975304604
1690839622539192300,8.0791923828125,-0.005062402691692114,-0.001689509372226894,-0.021021395921707153
1690839622549233200,8.089233154296876,-0.0044144559651613235,-0.0007552724564447999,-0.02070607803761959
1690839622559273200,8.099273193359375,-0.005566539242863655,-0.0004223773430567235,-0.02082991413772106
1690839622569313300,8.109313232421876,-0.004795820452272892,-0.0006431533838622272,-0.02064642310142517
1690839622579354400,8.119354248046875,-0.004573978949338198,-0.0019241338595747948,-0.02063417248427868
1690839622589424000,8.129424072265625,-0.005583317019045353,-0.003434146288782358,-0.021927936002612114
1690839622599465200,8.13946533203125,-0.00395612558349967,-0.0022072279825806618,-0.021525532007217407
1690839622609505300,8.14950537109375,-0.004078098572790623,-0.0014852449530735612,-0.019827766343951225
1690839622619545300,8.15954541015625,-0.003858654061332345,-0.001811748486943543,-0.018809374421834946
1690839622629585200,8.169585205078125,-0.005280515644699335,-0.003215766977518797,-0.020295418798923492
1690839622639626200,8.179626220703126,-0.004893824923783541,-0.0038860845379531384,-0.021759890019893646
1690839622649666300,8.189666259765625,-0.005121791269630194,-0.0009629990672692657,-0.019882095977663994
1690839622659706000,8.1997060546875,-0.0028011128306388855,-0.0009803095599636436,-0.017725734040141106
1690839622669747200,8.209747314453125,-0.004537760280072689,-0.002703641075640917,-0.019945744425058365
1690839622679787300,8.219787353515626,-0.006417152937501669,-0.002034655073657632,-0.02081739716231823
1690839622689827300,8.229827392578125,-0.005081577692180872,-0.0014570154016837478,-0.016892964020371437
1690839622699874300,8.239874267578125,-0.004510329570621252,-0.0018349179299548268,-0.02118704468011856
1690839622709915400,8.249915283203125,-0.004993160720914602,-0.003968376200646162,-0.0202738456428051
1690839622719955500,8.25995556640625,-0.0039020637050271034,-0.002097239252179861,-0.020142287015914917
1690839622729995500,8.26999560546875,-0.0067423246800899506,-0.0037060549948364496,-0.022124743089079857
1690839622740066600,8.280066650390625,-0.004490355961024761,-0.002525741932913661,-0.018341191112995148
1690839622750106400,8.2901064453125,-0.004180630203336477,-0.0023153522051870823,-0.020051205530762672
1690839622760147500,8.3001474609375,-0.00392842898145318,-0.0018367822049185634,-0.020307667553424835
1690839622770187300,8.310187255859375,-0.004793157335370779,-0.002763828495517373,-0.019832827150821686
1690839622780227300,8.320227294921875,-0.0038011297583580017,-0.002104163635522127,-0.020207267254590988
1690839622790268400,8.330268310546876,-0.005812349263578653,-0.0007933556917123497,-0.01907835341989994
1690839622800308500,8.34030859375,-0.005563077051192522,-0.0034075146540999413,-0.020549217239022255
1690839622810348500,8.3503486328125,-0.004524177871644497,-0.0031790153589099646,-0.020715398713946342
1690839622820388600,8.360388671875,-0.003543868428096175,-0.0032650355715304613,-0.020787570625543594
1690839622830429400,8.370429443359376,-0.004764128942042589,-0.0036970002111047506,-0.023977771401405334
1690839622840469200,8.38046923828125,-0.002612028270959854,-0.0035451999865472317,-0.021795043721795082
1690839622850509300,8.39050927734375,-0.004772651009261608,-0.000969656917732209,-0.020172113552689552
1690839622860550400,8.40055029296875,-0.003364371368661523,-0.003037335118278861,-0.01944400556385517
1690839622870590500,8.410590576171876,-0.005626460537314415,-0.0018676748732104897,-0.019396601244807243
1690839622880630500,8.420630615234375,-0.0057441722601652145,-0.0003294330381322652,-0.02003389596939087
1690839622890701600,8.43070166015625,-0.0038722362369298935,-0.001353152096271515,-0.02009967528283596
1690839622900741400,8.440741455078125,-0.0029172266367822886,-0.000904409505892545,-0.018483668565750122
1690839622910781400,8.450781494140625,-0.005667739547789097,-0.001680720946751535,-0.019350795075297356
1690839622920822300,8.460822265625,-0.0037936728913336992,-0.0020698087755590677,-0.021503960713744164
1690839622930862300,8.4708623046875,-0.005419266410171986,-0.00011664645717246458,-0.02155216410756111
1690839622940902400,8.48090234375,-0.005679457448422909,-0.00410526292398572,-0.02154390700161457
1690839622950943500,8.490943603515625,-0.00509808911010623,-0.0007211840129457414,-0.020563066005706787
1690839622960983600,8.500983642578126,-0.004466653801500797,-0.0009070726810023189,-0.021508486941456795
1690839622971023600,8.511023681640625,-0.00452710734680295,-0.0021699436474591494,-0.020861338824033737
1690839622981063400,8.5210634765625,-0.004099137615412474,-0.0024104269687086344,-0.020114855840802193
1690839622991104300,8.531104248046875,-0.005060538649559021,-0.00256462418474257,-0.018915634602308273
1690839623001144300,8.541144287109375,-0.0048916940577328205,-0.0025592977181077003,-0.019628295674920082
1690839623011184400,8.551184326171875,-0.004431233741343021,-0.0007076018955558538,-0.020728714764118195
1690839623021225500,8.5612255859375,-0.005450425669550896,0.0012058793799951673,-0.019882362335920334
1690839623031265500,8.571265625,-0.0038091193418949842,-0.0007816377910785377,-0.019725501537322998
1690839623041336600,8.581336669921875,-0.004748149774968624,-0.0022506373934447765,-0.021768944337964058
1690839623051376400,8.59137646484375,-0.004710865672677755,-0.002499110298231244,-0.01878034509718418
1690839623061416400,8.60141650390625,-0.004013916477560997,-0.005638444796204567,-0.020173978060483932
1690839623071456500,8.61145654296875,-0.00506959343329072,-0.001163002452813089,-0.02159051224589348
1690839623081497300,8.621497314453125,-0.004796619527041912,-0.0027166905347257853,-0.020441358909010887
1690839623091537400,8.631537353515625,-0.004496214911341667,-0.0018429075134918094,-0.019295400008559227
1690839623101577500,8.641577392578125,-0.006821686867624521,-0.002091913018375635,-0.021928735077381134
1690839623111618600,8.65161865234375,-0.004941229242831469,-0.0007688545738346875,-0.01876782812178135
1690839623121658600,8.66165869140625,-0.00370179396122694,-0.00105354655534029,-0.02100115641951561
1690839623131698400,8.671698486328125,-0.003768905531615019,-0.0022008363157510757,-0.021026987582445145
1690839623141738500,8.681738525390625,-0.0035206989850848913,-0.002722283359616995,-0.02094762586057186
1690839623151779300,8.691779296875,-0.005560680292546749,-0.004296744242310524,-0.01986105553805828
1690839623161819400,8.7018193359375,-0.006176136899739504,-0.0027979169972240925,-0.020608872175216675
1690839623171859500,8.711859375,-0.003846403444185853,-0.0021824603900313377,-0.01896410435438156
1690839623181900500,8.721900634765625,-0.004595284350216389,-0.0017294568242505193,-0.02039342187345028
1690839623191940600,8.731940673828126,-0.002727875951677561,-0.0008096009842120111,-0.021191837266087532
1690839623202011400,8.742011474609376,-0.004369182046502829,-0.0014682007022202015,-0.022347649559378624
1690839623212051500,8.752051513671875,-0.004702077247202396,-0.0027984497137367725,-0.017974207177758217
1690839623222091500,8.762091552734375,-0.005658418405801058,-0.003195793367922306,-0.020679445937275887
1690839623232132400,8.77213232421875,-0.004828311037272215,-0.002659432590007782,-0.02057824470102787
1690839623242172400,8.78217236328125,-0.0054363105446100235,-0.0019837887957692146,-0.019902601838111877
1690839623252212500,8.79221240234375,-0.005435511935502291,-0.0037968687247484922,-0.020547086372971535
1690839623262252300,8.802252197265625,-0.00503949960693717,-0.0026764769572764635,-0.019748138263821602
1690839623272293400,8.81229345703125,-0.005565473809838295,-0.003582484321668744,-0.02075587771832943
1690839623282333400,8.82233349609375,-0.004350007511675358,-0.0029883331153541803,-0.0202176533639431
1690839623292373500,8.83237353515625,-0.003991013392806053,-0.003305249148979783,-0.020533237606287003
1690839623302414300,8.842414306640626,-0.0052168662659823895,-0.0027137610595673323,-0.018223745748400688
1690839623312454400,8.852454345703125,-0.0039044604636728764,-0.0007837683078832924,-0.018818428739905357
1690839623322494500,8.862494384765625,-0.004631769843399525,-0.0016439693281427026,-0.019585685804486275
1690839623332534500,8.872534423828125,-0.0031382690649479628,-0.0002633866388350725,-0.019931629300117493
1690839623342575600,8.88257568359375,-0.005006476305425167,-0.002395247109234333,-0.021931132301688194
1690839623352645400,8.892645263671875,-0.004640824627131224,0.00028522455249913037,-0.020415525883436203
1690839623362686500,8.9026865234375,-0.004536961205303669,-0.002755839144811034,-0.021020330488681793
1690839623372726500,8.9127265625,-0.006076268386095762,-0.004029895178973675,-0.022726351395249367
1690839623382766600,8.9227666015625,-0.005497829522937536,-0.0023070964962244034,-0.022649917751550674
1690839623392807400,8.932807373046876,-0.004534031730145216,-0.0025539714843034744,-0.020594490692019463
1690839623402847500,8.942847412109375,-0.018100440502166748,0.22439049184322357,0.0017811221769079566
1690839623412887300,8.95288720703125,-0.0041582598350942135,0.0732041746377945,-0.01010722853243351
1690839623422927400,8.96292724609375,-0.012165852822363377,-0.010521883144974709,-0.015734754502773285
1690839623432968400,8.972968505859376,-0.00015526228526141495,-0.09250064194202423,-0.05181179940700531
1690839623443008500,8.983008544921875,0.009818541817367077,-0.14127883315086365,-0.0487331859767437
1690839623453048600,8.993048583984375,0.011113637126982212,-0.020609937608242035,-0.08424457162618637
1690839623463089400,9.00308935546875,-0.0004956142511218786,0.03208842873573303,-0.08962708711624146
1690839623473129500,9.01312939453125,-0.012016715481877327,0.05084746703505516,-0.07554402947425842
1690839623483169500,9.02316943359375,-0.019210979342460632,0.05236466974020004,-0.05173323675990105
1690839623493209300,9.033209228515625,-0.015862319618463516,0.035163845866918564,-0.02688700705766678
1690839623503280400,9.0432802734375,-0.0060091568157076836,0.0037001960445195436,-0.005453088786453009
1690839623513321500,9.053321533203125,0.0032631712965667248,-0.027057183906435966,0.014781875535845757
1690839623523361500,9.063361572265626,0.0057676080614328384,-0.04266037791967392,0.027605261653661728
1690839623533401600,9.073401611328125,0.0021664814557880163,-0.04049016907811165,0.034870900213718414
1690839623543441400,9.08344140625,-0.0060293967835605145,-0.02419108897447586,0.03253823518753052
1690839623553482500,9.093482421875,-0.01110378373414278,0.0005531385540962219,0.023428892716765404
1690839623563522300,9.103522216796875,-0.010597783140838146,0.020267454907298088,0.0062392535619437695
1690839623573562400,9.113562255859375,-0.007181746419519186,0.030656179413199425,-0.011828696355223656
1690839623583602400,9.1236025390625,-0.0007440872141160071,0.024924257770180702,-0.03068041428923607
1690839623593643500,9.1336435546875,0.002167813014239073,0.008502940647304058,-0.047811198979616165
1690839623603683600,9.14368359375,-0.002240517409518361,-0.007673632353544235,-0.05734185129404068
1690839623613723400,9.153723388671875,-0.0062666842713952065,-0.02141394466161728,-0.06473319232463837
1690839623623764500,9.163764404296876,-0.007681088987737894,-0.023060312494635582,-0.06030275672674179
1690839623633804500,9.173804443359375,-0.00851519126445055,-0.017617875710129738,-0.05367867276072502
1690839623643844400,9.18384423828125,-0.007208378054201603,-0.0036908749025315046,-0.038366030901670456
1690839623653884400,9.193884521484375,-0.0034104441292583942,0.0077471355907619,-0.021820344030857086
1690839623663955500,9.20395556640625,-0.0025949841365218163,0.015606390312314034,-0.006445382256060839
1690839623673996500,9.21399658203125,-0.00008149272616719827,0.015155251137912273,0.0046757119707763195
1690839623684036600,9.22403662109375,-0.004483431577682495,0.00535348616540432,0.011784753762185574
1690839623694076400,9.234076416015625,-0.00615110294893384,-0.006205964367836714,0.014228204265236855
1690839623704102100,9.24410205078125,-0.005615541245788336,-0.012288358062505722,0.00740252248942852
1690839623714143000,9.25414306640625,-0.006863498594611883,-0.01734037511050701,-0.0007392935222014785
1690839623724182800,9.264182861328125,-0.004138285759836435,-0.012344816699624062,-0.012092881835997105
1690839623734222800,9.274222900390624,-0.0031459920573979616,-0.004764128942042589,-0.025622539222240448
1690839623744264000,9.284263916015625,-0.003126551164314151,0.004406199790537357,-0.03471909835934639
1690839623754304000,9.294303955078124,-0.004653075244277716,0.009578324854373932,-0.04128938168287277
1690839623764344000,9.304343994140625,-0.005314870737493038,0.007195062469691038,-0.04524444416165352
1690839623774384000,9.314384033203124,-0.007678692229092121,0.004596882499754429,-0.04297037050127983
1690839623784425000,9.324425048828125,-0.006355633959174156,-0.0032679650466889143,-0.039252862334251404
1690839623794465000,9.334465087890624,-0.005642439238727093,-0.007438741624355316,-0.03148761764168739
1690839623804504800,9.3445048828125,-0.003236806020140648,-0.009541839361190796,-0.023976439610123634
1690839623814575900,9.354575927734375,-0.004224572330713272,-0.00452684098854661,-0.012168515473604202
1690839623824616000,9.364615966796874,-0.0046509443782269955,-0.00526613462716341,-0.007713047321885824
1690839623834657000,9.374656982421875,-0.005803294479846954,0.0009451558580622077,-0.0025385250337421894
1690839623844697000,9.384697021484374,-0.005077050067484379,0.0036727653350681067,-0.00221974472515285
1690839623854737200,9.394737060546875,-0.005312739871442318,0.003195793367922306,-0.0012205267557874322
1690839623864777000,9.40477685546875,-0.0037766287568956614,0.0006093312404118478,-0.009274724870920181
1690839623874817800,9.41481787109375,-0.00529542937874794,-0.0020455741323530674,-0.013942713849246502
1690839623884857900,9.42485791015625,-0.0035398737527430058,-0.007506652269512415,-0.022788403555750847
1690839623894898000,9.43489794921875,-0.0057316552847623825,-0.007195062469691038,-0.026459038257598877
1690839623904939000,9.44493896484375,-0.0060048955492675304,-0.006366819143295288,-0.03242451697587967
1690839623914979000,9.45497900390625,-0.005736182443797588,-0.001812014845199883,-0.033076461404561996
1690839623925019100,9.46501904296875,-0.005515406373888254,-0.00014674017438665032,-0.03194914385676384
1690839623935059000,9.475058837890625,-0.004176901653409004,0.0029497172217816114,-0.030006367713212967
1690839623945099800,9.485099853515624,-0.004446413833647966,0.00318913534283638,-0.02605796605348587
1690839623955139800,9.495139892578125,-0.006316485349088907,-0.002552107209339738,-0.02202806994318962
1690839623965211000,9.5052109375,-0.0036671727430075407,-0.0026040389202535152,-0.017794976010918617
1690839623975251000,9.5152509765625,-0.005416869651526213,-0.005967078730463982,-0.013616742566227913
1690839623985291000,9.525291015625,-0.00498170917853713,-0.0037385455798357725,-0.012065451592206955
1690839623995332000,9.53533203125,-0.003757453989237547,-0.003102849004790187,-0.0100212087854743
1690839624005372200,9.5453720703125,-0.0043931505642831326,-0.0030067088082432747,-0.011358914896845818
1690839624015412000,9.555411865234374,-0.005330316722393036,-0.0025300029665231705,-0.013819143176078796
1690839624025452800,9.565452880859375,-0.0038658445701003075,0.0002796319022309035,-0.018578743562102318
1690839624035492900,9.575492919921874,-0.005292233545333147,0.00031611722079105675,-0.02226162888109684
1690839624045533000,9.585532958984375,-0.00490181427448988,-0.003715375903993845,-0.023244069889187813
1690839624055573000,9.595572998046874,-0.005513542331755161,-0.0023345269728451967,-0.026940004900097847
1690839624065614000,9.605614013671875,-0.004576642066240311,-0.001065264455974102,-0.02652881294488907
1690839624075654100,9.615654052734374,-0.005549761466681957,-0.004445082042366266,-0.02828649990260601
1690839624085694000,9.62569384765625,-0.004256796557456255,-0.0009976201690733433,-0.025469940155744553
1690839624095733800,9.635733642578124,-0.004083957523107529,-0.0014359764754772186,-0.02202966809272766
1690839624105774800,9.64577490234375,-0.004030427895486355,-0.0004135889175813645,-0.01998702436685562
1690839624115846000,9.655845947265625,-0.0036759611684828997,-0.0005049353349022567,-0.017614413052797318
1690839624125886000,9.665885986328124,-0.003991545643657446,0.00010652644414221868,-0.019100457429885864
1690839624135926000,9.675926025390625,-0.004844822455197573,-0.0011523497523739934,-0.015484684146940708
1690839624145966000,9.685966064453124,-0.00512685114517808,-0.0019832560792565346,-0.014436463825404644
1690839624156007200,9.696007080078125,-0.003683684393763542,-0.0024852619972079992,-0.01649135909974575
1690839624166047000,9.706046875,-0.0054269894026219845,-0.004120975267142057,-0.016657806932926178
1690839624176086800,9.716086669921875,-0.0041611893102526665,-0.003808320267125964,-0.019636817276477814
1690839624186128000,9.7261279296875,-0.0044136568903923035,-0.00276169809512794,-0.02039928175508976
1690839624196168000,9.73616796875,-0.004237355664372444,-0.00006151902198325843,-0.022792929783463478
1690839624206208000,9.7462080078125,-0.004120443016290665,-0.0018109495285898447,-0.023682959377765656
1690839624216248000,9.756248046875,-0.005268265027552843,-0.0011888351291418076,-0.023550333455204964
1690839624226289200,9.7662890625,-0.0049825082533061504,-0.0028061727061867714,-0.024892566725611687
1690839624236329000,9.776328857421875,-0.005736981518566608,-0.003686613868921995,-0.02400333620607853
1690839624246368800,9.78636865234375,-0.004505536053329706,-0.002734267385676503,-0.019999274984002113
1690839624256409900,9.796409912109375,-0.005459214095026255,-0.003740143496543169,-0.01986371912062168
1690839624266450000,9.806449951171874,-0.004179564770311117,-0.0044349622912704945,-0.01703783869743347
1690839624276521000,9.81652099609375,-0.004806739278137684,-0.0028210864402353764,-0.017545171082019806
1690839624286561000,9.82656103515625,-0.004798217210918665,-0.0011779161868616939,-0.017104418948292732
1690839624296601000,9.83660107421875,-0.004370247479528189,-0.002079662401229143,-0.015622635371983051
1690839624306641000,9.846640869140625,-0.004151069093495607,-0.0006295712664723396,-0.018080467358231544
1690839624316682000,9.856681884765624,-0.006758836563676596,-0.0010516822803765535,-0.01902242749929428
1690839624326721800,9.8667216796875,-0.004942560568451881,-0.0027414578944444656,-0.018743593245744705
1690839624336761900,9.876761962890624,-0.003579288488253951,-0.004878644831478596,-0.020262394100427628
1690839624346803000,9.886802978515625,-0.005518602207303047,-0.002427737694233656,-0.022011825814843178
1690839624356843000,9.896843017578124,-0.004999818746000528,-0.0034373418893665075,-0.023070165887475014
1690839624366883000,9.906883056640625,-0.005465338937938213,0.0011547466274350882,-0.022401979193091393
1690839624376923000,9.9169228515625,-0.005332713946700096,0.00011930961773032323,-0.0205185916274786
1690839624386964000,9.9269638671875,-0.0034639735240489244,-0.0008516788948327303,-0.01986611634492874
1690839624397003800,9.937003662109374,-0.0037236318457871675,-0.0007994809420779347,-0.019353458657860756
1690839624407043800,9.9470439453125,-0.005401423200964928,-0.0024892566725611687,-0.02166694588959217
1690839624417085000,9.9570849609375,-0.005389172583818436,-0.003585413796827197,-0.021743644028902054
1690839624427155000,9.967155029296874,-0.004878378473222256,-0.00236328924074769,-0.02051379717886448
1690839624437196000,9.977196044921875,-0.0046639940701425076,-0.0022799321450293064,-0.0197441428899765
1690839624447236000,9.987236083984374,-0.003936418332159519,-0.0009038768475875258,-0.02153538540005684
1690839624457276000,9.99727587890625,-0.005242965184152126,-0.003078880487009883,-0.019538281485438347
1690839624467317000,10.00731689453125,-0.005396896041929722,-0.0036735644098371267,-0.021588383242487907
1690839624477356800,10.017356689453125,-0.005256014876067638,-0.0009566074586473405,-0.022936208173632622
1690839624487396900,10.02739697265625,-0.003404052462428808,-0.0006844323943369091,-0.020303674042224884
1690839624497437000,10.03743701171875,-0.004573446698486805,-0.0014109427575021982,-0.019481023773550987
1690839624507478000,10.04747802734375,-0.004308462142944336,-0.0012090750969946384,-0.02142805978655815
1690839624517518000,10.05751806640625,-0.004605404566973448,-0.0016761935548856854,-0.01925758458673954
1690839624527558000,10.067557861328124,-0.005686647724360228,-0.00242187874391675,-0.01900884509086609
1690839624537599000,10.077598876953125,-0.005675995256751776,-0.002127865795046091,-0.019882362335920334
1690839624547638800,10.087638671875,-0.005274390336126089,-0.0036629117093980312,-0.01864772103726864
1690839624557678800,10.097678955078125,-0.005655222572386265,-0.004723116289824247,-0.023732226341962814
1690839624567719000,10.107718994140624,-0.004938299767673016,-0.0023379891645163298,-0.02105921320617199
1690839624577790000,10.1177900390625,-0.005708219483494759,-0.0011022823164239526,-0.02106933295726776
1690839624587829800,10.127829833984375,-0.004894091282039881,-0.0031531827989965677,-0.022778550162911415
1690839624597871000,10.13787109375,-0.0026322684716433287,-0.003963849041610956,-0.022371351718902588
1690839624607911000,10.147910888671875,-0.0046482812613248825,-0.0027196200098842382,-0.019847208634018898
1690839624617951000,10.157950927734374,-0.004424842074513435,-0.0011403656098991632,-0.020667728036642075
1690839624627991800,10.16799169921875,-0.0032349417451769114,-0.002507898723706603,-0.01882615126669407
1690839624638032000,10.178031982421874,-0.005579588934779167,-0.00166607357095927,-0.0178809966892004
1690839624648072000,10.188072021484375,-0.003846936160698533,-0.0011696603614836931,-0.019526563584804535
1690839624658112000,10.198112060546874,-0.0054216631688177586,-0.0019084211671724916,-0.01979740709066391
1690839624668153000,10.208153076171875,-0.006705040577799082,-0.0022423816844820976,-0.01913188211619854
1690839624678193000,10.21819287109375,-0.006642988882958889,-0.002008556155487895,-0.01894412934780121
1690839624688233000,10.22823291015625,-0.004006992094218731,0.0016421051695942879,-0.021088507026433945
1690839624698259000,10.238259033203125,-0.003922836389392614,-0.0031611721497029066,-0.01901310496032238
1690839624708299000,10.248299072265626,-0.0044115264900028706,-0.002662894781678915,-0.021643243730068207
1690839624718339000,10.258339111328125,-0.004276504274457693,-0.0006317017832770944,-0.02269519306719303
1690839624728379100,10.268379150390626,-0.004241084214299917,-0.0013100089272484183,-0.02197001315653324
1690839624738450200,10.2784501953125,-0.0044288369826972485,-0.0017366473330184817,-0.021704230457544327
1690839624748490000,10.288489990234375,-0.0031875374261289835,-0.0020610203500837088,-0.021677598357200623
1690839624758531000,10.298531005859376,-0.004063184838742018,-0.0024983114562928677,-0.021160412579774857
1690839624768571000,10.30857080078125,-0.004554538056254387,-0.001648230361752212,-0.019028551876544952
1690839624778611000,10.31861083984375,-0.004050667863339186,-0.0031907332595437765,-0.02113058604300022
1690839624788652000,10.328652099609375,-0.003078347770497203,-0.0010673949727788568,-0.019532155245542526
1690839624798692000,10.338692138671876,-0.00532499048858881,-0.0006929545197635889,-0.01920432038605213
1690839624808732200,10.348732177734375,-0.004142280668020248,-0.0020413128659129143,-0.02009275183081627
1690839624818772000,10.35877197265625,-0.0051654670387506485,-0.0009376989910379052,-0.018627479672431946
1690839624828813000,10.36881298828125,-0.0049438923597335815,-0.0029859361238777637,-0.019813917577266693
1690839624838852900,10.378852783203126,-0.004823783412575722,-0.0026498453225940466,-0.020850153639912605
1690839624848893000,10.388892822265625,-0.005335377063602209,-0.0015941682504490018,-0.02135775238275528
1690839624858934000,10.39893408203125,-0.0030985879711806774,-0.0038128476589918137,-0.02003815583884716
1690839624868974000,10.40897412109375,-0.005092762876302004,-0.0026221484877169132,-0.02269492670893669
1690839624879014000,10.419013916015626,-0.005788912996649742,-0.0017590179340913892,-0.020966799929738045
1690839624889085000,10.4290849609375,-0.0026991136837750673,-0.001734250457957387,-0.021377727389335632
1690839624899125000,10.439125,-0.003915912006050348,-0.002439721953123808,-0.021505292505025864
1690839624909166000,10.449166015625,-0.004751878324896097,-0.002001631772145629,-0.01914120465517044
1690839624919206000,10.459205810546875,-0.005608084611594677,-0.0033566481433808804,-0.02063923142850399
1690839624929246000,10.469245849609376,-0.003870105603709817,-0.0036788906436413527,-0.019401393830776215
1690839624939286000,10.4792861328125,-0.004505269695073366,-0.0005869606975466013,-0.01877395436167717
1690839624949327000,10.4893271484375,-0.004501008428633213,-0.001998968655243516,-0.01944054290652275
1690839624959367000,10.499366943359375,-0.0032810145057737827,-0.002234924817457795,-0.021327925845980644
1690839624969407000,10.509406982421876,-0.0036637107841670513,-0.0013078784104436636,-0.018184330314397812
1690839624979448000,10.519447998046875,-0.004028031136840582,-0.00112465291749686,-0.01974361017346382
1690839624989487900,10.52948779296875,-0.006155364215373993,-0.0009677927591837943,-0.01967756450176239
1690839624999528000,10.53952783203125,-0.0036671727430075407,-0.0009289105655625463,-0.020965470001101494
1690839625009568000,10.549568115234376,-0.004911135416477919,-0.0008844357798807323,-0.021047761663794518
1690839625019609000,10.559609130859375,-0.004971056245267391,-0.003709783311933279,-0.02149304188787937
1690839625029649000,10.56964892578125,-0.004156128969043493,0.0014202637830749154,-0.019716979935765266
1690839625039720000,10.579719970703126,-0.004505802411586046,-0.0022426480427384377,-0.02099236659705639
1690839625049760000,10.589760009765625,-0.005124188028275967,-0.0049135321751236916,-0.01877129077911377
1690839625059799800,10.5997998046875,-0.0040978058241307735,-0.0011014834744855762,-0.018805911764502525
1690839625069841000,10.6098408203125,-0.004456533584743738,-0.0021872541401535273,-0.02009035460650921
1690839625079881000,10.619880859375,-0.005037369206547737,-0.004728442523628473,-0.02184777520596981
1690839625089921000,10.629921142578125,-0.005206213798373938,-0.003478354774415493,-0.017830928787589073
1690839625099961000,10.639961181640626,-0.003403786104172468,-0.0022365227341651917,-0.02046852372586727
1690839625110002000,10.650001953125,-0.0054610781371593475,-0.003691940102726221,-0.02076147124171257
1690839625120042000,10.6600419921875,-0.004933239426463842,-0.0022538332268595695,-0.02022457867860794
1690839625130081800,10.670081787109375,-0.004863198380917311,-0.002781671704724431,-0.021085843443870544
1690839625140123000,10.680122802734376,-0.004822718445211649,-0.0030506509356200695,-0.020189424976706505
1690839625150163000,10.690162841796875,-0.0036879454273730516,-0.001976065570488572,-0.022960443049669266
1690839625160203000,10.700203125,-0.0036972665693610907,-0.0030391993932425976,-0.020241621881723404
1690839625170243000,10.7102431640625,-0.0046181874349713326,-0.002061553066596389,-0.021694643422961235
1690839625180284000,10.720283935546876,-0.004190484061837196,-0.0009590042755007744,-0.019361713901162148
1690839625190324000,10.730323974609375,-0.0036940707359462976,-0.0019867182709276676,-0.02052018791437149
1690839625200394800,10.740394775390625,-0.00541473925113678,-0.00039547940832562745,-0.020805679261684418
1690839625210434800,10.750434814453126,-0.005226986017078161,-0.0037092508282512426,-0.02046905644237995
1690839625220475000,10.760474853515625,-0.0057194046676158905,-0.003766508772969246,-0.02021712064743042
1690839625230516000,10.770515869140626,-0.004457332659512758,0.000016777914424892515,-0.021809425204992294
1690839625240556000,10.78055615234375,-0.005113269202411175,-0.002379534300416708,-0.020235763862729073
1690839625250596000,10.79059619140625,-0.005682386923581362,-0.002201369032263756,-0.020865334197878838
1690839625260636200,10.80063623046875,-0.0032144354190677404,-0.0022972426377236843,-0.01950552500784397
1690839625270677000,10.810677001953126,-0.003947070799767971,0.0006016080733388662,-0.018097510561347008
1690839625280716800,10.820716796875,-0.005468801129609346,-0.003433080855756998,-0.017536915838718414
1690839625290756900,10.8307568359375,-0.005146558862179518,-0.0018639464396983385,-0.021569473668932915
1690839625300798000,10.8407978515625,-0.004055195488035679,-0.0009574064170010388,-0.022648854181170464
1690839625310838000,10.850838134765626,-0.00472418125718832,-0.00264771468937397,-0.022656576707959175
1690839625320878000,10.860878173828125,-0.0054610781371593475,-0.003781156148761511,-0.019877035170793533
1690839625330918100,10.870918212890626,-0.003069559345021844,0.00018189390539191663,-0.01992044411599636
1690839625340959000,10.880958984375,-0.004779309034347534,-0.002198972040787339,-0.02129916287958622
1690839625351029800,10.89102978515625,-0.005257079843431711,-0.00373055599629879,-0.0214227344840765
1690839625361069800,10.90106982421875,-0.003991545643657446,-0.00344533147290349,-0.020840033888816833
1690839625371110000,10.91110986328125,-0.00449727987870574,-0.0018429075134918094,-0.019292738288640976
1690839625381150000,10.92114990234375,-0.004424309358000755,-0.003721501212567091,-0.020420586690306664
1690839625391191000,10.93119091796875,-0.005319397896528244,-0.0010783139150589705,-0.018605908378958702
1690839625401231000,10.941231201171876,-0.005298092495650053,-0.002609098795801401,-0.018018415197730064
1690839625411271200,10.951271240234375,-0.0055090151727199554,-0.003038134193047881,-0.018912438303232193
1690839625421312000,10.96131201171875,-0.004965463653206825,0.0003808320325333625,-0.01799657754600048
1690839625431351800,10.971351806640625,-0.006500776391476393,-0.003096990054473281,-0.02177773416042328
1690839625441391900,10.981391845703126,-0.005273858085274696,0.00006524744821945205,-0.020919131115078926
1690839625451432000,10.991431884765625,-0.006091182120144367,-0.0020096213556826115,-0.022423017770051956
1690839625461473000,11.00147314453125,-0.005167065188288689,-0.001862614881247282,-0.02244671992957592
1690839625471513000,11.01151318359375,-0.004742024466395378,-0.0006138586322776973,-0.020081300288438797
1690839625481553200,11.02155322265625,-0.004701278172433376,-0.0037060549948364496,-0.021388113498687744
1690839625491594000,11.031593994140625,-0.00464694993570447,-0.001651426195167005,-0.020478643476963043
1690839625501664000,11.0416640625,-0.005001150071620941,-0.0023278691805899143,-0.019406454637646675
1690839625511704800,11.051704833984376,-0.004038151353597641,-0.0015038870042189956,-0.0201587975025177
1690839625521745000,11.061744873046875,-0.005540440324693918,-0.003067162586376071,-0.019413378089666367
1690839625531785000,11.071784912109376,-0.006007825024425983,-0.0027387947775423527,-0.02052578143775463
1690839625541825000,11.081824951171875,-0.004830441437661648,-0.002805373864248395,-0.020804347470402718
1690839625551866000,11.0918662109375,-0.002867958042770624,-0.0015494271647185087,-0.018926020711660385
1690839625561906200,11.10190625,-0.004595550708472729,0.00070520507870242,-0.020367855206131935
1690839625571946000,11.111946044921876,-0.005366802215576172,-0.002180063631385565,-0.019704995676875114
1690839625581986800,11.12198681640625,-0.005555087700486183,-0.0016679377295076847,-0.019940951839089394
1690839625592027000,11.13202685546875,-0.0028013791888952255,-0.0011486213188618422,-0.020119914785027504
1690839625602067000,11.14206689453125,-0.0037470676470547915,-0.002956641372293234,-0.0221449825912714
1690839625612107000,11.15210693359375,-0.0046639940701425076,0.0002657834847923368,-0.021826468408107758
1690839625622148000,11.162148193359375,-0.00475560687482357,-0.003314037574455142,-0.02213299833238125
1690839625632188200,11.172188232421876,-0.005607019178569317,-0.0025750105269253254,-0.022969763725996017
1690839625642228000,11.18222802734375,-0.004739094991236925,-0.00039840888348408043,-0.019121229648590088
1690839625652299000,11.192299072265625,-0.0037611823063343763,-0.0022567627020180225,-0.02034015953540802
1690839625662339000,11.202339111328126,-0.003686081152409315,-0.0020959076937288046,-0.018497783690690994
1690839625672380000,11.2123798828125,-0.004421646241098642,-0.004228833597153425,-0.02160436101257801
1690839625682420000,11.222419921875,-0.004954012110829353,-0.0009097357979044318,-0.018879681825637817
1690839625692460000,11.2324599609375,-0.0049068741500377655,-0.0003837615076918155,-0.01938514970242977
1690839625702513200,11.24251318359375,-0.005277586169540882,-0.004001665860414505,-0.020389428362250328
1690839625712554200,11.25255419921875,-0.004256263840943575,-0.0018855180824175477,-0.020494090393185616
1690839625722594300,11.26259423828125,-0.004996356554329395,-0.0010934938909485936,-0.02130688726902008
1690839625732634400,11.27263427734375,-0.005318598821759224,-0.0025297366082668304,-0.01985493116080761
1690839625742675200,11.28267529296875,-0.004298608284443617,-0.0024136228021234274,-0.019596604630351067
1690839625752715300,11.29271533203125,-0.004034156445413828,-0.0020516992080956697,-0.021032048389315605
1690839625762755300,11.30275537109375,-0.006476807873696089,-0.003108707955107093,-0.021574800834059715
1690839625772795400,11.31279541015625,-0.0055031562224030495,-0.001071123406291008,-0.021091969683766365
1690839625782836500,11.32283642578125,-0.005686647724360228,-0.0008439557277597487,-0.021856296807527542
1690839625792876300,11.332876220703126,-0.004031759686768055,-0.0008285093936137855,-0.019626963883638382
1690839625802916400,11.342916259765625,-0.005449892953038216,0.0002692455891519785,-0.02039928175508976
1690839625812987400,11.3529873046875,-0.005037369206547737,-0.00013209278404247016,-0.017704429104924202
1690839625823027500,11.36302734375,-0.00430127140134573,-0.0001270327775273472,-0.017591243609786034
1690839625833068300,11.373068359375,-0.006448311731219292,-0.003168096300214529,-0.021746840327978134
1690839625843108400,11.3831083984375,-0.004953745752573013,-0.004375040996819735,-0.01997077837586403
1690839625853148200,11.393148193359375,-0.004171841777861118,-0.000511593243572861,-0.019753998145461082
1690839625863189200,11.403189208984376,-0.004453337751328945,-0.0015899071004241705,-0.01882455311715603
1690839625873229300,11.413229248046875,-0.004089017398655415,-0.0016919062472879887,-0.021936191245913506
1690839625883269400,11.423269287109376,-0.0051934304647147655,-0.0010932276491075754,-0.023369504138827324
1690839625893309400,11.433309326171875,-0.004051200579851866,-0.0025869945529848337,-0.021438445895910263
1690839625903350300,11.443350341796876,-0.005675196181982756,-0.0013313142117112875,-0.020288759842514992
1690839625913390300,11.453390380859375,-0.006614493206143379,-0.00039867521263659,-0.021022727712988853
1690839625923430100,11.46343017578125,-0.004614192992448807,-0.0010367685463279486,-0.020385432988405228
1690839625933471200,11.47347119140625,-0.004347078036516905,0.004975051153451204,-0.017858892679214478
1690839625943511300,11.48351123046875,-0.0049313753843307495,-0.0034493261482566595,-0.019027220085263252
1690839625953551400,11.49355126953125,-0.003762780223041773,-0.001386707997880876,-0.016872722655534744
1690839625963622400,11.503622314453125,-0.0038607846945524216,-0.002671683207154274,-0.017499364912509918
1690839625973662500,11.513662353515626,-0.003430950455367565,-0.0027358653023838997,-0.01876862719655037
1690839625983702500,11.52370263671875,-0.004009122494608164,-0.003568103304132819,-0.02009514905512333
1690839625993743400,11.533743408203126,-0.003919906914234161,-0.0019347865600138903,-0.02233273535966873
1690839626003783200,11.543783203125,-0.006313289515674114,-0.000987766426987946,-0.021018199622631073
1690839626013823200,11.5538232421875,-0.004316451493650675,-0.0020700751338154078,-0.02213672734797001
1690839626023864300,11.5638642578125,-0.005636580288410187,-0.0020037624053657055,-0.02112259529531002
1690839626033904400,11.573904296875,-0.003861317178234458,-0.0014194648247212172,-0.022959643974900246
1690839626043944400,11.5839443359375,-0.00478277076035738,0.0007795072160661221,-0.02135322615504265
1690839626053984500,11.593984619140626,-0.0044173854403197765,-0.0014269216917455196,-0.018400046974420547
1690839626064025300,11.604025390625,-0.005050951149314642,-0.002231728984043002,-0.019122028723359108
1690839626074065200,11.614065185546876,-0.006478671915829182,-0.00347435986623168,-0.021799305453896523
1690839626084105200,11.624105224609375,-0.005401955917477608,-0.0016937704058364034,-0.01974174752831459
1690839626094146300,11.634146240234376,-0.005173723213374615,-0.0024791366886347532,-0.01739070750772953
1690839626104186400,11.644186279296875,-0.004896754398941994,-0.0012474246323108673,-0.018787270411849022
1690839626114257400,11.65425732421875,-0.004590490832924843,-0.0003712446487043053,-0.018197113648056984
1690839626124297500,11.66429736328125,-0.006129798013716936,-0.0035175031516700983,-0.020544689148664474
1690839626134337500,11.674337646484375,-0.005709550809115171,-0.0007965514669194818,-0.021283185109496117
1690839626144378400,11.68437841796875,-0.006521814968436956,-0.0027318706270307302,-0.02057291939854622
1690839626154418200,11.694418212890625,-0.004823783412575722,-0.002028529765084386,-0.020252007991075516
1690839626164458200,11.704458251953126,-0.004845621529966593,-0.002689792774617672,-0.018988871946930885
1690839626174498300,11.714498291015625,-0.006690126843750477,-0.0016674051294103265,-0.019395535811781883
1690839626184539400,11.724539306640626,-0.00427250936627388,-0.0005986785981804132,-0.01918701082468033
1690839626194579500,11.734579345703125,-0.003765976056456566,-0.0013321131700649858,-0.020019780844449997
1690839626204619500,11.74461962890625,-0.005228317808359861,-0.0021640846971422434,-0.021802766248583794
1690839626214659300,11.754659423828125,-0.00498144282028079,-0.0009510148083791137,-0.02002776972949505
