time,seconds_elapsed,z,y,x
1690840505313373400,0.03237353515625,-0.9930267333984375,-0.0101776123046875,0.0037994384765625
1690840505323380700,0.042380615234375,-0.9960479736328125,-0.0160369873046875,0.0075225830078125
1690840505333389800,0.052389892578125,-0.995361328125,-0.018096923828125,0.0098724365234375
1690840505343430700,0.0624306640625,-0.9918060302734375,-0.0167083740234375,0.009246826171875
1690840505353500700,0.072500732421875,-0.9877471923828125,-0.0105743408203125,0.004852294921875
1690840505363541500,0.08254150390625,-0.984893798828125,-0.0014190673828125,0.001861572265625
1690840505373581600,0.09258154296875,-0.9776458740234375,0.0092926025390625,0.0000457763671875
1690840505383621600,0.10262158203125,-0.9724578857421875,0.020111083984375,-0.001739501953125
1690840505393662700,0.112662841796875,-0.9697113037109375,0.028900146484375,-0.0007476806640625
1690840505403702800,0.122702880859375,-0.9679107666015625,0.0352935791015625,0.0016021728515625
1690840505413742600,0.13274267578125,-0.96624755859375,0.0394134521484375,0.002471923828125
1690840505423782700,0.14278271484375,-0.9660186767578125,0.04266357421875,0.002227783203125
1690840505433823500,0.152823486328125,-0.966949462890625,0.042755126953125,0.00152587890625
1690840505443863600,0.162863525390625,-0.96624755859375,0.0410919189453125,0.00042724609375
1690840505453903600,0.172903564453125,-0.9677734375,0.036376953125,-0.00048828125
1690840505463944700,0.18294482421875,-0.968353271484375,0.031158447265625,-0.001983642578125
1690840505473984800,0.19298486328125,-0.9718017578125,0.0244293212890625,-0.0019683837890625
1690840505484024800,0.20302490234375,-0.975067138671875,0.01702880859375,-0.0015716552734375
1690840505494064600,0.213064697265625,-0.97857666015625,0.0083160400390625,0.00115966796875
1690840505504135700,0.2231357421875,-0.981597900390625,0.002655029296875,0.003753662109375
1690840505514176500,0.233176513671875,-0.982208251953125,-0.00244140625,0.0059661865234375
1690840505524216600,0.243216552734375,-0.9840240478515625,-0.0041046142578125,0.00634765625
1690840505534255400,0.25325537109375,-0.98419189453125,-0.002685546875,0.0055084228515625
1690840505544295400,0.26329541015625,-0.9818572998046875,0.000518798828125,0.0016632080078125
1690840505554336300,0.273336181640625,-0.9788970947265625,0.0059967041015625,-0.0002288818359375
1690840505564376300,0.283376220703125,-0.976776123046875,0.01348876953125,-0.000640869140625
1690840505574416100,0.293416015625,-0.9754638671875,0.0197296142578125,-0.000885009765625
1690840505584457200,0.303457275390625,-0.9729156494140625,0.0246124267578125,0.0010528564453125
1690840505594497300,0.313497314453125,-0.97076416015625,0.029022216796875,0.0015411376953125
1690840505604537300,0.323537353515625,-0.970672607421875,0.0317535400390625,0.0017547607421875
1690840505614577400,0.333577392578125,-0.97076416015625,0.0325469970703125,0.00164794921875
1690840505624618200,0.3436181640625,-0.9701080322265625,0.0321197509765625,0.0014495849609375
1690840505634658300,0.353658203125,-0.97186279296875,0.031463623046875,0.00152587890625
1690840505644698400,0.363698486328125,-0.9719085693359375,0.02813720703125,0.000732421875
1690840505654769200,0.37376904296875,-0.9736480712890625,0.02374267578125,-0.0005340576171875
1690840505664809200,0.383809326171875,-0.9755096435546875,0.018707275390625,0.000457763671875
1690840505674850300,0.393850341796875,-0.9766082763671875,0.0146331787109375,0.000946044921875
1690840505684890400,0.403890380859375,-0.9793853759765625,0.0104217529296875,0.0018157958984375
1690840505694930400,0.413930419921875,-0.98089599609375,0.0073394775390625,0.0030975341796875
1690840505704970200,0.42397021484375,-0.9810791015625,0.005706787109375,0.003814697265625
1690840505715011300,0.43401123046875,-0.981475830078125,0.005645751953125,0.0037689208984375
1690840505725051100,0.444051025390625,-0.9816436767578125,0.00762939453125,0.0030059814453125
1690840505735091200,0.45409130859375,-0.979644775390625,0.009918212890625,0.002410888671875
1690840505745132300,0.46413232421875,-0.9781341552734375,0.0137481689453125,0.0012969970703125
1690840505755172400,0.47417236328125,-0.9772491455078125,0.01824951171875,0.0000457763671875
1690840505765212400,0.48421240234375,-0.9741668701171875,0.0205230712890625,0.000335693359375
1690840505775252200,0.494252197265625,-0.9742279052734375,0.0237884521484375,0.0008697509765625
1690840505785293300,0.504293212890625,-0.9740447998046875,0.026702880859375,0.001220703125
1690840505795333400,0.51433349609375,-0.97259521484375,0.0267181396484375,0.001739501953125
1690840505805404200,0.524404052734375,-0.9733428955078125,0.0267791748046875,0.00146484375
1690840505815444200,0.5344443359375,-0.9737701416015625,0.0254974365234375,0.00128173828125
1690840505825484300,0.544484375,-0.974151611328125,0.0228424072265625,0.000244140625
1690840505835525400,0.554525390625,-0.9756927490234375,0.02056884765625,0.00091552734375
1690840505845565400,0.5645654296875,-0.977691650390625,0.0181884765625,0.0010528564453125
1690840505855605200,0.574605224609375,-0.979034423828125,0.0149078369140625,0.0017852783203125
1690840505865645000,0.58464501953125,-0.9799346923828125,0.0121612548828125,0.0020599365234375
1690840505875686100,0.59468603515625,-0.980010986328125,0.01129150390625,0.0015106201171875
1690840505885726200,0.604726318359375,-0.9798126220703125,0.0099639892578125,0.002349853515625
1690840505895766300,0.614766357421875,-0.9792938232421875,0.0108642578125,0.002471923828125
1690840505905807400,0.624807373046875,-0.97869873046875,0.012603759765625,0.0011138916015625
1690840505915847400,0.634847412109375,-0.97882080078125,0.0148773193359375,0.000823974609375
1690840505925887200,0.64488720703125,-0.9777374267578125,0.0169677734375,0.001220703125
1690840505935927000,0.654927001953125,-0.976348876953125,0.01824951171875,0.001068115234375
1690840505945968400,0.664968505859375,-0.97564697265625,0.0204925537109375,0.001068115234375
1690840505956039200,0.6750390625,-0.975494384765625,0.0220794677734375,0.00146484375
1690840505966079200,0.685079345703125,-0.9743499755859375,0.0227203369140625,0.0008544921875
1690840505976119300,0.695119384765625,-0.975494384765625,0.022613525390625,0.001129150390625
1690840505986159400,0.705159423828125,-0.9770050048828125,0.0220489501953125,0.0015869140625
1690840505996200400,0.715200439453125,-0.9767303466796875,0.021240234375,0.0008544921875
1690840506006240300,0.725240234375,-0.9765167236328125,0.0196380615234375,0.0006561279296875
1690840506016280000,0.735280029296875,-0.97772216796875,0.01715087890625,0.00103759765625
1690840506026321200,0.745321044921875,-0.978668212890625,0.0160369873046875,0.0029144287109375
1690840506036361200,0.755361328125,-0.979705810546875,0.0157012939453125,0.0020294189453125
1690840506046401300,0.7654013671875,-0.9803924560546875,0.01446533203125,0.00146484375
1690840506056441300,0.77544140625,-0.9783477783203125,0.013916015625,0.0014190673828125
1690840506066482400,0.785482421875,-0.9783477783203125,0.0147247314453125,0.0027923583984375
1690840506076522200,0.795522216796875,-0.979461669921875,0.014984130859375,0.0027618408203125
1690840506086562000,0.80556201171875,-0.9788665771484375,0.0162506103515625,0.0015106201171875
1690840506096603100,0.81560302734375,-0.9783172607421875,0.0174713134765625,0.0011444091796875
1690840506106673200,0.825673095703125,-0.9781951904296875,0.018035888671875,0.00054931640625
1690840506116714200,0.83571435546875,-0.9771575927734375,0.0189361572265625,0.001434326171875
1690840506126754300,0.84575439453125,-0.9781341552734375,0.0210723876953125,0.001434326171875
1690840506136794400,0.85579443359375,-0.97698974609375,0.0207977294921875,0.00140380859375
1690840506146834400,0.86583447265625,-0.976959228515625,0.0204315185546875,0.0020751953125
1690840506156875300,0.875875244140625,-0.9769134521484375,0.02032470703125,0.00152587890625
1690840506166915000,0.8859150390625,-0.9764251708984375,0.0190277099609375,0.001708984375
1690840506176955100,0.895955078125,-0.97674560546875,0.0182342529296875,0.0008697509765625
1690840506186996200,0.905996337890625,-0.9786834716796875,0.0177764892578125,0.00115966796875
1690840506197036300,0.916036376953125,-0.9796142578125,0.0172271728515625,0.0019073486328125
1690840506207076400,0.926076416015625,-0.979095458984375,0.0158843994140625,0.0019073486328125
1690840506217116400,0.936116455078125,-0.979217529296875,0.0161895751953125,0.00189208984375
1690840506227157200,0.9461572265625,-0.97955322265625,0.0156097412109375,0.0014801025390625
1690840506237197000,0.956197021484375,-0.9792938232421875,0.017120361328125,0.0010528564453125
1690840506247268000,0.96626806640625,-0.9790191650390625,0.0167236328125,0.0020751953125
1690840506257308200,0.97630810546875,-0.9791412353515625,0.017669677734375,0.0015411376953125
1690840506267348200,0.98634814453125,-0.9782257080078125,0.0185394287109375,0.00146484375
1690840506277389300,0.996389404296875,-0.978546142578125,0.0181121826171875,0.00115966796875
1690840506287429400,1.006429443359375,-0.977142333984375,0.018798828125,0.00140380859375
1690840506297469400,1.016469482421875,-0.977691650390625,0.0190277099609375,0.0010986328125
1690840506307509200,1.02650927734375,-0.97784423828125,0.019866943359375,0.0011444091796875
1690840506317550000,1.036550048828125,-0.9769287109375,0.0193634033203125,0.002044677734375
1690840506327590100,1.046590087890625,-0.9785919189453125,0.0189056396484375,0.001617431640625
1690840506337630200,1.056630126953125,-0.97802734375,0.0186767578125,0.0009765625
1690840506347671300,1.06667138671875,-0.978729248046875,0.0177764892578125,0.0023651123046875
1690840506357711400,1.07671142578125,-0.9804229736328125,0.0175628662109375,0.0020294189453125
1690840506367751400,1.08675146484375,-0.9790191650390625,0.0169677734375,0.0017242431640625
1690840506377791200,1.096791259765625,-0.97900390625,0.016845703125,0.001007080078125
1690840506387832000,1.10683203125,-0.979217529296875,0.0167694091796875,0.001495361328125
1690840506397903000,1.116903076171875,-0.9786529541015625,0.016998291015625,0.001556396484375
1690840506407943200,1.126943115234375,-0.9783935546875,0.01776123046875,0.0012664794921875
1690840506417983200,1.136983154296875,-0.97845458984375,0.0173797607421875,0.00140380859375
1690840506428023300,1.147023193359375,-0.979461669921875,0.017303466796875,0.0018310546875
1690840506438064400,1.157064453125,-0.97869873046875,0.0184326171875,0.0014190673828125
1690840506448104400,1.1671044921875,-0.9782562255859375,0.0189208984375,0.001373291015625
1690840506458144300,1.177144287109375,-0.9793243408203125,0.0191497802734375,0.0015869140625
1690840506468185000,1.18718505859375,-0.9792327880859375,0.0190277099609375,0.001953125
1690840506478225200,1.19722509765625,-0.97900390625,0.0187835693359375,0.001068115234375
1690840506488265200,1.20726513671875,-0.9787750244140625,0.0178680419921875,0.0009307861328125
1690840506498305300,1.21730517578125,-0.97894287109375,0.018096923828125,0.000823974609375
1690840506508346400,1.227346435546875,-0.9796905517578125,0.0174102783203125,0.00128173828125
1690840506518386400,1.237386474609375,-0.9797210693359375,0.0179595947265625,0.0011749267578125
1690840506528426200,1.24742626953125,-0.9794464111328125,0.0180206298828125,0.0016326904296875
1690840506538460200,1.257460205078125,-0.979644775390625,0.016845703125,0.0010223388671875
1690840506548530200,1.2675302734375,-0.980072021484375,0.0175628662109375,0.00103759765625
1690840506558571000,1.277571044921875,-0.9801483154296875,0.0174407958984375,0.0023345947265625
1690840506568611000,1.287611083984375,-0.9798736572265625,0.017425537109375,0.002227783203125
1690840506578651100,1.297651123046875,-0.981048583984375,0.017730712890625,0.00299072265625
1690840506588691200,1.307691162109375,-0.9789276123046875,0.017913818359375,0.0015106201171875
1690840506598732300,1.317732177734375,-0.9789581298828125,0.0184783935546875,0.001220703125
1690840506608772000,1.327772216796875,-0.9797210693359375,0.0181732177734375,0.00128173828125
1690840506618812200,1.337812255859375,-0.9805145263671875,0.0180206298828125,0.001556396484375
1690840506628853000,1.34785302734375,-0.979827880859375,0.0188751220703125,0.001190185546875
1690840506638893000,1.35789306640625,-0.9793853759765625,0.018280029296875,0.0012054443359375
1690840506648933000,1.36793310546875,-0.9789276123046875,0.017425537109375,0.001922607421875
1690840506658973200,1.37797314453125,-0.979095458984375,0.0179290771484375,0.0016632080078125
1690840506669014300,1.38801416015625,-0.9784698486328125,0.0174713134765625,0.000946044921875
1690840506679054300,1.398054443359375,-0.9785919189453125,0.0177001953125,0.0015869140625
1690840506689094100,1.40809423828125,-0.9797515869140625,0.017974853515625,0.00238037109375
1690840506699165200,1.418165283203125,-0.9793853759765625,0.0173492431640625,0.0016632080078125
1690840506709205200,1.428205322265625,-0.9810791015625,0.0173492431640625,0.00213623046875
1690840506719246000,1.43824609375,-0.9797821044921875,0.0167236328125,0.0016021728515625
1690840506729286100,1.4482861328125,-0.9788055419921875,0.0173187255859375,0.0018463134765625
1690840506739326200,1.458326171875,-0.9803619384765625,0.0174560546875,0.001739501953125
1690840506749366000,1.468365966796875,-0.97900390625,0.0179595947265625,0.0012664794921875
1690840506759407000,1.478406982421875,-0.9794921875,0.0181427001953125,0.0010528564453125
1690840506769447200,1.488447265625,-0.98040771484375,0.0181732177734375,0.0018310546875
1690840506779487200,1.4984873046875,-0.9801788330078125,0.0177154541015625,0.0019989013671875
1690840506789528000,1.508528076171875,-0.9803924560546875,0.018463134765625,0.0020751953125
1690840506799568100,1.518568115234375,-0.9795684814453125,0.017486572265625,0.0013580322265625
1690840506809608200,1.528608154296875,-0.980133056640625,0.017242431640625,0.001922607421875
1690840506819648300,1.538648193359375,-0.9804840087890625,0.01806640625,0.002288818359375
1690840506829689300,1.548689453125,-0.9799041748046875,0.01806640625,0.001220703125
1690840506839729200,1.558729248046875,-0.9803009033203125,0.0177154541015625,0.001220703125
1690840506849800200,1.56880029296875,-0.97943115234375,0.0173492431640625,0.002166748046875
1690840506859840300,1.57884033203125,-0.980560302734375,0.01708984375,0.001983642578125
1690840506869880300,1.58888037109375,-0.9805450439453125,0.017120361328125,0.0002593994140625
1690840506879921200,1.598921142578125,-0.98028564453125,0.018310546875,0.000762939453125
1690840506889961200,1.608961181640625,-0.980682373046875,0.018157958984375,0.001495361328125
1690840506900001000,1.6190009765625,-0.9793701171875,0.018035888671875,0.00164794921875
1690840506910042000,1.6290419921875,-0.9803466796875,0.017578125,0.001190185546875
1690840506920082200,1.639082275390625,-0.98040771484375,0.017303466796875,0.0019989013671875
1690840506930122200,1.649122314453125,-0.979400634765625,0.0185699462890625,0.0019683837890625
1690840506940162300,1.659162353515625,-0.9799041748046875,0.0184783935546875,0.0019989013671875
1690840506950203100,1.669203125,-0.9801177978515625,0.017364501953125,0.001953125
1690840506960243200,1.6792431640625,-0.9801025390625,0.0178985595703125,0.001922607421875
1690840506970283000,1.689282958984375,-0.9795379638671875,0.017974853515625,0.0011444091796875
1690840506980324000,1.699323974609375,-0.980255126953125,0.01763916015625,0.00091552734375
1690840506990364200,1.7093642578125,-0.9810791015625,0.017791748046875,0.0017242431640625
1690840507000435200,1.719435302734375,-0.979888916015625,0.0175323486328125,0.0016021728515625
1690840507010475300,1.729475341796875,-0.980560302734375,0.0179901123046875,0.0023345947265625
1690840507020515300,1.739515380859375,-0.980255126953125,0.0174407958984375,0.002105712890625
1690840507030555100,1.74955517578125,-0.9797515869140625,0.017486572265625,0.00213623046875
1690840507040596200,1.75959619140625,-0.9813690185546875,0.01849365234375,0.0014801025390625
1690840507050636000,1.769635986328125,-0.980682373046875,0.017913818359375,0.002105712890625
1690840507060676000,1.779676025390625,-0.980621337890625,0.01806640625,0.002655029296875
1690840507070717200,1.78971728515625,-0.9804534912109375,0.0185699462890625,0.001129150390625
1690840507080757200,1.79975732421875,-0.9808502197265625,0.0176239013671875,0.001190185546875
1690840507090797300,1.80979736328125,-0.9800872802734375,0.0180206298828125,0.0017242431640625
1690840507100837000,1.819837158203125,-0.9796905517578125,0.0183258056640625,0.0014495849609375
1690840507110878200,1.829878173828125,-0.979766845703125,0.017578125,0.00146484375
1690840507120918000,1.83991796875,-0.97991943359375,0.0181427001953125,0.0020751953125
1690840507130958000,1.8499580078125,-0.9804534912109375,0.0183563232421875,0.0018310546875
1690840507140999200,1.859999267578125,-0.979644775390625,0.017852783203125,0.002044677734375
1690840507151069200,1.870069091796875,-0.9796905517578125,0.0177764892578125,0.001983642578125
1690840507161110300,1.8801103515625,-0.9792938232421875,0.0180511474609375,0.0013427734375
1690840507171150000,1.890150146484375,-0.979888916015625,0.0182037353515625,0.001220703125
1690840507181190100,1.900190185546875,-0.980316162109375,0.0181121826171875,0.0018310546875
1690840507191231200,1.910231201171875,-0.9805755615234375,0.0179443359375,0.001220703125
1690840507201271000,1.92027099609375,-0.9801177978515625,0.0180206298828125,0.000396728515625
1690840507211311000,1.93031103515625,-0.98138427734375,0.0177001953125,0.00164794921875
1690840507221351200,1.94035107421875,-0.98150634765625,0.01739501953125,0.001739501953125
1690840507231392300,1.950392333984375,-0.9815673828125,0.018524169921875,0.0016632080078125
1690840507241432000,1.96043212890625,-0.981109619140625,0.0175323486328125,0.0024871826171875
1690840507251472100,1.97047216796875,-0.9802703857421875,0.0172882080078125,0.0019378662109375
1690840507261512000,1.980511962890625,-0.980316162109375,0.0171356201171875,0.00189208984375
1690840507271553000,1.990552978515625,-0.981109619140625,0.0176544189453125,0.001739501953125
1690840507281593000,2.000593017578125,-0.9808197021484375,0.017547607421875,0.0019989013671875
1690840507291664100,2.0106640625,-0.98095703125,0.017791748046875,0.0022125244140625
1690840507301704200,2.0207041015625,-0.98138427734375,0.0176544189453125,0.002105712890625
1690840507311744300,2.030744140625,-0.9807281494140625,0.01763916015625,0.00091552734375
1690840507321785000,2.04078515625,-0.9808502197265625,0.0178375244140625,0.0009307861328125
1690840507331825200,2.0508251953125,-0.9812469482421875,0.0175628662109375,0.0020599365234375
1690840507341865000,2.060864990234375,-0.981048583984375,0.0181884765625,0.0010223388671875
1690840507351906000,2.070906005859375,-0.97882080078125,0.0176239013671875,0.000518798828125
1690840507361946000,2.080946044921875,-0.9788360595703125,0.017913818359375,0.0012054443359375
1690840507371986200,2.090986083984375,-0.979766845703125,0.01806640625,0.0020904541015625
1690840507382026200,2.101026123046875,-0.9809417724609375,0.0174102783203125,0.0018768310546875
1690840507392067000,2.111067138671875,-0.9804229736328125,0.0180511474609375,0.0013580322265625
1690840507402107100,2.121107177734375,-0.9803466796875,0.017852783203125,0.002532958984375
1690840507412147000,2.13114697265625,-0.981048583984375,0.017303466796875,0.001495361328125
1690840507422188000,2.14118798828125,-0.9813690185546875,0.017425537109375,0.0012054443359375
1690840507432228000,2.15122802734375,-0.9813232421875,0.017578125,0.0016021728515625
1690840507442299100,2.161299072265625,-0.9809722900390625,0.01788330078125,0.0008392333984375
1690840507452339200,2.171339111328125,-0.98138427734375,0.01763916015625,0.00146484375
1690840507462379300,2.181379150390625,-0.981231689453125,0.0169677734375,0.0016326904296875
1690840507472419300,2.19141943359375,-0.9804840087890625,0.0175628662109375,0.0010833740234375
1690840507482460200,2.201460205078125,-0.9807891845703125,0.017364501953125,0.001190185546875
1690840507492500000,2.2115,-0.9815216064453125,0.01763916015625,0.0015106201171875
1690840507502540000,2.2215400390625,-0.981048583984375,0.01806640625,0.0008087158203125
1690840507512581000,2.2315810546875,-0.980560302734375,0.01751708984375,0.0011138916015625
1690840507522621200,2.24162109375,-0.9803466796875,0.0177001953125,0.0013275146484375
1690840507532643300,2.251643310546875,-0.98052978515625,0.01727294921875,0.000762939453125
1690840507542683400,2.261683349609375,-0.981201171875,0.017791748046875,0.0010833740234375
1690840507552724500,2.271724365234375,-0.9817352294921875,0.0182037353515625,0.0006866455078125
1690840507562764300,2.281764404296875,-0.98077392578125,0.017669677734375,0.001434326171875
1690840507572804000,2.29180419921875,-0.980255126953125,0.0174102783203125,0.0018463134765625
1690840507582845200,2.30184521484375,-0.9811248779296875,0.0180206298828125,0.00152587890625
1690840507592915200,2.311915283203125,-0.98040771484375,0.0179901123046875,0.0017242431640625
1690840507602956300,2.321956298828125,-0.980987548828125,0.0181884765625,0.0009613037109375
1690840507612996400,2.331996337890625,-0.9814910888671875,0.0184478759765625,0.0018768310546875
1690840507623036400,2.342036376953125,-0.9809722900390625,0.0179290771484375,0.0021820068359375
1690840507633077500,2.352077392578125,-0.98101806640625,0.01800537109375,0.00146484375
1690840507643117300,2.362117431640625,-0.980377197265625,0.0175628662109375,0.00152587890625
1690840507653157000,2.3721572265625,-0.9799346923828125,0.017486572265625,0.000946044921875
1690840507663197200,2.382197265625,-0.9810943603515625,0.017852783203125,0.0002288818359375
1690840507673238300,2.39223828125,-0.98052978515625,0.017669677734375,0.001373291015625
1690840507683278300,2.4022783203125,-0.9808197021484375,0.0176544189453125,0.00146484375
1690840507693318400,2.412318359375,-0.98077392578125,0.0178375244140625,0.0009765625
1690840507703359500,2.422359375,-0.9819793701171875,0.017822265625,0.0015716552734375
1690840507713399300,2.4323994140625,-0.98114013671875,0.0178985595703125,0.00189208984375
1690840507723439000,2.442439208984375,-0.9806671142578125,0.0183563232421875,0.00103759765625
1690840507733479200,2.452479248046875,-0.980499267578125,0.0173187255859375,0.001068115234375
1690840507743550200,2.46255029296875,-0.9806365966796875,0.01702880859375,0.001800537109375
1690840507753590300,2.47259033203125,-0.9806365966796875,0.01776123046875,0.0017242431640625
1690840507763631400,2.48263134765625,-0.9805908203125,0.0180816650390625,0.0013275146484375
1690840507773671400,2.49267138671875,-0.9813079833984375,0.0179290771484375,0.000885009765625
1690840507783711200,2.502711181640625,-0.9816741943359375,0.0178375244140625,0.0016937255859375
1690840507793752300,2.51275244140625,-0.9814453125,0.01751708984375,0.001312255859375
1690840507803792100,2.522792236328125,-0.980255126953125,0.01751708984375,0.0018157958984375
1690840507813832200,2.532832275390625,-0.9803619384765625,0.0174102783203125,0.0022735595703125
1690840507823872300,2.542872314453125,-0.9819183349609375,0.0174102783203125,0.002166748046875
1690840507833913300,2.552913330078125,-0.980621337890625,0.019012451171875,0.0012054443359375
1690840507843953400,2.562953369140625,-0.98052978515625,0.017974853515625,0.0016021728515625
1690840507853993200,2.5729931640625,-0.98089599609375,0.017486572265625,0.0015411376953125
1690840507864034000,2.583033935546875,-0.9810638427734375,0.0181427001953125,0.0018310546875
1690840507874074000,2.59307421875,-0.9822235107421875,0.017486572265625,0.001556396484375
1690840507884114200,2.6031142578125,-0.9810028076171875,0.0179443359375,0.0020904541015625
1690840507894185200,2.613185302734375,-0.9802398681640625,0.018402099609375,0.001983642578125
1690840507904225300,2.623225341796875,-0.981353759765625,0.0186309814453125,0.0015869140625
1690840507914265000,2.63326513671875,-0.980743408203125,0.01837158203125,0.0013580322265625
1690840507924306200,2.64330615234375,-0.9815521240234375,0.01739501953125,0.00079345703125
1690840507934346200,2.65334619140625,-0.9818572998046875,0.0181732177734375,0.001495361328125
1690840507944386300,2.66338623046875,-0.9810943603515625,0.0174407958984375,0.00140380859375
1690840507954427100,2.67342724609375,-0.9808349609375,0.01715087890625,0.0014190673828125
1690840507964467200,2.68346728515625,-0.98101806640625,0.0182342529296875,0.001708984375
1690840507974507300,2.69350732421875,-0.981842041015625,0.0185394287109375,0.0019073486328125
1690840507984547300,2.70354736328125,-0.98187255859375,0.0180511474609375,0.0019683837890625
1690840507994588400,2.71358837890625,-0.9810028076171875,0.0180816650390625,0.001129150390625
1690840508004628200,2.723628173828125,-0.98101806640625,0.0189056396484375,0.001861572265625
1690840508014668300,2.733668212890625,-0.980682373046875,0.017974853515625,0.0012664794921875
1690840508024709000,2.743709228515625,-0.9811248779296875,0.01763916015625,0.00146484375
1690840508034779400,2.753779296875,-0.981292724609375,0.0178985595703125,0.001739501953125
1690840508044820200,2.7638203125,-0.9815826416015625,0.01800537109375,0.001800537109375
1690840508054860300,2.7738603515625,-0.9810943603515625,0.01812744140625,0.00091552734375
1690840508064900000,2.783900146484375,-0.980621337890625,0.0173187255859375,0.0015411376953125
1690840508074941200,2.793941162109375,-0.9818115234375,0.017486572265625,0.0015106201171875
1690840508084981200,2.803981201171875,-0.981353759765625,0.0173797607421875,0.0011444091796875
1690840508095021300,2.814021240234375,-0.9808349609375,0.0178070068359375,0.001922607421875
1690840508105061400,2.824061279296875,-0.981597900390625,0.0184173583984375,0.0008697509765625
1690840508115102200,2.834102294921875,-0.9815521240234375,0.0184173583984375,0.0015106201171875
1690840508125142300,2.844142333984375,-0.9810638427734375,0.01788330078125,0.0011444091796875
1690840508135182300,2.854182373046875,-0.9813690185546875,0.0179290771484375,0.0014190673828125
1690840508145223400,2.864223388671875,-0.981231689453125,0.0179443359375,0.001922607421875
1690840508155263200,2.87426318359375,-0.9815521240234375,0.0181427001953125,0.002471923828125
1690840508165303300,2.88430322265625,-0.9811248779296875,0.018341064453125,0.00189208984375
1690840508175343400,2.89434326171875,-0.981903076171875,0.018463134765625,0.002105712890625
1690840508185414400,2.904414306640625,-0.9803314208984375,0.0179443359375,0.0019989013671875
1690840508195454500,2.914454345703125,-0.979461669921875,0.018341064453125,0.0022735595703125
1690840508205495300,2.924495361328125,-0.9808197021484375,0.0178070068359375,0.001800537109375
1690840508215535000,2.93453515625,-0.9821624755859375,0.017822265625,0.0011138916015625
1690840508225575200,2.9445751953125,-0.982025146484375,0.0181884765625,0.0014801025390625
1690840508235616300,2.9546162109375,-0.9819793701171875,0.0181121826171875,0.0017547607421875
1690840508245656300,2.96465625,-0.9810638427734375,0.0177764892578125,0.0012664794921875
1690840508255696400,2.9746962890625,-0.9808197021484375,0.0178680419921875,0.00128173828125
1690840508265736400,2.984736328125,-0.981353759765625,0.01727294921875,0.00115966796875
1690840508275777300,2.99477734375,-0.9817352294921875,0.017913818359375,0.0012054443359375
1690840508285817300,3.0048173828125,-0.980804443359375,0.0180511474609375,0.001251220703125
1690840508295857200,3.014857177734375,-0.9805908203125,0.017547607421875,0.0009765625
1690840508305898200,3.024898193359375,-0.98138427734375,0.01763916015625,0.000885009765625
1690840508315938300,3.034938232421875,-0.9813079833984375,0.018096923828125,0.0012054443359375
1690840508325978400,3.044978271484375,-0.9816131591796875,0.01800537109375,0.00250244140625
1690840508336049400,3.05504931640625,-0.9811553955078125,0.0175933837890625,0.0024871826171875
1690840508346089500,3.06508935546875,-0.9814300537109375,0.01727294921875,0.002105712890625
1690840508356130300,3.07513037109375,-0.981719970703125,0.017425537109375,0.00213623046875
1690840508366170000,3.085170166015625,-0.9810638427734375,0.01708984375,0.0013580322265625
1690840508376210200,3.095210205078125,-0.9809417724609375,0.0173492431640625,0.0013885498046875
1690840508386250200,3.105250244140625,-0.98095703125,0.0180816650390625,0.0022430419921875
1690840508396291300,3.115291259765625,-0.9804229736328125,0.017242431640625,0.000640869140625
1690840508406331400,3.125331298828125,-0.981536865234375,0.017425537109375,0.0009307861328125
1690840508416371500,3.135371337890625,-0.9805908203125,0.017608642578125,0.0014495849609375
1690840508426411300,3.145411376953125,-0.9814300537109375,0.017852783203125,0.001190185546875
1690840508436452400,3.155452392578125,-0.9813995361328125,0.017425537109375,0.002410888671875
1690840508446492200,3.1654921875,-0.9808197021484375,0.0178375244140625,0.0016326904296875
1690840508456532200,3.1755322265625,-0.98077392578125,0.017486572265625,0.00146484375
1690840508466573300,3.1855732421875,-0.98114013671875,0.0177154541015625,0.0016937255859375
1690840508476613400,3.19561328125,-0.981658935546875,0.0187835693359375,0.0014801025390625
1690840508486684400,3.205684326171875,-0.98077392578125,0.018402099609375,0.0012054443359375
1690840508496724500,3.215724365234375,-0.98065185546875,0.0190582275390625,0.00128173828125
1690840508506764300,3.225764404296875,-0.980865478515625,0.017852783203125,0.001739501953125
1690840508516805000,3.23580517578125,-0.9807586669921875,0.0177459716796875,0.001312255859375
1690840508526845200,3.24584521484375,-0.980255126953125,0.017608642578125,0.00128173828125
1690840508536871400,3.255871337890625,-0.98126220703125,0.0180816650390625,0.001556396484375
1690840508546911500,3.265911376953125,-0.9815826416015625,0.0182952880859375,0.00201416015625
1690840508556952600,3.27595263671875,-0.9810333251953125,0.01873779296875,0.0016937255859375
1690840508566992600,3.28599267578125,-0.9807586669921875,0.0181427001953125,0.001373291015625
1690840508577032400,3.296032470703125,-0.9813995361328125,0.0174560546875,0.001434326171875
1690840508587073300,3.3060732421875,-0.9818267822265625,0.017608642578125,0.0012969970703125
1690840508597113300,3.31611328125,-0.981658935546875,0.0181732177734375,0.001617431640625
1690840508607153400,3.3261533203125,-0.9817657470703125,0.0179901123046875,0.0012969970703125
1690840508617193500,3.336193359375,-0.9816741943359375,0.0179443359375,0.001953125
1690840508627264500,3.346264404296875,-0.9803314208984375,0.0169830322265625,0.0017852783203125
1690840508637304600,3.3563046875,-0.98052978515625,0.0176849365234375,0.0011138916015625
1690840508647345700,3.366345703125,-0.9814300537109375,0.0182342529296875,0.0021209716796875
1690840508657385500,3.376385498046875,-0.9807586669921875,0.01788330078125,0.00201416015625
1690840508667425300,3.38642529296875,-0.980804443359375,0.018402099609375,0.00225830078125
1690840508677466400,3.39646630859375,-0.9818115234375,0.018218994140625,0.0023193359375
1690840508687506400,3.40650634765625,-0.9813995361328125,0.018280029296875,0.00177001953125
1690840508697546500,3.41654638671875,-0.9817962646484375,0.018402099609375,0.001434326171875
1690840508707586600,3.426586669921875,-0.98114013671875,0.0178985595703125,0.0019989013671875
1690840508717627600,3.436627685546875,-0.981170654296875,0.017425537109375,0.001739501953125
1690840508727667500,3.44666748046875,-0.981231689453125,0.0176849365234375,0.001312255859375
1690840508737707300,3.456707275390625,-0.9808197021484375,0.01788330078125,0.001251220703125
1690840508747748400,3.466748291015625,-0.9806671142578125,0.0176544189453125,0.000946044921875
1690840508757788400,3.476788330078125,-0.9805450439453125,0.01806640625,0.001495361328125
1690840508767828500,3.486828369140625,-0.980987548828125,0.018463134765625,0.0020294189453125
1690840508777899500,3.4968994140625,-0.981536865234375,0.0177154541015625,0.0010986328125
1690840508787939600,3.506939697265625,-0.9813079833984375,0.0180206298828125,0.0020294189453125
1690840508797980700,3.516980712890625,-0.9810333251953125,0.01776123046875,0.00213623046875
1690840508808020500,3.5270205078125,-0.9817352294921875,0.0169830322265625,0.001739501953125
1690840508818060300,3.537060302734375,-0.9818115234375,0.01690673828125,0.0011749267578125
1690840508828100400,3.547100341796875,-0.981353759765625,0.017364501953125,0.001007080078125
1690840508838141400,3.557141357421875,-0.9808807373046875,0.017791748046875,0.001495361328125
1690840508848181500,3.567181396484375,-0.981048583984375,0.016998291015625,0.0019378662109375
1690840508858221600,3.5772216796875,-0.981689453125,0.017547607421875,0.0020599365234375
1690840508868262700,3.5872626953125,-0.98138427734375,0.01824951171875,0.00140380859375
1690840508878302200,3.59730224609375,-0.9821014404296875,0.0175018310546875,0.001678466796875
1690840508888342300,3.60734228515625,-0.981353759765625,0.018798828125,0.0015411376953125
1690840508898382300,3.61738232421875,-0.981292724609375,0.0180816650390625,0.0020751953125
1690840508908423400,3.62742333984375,-0.9807586669921875,0.017333984375,0.001983642578125
1690840508918463500,3.63746337890625,-0.9807281494140625,0.0173492431640625,0.0024261474609375
1690840508928534500,3.647534423828125,-0.981353759765625,0.01806640625,0.0017547607421875
1690840508938574600,3.65757470703125,-0.9818572998046875,0.017913818359375,0.0014495849609375
1690840508948614400,3.667614501953125,-0.9809722900390625,0.017242431640625,0.0023040771484375
1690840508958655200,3.6776552734375,-0.980804443359375,0.0176544189453125,0.0017852783203125
1690840508968695300,3.6876953125,-0.981353759765625,0.0177459716796875,0.0011749267578125
1690840508978735400,3.6977353515625,-0.980865478515625,0.017852783203125,0.0017852783203125
1690840508988775400,3.707775390625,-0.9815673828125,0.0174407958984375,0.001800537109375
1690840508998816500,3.71781640625,-0.9815826416015625,0.0179901123046875,0.0015106201171875
1690840509008856600,3.727856689453125,-0.981292724609375,0.0181121826171875,0.001190185546875
1690840509018896400,3.737896484375,-0.981414794921875,0.017669677734375,0.0012359619140625
1690840509028937200,3.747937255859375,-0.9817352294921875,0.01861572265625,0.001983642578125
1690840509038977300,3.757977294921875,-0.981292724609375,0.0176849365234375,0.001800537109375
1690840509049017300,3.768017333984375,-0.9808502197265625,0.017730712890625,0.0007476806640625
1690840509059057400,3.778057373046875,-0.981658935546875,0.0182037353515625,0.0013275146484375
1690840509069098500,3.788098388671875,-0.9827728271484375,0.0179443359375,0.001312255859375
1690840509079168300,3.798168212890625,-0.98236083984375,0.017913818359375,0.00128173828125
1690840509089209600,3.808209716796875,-0.981964111328125,0.017852783203125,0.0013427734375
1690840509099249400,3.81824951171875,-0.9813232421875,0.017059326171875,0.00152587890625
1690840509109289500,3.82828955078125,-0.9814605712890625,0.0179290771484375,0.0010833740234375
1690840509119330300,3.838330322265625,-0.9813079833984375,0.01824951171875,0.0016021728515625
1690840509129370400,3.848370361328125,-0.981536865234375,0.0178375244140625,0.0012359619140625
1690840509139410400,3.858410400390625,-0.9813232421875,0.0177459716796875,0.0013580322265625
1690840509149450500,3.868450439453125,-0.98101806640625,0.017791748046875,0.001617431640625
1690840509159491600,3.87849169921875,-0.9817657470703125,0.017547607421875,0.000946044921875
1690840509169531400,3.888531494140625,-0.981964111328125,0.017547607421875,0.001800537109375
1690840509179571500,3.898571533203125,-0.9817352294921875,0.0177154541015625,0.0018310546875
1690840509189612300,3.9086123046875,-0.9815826416015625,0.0178680419921875,0.001617431640625
1690840509199652400,3.91865234375,-0.9809722900390625,0.018218994140625,0.0021514892578125
1690840509209692400,3.9286923828125,-0.9810333251953125,0.01873779296875,0.0019073486328125
1690840509219763500,3.938763427734375,-0.9814300537109375,0.017303466796875,0.00146484375
1690840509229803300,3.94880322265625,-0.98114013671875,0.0181732177734375,0.0020904541015625
1690840509239844400,3.95884423828125,-0.980621337890625,0.0181884765625,0.001220703125
1690840509249884400,3.968884521484375,-0.9802703857421875,0.0174407958984375,0.002471923828125
1690840509259924500,3.978924560546875,-0.98077392578125,0.017974853515625,0.0014801025390625
1690840509269964500,3.988964599609375,-0.98162841796875,0.0179290771484375,0.002349853515625
1690840509280005400,3.99900537109375,-0.9807891845703125,0.0183868408203125,0.0019989013671875
1690840509290045400,4.00904541015625,-0.980926513671875,0.0180511474609375,0.001922607421875
1690840509300085500,4.01908544921875,-0.9813232421875,0.0176544189453125,0.0009002685546875
1690840509310126600,4.029126708984375,-0.98126220703125,0.017730712890625,0.001129150390625
1690840509320166400,4.03916650390625,-0.9816741943359375,0.017120361328125,0.00177001953125
1690840509330206500,4.04920654296875,-0.982147216796875,0.0173187255859375,0.00128173828125
1690840509340246500,4.05924658203125,-0.981231689453125,0.017181396484375,0.000732421875
1690840509350287400,4.069287353515625,-0.981170654296875,0.0181732177734375,0.00146484375
1690840509360327400,4.079327392578125,-0.980804443359375,0.017120361328125,0.001220703125
1690840509370398500,4.0893984375,-0.981292724609375,0.0178985595703125,0.0017242431640625
1690840509380438300,4.099438232421875,-0.9814910888671875,0.018157958984375,0.0018463134765625
1690840509390478300,4.109478271484375,-0.9816131591796875,0.018585205078125,0.0008087158203125
1690840509400519400,4.11951953125,-0.980316162109375,0.018341064453125,0.001129150390625
1690840509410559500,4.1295595703125,-0.980194091796875,0.0176544189453125,0.0012969970703125
1690840509420599600,4.139599609375,-0.9809722900390625,0.017669677734375,0.001251220703125
1690840509430639600,4.1496396484375,-0.9813995361328125,0.0175933837890625,0.001861572265625
1690840509440680400,4.159680419921875,-0.9818267822265625,0.0179901123046875,0.0021209716796875
1690840509450720500,4.169720458984375,-0.9812164306640625,0.0181732177734375,0.0012054443359375
1690840509460760300,4.17976025390625,-0.9816741943359375,0.0178070068359375,0.0018463134765625
1690840509470801400,4.189801513671875,-0.9805755615234375,0.0177764892578125,0.001434326171875
1690840509480841500,4.199841552734375,-0.980560302734375,0.017303466796875,0.001190185546875
1690840509490881500,4.209881591796875,-0.9816436767578125,0.01824951171875,0.0016021728515625
1690840509500921600,4.219921630859375,-0.9813079833984375,0.0184173583984375,0.0017547607421875
1690840509510962400,4.22996240234375,-0.9815826416015625,0.01812744140625,0.0008087158203125
1690840509521032400,4.240032470703125,-0.981231689453125,0.017364501953125,0.0015411376953125
1690840509531073300,4.2500732421875,-0.981353759765625,0.0176544189453125,0.000701904296875
1690840509541122800,4.260122802734375,-0.982086181640625,0.0180511474609375,0.0020294189453125
1690840509551163000,4.270162841796875,-0.981689453125,0.017669677734375,0.001678466796875
1690840509561204000,4.280203857421875,-0.981719970703125,0.01824951171875,0.001678466796875
1690840509571244000,4.290244140625,-0.98089599609375,0.0179595947265625,0.001312255859375
1690840509581284000,4.3002841796875,-0.9819183349609375,0.0181884765625,0.0019378662109375
1690840509591324200,4.31032421875,-0.98199462890625,0.0177764892578125,0.0012664794921875
1690840509601365000,4.320364990234375,-0.981536865234375,0.018524169921875,0.001373291015625
1690840509611405000,4.330405029296875,-0.981903076171875,0.018310546875,0.001739501953125
1690840509621444900,4.34044482421875,-0.9815216064453125,0.0177154541015625,0.0019683837890625
1690840509631486000,4.35048583984375,-0.981231689453125,0.0171661376953125,0.0020294189453125
1690840509641526000,4.360526123046875,-0.9816436767578125,0.017120361328125,0.0021209716796875
1690840509651566000,4.370566162109375,-0.9814300537109375,0.0175628662109375,0.001861572265625
1690840509661637000,4.38063720703125,-0.98114013671875,0.0182037353515625,0.0015869140625
1690840509671677200,4.39067724609375,-0.981201171875,0.0184326171875,0.00146484375
1690840509681718000,4.400718017578125,-0.9824066162109375,0.0181121826171875,0.0015411376953125
1690840509691757800,4.4107578125,-0.982940673828125,0.0174713134765625,0.0017242431640625
1690840509701798000,4.4207978515625,-0.98095703125,0.01806640625,0.0017852783203125
1690840509711838000,4.430837890625,-0.980499267578125,0.01788330078125,0.0019378662109375
1690840509721879000,4.440879150390625,-0.9815216064453125,0.0177764892578125,0.0013885498046875
1690840509731919000,4.450919189453125,-0.9815673828125,0.0178375244140625,0.001373291015625
1690840509741959200,4.460959228515625,-0.9816741943359375,0.0185394287109375,0.00115966796875
1690840509752000000,4.471,-0.9814605712890625,0.0183563232421875,0.0018157958984375
1690840509762040000,4.4810400390625,-0.9810943603515625,0.0175323486328125,0.00189208984375
1690840509772079900,4.491079833984375,-0.981658935546875,0.0173797607421875,0.0009918212890625
1690840509782120000,4.501119873046875,-0.9823455810546875,0.0174560546875,0.00128173828125
1690840509792161000,4.5111611328125,-0.982421875,0.017791748046875,0.001434326171875
1690840509802201000,4.521201171875,-0.9818267822265625,0.01806640625,0.001495361328125
1690840509812272000,4.531272216796875,-0.98150634765625,0.017669677734375,0.0011444091796875
1690840509822312200,4.541312255859375,-0.9816741943359375,0.017608642578125,0.0009307861328125
1690840509832352000,4.55135205078125,-0.9810638427734375,0.017425537109375,0.00115966796875
1690840509842392800,4.561392822265625,-0.9818115234375,0.0175323486328125,0.001953125
1690840509852433000,4.571432861328125,-0.981170654296875,0.017852783203125,0.0018310546875
1690840509862473000,4.581472900390625,-0.9811248779296875,0.0181121826171875,0.000762939453125
1690840509872513000,4.591512939453125,-0.9846954345703125,-0.01678466796875,-0.04071044921875
1690840509882554000,4.60155419921875,-1.0281982421875,-0.020355224609375,0.010833740234375
1690840509892594200,4.61159423828125,-0.9805908203125,0.0775909423828125,0.103240966796875
1690840509902634000,4.621634033203125,-0.9726715087890625,0.0207977294921875,-0.044952392578125
1690840509912674800,4.6316748046875,-0.9781494140625,0.0214996337890625,0.006011962890625
1690840509922715000,4.64171484375,-0.9568328857421875,0.026580810546875,-0.0130157470703125
1690840509932755000,4.6517548828125,-0.9926605224609375,0.0366668701171875,-0.010101318359375
1690840509942795000,4.661794921875,-0.958221435546875,0.03533935546875,-0.0238037109375
1690840509952836000,4.671836181640625,-0.9771575927734375,0.032867431640625,-0.004608154296875
1690840509962907100,4.6819072265625,-0.980499267578125,0.029449462890625,0.0019683837890625
1690840509972947200,4.691947265625,-0.9821624755859375,0.0218658447265625,0.0125885009765625
1690840509982987000,4.701987060546875,-0.9883880615234375,0.015594482421875,0.016937255859375
1690840509993027000,4.712027099609375,-0.9878997802734375,0.010833740234375,0.0152587890625
1690840510003068000,4.72206787109375,-0.9917449951171875,0.006988525390625,0.0098724365234375
1690840510013108000,4.73210791015625,-0.980712890625,0.003509521484375,0.0002899169921875
1690840510023148000,4.74214794921875,-0.9882354736328125,0.003997802734375,-0.00634765625
1690840510033188000,4.75218798828125,-0.98040771484375,0.00579833984375,-0.0095977783203125
1690840510043229200,4.762229248046875,-0.9833984375,0.0100555419921875,-0.007598876953125
1690840510053269000,4.77226904296875,-0.9815826416015625,0.014556884765625,-0.0014801025390625
1690840510063309000,4.78230908203125,-0.9834747314453125,0.0181427001953125,0.0042877197265625
1690840510073350000,4.792349853515625,-0.9836273193359375,0.0217437744140625,0.008544921875
1690840510083390000,4.802389892578125,-0.98028564453125,0.024566650390625,0.009490966796875
1690840510093430000,4.812429931640625,-0.9808807373046875,0.02685546875,0.00689697265625
1690840510103470000,4.822469970703125,-0.9791259765625,0.0278778076171875,0.0023193359375
1690840510113541000,4.832541015625,-0.9768829345703125,0.0285491943359375,-0.0010833740234375
1690840510123582200,4.842582275390625,-0.9757537841796875,0.0267791748046875,-0.003570556640625
1690840510133622000,4.8526220703125,-0.9784698486328125,0.0254058837890625,-0.004486083984375
1690840510143662000,4.862662109375,-0.9766693115234375,0.022674560546875,-0.00274658203125
1690840510153702100,4.8727021484375,-0.982452392578125,0.019256591796875,0.00177001953125
1690840510163743000,4.882742919921875,-0.98309326171875,0.0162506103515625,0.004486083984375
1690840510173783000,4.892782958984375,-0.983673095703125,0.0147552490234375,0.00628662109375
1690840510183823000,4.902822998046875,-0.9862518310546875,0.01220703125,0.0059967041015625
1690840510193864200,4.9128642578125,-0.98486328125,0.011260986328125,0.0052642822265625
1690840510203904000,4.922904052734375,-0.98468017578125,0.0107421875,0.00189208984375
1690840510213944000,4.932944091796875,-0.9824371337890625,0.011505126953125,-0.000518798828125
1690840510223984000,4.942984130859375,-0.98052978515625,0.0125885009765625,-0.0006866455078125
1690840510234025000,4.95302490234375,-0.9811859130859375,0.016204833984375,-0.0009307861328125
1690840510244065000,4.96306494140625,-0.9806060791015625,0.0183563232421875,0.0003509521484375
1690840510254136000,4.973135986328125,-0.98193359375,0.0207672119140625,0.0029296875
1690840510264176000,4.983176025390625,-0.982086181640625,0.022308349609375,0.004425048828125
1690840510274216000,4.9932158203125,-0.9794158935546875,0.0234832763671875,0.0049285888671875
1690840510284257000,5.003257080078125,-0.9792022705078125,0.0243988037109375,0.00323486328125
1690840510294297000,5.013297119140625,-0.9796142578125,0.0240325927734375,0.00054931640625
1690840510304337200,5.023337158203125,-0.9783477783203125,0.0219879150390625,-0.000396728515625
1690840510314377000,5.033376953125,-0.9802703857421875,0.02044677734375,-0.0016937255859375
1690840510324418000,5.04341796875,-0.9799652099609375,0.0199737548828125,-0.0001373291015625
1690840510334458000,5.0534580078125,-0.9813995361328125,0.018402099609375,0.0010223388671875
1690840510344498000,5.063497802734375,-0.98236083984375,0.0169677734375,0.002777099609375
1690840510354539000,5.0735390625,-0.98248291015625,0.014892578125,0.00384521484375
1690840510364579000,5.0835791015625,-0.9832611083984375,0.0143280029296875,0.0043182373046875
1690840510374619000,5.093618896484375,-0.9832916259765625,0.0146942138671875,0.003265380859375
1690840510384659000,5.103658935546875,-0.9821624755859375,0.014556884765625,0.0016326904296875
1690840510394700000,5.113699951171875,-0.9816741943359375,0.0157623291015625,0.000457763671875
1690840510404771000,5.12377099609375,-0.98095703125,0.0164794921875,0.0001983642578125
1690840510414811100,5.13381103515625,-0.98095703125,0.0184326171875,-0.000274658203125
1690840510424851000,5.143850830078125,-0.981201171875,0.01953125,0.001312255859375
1690840510434891000,5.15389111328125,-0.9803924560546875,0.020294189453125,0.001556396484375
1690840510444932000,5.16393212890625,-0.9812469482421875,0.021759033203125,0.0019683837890625
1690840510454972000,5.173971923828125,-0.9810791015625,0.0216522216796875,0.0033721923828125
1690840510465012000,5.184011962890625,-0.9796142578125,0.0205230712890625,0.002593994140625
1690840510475053000,5.194052978515625,-0.981231689453125,0.02178955078125,0.0017852783203125
1690840510485093000,5.204093017578125,-0.9808807373046875,0.0202789306640625,0.00189208984375
1690840510495133000,5.2141328125,-0.9804534912109375,0.0193939208984375,0.00103759765625
1690840510505173000,5.224173095703125,-0.9813232421875,0.0195770263671875,0.0005340576171875
1690840510515214000,5.234214111328125,-0.9818878173828125,0.0177459716796875,0.0012969970703125
1690840510525254000,5.24425390625,-0.982208251953125,0.0165863037109375,0.0024261474609375
1690840510535262000,5.254261962890625,-0.9824066162109375,0.0167236328125,0.001953125
1690840510545302000,5.264302001953125,-0.9825439453125,0.0162353515625,0.0028076171875
1690840510555373000,5.274373046875,-0.98272705078125,0.0166473388671875,0.002166748046875
1690840510565414000,5.284413818359375,-0.9819183349609375,0.0167694091796875,0.00164794921875
1690840510575454000,5.294453857421875,-0.981964111328125,0.0166473388671875,0.001617431640625
1690840510585494000,5.304493896484375,-0.98150634765625,0.0177154541015625,0.000946044921875
1690840510595533800,5.314533935546875,-0.98028564453125,0.0192718505859375,0.0011444091796875
1690840510605575000,5.324574951171875,-0.9804534912109375,0.0204315185546875,0.0008087158203125
1690840510615615000,5.334614990234375,-0.9810028076171875,0.0199432373046875,0.0012664794921875
1690840510625655000,5.344655029296875,-0.9810638427734375,0.0194549560546875,0.00189208984375
1690840510635695900,5.35469580078125,-0.982025146484375,0.020660400390625,0.002166748046875
1690840510645736000,5.36473583984375,-0.980712890625,0.0204010009765625,0.0022125244140625
1690840510655776000,5.37477587890625,-0.9823150634765625,0.0193328857421875,0.001708984375
1690840510665815800,5.38481591796875,-0.9814453125,0.0193634033203125,0.00115966796875
1690840510675857000,5.39485693359375,-0.9809417724609375,0.01849365234375,0.001129150390625
1690840510685897000,5.40489697265625,-0.980865478515625,0.0178680419921875,0.0010528564453125
1690840510695968000,5.414968017578125,-0.9817047119140625,0.0176544189453125,0.001739501953125
1690840510706008000,5.425008056640625,-0.982757568359375,0.0174560546875,0.0026092529296875
1690840510716048100,5.435048095703125,-0.98199462890625,0.017181396484375,0.0027923583984375
1690840510726089000,5.4450888671875,-0.9820098876953125,0.016754150390625,0.0018463134765625
1690840510736129000,5.45512890625,-0.9812164306640625,0.0175018310546875,0.0024566650390625
1690840510746168800,5.4651689453125,-0.9809417724609375,0.0178375244140625,0.001495361328125
1690840510756209000,5.475208984375,-0.981201171875,0.01849365234375,0.00146484375
1690840510766250000,5.48525,-0.9808807373046875,0.0187835693359375,0.0011749267578125
1690840510776290000,5.4952900390625,-0.980712890625,0.018402099609375,0.002044677734375
1690840510786330000,5.505330078125,-0.981475830078125,0.0190277099609375,0.0015411376953125
1690840510796371000,5.515370849609375,-0.981719970703125,0.0197601318359375,0.0012969970703125
1690840510806411000,5.525410888671875,-0.9814910888671875,0.0190887451171875,0.0018463134765625
1690840510816450800,5.535450927734375,-0.98126220703125,0.019683837890625,0.00262451171875
1690840510826491000,5.545490966796875,-0.9815216064453125,0.019439697265625,0.001556396484375
1690840510836532000,5.555531982421875,-0.981658935546875,0.01849365234375,0.001312255859375
1690840510846603000,5.56560302734375,-0.9816741943359375,0.0186614990234375,0.001739501953125
1690840510856643000,5.57564306640625,-0.9812164306640625,0.01776123046875,0.0022430419921875
1690840510866683000,5.585682861328125,-0.982177734375,0.01751708984375,0.0022735595703125
1690840510876723000,5.595722900390625,-0.981170654296875,0.0178070068359375,0.0018157958984375
1690840510886764000,5.605763916015625,-0.9809722900390625,0.017486572265625,0.0015716552734375
1690840510896803800,5.615803955078125,-0.9814300537109375,0.0176239013671875,0.002349853515625
1690840510906844000,5.625843994140625,-0.9813995361328125,0.0177154541015625,0.0020599365234375
1690840510916885000,5.635885009765625,-0.981689453125,0.01873779296875,0.00164794921875
1690840510926925000,5.645925048828125,-0.981719970703125,0.018157958984375,0.00164794921875
1690840510936964900,5.65596484375,-0.98138427734375,0.018463134765625,0.0020751953125
1690840510947005000,5.6660048828125,-0.9805755615234375,0.0187225341796875,0.0018157958984375
1690840510957046000,5.6760458984375,-0.980987548828125,0.0191192626953125,0.0020751953125
1690840510967085800,5.6860859375,-0.98162841796875,0.0187530517578125,0.0016937255859375
1690840510977126000,5.6961259765625,-0.98138427734375,0.018707275390625,0.0014801025390625
1690840510987167000,5.7061669921875,-0.981689453125,0.01971435546875,0.0020599365234375
1690840510997237000,5.716237060546875,-0.981781005859375,0.019012451171875,0.0023345947265625
1690840511007278000,5.726278076171875,-0.980804443359375,0.018341064453125,0.002288818359375
1690840511017318000,5.73631787109375,-0.98089599609375,0.01873779296875,0.0016326904296875
1690840511027358000,5.74635791015625,-0.9821014404296875,0.0183258056640625,0.0020294189453125
1690840511037397800,5.756397705078125,-0.981964111328125,0.0186614990234375,0.0016937255859375
1690840511047438800,5.76643896484375,-0.982574462890625,0.0182037353515625,0.000946044921875
1690840511057479000,5.77647900390625,-0.9815826416015625,0.0177764892578125,0.00140380859375
1690840511067519000,5.78651904296875,-0.981842041015625,0.0194549560546875,0.00201416015625
1690840511077560000,5.79656005859375,-0.98223876953125,0.01873779296875,0.0021209716796875
1690840511087599900,5.806599853515625,-0.9825592041015625,0.018341064453125,0.0022125244140625
1690840511097640000,5.816639892578125,-0.9808502197265625,0.018768310546875,0.0012359619140625
1690840511107679700,5.8266796875,-0.9825897216796875,0.01837158203125,0.001129150390625
1690840511117720800,5.836720947265625,-0.9788360595703125,0.018890380859375,0.0008087158203125
1690840511127761000,5.846760986328125,-0.9827117919921875,0.018402099609375,0.001678466796875
1690840511137801000,5.856801025390625,-0.9810333251953125,0.01885986328125,0.0015869140625
1690840511147872000,5.8668720703125,-0.981109619140625,0.019134521484375,0.0018768310546875
1690840511157912000,5.876912109375,-0.9816436767578125,0.018646240234375,0.002044677734375
1690840511167953000,5.886952880859375,-0.9810333251953125,0.0191497802734375,0.0011749267578125
1690840511177992700,5.89699267578125,-0.981719970703125,0.018402099609375,0.00213623046875
1690840511188032800,5.90703271484375,-0.9822235107421875,0.018402099609375,0.001800537109375
1690840511198072800,5.91707275390625,-0.9794769287109375,0.0177764892578125,0.001922607421875
1690840511208114000,5.927114013671875,-0.9847412109375,0.0173187255859375,0.0023345947265625
1690840511218154000,5.937154052734375,-0.980987548828125,0.0177001953125,0.00177001953125
1690840511228194000,5.947194091796875,-0.9811248779296875,0.01898193359375,0.0010833740234375
1690840511238235000,5.95723486328125,-0.9823150634765625,0.018463134765625,0.0008392333984375
1690840511248275000,5.96727490234375,-0.9801177978515625,0.0186767578125,0.0012054443359375
1690840511258314800,5.977314697265625,-0.9813995361328125,0.0201263427734375,0.0022735595703125
1690840511268354800,5.987354736328125,-0.9811553955078125,0.019744873046875,0.001953125
1690840511278396000,5.99739599609375,-0.9806365966796875,0.0189666748046875,0.0019683837890625
1690840511288467000,6.007467041015625,-0.9810028076171875,0.019805908203125,0.0021514892578125
1690840511298507000,6.017507080078125,-0.9804534912109375,0.0191192626953125,0.001922607421875
1690840511308547000,6.027547119140625,-0.9806365966796875,0.0184478759765625,0.002471923828125
1690840511318587000,6.0375869140625,-0.983428955078125,0.0180816650390625,0.0014495849609375
1690840511328627700,6.047627685546875,-0.98089599609375,0.01812744140625,0.0018310546875
1690840511338667800,6.057667724609375,-0.9821929931640625,0.01837158203125,0.001678466796875
1690840511348707800,6.067707763671875,-0.9828033447265625,0.0188140869140625,0.0013427734375
1690840511358749000,6.0777490234375,-0.981201171875,0.01837158203125,0.0018768310546875
1690840511368789000,6.0877890625,-0.98309326171875,0.0184783935546875,0.001556396484375
1690840511378829000,6.0978291015625,-0.98248291015625,0.018829345703125,0.0018768310546875
1690840511388869000,6.107869140625,-0.9815216064453125,0.0180206298828125,0.002044677734375
1690840511398910000,6.117909912109375,-0.9813079833984375,0.019256591796875,0.001495361328125
1690840511408949800,6.12794970703125,-0.9811859130859375,0.018218994140625,0.0015411376953125
1690840511418989800,6.13798974609375,-0.98187255859375,0.017852783203125,0.0014190673828125
1690840511429031000,6.148031005859375,-0.980621337890625,0.0193634033203125,0.0012054443359375
1690840511439101000,6.158100830078125,-0.98101806640625,0.018646240234375,0.00164794921875
1690840511449142000,6.16814208984375,-0.9824981689453125,0.01849365234375,0.00164794921875
1690840511459182000,6.17818212890625,-0.9819488525390625,0.0189208984375,0.0013275146484375
1690840511469222000,6.188221923828125,-0.982269287109375,0.0187225341796875,0.001129150390625
1690840511479262000,6.198261962890625,-0.9816131591796875,0.01812744140625,0.0009613037109375
1690840511489302800,6.208302734375,-0.9813232421875,0.0186767578125,0.001861572265625
1690840511499342800,6.2183427734375,-0.9822540283203125,0.018218994140625,0.00103759765625
1690840511509383000,6.2283828125,-0.9813385009765625,0.018646240234375,0.001708984375
1690840511519424000,6.238424072265625,-0.9802703857421875,0.018280029296875,0.001220703125
1690840511529464000,6.248464111328125,-0.9828338623046875,0.0177001953125,0.001922607421875
1690840511539516000,6.258515869140625,-0.98236083984375,0.0186614990234375,0.0021820068359375
1690840511549555700,6.2685556640625,-0.9819183349609375,0.0176544189453125,0.002105712890625
1690840511559597000,6.27859716796875,-0.982177734375,0.01788330078125,0.0018310546875
1690840511569636900,6.288636962890625,-0.9818267822265625,0.01849365234375,0.0014801025390625
1690840511579677000,6.298677001953125,-0.9814300537109375,0.01885986328125,0.001495361328125
1690840511589748000,6.308748046875,-0.98175048828125,0.018341064453125,0.0011749267578125
1690840511599788000,6.3187880859375,-0.98211669921875,0.0182952880859375,0.0005950927734375
1690840511609828900,6.328828857421875,-0.98016357421875,0.0187530517578125,0.0006561279296875
1690840511619869000,6.338868896484375,-0.9808197021484375,0.01885986328125,0.0023040771484375
1690840511629908700,6.34890869140625,-0.980987548828125,0.0191192626953125,0.002471923828125
1690840511639948800,6.35894873046875,-0.9807891845703125,0.01873779296875,0.0019378662109375
1690840511649990000,6.368989990234375,-0.9810943603515625,0.017913818359375,0.0025634765625
1690840511660030000,6.379030029296875,-0.9821319580078125,0.018707275390625,0.002471923828125
1690840511670070000,6.389070068359375,-0.9813385009765625,0.0191192626953125,0.0021820068359375
1690840511680110800,6.39911083984375,-0.9816131591796875,0.0189971923828125,0.0015869140625
1690840511690151000,6.40915087890625,-0.982147216796875,0.0191650390625,0.00048828125
1690840511700190700,6.419190673828125,-0.9814300537109375,0.01953125,0.001251220703125
1690840511710230800,6.429230712890625,-0.9814453125,0.0190582275390625,0.0011138916015625
1690840511720272000,6.43927197265625,-0.9811248779296875,0.019012451171875,0.000823974609375
1690840511730343000,6.449343017578125,-0.980499267578125,0.0187225341796875,0.001190185546875
1690840511740383000,6.459383056640625,-0.9817657470703125,0.0185394287109375,0.002685546875
1690840511750423000,6.469423095703125,-0.981536865234375,0.01861572265625,0.003509521484375
1690840511760463000,6.479463134765625,-0.9817962646484375,0.018951416015625,0.002288818359375
1690840511770504000,6.48950390625,-0.9822845458984375,0.019073486328125,0.0019378662109375
1690840511780543700,6.499543701171875,-0.9822845458984375,0.0190582275390625,0.0017242431640625
1690840511790583800,6.509583740234375,-0.9814453125,0.01837158203125,0.0019073486328125
1690840511800625000,6.519625,-0.981964111328125,0.0176849365234375,0.0009765625
1690840511810665000,6.5296650390625,-0.9810791015625,0.01885986328125,0.001251220703125
1690840511820705000,6.539705078125,-0.981689453125,0.0185546875,0.0009307861328125
1690840511830745000,6.5497451171875,-0.981231689453125,0.0178985595703125,0.0012359619140625
1690840511840786000,6.559785888671875,-0.9817352294921875,0.0186920166015625,0.0018157958984375
1690840511850825700,6.56982568359375,-0.983367919921875,0.0189666748046875,0.0017852783203125
1690840511860865800,6.57986572265625,-0.981475830078125,0.018768310546875,0.0022125244140625
1690840511870907000,6.589906982421875,-0.9817047119140625,0.0179595947265625,0.001678466796875
1690840511880977000,6.599976806640625,-0.981689453125,0.0182342529296875,0.0019989013671875
1690840511891018000,6.61001806640625,-0.981536865234375,0.0178985595703125,0.0024566650390625
1690840511901058000,6.62005810546875,-0.9819793701171875,0.0190582275390625,0.001373291015625
1690840511911098000,6.63009814453125,-0.98236083984375,0.0178375244140625,0.0006561279296875
1690840511921138000,6.640137939453125,-0.980560302734375,0.0187530517578125,0.0008544921875
1690840511931178800,6.6501787109375,-0.9815673828125,0.01861572265625,0.0010223388671875
1690840511941218800,6.66021875,-0.9815216064453125,0.017974853515625,0.001739501953125
1690840511951259000,6.6702587890625,-0.98162841796875,0.019256591796875,0.001983642578125
1690840511961300000,6.680300048828125,-0.9811859130859375,0.01947021484375,0.002227783203125
1690840511971340000,6.690340087890625,-0.9804534912109375,0.0188140869140625,0.0021209716796875
1690840511981380000,6.700380126953125,-0.9813232421875,0.017486572265625,0.002532958984375
1690840511991420000,6.710419921875,-0.9812164306640625,0.01727294921875,0.0018768310546875
1690840512001460700,6.720460693359375,-0.9813385009765625,0.01800537109375,0.0018768310546875
1690840512011500800,6.730500732421875,-0.982391357421875,0.018096923828125,0.0011138916015625
1690840512021540900,6.740540771484375,-0.9817657470703125,0.018157958984375,0.0016632080078125
1690840512031612000,6.75061181640625,-0.9815216064453125,0.018157958984375,0.0011444091796875
1690840512041652000,6.76065185546875,-0.9811553955078125,0.018096923828125,0.0011138916015625
1690840512051693000,6.770693115234375,-0.9820098876953125,0.019012451171875,0.0017852783203125
1690840512061733000,6.780733154296875,-0.9820404052734375,0.018524169921875,0.001861572265625
1690840512071773000,6.79077294921875,-0.9822845458984375,0.0187835693359375,0.002227783203125
1690840512081813800,6.800813720703125,-0.9812469482421875,0.019134521484375,0.0022430419921875
1690840512091853800,6.810853759765625,-0.9819183349609375,0.019439697265625,0.0025787353515625
1690840512101894000,6.820893798828125,-0.9818572998046875,0.0185089111328125,0.0020294189453125
1690840512111934000,6.830933837890625,-0.981536865234375,0.017913818359375,0.00213623046875
1690840512121975000,6.84097509765625,-0.9820098876953125,0.0187835693359375,0.0016021728515625
1690840512132015000,6.85101513671875,-0.9810638427734375,0.0190887451171875,0.000885009765625
1690840512142055000,6.861054931640625,-0.981048583984375,0.0182952880859375,0.001739501953125
1690840512152094700,6.8710947265625,-0.98126220703125,0.019134521484375,0.0010223388671875
1690840512162135800,6.8811357421875,-0.981414794921875,0.018951416015625,0.0014190673828125
1690840512172176000,6.89117578125,-0.981689453125,0.01806640625,0.0025177001953125
1690840512182247000,6.901246826171875,-0.98248291015625,0.0183563232421875,0.002471923828125
1690840512192287000,6.911286865234375,-0.9815521240234375,0.018951416015625,0.002716064453125
1690840512202327000,6.9213271484375,-0.9822540283203125,0.019256591796875,0.0026397705078125
1690840512212368100,6.9313681640625,-0.98114013671875,0.018585205078125,0.0017852783203125
1690840512222408000,6.941407958984375,-0.9814605712890625,0.018707275390625,0.0016021728515625
1690840512232447700,6.95144775390625,-0.980682373046875,0.0195159912109375,0.001739501953125
1690840512242488800,6.96148876953125,-0.981475830078125,0.018768310546875,0.0014495849609375
1690840512252529000,6.97152880859375,-0.981414794921875,0.01812744140625,0.0019378662109375
1690840512262569000,6.98156884765625,-0.9823760986328125,0.018585205078125,0.002105712890625
1690840512272609000,6.991609130859375,-0.98193359375,0.018798828125,0.0016937255859375
1690840512282650000,7.001650146484375,-0.98150634765625,0.018798828125,0.00115966796875
1690840512292690000,7.01168994140625,-0.9817047119140625,0.018310546875,0.0019683837890625
1690840512302729700,7.021729736328125,-0.9821929931640625,0.0189208984375,0.0013580322265625
1690840512312770800,7.031770751953125,-0.982177734375,0.018829345703125,0.0012969970703125
1690840512322840800,7.0418408203125,-0.980438232421875,0.01849365234375,0.0017852783203125
1690840512332882000,7.0518818359375,-0.9801483154296875,0.018798828125,0.0018310546875
1690840512342922000,7.061921875,-0.981658935546875,0.018646240234375,0.001312255859375
1690840512352961800,7.0719619140625,-0.982208251953125,0.0191802978515625,0.0009918212890625
1690840512363001900,7.082001953125,-0.9813232421875,0.0187835693359375,0.0023345947265625
1690840512373043000,7.09204296875,-0.981201171875,0.0186614990234375,0.0025787353515625
1690840512383082800,7.102082763671875,-0.9816741943359375,0.0190582275390625,0.0020599365234375
1690840512393122800,7.112122802734375,-0.9811553955078125,0.0188140869140625,0.0016632080078125
1690840512403164000,7.122163818359375,-0.981658935546875,0.0187530517578125,0.001068115234375
1690840512413204000,7.132203857421875,-0.981536865234375,0.019195556640625,0.00213623046875
1690840512423244000,7.142244140625,-0.981170654296875,0.01885986328125,0.0019073486328125
1690840512433283800,7.152283935546875,-0.9818267822265625,0.0192413330078125,0.001983642578125
1690840512443325000,7.162324951171875,-0.981353759765625,0.0188446044921875,0.001556396484375
1690840512453364700,7.17236474609375,-0.9805450439453125,0.0187835693359375,0.00091552734375
1690840512463404800,7.18240478515625,-0.9819183349609375,0.0192108154296875,0.00140380859375
1690840512473475800,7.192475830078125,-0.9807891845703125,0.0186920166015625,0.0029449462890625
1690840512483516000,7.202515869140625,-0.9811859130859375,0.018157958984375,0.0017547607421875
1690840512493557000,7.212556884765625,-0.98162841796875,0.0184326171875,0.002166748046875
1690840512503596800,7.2225966796875,-0.9809112548828125,0.0183868408203125,0.0019683837890625
1690840512513636900,7.232636962890625,-0.9823760986328125,0.01904296875,0.0015411376953125
1690840512523678000,7.242677978515625,-0.983001708984375,0.01959228515625,0.0020751953125
1690840512533717800,7.2527177734375,-0.98199462890625,0.018768310546875,0.001800537109375
1690840512543731700,7.262731689453125,-0.9813995361328125,0.01812744140625,0.001312255859375
1690840512553771800,7.272771728515625,-0.981170654296875,0.0181884765625,0.0013580322265625
1690840512563812600,7.2828125,-0.9810791015625,0.018218994140625,0.0018768310546875
1690840512573852700,7.292852783203125,-0.981781005859375,0.0180511474609375,0.0017852783203125
1690840512583892700,7.302892822265625,-0.9810791015625,0.018768310546875,0.001220703125
1690840512593933800,7.312933837890625,-0.9809722900390625,0.0193328857421875,0.002227783203125
1690840512603974000,7.322973876953125,-0.9811248779296875,0.0187835693359375,0.00213623046875
1690840512614013700,7.333013671875,-0.981689453125,0.018157958984375,0.0009918212890625
1690840512624084700,7.343084716796875,-0.9815521240234375,0.019378662109375,0.0006256103515625
1690840512634124800,7.353124755859375,-0.981597900390625,0.01837158203125,0.0014801025390625
1690840512644164900,7.363164794921875,-0.9816436767578125,0.0183563232421875,0.0016021728515625
1690840512654205700,7.373205810546875,-0.981353759765625,0.0181884765625,0.00177001953125
1690840512664245800,7.383245849609375,-0.9828338623046875,0.01898193359375,0.0018463134765625
1690840512674285800,7.393285888671875,-0.9818572998046875,0.0193328857421875,0.0018463134765625
1690840512684327000,7.403326904296875,-0.9820404052734375,0.0188751220703125,0.00103759765625
1690840512694366700,7.41336669921875,-0.982574462890625,0.018890380859375,0.0023651123046875
1690840512704406800,7.42340673828125,-0.981964111328125,0.01837158203125,0.00201416015625
1690840512714446800,7.43344677734375,-0.98193359375,0.0189208984375,0.0018768310546875
1690840512724487700,7.44348779296875,-0.982147216796875,0.0186614990234375,0.0022125244140625
1690840512734527700,7.45352783203125,-0.982269287109375,0.018829345703125,0.0017852783203125
1690840512744567800,7.46356787109375,-0.9809417724609375,0.01849365234375,0.0004730224609375
1690840512754609000,7.47360888671875,-0.9812164306640625,0.01837158203125,0.0015106201171875
1690840512764678700,7.4836787109375,-0.982025146484375,0.0182952880859375,0.0016326904296875
1690840512774719700,7.4937197265625,-0.9819183349609375,0.0180206298828125,0.0025634765625
1690840512784759800,7.503759765625,-0.9820709228515625,0.0184326171875,0.0016326904296875
1690840512794799900,7.5137998046875,-0.9812164306640625,0.01806640625,0.0015716552734375
1690840512804840000,7.52383984375,-0.9817352294921875,0.018585205078125,0.001617431640625
1690840512814880800,7.533880859375,-0.9815673828125,0.018707275390625,0.0016326904296875
1690840512824920600,7.543920654296875,-0.9815673828125,0.0184326171875,0.001251220703125
1690840512834960600,7.553960693359375,-0.9814300537109375,0.0180206298828125,0.001129150390625
1690840512845001700,7.564001708984375,-0.982330322265625,0.01910400390625,0.0013580322265625
1690840512855041800,7.574041748046875,-0.9814605712890625,0.0185699462890625,0.0015716552734375
1690840512865081900,7.584081787109375,-0.9808502197265625,0.0181884765625,0.0014801025390625
1690840512875122000,7.594121826171875,-0.9815826416015625,0.0184326171875,0.001495361328125
1690840512885162800,7.604162841796875,-0.9802703857421875,0.019012451171875,0.00128173828125
1690840512895202800,7.614202880859375,-0.9802398681640625,0.0193634033203125,0.001434326171875
1690840512905242600,7.62424267578125,-0.9811859130859375,0.0186920166015625,0.0013427734375
1690840512915313700,7.634313720703125,-0.9813995361328125,0.01904296875,0.002349853515625
1690840512925353700,7.644353759765625,-0.9822845458984375,0.019195556640625,0.0023040771484375
1690840512935394800,7.654394775390625,-0.9816436767578125,0.0177764892578125,0.0025177001953125
1690840512945435000,7.664434814453125,-0.9816131591796875,0.018280029296875,0.0013275146484375
1690840512955475000,7.674474853515625,-0.9811248779296875,0.0188446044921875,0.0014190673828125
1690840512965515800,7.684515869140625,-0.9819793701171875,0.018524169921875,0.001129150390625
1690840512975555600,7.6945556640625,-0.981781005859375,0.019317626953125,0.0015716552734375
1690840512985595600,7.704595703125,-0.982025146484375,0.0184478759765625,0.0022430419921875
1690840512995635700,7.7146357421875,-0.9810028076171875,0.0181427001953125,0.00213623046875
1690840513005676800,7.7246767578125,-0.9805450439453125,0.018310546875,0.0023193359375
1690840513015716900,7.734716796875,-0.980743408203125,0.0191650390625,0.002044677734375
1690840513025757000,7.7447568359375,-0.9809722900390625,0.0189208984375,0.0017547607421875
1690840513035797800,7.7547978515625,-0.9821929931640625,0.0185394287109375,0.0011749267578125
1690840513045837800,7.764837890625,-0.981719970703125,0.0192108154296875,0.0015869140625
1690840513055877600,7.774877685546875,-0.9807281494140625,0.0186920166015625,0.001953125
1690840513065948700,7.78494873046875,-0.9817962646484375,0.0179443359375,0.001495361328125
1690840513075988700,7.79498876953125,-0.982147216796875,0.018707275390625,0.0014495849609375
1690840513086028800,7.80502880859375,-0.9816131591796875,0.0191650390625,0.001251220703125
1690840513096070000,7.81506982421875,-0.980499267578125,0.018768310546875,0.0023651123046875
1690840513106110000,7.82510986328125,-0.9809417724609375,0.019012451171875,0.0019378662109375
1690840513116149800,7.835149658203125,-0.981231689453125,0.018768310546875,0.0019073486328125
1690840513126190600,7.845190673828125,-0.9822845458984375,0.0185089111328125,0.001800537109375
1690840513136230700,7.855230712890625,-0.9820709228515625,0.0189666748046875,0.0018157958984375
1690840513146270700,7.865270751953125,-0.9817047119140625,0.018890380859375,0.0014190673828125
1690840513156310800,7.875310791015625,-0.98095703125,0.01837158203125,0.001007080078125
1690840513166352000,7.885351806640625,-0.98175048828125,0.018707275390625,0.0010528564453125
1690840513176392000,7.895391845703125,-0.98175048828125,0.0184783935546875,0.0011749267578125
1690840513186432000,7.905431884765625,-0.981719970703125,0.0178070068359375,0.00189208984375
1690840513196472800,7.915472900390625,-0.9811248779296875,0.0194091796875,0.00164794921875
1690840513206512600,7.9255126953125,-0.981231689453125,0.019195556640625,0.00177001953125
1690840513216583700,7.935583740234375,-0.98199462890625,0.0192108154296875,0.00152587890625
1690840513226623700,7.945623779296875,-0.982208251953125,0.0190887451171875,0.001678466796875
1690840513236663800,7.955663818359375,-0.9818115234375,0.018768310546875,0.001556396484375
1690840513246705000,7.965704833984375,-0.9814300537109375,0.0194854736328125,0.0018768310546875
1690840513256745000,7.975744873046875,-0.9814453125,0.0191192626953125,0.00213623046875
1690840513266784800,7.98578466796875,-0.9808197021484375,0.0189971923828125,0.00213623046875
1690840513276824800,7.995824951171875,-0.98162841796875,0.01953125,0.00164794921875
1690840513286865700,8.00586572265625,-0.9808349609375,0.0187835693359375,0.0017242431640625
1690840513296905700,8.01590576171875,-0.981353759765625,0.0185089111328125,0.0017547607421875
1690840513306945800,8.02594580078125,-0.981353759765625,0.0185394287109375,0.001861572265625
1690840513316985900,8.03598583984375,-0.9814910888671875,0.0189971923828125,0.0019378662109375
1690840513327027000,8.04602685546875,-0.9820404052734375,0.018890380859375,0.0021209716796875
1690840513337067000,8.05606689453125,-0.981414794921875,0.0186004638671875,0.0017852783203125
1690840513347106800,8.06610693359375,-0.9809417724609375,0.0191802978515625,0.0013427734375
1690840513357177900,8.076177734375,-0.9809417724609375,0.0177459716796875,0.00091552734375
1690840513367217700,8.0862177734375,-0.9807281494140625,0.0184326171875,0.0001983642578125
1690840513377258800,8.0962587890625,-0.98162841796875,0.0185089111328125,0.0013427734375
1690840513387298800,8.106298828125,-0.9809112548828125,0.0182952880859375,0.0019989013671875
1690840513397339000,8.1163388671875,-0.9805145263671875,0.0188751220703125,0.00177001953125
1690840513407380000,8.1263798828125,-0.9813385009765625,0.0189208984375,0.0018463134765625
1690840513417419800,8.136419677734375,-0.982177734375,0.0186614990234375,0.0011138916015625
1690840513427459800,8.1464599609375,-0.982391357421875,0.0185699462890625,0.0014801025390625
1690840513437499600,8.156499755859375,-0.983154296875,0.0188446044921875,0.0026702880859375
1690840513447540700,8.166540771484375,-0.982330322265625,0.018707275390625,0.0019683837890625
1690840513457580800,8.176580810546875,-0.981231689453125,0.0192108154296875,0.00201416015625
1690840513467620900,8.186620849609374,-0.9810791015625,0.018951416015625,0.0015716552734375
1690840513477662000,8.196661865234375,-0.981048583984375,0.019439697265625,0.001068115234375
1690840513487701800,8.20670166015625,-0.9810943603515625,0.0183258056640625,0.001434326171875
1690840513497741800,8.216741943359375,-0.9815521240234375,0.0185699462890625,0.0016326904296875
1690840513507812900,8.226812744140625,-0.9813079833984375,0.01947021484375,0.0014495849609375
1690840513517852700,8.236852783203124,-0.98187255859375,0.019287109375,0.0009765625
1690840513527892700,8.246892822265625,-0.98187255859375,0.0189056396484375,0.001129150390625
1690840513537933800,8.256933837890625,-0.98150634765625,0.0186309814453125,0.0019378662109375
1690840513547970600,8.266970458984375,-0.9816741943359375,0.0184478759765625,0.001617431640625
1690840513558010600,8.2770107421875,-0.9821929931640625,0.018402099609375,0.0018157958984375
1690840513568051500,8.287051513671875,-0.9820709228515625,0.01837158203125,0.001678466796875
1690840513578091500,8.297091552734376,-0.981597900390625,0.0186920166015625,0.00286865234375
1690840513588131600,8.307131591796875,-0.9820098876953125,0.01904296875,0.002838134765625
1690840513598171600,8.317171630859375,-0.981292724609375,0.018798828125,0.001373291015625
1690840513608212700,8.327212646484375,-0.9813079833984375,0.018585205078125,0.0016021728515625
1690840513618252800,8.337252685546876,-0.981353759765625,0.0186920166015625,0.00238037109375
1690840513628292600,8.347292724609375,-0.981231689453125,0.0183868408203125,0.0017852783203125
1690840513638333400,8.35733349609375,-0.9812774658203125,0.01824951171875,0.00164794921875
1690840513648373500,8.36737353515625,-0.9815216064453125,0.01873779296875,0.001800537109375
1690840513658444500,8.377444580078125,-0.9815521240234375,0.0185089111328125,0.0012359619140625
1690840513668484600,8.387484619140626,-0.9820556640625,0.0184783935546875,0.002044677734375
1690840513678524700,8.397524658203125,-0.98175048828125,0.0185394287109375,0.001617431640625
1690840513688565800,8.407565673828126,-0.9814453125,0.018585205078125,0.000762939453125
1690840513698605600,8.41760546875,-0.9816436767578125,0.018280029296875,0.001922607421875
1690840513708645600,8.427645751953126,-0.9808807373046875,0.0180206298828125,0.0010528564453125
1690840513718685700,8.437685791015625,-0.9815521240234375,0.01812744140625,0.0028228759765625
1690840513728726500,8.4477265625,-0.980804443359375,0.0185394287109375,0.001739501953125
1690840513738766600,8.4577666015625,-0.98150634765625,0.0188140869140625,0.0016937255859375
1690840513748806700,8.467806640625,-0.982177734375,0.0186920166015625,0.00164794921875
1690840513758847700,8.47784765625,-0.98052978515625,0.0181427001953125,0.0023956298828125
1690840513768887800,8.4878876953125,-0.981231689453125,0.0177001953125,0.0020599365234375
1690840513778927600,8.497927734375,-0.9817657470703125,0.0189971923828125,0.0004119873046875
1690840513788967700,8.5079677734375,-0.981231689453125,0.0189361572265625,0.000030517578125
1690840513799008500,8.518008544921875,-0.980194091796875,0.01910400390625,0.0016021728515625
1690840513809078800,8.528078857421875,-0.9814300537109375,0.018218994140625,0.0019683837890625
1690840513819119600,8.53811962890625,-0.9817352294921875,0.0182952880859375,0.0010986328125
1690840513829159700,8.54815966796875,-0.98162841796875,0.0186920166015625,0.001190185546875
1690840513839199500,8.558199462890625,-0.9814605712890625,0.018585205078125,0.00152587890625
1690840513849240600,8.568240478515625,-0.9813232421875,0.0186767578125,0.0016021728515625
1690840513859280600,8.57828076171875,-0.9815826416015625,0.0186767578125,0.001922607421875
1690840513869320700,8.58832080078125,-0.9816131591796875,0.0181121826171875,0.00140380859375
1690840513879360800,8.59836083984375,-0.98077392578125,0.0186920166015625,0.001983642578125
1690840513889401600,8.608401611328125,-0.981201171875,0.018524169921875,0.00225830078125
1690840513899441700,8.618441650390626,-0.9817047119140625,0.01904296875,0.0014801025390625
1690840513909481700,8.628481689453125,-0.981781005859375,0.0191802978515625,0.0024566650390625
1690840513919522800,8.638522705078126,-0.9817657470703125,0.0186309814453125,0.0027923583984375
1690840513929562600,8.648562744140625,-0.9827880859375,0.0187225341796875,0.001312255859375
1690840513939602700,8.658602783203126,-0.9825897216796875,0.0193328857421875,0.0024566650390625
1690840513949673700,8.668673828125,-0.9827728271484375,0.0195465087890625,0.0023956298828125
1690840513959713800,8.6787138671875,-0.9814300537109375,0.0191192626953125,0.001983642578125
1690840513969753900,8.68875390625,-0.9814453125,0.0184478759765625,0.0016021728515625
1690840513979794700,8.698794677734375,-0.9810028076171875,0.018707275390625,0.0013427734375
1690840513989834500,8.70883447265625,-0.980499267578125,0.0187530517578125,0.0015869140625
1690840513999874600,8.71887451171875,-0.98138427734375,0.01885986328125,0.001739501953125
1690840514009915600,8.72891552734375,-0.9819793701171875,0.0186309814453125,0.00164794921875
1690840514019955700,8.738955810546875,-0.981842041015625,0.0179443359375,0.00201416015625
1690840514029995800,8.748995849609376,-0.9821014404296875,0.0181732177734375,0.0021514892578125
1690840514040035800,8.759035888671875,-0.9820709228515625,0.019195556640625,0.0015716552734375
1690840514050076700,8.76907666015625,-0.9808349609375,0.0186309814453125,0.001922607421875
1690840514060116500,8.779116455078125,-0.9819793701171875,0.018463134765625,0.0018310546875
1690840514070156500,8.789156494140625,-0.9820556640625,0.01904296875,0.00238037109375
1690840514080197600,8.79919775390625,-0.981658935546875,0.0186614990234375,0.0024871826171875
1690840514090237700,8.80923779296875,-0.9805755615234375,0.0188446044921875,0.001922607421875
1690840514100308700,8.819308837890626,-0.98089599609375,0.01934814453125,0.0015106201171875
1690840514110348800,8.829348876953125,-0.9818267822265625,0.018890380859375,0.0019989013671875
1690840514120388900,8.839388916015626,-0.98126220703125,0.01885986328125,0.001251220703125
1690840514130429700,8.8494296875,-0.9814910888671875,0.0189971923828125,0.001220703125
1690840514140469500,8.859469482421876,-0.9809722900390625,0.0189361572265625,0.0022430419921875
1690840514150509600,8.869509521484375,-0.9814453125,0.0195465087890625,0.00128173828125
1690840514160549600,8.879549560546875,-0.981536865234375,0.01898193359375,0.0018310546875
1690840514170590700,8.8895908203125,-0.9810638427734375,0.018463134765625,0.0014801025390625
1690840514180630800,8.899630859375,-0.9816436767578125,0.019317626953125,0.0009002685546875
1690840514190670800,8.9096708984375,-0.981353759765625,0.0195465087890625,0.0013427734375
1690840514200711700,8.919711669921876,-0.981781005859375,0.0180511474609375,0.0019989013671875
1690840514210751500,8.92975146484375,-0.9817352294921875,0.0187530517578125,0.0012664794921875
1690840514220791600,8.93979150390625,-0.982177734375,0.019744873046875,0.0013580322265625
1690840514230831600,8.94983154296875,-0.9805450439453125,0.019195556640625,0.0018463134765625
1690840514240872700,8.959872802734376,-0.9809112548828125,0.018768310546875,0.002166748046875
1690840514250942700,8.969942626953125,-0.980621337890625,0.018829345703125,0.001129150390625
1690840514260983800,8.97998388671875,-0.9820556640625,0.0188140869140625,0.001220703125
1690840514271023900,8.99002392578125,-0.981292724609375,0.0189208984375,0.001190185546875
1690840514281063700,9.000063720703125,-0.981597900390625,0.0186767578125,0.001007080078125
1690840514291104500,9.0101044921875,-0.981781005859375,0.0182037353515625,0.0018463134765625
1690840514301144600,9.02014453125,-0.98236083984375,0.0177764892578125,0.0015869140625
1690840514311184600,9.0301845703125,-0.9820556640625,0.0179901123046875,0.001129150390625
1690840514321224700,9.040224609375,-0.9820404052734375,0.0181884765625,0.0016937255859375
1690840514331265800,9.050265869140626,-0.9822540283203125,0.0184783935546875,0.0012054443359375
1690840514341305900,9.060305908203125,-0.9817962646484375,0.018707275390625,0.0011444091796875
1690840514351345700,9.070345703125,-0.9816131591796875,0.0183868408203125,0.0016937255859375
1690840514361386500,9.080386474609375,-0.9819183349609375,0.018646240234375,0.0014801025390625
1690840514371426600,9.090426513671876,-0.98175048828125,0.0183563232421875,0.0016326904296875
1690840514381466600,9.100466552734375,-0.981597900390625,0.0184478759765625,0.0014495849609375
1690840514391537700,9.11053759765625,-0.981109619140625,0.0185394287109375,0.001190185546875
1690840514401577700,9.12057763671875,-0.9813995361328125,0.018768310546875,0.0018768310546875
1690840514411617800,9.13061767578125,-0.980804443359375,0.017578125,0.001739501953125
1690840514421659000,9.140658935546876,-0.980926513671875,0.0186920166015625,0.001434326171875
1690840514431698700,9.15069873046875,-0.980743408203125,0.019195556640625,0.001434326171875
1690840514441738500,9.160738525390625,-0.980621337890625,0.0190887451171875,0.00262451171875
1690840514451779600,9.170779541015625,-0.980682373046875,0.017974853515625,0.002044677734375
1690840514461819600,9.180819580078126,-0.982147216796875,0.01873779296875,0.0019378662109375
1690840514471859700,9.190859619140625,-0.981597900390625,0.0189971923828125,0.00201416015625
1690840514481899800,9.200899658203125,-0.9817352294921875,0.0187530517578125,0.00152587890625
1690840514491940900,9.21094091796875,-0.9809112548828125,0.0184783935546875,0.001800537109375
1690840514501980400,9.22098046875,-0.9808502197265625,0.0193634033203125,0.00213623046875
1690840514512020500,9.2310205078125,-0.9812774658203125,0.0188140869140625,0.001953125
1690840514522061600,9.2410615234375,-0.9807891845703125,0.018951416015625,0.00128173828125
1690840514532101600,9.2511015625,-0.9816436767578125,0.0189056396484375,0.001556396484375
1690840514542167600,9.26116748046875,-0.9815216064453125,0.0188140869140625,0.001678466796875
1690840514552207000,9.27120703125,-0.981231689453125,0.0179595947265625,0.001068115234375
1690840514562247200,9.2812470703125,-0.9813079833984375,0.0181427001953125,0.0018463134765625
1690840514572288300,9.291288330078125,-0.98162841796875,0.0181884765625,0.00189208984375
1690840514582328300,9.301328369140625,-0.981414794921875,0.0185699462890625,0.001190185546875
1690840514592368400,9.311368408203125,-0.982574462890625,0.018829345703125,0.001434326171875
1690840514602408400,9.321408447265625,-0.982208251953125,0.018585205078125,0.0020904541015625
1690840514612449300,9.33144921875,-0.9818115234375,0.01904296875,0.00213623046875
1690840514622489000,9.341489013671875,-0.98101806640625,0.01837158203125,0.001739501953125
1690840514632529200,9.351529052734374,-0.9820404052734375,0.0184783935546875,0.002044677734375
1690840514642570200,9.3615703125,-0.9825592041015625,0.0188751220703125,0.0010223388671875
1690840514652610300,9.3716103515625,-0.9810638427734375,0.019256591796875,0.00146484375
1690840514662650400,9.381650390625,-0.982635498046875,0.0186004638671875,0.0025482177734375
1690840514672690400,9.3916904296875,-0.981353759765625,0.0182647705078125,0.00189208984375
1690840514682731300,9.401731201171875,-0.980743408203125,0.0187530517578125,0.001434326171875
1690840514692801300,9.41180126953125,-0.981231689453125,0.018890380859375,0.00164794921875
1690840514702842000,9.421842041015625,-0.9619140625,0.003692626953125,-0.0102996826171875
1690840514712882200,9.431882080078125,-1.0068817138671875,0.0525054931640625,-0.0802459716796875
1690840514722922200,9.441922119140624,-0.9925689697265625,0.029052734375,0.1035919189453125
1690840514732963300,9.45196337890625,-0.9742584228515625,-0.01361083984375,0.0155792236328125
1690840514743003400,9.46200341796875,-1.0055084228515625,0.02435302734375,0.01214599609375
1690840514753043500,9.47204345703125,-0.96759033203125,0.0164794921875,0.0103912353515625
1690840514763083300,9.482083251953124,-0.9857940673828125,0.031097412109375,-0.0099639892578125
1690840514773124000,9.4921240234375,-0.9975433349609375,-0.0040130615234375,0.0096435546875
1690840514783164200,9.5021640625,-0.9616851806640625,-0.001953125,-0.022125244140625
1690840514793204200,9.512204345703125,-0.99322509765625,0.0227813720703125,-0.0142669677734375
1690840514803245300,9.522245361328125,-0.9741973876953125,0.0199737548828125,0.0032501220703125
1690840514813285400,9.532285400390625,-0.97930908203125,0.02142333984375,-0.00579833984375
1690840514823325400,9.542325439453125,-0.9786529541015625,0.02984619140625,0.0004730224609375
1690840514833365200,9.552365234375,-0.982940673828125,0.0290069580078125,0.003997802734375
1690840514843436300,9.562436279296875,-0.9755706787109375,0.0297393798828125,0.0050201416015625
1690840514853477000,9.57247705078125,-0.9859619140625,0.0290679931640625,0.005340576171875
1690840514863517200,9.58251708984375,-0.977264404296875,0.0294647216796875,-0.00042724609375
1690840514873557200,9.59255712890625,-0.9724884033203125,0.031402587890625,-0.004180908203125
1690840514883597300,9.602597412109375,-0.9830780029296875,0.0283966064453125,-0.0028533935546875
1690840514893638400,9.612638427734375,-0.974945068359375,0.022430419921875,0.0002899169921875
1690840514903678500,9.622678466796875,-0.9847259521484375,0.0225677490234375,0.0030059814453125
1690840514913718300,9.63271826171875,-0.9809417724609375,0.0200653076171875,0.0051116943359375
1690840514923758300,9.64275830078125,-0.98333740234375,0.01617431640625,0.0050048828125
1690840514933799200,9.652799072265625,-0.985870361328125,0.0134429931640625,0.0039825439453125
1690840514943839200,9.662839111328125,-0.9847564697265625,0.0098114013671875,0.002197265625
1690840514953879300,9.67287939453125,-0.985870361328125,0.007781982421875,0.0003662109375
1690840514963920400,9.68292041015625,-0.98699951171875,0.007720947265625,-0.00103759765625
1690840514973960400,9.69296044921875,-0.980560302734375,0.0096588134765625,0
1690840514984031200,9.70303125,-0.985626220703125,0.0136260986328125,0.0010528564453125
1690840514994071300,9.7130712890625,-0.9832305908203125,0.016998291015625,0.002349853515625
1690840515004111400,9.723111328125,-0.9794769287109375,0.018707275390625,0.003173828125
1690840515014152200,9.733152099609375,-0.9850921630859375,0.0216064453125,0.0027618408203125
1690840515024192300,9.743192138671875,-0.9788055419921875,0.0238037109375,0.0023040771484375
1690840515034232300,9.753232421875,-0.97955322265625,0.0250091552734375,0.0010223388671875
1690840515044272400,9.7632724609375,-0.9804534912109375,0.0264434814453125,0.00048828125
1690840515054313500,9.7733134765625,-0.976715087890625,0.026824951171875,-0.00006103515625
1690840515064353300,9.783353271484375,-0.9799346923828125,0.02789306640625,0.0009002685546875
1690840515074393300,9.793393310546875,-0.978302001953125,0.026641845703125,0.000396728515625
1690840515084434200,9.80343408203125,-0.9773406982421875,0.025360107421875,0.000030517578125
1690840515094474200,9.81347412109375,-0.9811859130859375,0.023468017578125,0.000518798828125
1690840515104514300,9.823514404296875,-0.9788055419921875,0.0221405029296875,0.0016632080078125
1690840515114554400,9.833554443359375,-0.981964111328125,0.019622802734375,0.0020751953125
1690840515124595500,9.843595458984375,-0.9832305908203125,0.0177001953125,0.00146484375
1690840515134665200,9.853665283203124,-0.9807281494140625,0.015167236328125,0.0026702880859375
1690840515144706300,9.863706298828125,-0.9852447509765625,0.01513671875,0.0020751953125
1690840515154746400,9.873746337890625,-0.98455810546875,0.0133819580078125,0.001220703125
1690840515164786400,9.883786376953125,-0.9837799072265625,0.01409912109375,0.0016326904296875
1690840515174827300,9.8938271484375,-0.98406982421875,0.01531982421875,0.001312255859375
1690840515184867300,9.903867431640625,-0.9810028076171875,0.01611328125,0.0001220703125
1690840515194907400,9.913907470703125,-0.9826812744140625,0.0169525146484375,0.0002899169921875
1690840515204947200,9.923947265625,-0.98193359375,0.019317626953125,0.0009613037109375
1690840515214988300,9.93398828125,-0.9798126220703125,0.020599365234375,0.0014801025390625
1690840515225028400,9.9440283203125,-0.9818572998046875,0.0228118896484375,0.001861572265625
1690840515235068400,9.954068359375,-0.9794769287109375,0.023773193359375,0.00115966796875
1690840515245109200,9.964109130859375,-0.9793243408203125,0.0235595703125,0.0013885498046875
1690840515255149300,9.9741494140625,-0.980194091796875,0.02423095703125,0.00079345703125
1690840515265189400,9.984189453125,-0.9779815673828125,0.023895263671875,0.0009002685546875
1690840515275229200,9.994229248046874,-0.9800262451171875,0.0233001708984375,0.0005340576171875
1690840515285300200,10.00430029296875,-0.981048583984375,0.0227508544921875,0.000335693359375
1690840515295341300,10.01434130859375,-0.9799652099609375,0.0219879150390625,0.0012664794921875
1690840515305381400,10.02438134765625,-0.9819488525390625,0.0208740234375,0.0010223388671875
1690840515315421400,10.03442138671875,-0.9813385009765625,0.018890380859375,0.0017852783203125
1690840515325461500,10.04446142578125,-0.9821929931640625,0.018524169921875,0.0025177001953125
1690840515335502300,10.05450244140625,-0.983428955078125,0.0175933837890625,0.001983642578125
1690840515345542400,10.06454248046875,-0.98248291015625,0.0161285400390625,0.001922607421875
1690840515355582200,10.074582275390625,-0.9832000732421875,0.0168304443359375,0.0014495849609375
1690840515365623300,10.084623291015625,-0.9837493896484375,0.01702880859375,0.001434326171875
1690840515375663400,10.094663330078125,-0.981658935546875,0.017364501953125,0.0017242431640625
1690840515385703400,10.104703369140625,-0.982757568359375,0.018218994140625,0.000946044921875
1690840515395743500,10.114743408203125,-0.981201171875,0.0190582275390625,0.0009307861328125
1690840515405784300,10.124784423828125,-0.9814910888671875,0.0201416015625,0.0005950927734375
1690840515415824400,10.134824462890625,-0.9820404052734375,0.020599365234375,0.0003814697265625
1690840515425895200,10.144895263671875,-0.97943115234375,0.0210418701171875,0.0010528564453125
1690840515435935200,10.154935302734375,-0.9806060791015625,0.0218048095703125,0.001373291015625
1690840515445975300,10.164975341796875,-0.979339599609375,0.0216217041015625,0.001739501953125
1690840515456016400,10.175016357421875,-0.98052978515625,0.02197265625,0.0014801025390625
1690840515466056400,10.185056396484375,-0.981475830078125,0.0223846435546875,0.00048828125
1690840515476096500,10.195096435546875,-0.9791107177734375,0.0219573974609375,0.00018310546875
1690840515486136300,10.20513623046875,-0.98028564453125,0.021331787109375,0.001434326171875
1690840515496177200,10.21517724609375,-0.981292724609375,0.020538330078125,0.002197265625
1690840515506217200,10.22521728515625,-0.9816131591796875,0.0195465087890625,0.00152587890625
1690840515516257300,10.23525732421875,-0.9820098876953125,0.01904296875,0.0006103515625
1690840515526298400,10.24529833984375,-0.9821624755859375,0.01885986328125,0.0008544921875
1690840515536338400,10.25533837890625,-0.981781005859375,0.0184783935546875,0.0009002685546875
1690840515546365700,10.26536572265625,-0.982940673828125,0.0186614990234375,0.0012664794921875
1690840515556405500,10.275405517578125,-0.9815673828125,0.018707275390625,0.0008087158203125
1690840515566446600,10.285446533203125,-0.9817047119140625,0.018310546875,0.00152587890625
1690840515576516600,10.2955166015625,-0.982025146484375,0.018218994140625,0.0010986328125
1690840515586557700,10.3055576171875,-0.981597900390625,0.01837158203125,0.001953125
1690840515596597800,10.31559765625,-0.9818115234375,0.019683837890625,0.0020751953125
1690840515606637800,10.325637939453125,-0.981292724609375,0.019805908203125,0.00140380859375
1690840515616678700,10.3356787109375,-0.9810028076171875,0.020233154296875,0.0015716552734375
1690840515626718700,10.34571875,-0.980712890625,0.0210418701171875,0.00128173828125
1690840515636758500,10.355758544921875,-0.9809722900390625,0.021697998046875,0.0009307861328125
1690840515646798600,10.365798583984375,-0.980865478515625,0.0214080810546875,0.00146484375
1690840515656839700,10.375839599609375,-0.980712890625,0.021087646484375,0.001373291015625
1690840515666879700,10.385879638671875,-0.9815521240234375,0.020538330078125,0.0015716552734375
1690840515676919800,10.395919921875,-0.981475830078125,0.0200653076171875,0.0015411376953125
1690840515686960600,10.405960693359376,-0.9803466796875,0.0201873779296875,0.0011749267578125
1690840515697000700,10.416000732421875,-0.981048583984375,0.0190887451171875,0.00201416015625
1690840515707040500,10.42604052734375,-0.9822998046875,0.01953125,0.00177001953125
1690840515717080600,10.43608056640625,-0.9818878173828125,0.01922607421875,0.0015411376953125
1690840515727151600,10.446151611328125,-0.982177734375,0.018829345703125,0.001129150390625
1690840515737192700,10.456192626953126,-0.9821014404296875,0.0193939208984375,0.000823974609375
1690840515747232800,10.466232666015625,-0.9801788330078125,0.0196533203125,0.001922607421875
1690840515757272800,10.47627294921875,-0.98248291015625,0.0185546875,0.00177001953125
1690840515767312600,10.486312744140625,-0.9801177978515625,0.0188140869140625,0.0004119873046875
1690840515777353700,10.496353759765626,-0.9824066162109375,0.020355224609375,0.0010833740234375
1690840515787393500,10.5063935546875,-0.98138427734375,0.0198516845703125,0.0004425048828125
1690840515797433600,10.51643359375,-0.981048583984375,0.0198211669921875,0.0002899169921875
1690840515807474700,10.526474609375,-0.9810943603515625,0.0212860107421875,0.0000457763671875
1690840515817514800,10.5365146484375,-0.98046875,0.0211029052734375,0.0008392333984375
1690840515827554800,10.546554931640625,-0.9806671142578125,0.02069091796875,0.0012054443359375
1690840515837594600,10.5565947265625,-0.9808502197265625,0.02032470703125,0.001251220703125
1690840515847635700,10.5666357421875,-0.983978271484375,0.01995849609375,0.0013885498046875
1690840515857675500,10.576675537109375,-0.97918701171875,0.0205230712890625,0.0015716552734375
1690840515867746600,10.58674658203125,-0.983917236328125,0.0202178955078125,0.001861572265625
1690840515877786600,10.59678662109375,-0.979644775390625,0.0200958251953125,0.001312255859375
1690840515887826700,10.60682666015625,-0.983062744140625,0.019683837890625,0.0015869140625
1690840515897867800,10.61686767578125,-0.9808197021484375,0.0197601318359375,0.0014495849609375
1690840515907907800,10.626907958984376,-0.98101806640625,0.0197906494140625,0.0008087158203125
1690840515917947600,10.63694775390625,-0.9810791015625,0.01947021484375,0.0003662109375
1690840515927987500,10.646987548828125,-0.9819183349609375,0.018585205078125,0.0003814697265625
1690840515938028500,10.657028564453125,-0.98101806640625,0.019012451171875,0.0001678466796875
1690840515948068600,10.667068603515625,-0.982269287109375,0.0195159912109375,0.000732421875
1690840515958108700,10.677108642578125,-0.981719970703125,0.019378662109375,0.0009002685546875
1690840515968149800,10.687149658203126,-0.9811859130859375,0.019744873046875,0.0021514892578125
1690840515978189800,10.69718994140625,-0.981597900390625,0.02056884765625,0.0012969970703125
1690840515988229600,10.707229736328125,-0.98150634765625,0.020965576171875,0.001739501953125
1690840515998269400,10.71726953125,-0.9818878173828125,0.0205230712890625,0.0012969970703125
1690840516008310500,10.727310546875,-0.9821014404296875,0.0203704833984375,0.0019683837890625
1690840516018381600,10.737381591796876,-0.9815521240234375,0.020660400390625,0.0008697509765625
1690840516028421600,10.747421630859375,-0.9813995361328125,0.0206298828125,0.0004425048828125
1690840516038461700,10.757461669921875,-0.98114013671875,0.019927978515625,0.0005950927734375
1690840516048501800,10.767501708984375,-0.9813690185546875,0.0202484130859375,0.0011749267578125
1690840516058542800,10.77754296875,-0.98126220703125,0.0199127197265625,0.000823974609375
1690840516068582700,10.787582763671875,-0.98052978515625,0.0201416015625,0.000152587890625
1690840516078622500,10.79762255859375,-0.980621337890625,0.020233154296875,0.00103759765625
1690840516088662500,10.80766259765625,-0.982177734375,0.0195465087890625,0.001312255859375
1690840516098703600,10.81770361328125,-0.9810791015625,0.0194091796875,0.001861572265625
1690840516108743700,10.82774365234375,-0.9813385009765625,0.0193328857421875,0.001556396484375
1690840516118783700,10.83778369140625,-0.9815673828125,0.018951416015625,0.0012054443359375
1690840516128824800,10.847824951171875,-0.9806976318359375,0.0192718505859375,0.001007080078125
1690840516138864600,10.85786474609375,-0.981414794921875,0.0193634033203125,0.0005645751953125
1690840516148904400,10.867904541015625,-0.9809417724609375,0.0206451416015625,0.00006103515625
1690840516158944500,10.877944580078125,-0.9819793701171875,0.0200653076171875,0.0015106201171875
1690840516169015600,10.888015625,-0.98162841796875,0.0198822021484375,0.0009613037109375
1690840516179056600,10.898056640625,-0.981597900390625,0.020721435546875,0.0006866455078125
1690840516189096700,10.9080966796875,-0.981231689453125,0.0208740234375,0.0015411376953125
1690840516199136800,10.91813671875,-0.9815826416015625,0.020599365234375,0.00164794921875
1690840516209176600,10.928176513671875,-0.9823455810546875,0.0207061767578125,0.0016937255859375
1690840516219217700,10.9382177734375,-0.981903076171875,0.0202178955078125,0.002716064453125
1690840516229257500,10.948257568359375,-0.981536865234375,0.020355224609375,0.0020294189453125
1690840516239297500,10.958297607421875,-0.981201171875,0.0196380615234375,0.000640869140625
1690840516249338600,10.968338623046876,-0.9818115234375,0.0201416015625,0.0016021728515625
1690840516259378700,10.978378662109375,-0.98126220703125,0.02069091796875,0.0012359619140625
1690840516269418800,10.988418701171875,-0.981048583984375,0.0198822021484375,0.0007476806640625
1690840516279458800,10.998458740234375,-0.9821929931640625,0.0199432373046875,0.0013275146484375
1690840516289499600,11.008499755859376,-0.981353759765625,0.0197296142578125,0.0010986328125
1690840516299539500,11.01853955078125,-0.98236083984375,0.0195159912109375,0.0010528564453125
1690840516309579500,11.02857958984375,-0.9810943603515625,0.02001953125,0.000762939453125
1690840516319650600,11.038650634765625,-0.9809112548828125,0.0196380615234375,0.0014801025390625
1690840516329690600,11.048690673828125,-0.9815216064453125,0.0198974609375,0.001800537109375
1690840516339731700,11.058731689453126,-0.982177734375,0.0202484130859375,0.001495361328125
1690840516349771800,11.068771728515625,-0.98162841796875,0.0210723876953125,0.0019989013671875
1690840516359811600,11.0788115234375,-0.980804443359375,0.02069091796875,0.00164794921875
1690840516369851600,11.0888515625,-0.981231689453125,0.020294189453125,0.001922607421875
1690840516379892500,11.098892578125,-0.9813385009765625,0.0199127197265625,0.0005645751953125
1690840516389932500,11.1089326171875,-0.981201171875,0.0196990966796875,0.00140380859375
1690840516399972600,11.11897265625,-0.9816131591796875,0.019775390625,0.0016632080078125
1690840516410013700,11.129013671875,-0.981201171875,0.0198822021484375,0.001068115234375
1690840516420053800,11.1390537109375,-0.9808197021484375,0.0197601318359375,0.001434326171875
1690840516430093800,11.14909375,-0.9802703857421875,0.0200042724609375,0.001251220703125
1690840516440133600,11.159133544921875,-0.9808502197265625,0.01934814453125,0.001312255859375
1690840516450174500,11.169174560546875,-0.98095703125,0.0208892822265625,0.00140380859375
1690840516460245500,11.17924560546875,-0.9803466796875,0.02081298828125,0.0013427734375
1690840516470285600,11.18928564453125,-0.980682373046875,0.0201263427734375,0.0013885498046875
1690840516480325600,11.19932568359375,-0.98150634765625,0.019378662109375,0.0013580322265625
1690840516490365700,11.20936572265625,-0.98187255859375,0.019866943359375,0.001068115234375
1690840516500406800,11.21940673828125,-0.9809112548828125,0.0201416015625,0.0006256103515625
1690840516510446600,11.229446533203125,-0.98150634765625,0.0204010009765625,0.000640869140625
1690840516520486700,11.239486572265625,-0.9819488525390625,0.020172119140625,0.0009918212890625
1690840516530526700,11.249526611328125,-0.98040771484375,0.0196990966796875,0.0010833740234375
1690840516540568600,11.259568603515625,-0.9810028076171875,0.0196075439453125,0.0009307861328125
1690840516550608600,11.269608642578126,-0.9812164306640625,0.0199737548828125,0.000762939453125
1690840516560648700,11.279648681640625,-0.982391357421875,0.019775390625,0.0012359619140625
1690840516570689800,11.289689697265626,-0.982177734375,0.0196533203125,0.0019073486328125
1690840516580729600,11.2997294921875,-0.9821014404296875,0.0201568603515625,0.0012054443359375
1690840516590769700,11.309769775390626,-0.980682373046875,0.0206146240234375,0.001678466796875
1690840516600809500,11.3198095703125,-0.980865478515625,0.0198822021484375,0.00201416015625
1690840516610880500,11.329880615234375,-0.9815216064453125,0.01953125,0.0012969970703125
1690840516620921600,11.339921630859376,-0.980072021484375,0.0204925537109375,0.000762939453125
1690840516630961700,11.349961669921875,-0.9810943603515625,0.019866943359375,0.0010528564453125
1690840516641001700,11.360001708984376,-0.9810943603515625,0.019287109375,0.00128173828125
1690840516651041800,11.370041748046875,-0.98077392578125,0.019561767578125,0.00103759765625
1690840516661082600,11.38008251953125,-0.9812164306640625,0.0205078125,0.001434326171875
1690840516671122700,11.390122802734375,-0.981658935546875,0.020263671875,0.0016937255859375
1690840516681162500,11.40016259765625,-0.980804443359375,0.019805908203125,0.00042724609375
1690840516691203600,11.41020361328125,-0.981689453125,0.020843505859375,0.0013427734375
1690840516701243600,11.42024365234375,-0.9814300537109375,0.0200653076171875,0.001861572265625
1690840516711283700,11.43028369140625,-0.98193359375,0.02001953125,0.0002593994140625
1690840516721323800,11.44032373046875,-0.982452392578125,0.0197601318359375,0.0005645751953125
1690840516731364600,11.450364501953125,-0.98126220703125,0.0193328857421875,0.0010833740234375
1690840516741404700,11.46040478515625,-0.9811859130859375,0.01947021484375,0.0014190673828125
1690840516751444500,11.470444580078125,-0.98126220703125,0.020355224609375,0.001220703125
1690840516761515500,11.480515625,-0.981170654296875,0.0204925537109375,0.0013275146484375
1690840516771555600,11.4905556640625,-0.981689453125,0.02008056640625,0.0014190673828125
1690840516781596700,11.5005966796875,-0.981201171875,0.019287109375,0.0008392333984375
1690840516791636700,11.51063671875,-0.9818878173828125,0.01934814453125,0.00115966796875
1690840516801676800,11.5206767578125,-0.981658935546875,0.019012451171875,0.0009765625
1690840516811716900,11.530716796875,-0.9809112548828125,0.020050048828125,0.0012664794921875
1690840516821757700,11.5407578125,-0.9814453125,0.019775390625,0.0019378662109375
1690840516831797500,11.550797607421876,-0.9816436767578125,0.01922607421875,0.0021209716796875
1690840516841837600,11.560837646484375,-0.981597900390625,0.020416259765625,0.001434326171875
1690840516851878700,11.570878662109376,-0.980743408203125,0.020599365234375,0.00054931640625
1690840516861918700,11.580918701171875,-0.98077392578125,0.02020263671875,0.0006103515625
1690840516871958800,11.590958740234376,-0.980865478515625,0.02056884765625,0.0010986328125
1690840516881998800,11.600998779296875,-0.9809722900390625,0.0200042724609375,0.001312255859375
1690840516892039700,11.611039794921876,-0.980926513671875,0.020172119140625,0.0012359619140625
1690840516902110500,11.6211103515625,-0.9817047119140625,0.019287109375,0.0016632080078125
1690840516912150500,11.631150634765625,-0.98193359375,0.0200347900390625,0.00225830078125
1690840516922190600,11.641190673828126,-0.9810943603515625,0.0206451416015625,0.0016632080078125
1690840516932230700,11.651230712890625,-0.980621337890625,0.0203704833984375,0.001678466796875
1690840516942271700,11.661271728515626,-0.9811553955078125,0.02093505859375,0.0019683837890625
1690840516952311800,11.671311767578125,-0.9811248779296875,0.0203094482421875,0.0026702880859375
1690840516962351900,11.681351806640626,-0.9809417724609375,0.020233154296875,0.0009002685546875
1690840516972392700,11.691392822265625,-0.9807891845703125,0.0196990966796875,0.00115966796875
1690840516982432500,11.7014326171875,-0.9810791015625,0.0194549560546875,0.00103759765625
1690840516992472600,11.71147265625,-0.9813995361328125,0.0200653076171875,0.000152587890625
1690840517002512600,11.7215126953125,-0.9816131591796875,0.02069091796875,0.0004119873046875
1690840517012553700,11.7315537109375,-0.98101806640625,0.019927978515625,0.00054931640625
1690840517022593800,11.74159375,-0.9807891845703125,0.0200042724609375,0.0018463134765625
1690840517032633900,11.7516337890625,-0.9810028076171875,0.0189666748046875,0.0019989013671875
1690840517042673700,11.761673583984376,-0.98150634765625,0.01953125,0.0014801025390625
1690840517052744700,11.77174462890625,-0.98089599609375,0.020233154296875,0.0009918212890625
1690840517062785500,11.78178564453125,-0.98095703125,0.0200042724609375,0.000335693359375
1690840517072825600,11.79182568359375,-0.981353759765625,0.02020263671875,0.0010986328125
1690840517082865700,11.80186572265625,-0.98101806640625,0.01971435546875,0.0012359619140625
1690840517092905700,11.81190576171875,-0.9811859130859375,0.0199432373046875,0.0008697509765625
1690840517102946800,11.82194677734375,-0.9814453125,0.020233154296875,0.001007080078125
1690840517112987000,11.83198681640625,-0.9802093505859375,0.02001953125,0.0014495849609375
1690840517123026700,11.842026611328125,-0.9809417724609375,0.0207061767578125,0.0007781982421875
1690840517133067500,11.852067626953126,-0.9819183349609375,0.020721435546875,0.00067138671875
1690840517143107600,11.862107666015625,-0.9810028076171875,0.01995849609375,0.0017852783203125
1690840517153147600,11.872147705078126,-0.980712890625,0.0205078125,0.002044677734375
1690840517163187700,11.882187744140625,-0.9806976318359375,0.0194244384765625,0.00189208984375
1690840517173228800,11.892228759765626,-0.9813232421875,0.019378662109375,0.00177001953125
1690840517183268900,11.902268798828125,-0.9804229736328125,0.0206146240234375,0.0015869140625
1690840517193308700,11.91230859375,-0.9811859130859375,0.0202484130859375,0.001739501953125
1690840517203379700,11.922379638671876,-0.980865478515625,0.0194854736328125,0.001312255859375
1690840517213419800,11.932419677734375,-0.981231689453125,0.020538330078125,0.001312255859375
1690840517223460600,11.942460693359376,-0.98126220703125,0.02044677734375,0.0013580322265625
1690840517233500700,11.952500732421875,-0.979705810546875,0.019195556640625,0.000579833984375
1690840517243540700,11.962540771484376,-0.979888916015625,0.019927978515625,0.0015106201171875
1690840517253580500,11.97258056640625,-0.9804534912109375,0.01995849609375,0.001007080078125
1690840517263622000,11.982621826171876,-0.98114013671875,0.01983642578125,0.001251220703125
1690840517273661700,11.99266162109375,-0.9801177978515625,0.0206298828125,0.0017547607421875
1690840517283701800,12.00270166015625,-0.9817047119140625,0.020721435546875,0.00146484375
1690840517293742600,12.01274267578125,-0.98175048828125,0.0202178955078125,0.001556396484375
1690840517303782700,12.02278271484375,-0.9813079833984375,0.020538330078125,0.0016632080078125
1690840517313822700,12.03282275390625,-0.981903076171875,0.01995849609375,0.0009307861328125
1690840517323862800,12.04286279296875,-0.981597900390625,0.0202789306640625,0.000762939453125
1690840517333904000,12.05290380859375,-0.981719970703125,0.02056884765625,0.00140380859375
1690840517343943700,12.062943603515626,-0.9813232421875,0.020477294921875,0.0009613037109375
1690840517354014700,12.0730146484375,-0.9813690185546875,0.020721435546875,0.0009307861328125
1690840517364054800,12.0830546875,-0.9818878173828125,0.02032470703125,0.0009613037109375
1690840517374094800,12.0930947265625,-0.981536865234375,0.020477294921875,0.0013427734375
1690840517384135700,12.1031357421875,-0.980316162109375,0.01947021484375,0.0016326904296875
1690840517394175700,12.11317578125,-0.9814605712890625,0.0196380615234375,0.0019989013671875
1690840517404215600,12.123215576171875,-0.9808502197265625,0.0204315185546875,0.001708984375
1690840517414256600,12.133256591796876,-0.9825286865234375,0.0205230712890625,0.0019073486328125
1690840517424296700,12.143296630859375,-0.981475830078125,0.02001953125,0.0014495849609375
1690840517434336800,12.153336669921876,-0.981353759765625,0.020660400390625,0.0018768310546875
1690840517444376800,12.163376953125,-0.9818267822265625,0.01983642578125,0.0015106201171875
1690840517454417700,12.173417724609376,-0.981170654296875,0.019805908203125,0.00177001953125
1690840517464457700,12.183457763671875,-0.9814910888671875,0.0196533203125,0.00146484375
1690840517474497800,12.193497802734376,-0.9800872802734375,0.0201873779296875,0.00152587890625
1690840517484539000,12.203538818359375,-0.980804443359375,0.0199737548828125,0.00164794921875
1690840517494608600,12.213608642578125,-0.9815826416015625,0.0211639404296875,0.0010528564453125
1690840517504649700,12.223649658203126,-0.9806060791015625,0.020416259765625,0.0019989013671875
1690840517514689800,12.233689697265625,-0.9809417724609375,0.0201568603515625,0.001861572265625
1690840517524729900,12.243729736328126,-0.9812164306640625,0.0201263427734375,0.0003814697265625
1690840517534769700,12.253769775390625,-0.9804229736328125,0.01983642578125,0.0005035400390625
1690840517544805400,12.263805419921875,-0.98126220703125,0.0196380615234375,0.001556396484375
1690840517554845200,12.27384521484375,-0.9818572998046875,0.0202789306640625,0.0003814697265625
1690840517564885200,12.28388525390625,-0.980499267578125,0.0205078125,0.0001373291015625
1690840517574926000,12.293926025390626,-0.9810943603515625,0.0194854736328125,0.0013885498046875
1690840517584966100,12.303966064453125,-0.982086181640625,0.02032470703125,0.00225830078125
1690840517595006200,12.314006103515625,-0.9820098876953125,0.021209716796875,0.001922607421875
1690840517605046300,12.32404638671875,-0.981475830078125,0.020721435546875,0.0021820068359375
1690840517615087400,12.33408740234375,-0.981597900390625,0.0206146240234375,0.00091552734375
1690840517625127200,12.344127197265625,-0.981475830078125,0.020233154296875,0.0014190673828125
1690840517635167200,12.354167236328125,-0.98028564453125,0.020294189453125,0.001434326171875
1690840517645238300,12.36423828125,-0.9810028076171875,0.019989013671875,0.0009307861328125
1690840517655278000,12.374278076171874,-0.981201171875,0.020416259765625,0.0020294189453125
1690840517665319200,12.384319091796876,-0.9815216064453125,0.0201263427734375,0.00201416015625
1690840517675359200,12.394359130859375,-0.981719970703125,0.0201263427734375,0.00128173828125
1690840517685399300,12.4043994140625,-0.9813079833984375,0.01934814453125,0.0012054443359375
1690840517695439000,12.414439208984374,-0.9817657470703125,0.0204315185546875,0.0008392333984375
1690840517705480200,12.424480224609376,-0.9815673828125,0.02044677734375,0.001220703125
1690840517715520300,12.434520263671875,-0.9809417724609375,0.0197601318359375,0.0013275146484375
1690840517725560000,12.44456005859375,-0.981719970703125,0.0201568603515625,0.0006561279296875
1690840517735601200,12.45460107421875,-0.9815673828125,0.0196533203125,0.0010986328125
1690840517745641200,12.46464111328125,-0.980987548828125,0.0186920166015625,0.0008087158203125
1690840517755681300,12.474681396484375,-0.9809417724609375,0.0201568603515625,0.00164794921875
1690840517765721000,12.48472119140625,-0.980804443359375,0.01995849609375,0.001190185546875
1690840517775762200,12.49476220703125,-0.981964111328125,0.019927978515625,0.00103759765625
1690840517785802200,12.50480224609375,-0.982452392578125,0.0200042724609375,0.00091552734375
1690840517795873300,12.514873291015626,-0.9807281494140625,0.0203094482421875,0.001068115234375
1690840517805913000,12.5249130859375,-0.98175048828125,0.02093505859375,0.0009307861328125
1690840517815953200,12.534953125,-0.9822845458984375,0.020416259765625,0.00103759765625
1690840517825994200,12.544994140625,-0.9816131591796875,0.0199127197265625,0.0020599365234375
1690840517836034300,12.555034423828126,-0.98175048828125,0.0206451416015625,0.0020294189453125
1690840517846074000,12.56507421875,-0.980133056640625,0.020660400390625,0.0018310546875
1690840517856115200,12.575115234375,-0.9801788330078125,0.0206146240234375,0.001739501953125
1690840517866155300,12.5851552734375,-0.9815216064453125,0.0202484130859375,0.0009307861328125
1690840517876195000,12.595195068359375,-0.98065185546875,0.0199432373046875,0.0019378662109375
1690840517886235100,12.605235107421874,-0.9805450439453125,0.0198974609375,0.001251220703125
1690840517896276200,12.615276123046876,-0.9811553955078125,0.019683837890625,0.00030517578125
1690840517906316300,12.62531640625,-0.98040771484375,0.0196380615234375,0.001068115234375
1690840517916356000,12.635356201171875,-0.98101806640625,0.02001953125,0.001556396484375
1690840517926397200,12.645397216796875,-0.98162841796875,0.0205078125,0.00091552734375
1690840517936467200,12.65546728515625,-0.981842041015625,0.0198516845703125,0.0005950927734375
1690840517946508300,12.66550830078125,-0.9815826416015625,0.0191497802734375,0.001068115234375
1690840517956548000,12.675548095703125,-0.9809417724609375,0.0206298828125,0.001007080078125
1690840517966588200,12.685588134765625,-0.98187255859375,0.0199432373046875,0.0016632080078125
1690840517976628200,12.695628173828124,-0.981231689453125,0.019805908203125,0.00146484375
1690840517986669300,12.70566943359375,-0.9808197021484375,0.0195465087890625,0.0015106201171875
1690840517996709000,12.715709228515625,-0.980712890625,0.0203094482421875,0.0009918212890625
1690840518006749200,12.725749267578125,-0.98065185546875,0.0197296142578125,0.0012054443359375
1690840518016790300,12.735790283203125,-0.98095703125,0.019439697265625,0.0004119873046875
1690840518026830000,12.745830078125,-0.981597900390625,0.0196990966796875,0.001312255859375
1690840518036870100,12.7558701171875,-0.98193359375,0.0198974609375,0.0012359619140625
1690840518046910200,12.76591015625,-0.9809417724609375,0.0208282470703125,0.00103759765625
1690840518056951300,12.775951416015625,-0.9814300537109375,0.0207672119140625,0.00115966796875
1690840518066991000,12.7859912109375,-0.982025146484375,0.0207977294921875,0.0011749267578125
1690840518077031200,12.79603125,-0.980621337890625,0.020172119140625,0.001556396484375
1690840518087102200,12.806102294921875,-0.980682373046875,0.0206756591796875,0.0016632080078125
1690840518097142300,12.816142333984375,-0.9819183349609375,0.0203094482421875,0.0007781982421875
1690840518107183000,12.82618310546875,-0.9812774658203125,0.0205841064453125,0.0012664794921875
1690840518117223200,12.83622314453125,-0.981109619140625,0.019775390625,0.0017547607421875
1690840518127263000,12.846262939453124,-0.9817352294921875,0.0202484130859375,0.00201416015625
1690840518137304300,12.85630419921875,-0.9820098876953125,0.0211334228515625,0.0012359619140625
1690840518147344100,12.86634423828125,-0.9815826416015625,0.0204620361328125,0.0018463134765625
1690840518157384200,12.87638427734375,-0.9804229736328125,0.0198211669921875,0.0015411376953125
1690840518167424300,12.88642431640625,-0.9814453125,0.020233154296875,0.0010833740234375
1690840518177465000,12.896465087890626,-0.9813232421875,0.0198211669921875,0.0021209716796875
1690840518187505200,12.906505126953125,-0.9810638427734375,0.0202484130859375,0.001434326171875
1690840518197545200,12.916545166015625,-0.9815673828125,0.0196380615234375,0.00018310546875
1690840518207585000,12.9265849609375,-0.9819183349609375,0.0200653076171875,0.000701904296875
1690840518217626000,12.936626220703126,-0.9812469482421875,0.0200958251953125,0.0013275146484375
1690840518227666200,12.946666259765625,-0.9811553955078125,0.02020263671875,0.001800537109375
1690840518237737200,12.9567373046875,-0.980987548828125,0.0196990966796875,0.0012359619140625
1690840518247777300,12.96677734375,-0.981353759765625,0.0201263427734375,0.0008697509765625
1690840518257817300,12.9768173828125,-0.9818115234375,0.0203094482421875,0.001068115234375
1690840518267858200,12.986858154296876,-0.98162841796875,0.0201568603515625,0.00103759765625
1690840518277898000,12.99689794921875,-0.981689453125,0.020599365234375,0.001434326171875
1690840518287938000,13.00693798828125,-0.9810791015625,0.0201873779296875,0.001708984375
1690840518297979100,13.016979248046875,-0.9810333251953125,0.0204925537109375,0.0009765625
1690840518308019200,13.027019287109376,-0.9820098876953125,0.0205230712890625,0.00042724609375
1690840518318059300,13.037059326171875,-0.98077392578125,0.020355224609375,0.0009918212890625
1690840518328099300,13.047099365234375,-0.9816436767578125,0.020904541015625,0.0007781982421875
1690840518338140200,13.05714013671875,-0.981689453125,0.0200958251953125,0.0014495849609375
1690840518348180200,13.06718017578125,-0.980560302734375,0.020233154296875,0.0009002685546875
1690840518358220000,13.077219970703124,-0.9810943603515625,0.020233154296875,0.00152587890625
