time,seconds_elapsed,z,y,x
1690839981027905500,0.032905517578125,-0.993621826171875,-0.0145721435546875,0.008514404296875
1690839981037912300,0.042912353515625,-0.9893035888671875,-0.0045013427734375,0.0067291259765625
1690839981047944400,0.0529443359375,-0.982574462890625,0.0089111328125,0.0025482177734375
1690839981057984500,0.062984619140625,-0.9735107421875,0.0188140869140625,-0.00164794921875
1690839981068025600,0.073025634765625,-0.970489501953125,0.0279541015625,-0.0018768310546875
1690839981078065700,0.083065673828125,-0.966766357421875,0.034210205078125,0.000701904296875
1690839981088105500,0.09310546875,-0.964599609375,0.035797119140625,0.0023651123046875
1690839981098145500,0.1031455078125,-0.965667724609375,0.035003662109375,0.004364013671875
1690839981108186400,0.113186279296875,-0.967315673828125,0.029632568359375,0.0054168701171875
1690839981118226400,0.123226318359375,-0.9701995849609375,0.0212860107421875,0.005615234375
1690839981128266500,0.1332666015625,-0.9747161865234375,0.0117034912109375,0.00299072265625
1690839981138307600,0.1433076171875,-0.978424072265625,0.002166748046875,0.0010223388671875
1690839981148347600,0.15334765625,-0.980621337890625,-0.00531005859375,0.0006866455078125
1690839981158387500,0.163387451171875,-0.981781005859375,-0.009063720703125,0.0006103515625
1690839981168427500,0.173427490234375,-0.9815673828125,-0.0094146728515625,0.001983642578125
1690839981178468400,0.18346826171875,-0.981109619140625,-0.0053253173828125,0.0032196044921875
1690839981188539400,0.193539306640625,-0.979217529296875,0.0003509521484375,0.0046234130859375
1690839981198579500,0.203579345703125,-0.9769439697265625,0.0077972412109375,0.005615234375
1690839981208619500,0.21361962890625,-0.973388671875,0.015472412109375,0.0040283203125
1690839981218659600,0.22365966796875,-0.9708251953125,0.0209503173828125,0.0026397705078125
1690839981228700700,0.23370068359375,-0.9692535400390625,0.024627685546875,0.0018310546875
1690839981238740500,0.243740478515625,-0.9685516357421875,0.0268402099609375,0.001983642578125
1690839981248780500,0.253780517578125,-0.9687652587890625,0.02581787109375,0.0008392333984375
1690839981258820600,0.263820556640625,-0.9705657958984375,0.022430419921875,0.0023956298828125
1690839981268861400,0.273861328125,-0.97369384765625,0.0174713134765625,0.0028533935546875
1690839981278901500,0.283901611328125,-0.9763946533203125,0.011322021484375,0.00323486328125
1690839981288941600,0.293941650390625,-0.978271484375,0.006134033203125,0.0032196044921875
1690839981298982700,0.303982666015625,-0.97882080078125,0.0013885498046875,0.0025177001953125
1690839981309022500,0.3140224609375,-0.9793701171875,0.000274658203125,0.0025177001953125
1690839981319062500,0.3240625,-0.979888916015625,-0.00054931640625,0.0015869140625
1690839981329102600,0.3341025390625,-0.9793548583984375,0.001708984375,0.002288818359375
1690839981339173600,0.344173583984375,-0.9781494140625,0.0056610107421875,0.00323486328125
1690839981349214500,0.35421435546875,-0.9763641357421875,0.010772705078125,0.0031280517578125
1690839981359254500,0.364254638671875,-0.97503662109375,0.01434326171875,0.0025482177734375
1690839981369294600,0.374294677734375,-0.9740753173828125,0.0170440673828125,0.0032958984375
1690839981379334400,0.38433447265625,-0.97210693359375,0.01971435546875,0.0035400390625
1690839981389375500,0.39437548828125,-0.9720916748046875,0.01995849609375,0.0028533935546875
1690839981399415600,0.40441552734375,-0.9732666015625,0.01824951171875,0.002532958984375
1690839981409455600,0.41445556640625,-0.97381591796875,0.015960693359375,0.0018310546875
1690839981419496400,0.424496337890625,-0.9764556884765625,0.0121917724609375,0.00164794921875
1690839981429536500,0.43453662109375,-0.978424072265625,0.0081329345703125,0.002960205078125
1690839981439576600,0.44457666015625,-0.9786376953125,0.005706787109375,0.0038299560546875
1690839981449616400,0.454616455078125,-0.978912353515625,0.0040740966796875,0.0040283203125
1690839981459657500,0.464657470703125,-0.97930908203125,0.00390625,0.0038909912109375
1690839981469697500,0.474697509765625,-0.9783935546875,0.005218505859375,0.0029296875
1690839981479768600,0.4847685546875,-0.977508544921875,0.0077972412109375,0.0021820068359375
1690839981489808600,0.49480859375,-0.9765625,0.0106658935546875,0.001983642578125
1690839981499848700,0.5048486328125,-0.975982666015625,0.0136566162109375,0.00225830078125
1690839981509889500,0.5148896484375,-0.9747467041015625,0.0159454345703125,0.002166748046875
1690839981519929600,0.5249296875,-0.9752655029296875,0.0157470703125,0.002685546875
1690839981529969400,0.534969482421875,-0.9751434326171875,0.0150299072265625,0.002838134765625
1690839981540009500,0.545009521484375,-0.9750213623046875,0.01409912109375,0.002349853515625
1690839981550050600,0.555050537109375,-0.9757232666015625,0.0130462646484375,0.002838134765625
1690839981560090600,0.565090576171875,-0.977874755859375,0.0119476318359375,0.0028533935546875
1690839981570130700,0.575130615234375,-0.977294921875,0.0099639892578125,0.003143310546875
1690839981580171500,0.585171630859375,-0.9787750244140625,0.0079193115234375,0.0027313232421875
1690839981590211600,0.595211669921875,-0.9785308837890625,0.007232666015625,0.0034332275390625
1690839981600251400,0.60525146484375,-0.9791259765625,0.0077056884765625,0.0032806396484375
1690839981610291500,0.61529150390625,-0.977691650390625,0.0081024169921875,0.00250244140625
1690839981620332500,0.62533251953125,-0.9760589599609375,0.0095062255859375,0.001983642578125
1690839981630403600,0.635403564453125,-0.978851318359375,0.011444091796875,0.0023193359375
1690839981640443600,0.645443603515625,-0.97808837890625,0.0122833251953125,0.00299072265625
1690839981650483700,0.655483642578125,-0.9770660400390625,0.0133819580078125,0.00341796875
1690839981660523800,0.665523681640625,-0.977325439453125,0.014373779296875,0.0030670166015625
1690839981670564600,0.675564697265625,-0.976104736328125,0.0142974853515625,0.0029754638671875
1690839981680604400,0.6856044921875,-0.976837158203125,0.0129241943359375,0.0032806396484375
1690839981690644500,0.69564453125,-0.9776763916015625,0.011932373046875,0.003509521484375
1690839981700684500,0.7056845703125,-0.97735595703125,0.0106964111328125,0.0027923583984375
1690839981710725600,0.7157255859375,-0.9777984619140625,0.0100250244140625,0.00286865234375
1690839981720765700,0.725765625,-0.97869873046875,0.0088958740234375,0.0019378662109375
1690839981730805800,0.7358056640625,-0.9795684814453125,0.009002685546875,0.0016937255859375
1690839981740846600,0.7458466796875,-0.978790283203125,0.00885009765625,0.0029449462890625
1690839981750886400,0.755886474609375,-0.98052978515625,0.0099639892578125,0.0022430419921875
1690839981760926500,0.765926513671875,-0.974639892578125,0.0103302001953125,0.0019378662109375
1690839981770997500,0.77599755859375,-0.9834442138671875,0.0113525390625,0.0031280517578125
1690839981781037600,0.78603759765625,-0.972076416015625,0.0120697021484375,0.003814697265625
1690839981791078700,0.79607861328125,-0.9828033447265625,0.0127716064453125,0.00341796875
1690839981801118700,0.80611865234375,-0.971466064453125,0.0124969482421875,0.0023345947265625
1690839981811158800,0.81615869140625,-0.982025146484375,0.01348876953125,0.0026397705078125
1690839981821198300,0.8261982421875,-0.974212646484375,0.011749267578125,0.0024261474609375
1690839981831239400,0.836239501953125,-0.98101806640625,0.010650634765625,0.002777099609375
1690839981841279500,0.846279541015625,-0.97796630859375,0.010284423828125,0.0019989013671875
1690839981851319600,0.856319580078125,-0.979827880859375,0.0098114013671875,0.002197265625
1690839981861360600,0.866360595703125,-0.97998046875,0.0096893310546875,0.001739501953125
1690839981871400700,0.876400634765625,-0.97772216796875,0.0096282958984375,0.0026092529296875
1690839981881440500,0.8864404296875,-0.980926513671875,0.010009765625,0.0015106201171875
1690839981891480300,0.896480224609375,-0.9783477783203125,0.0103759765625,0.00213623046875
1690839981901521400,0.906521484375,-0.9786834716796875,0.0118560791015625,0.00262451171875
1690839981911561500,0.9165615234375,-0.9630126953125,0.0662841796875,0.0060882568359375
1690839981921632500,0.926632568359375,-0.9781341552734375,0.0072021484375,0.01287841796875
1690839981931672600,0.936672607421875,-0.9839019775390625,-0.0142822265625,-0.0064697265625
1690839981941712600,0.946712646484375,-0.985809326171875,-0.007720947265625,-0.0024261474609375
1690839981951753700,0.956753662109375,-0.9851531982421875,-0.0145416259765625,-0.00360107421875
1690839981961793500,0.96679345703125,-0.9865264892578125,-0.00543212890625,0.0004119873046875
1690839981971833300,0.976833251953125,-0.97955322265625,0.0026092529296875,0.004486083984375
1690839981981873400,0.986873291015625,-0.98284912109375,0.012725830078125,0.005767822265625
1690839981991914500,0.99691455078125,-0.959197998046875,0.049957275390625,0.014556884765625
1690839982001954600,1.00695458984375,-0.9676513671875,0.0777130126953125,0.026824951171875
1690839982011994600,1.01699462890625,-0.9755401611328125,-0.0222015380859375,-0.0221099853515625
1690839982022035700,1.02703564453125,-0.9857635498046875,-0.011138916015625,-0.0188140869140625
1690839982032075500,1.037075439453125,-0.9822998046875,-0.0135498046875,-0.008209228515625
1690839982042115600,1.047115478515625,-0.9839630126953125,0.0071868896484375,0.011474609375
1690839982052155600,1.05715576171875,-0.976226806640625,0.0253448486328125,0.0219573974609375
1690839982062226700,1.067226806640625,-0.98809814453125,0.00048828125,0.0157928466796875
1690839982072267800,1.077267822265625,-0.98455810546875,-0.0198822021484375,-0.0059967041015625
1690839982082307800,1.087307861328125,-0.9843597412109375,-0.0005340576171875,-0.004119873046875
1690839982092348000,1.097347900390625,-0.9730224609375,0.0185699462890625,0.000701904296875
1690839982102387700,1.1073876953125,-0.9774627685546875,0.0206756591796875,0.0000152587890625
1690839982112428500,1.117428466796875,-0.9696807861328125,0.0341644287109375,0.011138916015625
1690839982122468600,1.127468505859375,-0.974151611328125,0.0219879150390625,0.001190185546875
1690839982132508700,1.1375087890625,-0.9755401611328125,0.010986328125,-0.0065155029296875
1690839982142549800,1.1475498046875,-0.9781951904296875,0.0102996826171875,-0.001251220703125
1690839982152589800,1.15758984375,-0.978912353515625,0.0087738037109375,0.0043487548828125
1690839982162630000,1.1676298828125,-0.9839324951171875,0.0079345703125,0.009185791015625
1690839982172669700,1.177669677734375,-0.9822540283203125,0.00543212890625,0.0095062255859375
1690839982182710500,1.18771044921875,-0.9818115234375,0.00469970703125,0.0069580078125
1690839982192750600,1.19775048828125,-0.98187255859375,0.006256103515625,0.003875732421875
1690839982202790700,1.207790771484375,-0.9777374267578125,0.010833740234375,0.00225830078125
1690839982212861700,1.21786181640625,-0.9782562255859375,0.0140228271484375,0.0002593994140625
1690839982222901800,1.22790185546875,-0.9763336181640625,0.0142364501953125,-0.0014495849609375
1690839982232942800,1.23794287109375,-0.9764251708984375,0.0132293701171875,-0.0025177001953125
1690839982242983000,1.24798291015625,-0.97821044921875,0.0125274658203125,0.000091552734375
1690839982253022700,1.258022705078125,-0.9791107177734375,0.009521484375,0.002532958984375
1690839982263062800,1.268062744140625,-0.9821624755859375,0.008819580078125,0.0056915283203125
1690839982273103600,1.278103515625,-0.982269287109375,0.007293701171875,0.0074310302734375
1690839982283143700,1.288143798828125,-0.9807891845703125,0.0075531005859375,0.0069580078125
1690839982293183700,1.298183837890625,-0.981658935546875,0.0097198486328125,0.0050048828125
1690839982303224800,1.308224853515625,-0.9795989990234375,0.0114288330078125,0.0020599365234375
1690839982313265000,1.318264892578125,-0.97802734375,0.0126953125,0.001190185546875
1690839982323304700,1.3283046875,-0.9781494140625,0.0131683349609375,-0.00018310546875
1690839982333344800,1.3383447265625,-0.9761962890625,0.0133819580078125,-0.000274658203125
1690839982343385600,1.348385498046875,-0.9786834716796875,0.01226806640625,0.0010223388671875
1690839982353425700,1.35842578125,-0.9788665771484375,0.010223388671875,0.0038604736328125
1690839982363496700,1.36849658203125,-0.9801788330078125,0.0086517333984375,0.00433349609375
1690839982373536800,1.378536865234375,-0.982086181640625,0.0093994140625,0.00482177734375
1690839982383576600,1.38857666015625,-0.980224609375,0.009613037109375,0.00518798828125
1690839982393617700,1.39861767578125,-0.980072021484375,0.01031494140625,0.0042572021484375
1690839982403657700,1.40865771484375,-0.9797821044921875,0.0114288330078125,0.0026092529296875
1690839982413697800,1.41869775390625,-0.977752685546875,0.01190185546875,0.0014801025390625
1690839982423737900,1.42873779296875,-0.978851318359375,0.0128631591796875,0.0007476806640625
1690839982433778700,1.43877880859375,-0.9787139892578125,0.0113983154296875,0.000244140625
1690839982443818800,1.44881884765625,-0.9783477783203125,0.0108184814453125,0.0013580322265625
1690839982453858800,1.45885888671875,-0.9804534912109375,0.009674072265625,0.0027008056640625
1690839982463900000,1.46889990234375,-0.98040771484375,0.009185791015625,0.0037689208984375
1690839982473939700,1.478939697265625,-0.9808807373046875,0.0089569091796875,0.0035858154296875
1690839982483979800,1.488979736328125,-0.9803924560546875,0.0089874267578125,0.003631591796875
1690839982494019800,1.499019775390625,-0.9801483154296875,0.010528564453125,0.00299072265625
1690839982504091000,1.5090908203125,-0.9788970947265625,0.0117950439453125,0.0024871826171875
1690839982514131700,1.519131591796875,-0.9790802001953125,0.01226806640625,0.0013275146484375
1690839982524171800,1.529171875,-0.97857666015625,0.01214599609375,0.001495361328125
1690839982534211600,1.539211669921875,-0.979095458984375,0.0121917724609375,0.0008392333984375
1690839982544251600,1.549251708984375,-0.979156494140625,0.010406494140625,0.0017852783203125
1690839982554292700,1.559292724609375,-0.9799957275390625,0.0095672607421875,0.0024566650390625
1690839982564332800,1.569332763671875,-0.9801483154296875,0.0091552734375,0.0023956298828125
1690839982574372900,1.579372802734375,-0.979949951171875,0.008941650390625,0.0027618408203125
1690839982584413700,1.58941357421875,-0.9808197021484375,0.0102996826171875,0.003387451171875
1690839982594453800,1.599453857421875,-0.9805145263671875,0.01068115234375,0.002288818359375
1690839982604493800,1.609493896484375,-0.9802398681640625,0.0118255615234375,0.0024566650390625
1690839982614533600,1.61953369140625,-0.9792022705078125,0.013153076171875,0.001953125
1690839982624574700,1.62957470703125,-0.9793548583984375,0.0116424560546875,0.00140380859375
1690839982634614800,1.63961474609375,-0.979522705078125,0.0108184814453125,0.0021820068359375
1690839982644654800,1.64965478515625,-0.9812164306640625,0.0102691650390625,0.002410888671875
1690839982654726000,1.659725830078125,-0.980712890625,0.0098419189453125,0.003173828125
1690839982664766000,1.669765869140625,-0.9804840087890625,0.0096893310546875,0.004180908203125
1690839982674806800,1.679806884765625,-0.9809722900390625,0.00927734375,0.0038604736328125
1690839982684846600,1.6898466796875,-0.9814453125,0.0101165771484375,0.003997802734375
1690839982694886700,1.69988671875,-0.9803924560546875,0.0110931396484375,0.0031280517578125
1690839982704926700,1.7099267578125,-0.97998046875,0.012176513671875,0.0030670166015625
1690839982714967800,1.7199677734375,-0.979766845703125,0.0116424560546875,0.0026092529296875
1690839982725008000,1.7300078125,-0.9797821044921875,0.0119476318359375,0.0017852783203125
1690839982735048000,1.7400478515625,-0.9800262451171875,0.0119476318359375,0.002044677734375
1690839982745088800,1.7500888671875,-0.9810638427734375,0.0103912353515625,0.00323486328125
1690839982755128800,1.76012890625,-0.9810638427734375,0.0099334716796875,0.00390625
1690839982765168600,1.770168701171875,-0.980804443359375,0.00927734375,0.003936767578125
1690839982775208700,1.780208740234375,-0.9813385009765625,0.00958251953125,0.0041961669921875
1690839982785249800,1.790249755859375,-0.9811248779296875,0.0097808837890625,0.003662109375
1690839982795320800,1.80032080078125,-0.9815826416015625,0.0111083984375,0.0033111572265625
1690839982805361000,1.81036083984375,-0.9813079833984375,0.011566162109375,0.002227783203125
1690839982815401000,1.82040087890625,-0.979644775390625,0.011810302734375,0.00152587890625
1690839982825440800,1.830440673828125,-0.97979736328125,0.0131988525390625,0.0010528564453125
1690839982835481600,1.840481689453125,-0.9797210693359375,0.011993408203125,0.001800537109375
1690839982845521700,1.850521728515625,-0.9796600341796875,0.011383056640625,0.001373291015625
1690839982855561700,1.860561767578125,-0.9804229736328125,0.010772705078125,0.002777099609375
1690839982865601800,1.870601806640625,-0.9809417724609375,0.0103302001953125,0.00323486328125
1690839982875643000,1.880642822265625,-0.981109619140625,0.00994873046875,0.0038909912109375
1690839982885683000,1.890682861328125,-0.9809112548828125,0.0097198486328125,0.0037078857421875
1690839982895722800,1.90072265625,-0.9809417724609375,0.009979248046875,0.00250244140625
1690839982905763800,1.910763916015625,-0.9815216064453125,0.01025390625,0.00213623046875
1690839982915803600,1.9208037109375,-0.98004150390625,0.0113983154296875,0.0024261474609375
1690839982925843700,1.93084375,-0.980255126953125,0.01251220703125,0.001983642578125
1690839982935883800,1.9408837890625,-0.979827880859375,0.01092529296875,0.001953125
1690839982945954800,1.950954833984375,-0.9803619384765625,0.00982666015625,0.0020904541015625
1690839982955996000,1.960995849609375,-0.9816436767578125,0.01007080078125,0.0016937255859375
1690839982966036000,1.971035888671875,-0.9812774658203125,0.01129150390625,0.003753662109375
1690839982976075800,1.98107568359375,-0.979156494140625,0.01171875,0.0034332275390625
1690839982986115600,1.991115478515625,-0.9803924560546875,0.0118865966796875,0.00225830078125
1690839982996156700,2.00115673828125,-0.98077392578125,0.011627197265625,0.001800537109375
1690839983006196700,2.01119677734375,-0.981658935546875,0.01043701171875,0.000885009765625
1690839983016236800,2.02123681640625,-0.97979736328125,0.0102081298828125,0.001251220703125
1690839983026278000,2.03127783203125,-0.98040771484375,0.0095367431640625,0.002166748046875
1690839983036318000,2.04131787109375,-0.9812164306640625,0.009857177734375,0.0043792724609375
1690839983046354200,2.051354248046875,-0.9815673828125,0.009124755859375,0.0048370361328125
1690839983056394000,2.06139404296875,-0.98193359375,0.008758544921875,0.0043182373046875
1690839983066435000,2.07143505859375,-0.98193359375,0.0106201171875,0.003173828125
1690839983076475100,2.08147509765625,-0.97979736328125,0.0114593505859375,0.002166748046875
1690839983086546200,2.091546142578125,-0.9791717529296875,0.0127716064453125,0.0011444091796875
1690839983096586200,2.101586181640625,-0.980194091796875,0.0126953125,0.000885009765625
1690839983106626000,2.1116259765625,-0.9786834716796875,0.0117645263671875,0.0009307861328125
1690839983116667100,2.121667236328125,-0.9813385009765625,0.0117645263671875,0.0015106201171875
1690839983126707200,2.131707275390625,-0.9815521240234375,0.0101776123046875,0.0027618408203125
1690839983136747000,2.1417470703125,-0.9808197021484375,0.0095367431640625,0.0040130615234375
1690839983146787000,2.151787109375,-0.980743408203125,0.0095062255859375,0.003662109375
1690839983156828200,2.161828125,-0.9820098876953125,0.009063720703125,0.005035400390625
1690839983166868200,2.1718681640625,-0.981903076171875,0.009796142578125,0.0053253173828125
1690839983176908000,2.181907958984375,-0.9810943603515625,0.010162353515625,0.0038604736328125
1690839983186949000,2.19194921875,-0.9810638427734375,0.010528564453125,0.0028533935546875
1690839983196989200,2.2019892578125,-0.9805908203125,0.01153564453125,0.0008087158203125
1690839983207029000,2.212029052734375,-0.98052978515625,0.0127105712890625,0.0000762939453125
1690839983217069000,2.222069091796875,-0.9790496826171875,0.0119476318359375,0.0002288818359375
1690839983227140000,2.23214013671875,-0.978759765625,0.0110015869140625,0.0003814697265625
1690839983237181200,2.24218115234375,-0.97900390625,0.0100860595703125,0.0018768310546875
1690839983247221200,2.25222119140625,-0.981109619140625,0.009002685546875,0.00396728515625
1690839983257261000,2.262260986328125,-0.9817962646484375,0.008331298828125,0.004150390625
1690839983267301000,2.272301025390625,-0.9828643798828125,0.0077667236328125,0.005157470703125
1690839983277342200,2.28234228515625,-0.9834136962890625,0.0091094970703125,0.004608154296875
1690839983287382000,2.292382080078125,-0.980804443359375,0.0102386474609375,0.003082275390625
1690839983297422000,2.302422119140625,-0.980010986328125,0.0113372802734375,0.0021514892578125
1690839983307463200,2.312463134765625,-0.979736328125,0.0128173828125,0.0013427734375
1690839983317503200,2.322503173828125,-0.978271484375,0.0119781494140625,0.00079345703125
1690839983327543000,2.33254296875,-0.9777679443359375,0.0107421875,0.0009307861328125
1690839983337583000,2.3425830078125,-0.985198974609375,0.0101165771484375,0.0015869140625
1690839983347624000,2.3526240234375,-0.9827728271484375,0.009307861328125,0.0021820068359375
1690839983357664000,2.3626640625,-0.978668212890625,0.01043701171875,0.0034332275390625
1690839983367704000,2.3727041015625,-0.98138427734375,0.0104827880859375,0.00531005859375
1690839983377775000,2.382775146484375,-0.9808349609375,0.0135498046875,0.0049896240234375
1690839983387815200,2.392815185546875,-0.9790802001953125,0.016143798828125,0.003997802734375
1690839983397856300,2.402856201171875,-0.97698974609375,0.017608642578125,0.0054168701171875
1690839983407896000,2.41289599609375,-0.9787139892578125,0.02142333984375,0.00946044921875
1690839983417936100,2.42293603515625,-0.9800262451171875,0.02044677734375,0.012359619140625
1690839983427976200,2.43297607421875,-0.982940673828125,0.0058746337890625,0.004058837890625
1690839983438017000,2.44301708984375,-0.98797607421875,-0.0190887451171875,-0.0115203857421875
1690839983448057000,2.45305712890625,-0.98870849609375,-0.00579833984375,0.00604248046875
1690839983458097200,2.46309716796875,-0.989013671875,0.0005950927734375,0.013702392578125
1690839983468138200,2.47313818359375,-0.983489990234375,0.0030364990234375,0.003936767578125
1690839983478178000,2.483177978515625,-0.9805145263671875,0.0122833251953125,-0.0044708251953125
1690839983488218000,2.493218017578125,-0.9723358154296875,0.0198211669921875,-0.0107574462890625
1690839983498258200,2.503258056640625,-0.972503662109375,0.025360107421875,-0.011016845703125
1690839983508299000,2.513299072265625,-0.971832275390625,0.026458740234375,-0.0059051513671875
1690839983518369300,2.523369384765625,-0.9755859375,0.024200439453125,0.0037689208984375
1690839983528410000,2.53341015625,-0.9812469482421875,0.019073486328125,0.012359619140625
1690839983538450200,2.5434501953125,-0.98126220703125,0.0124053955078125,0.016143798828125
1690839983548490000,2.553489990234375,-0.9884033203125,0.0049896240234375,0.013031005859375
1690839983558531000,2.563531005859375,-0.9868316650390625,-0.000762939453125,0.0061187744140625
1690839983568571100,2.573571044921875,-0.981292724609375,-0.002227783203125,-0.0027313232421875
1690839983578611200,2.583611083984375,-0.984832763671875,-0.00042724609375,-0.0074462890625
1690839983588651300,2.5936513671875,-0.982086181640625,0.004302978515625,-0.006072998046875
1690839983598692000,2.603692138671875,-0.98065185546875,0.008544921875,-0.0010223388671875
1690839983608732200,2.613732177734375,-0.9820404052734375,0.0140228271484375,0.0054473876953125
1690839983618772000,2.62377197265625,-0.981170654296875,0.016021728515625,0.0093231201171875
1690839983628813000,2.63381298828125,-0.98175048828125,0.01727294921875,0.0102996826171875
1690839983638853000,2.64385302734375,-0.9785308837890625,0.017547607421875,0.0074920654296875
1690839983648893200,2.65389306640625,-0.9770355224609375,0.017364501953125,0.002471923828125
1690839983658933200,2.663933349609375,-0.97955322265625,0.015838623046875,-0.00091552734375
1690839983669004300,2.67400439453125,-0.977325439453125,0.0135650634765625,-0.003997802734375
1690839983679045000,2.684045166015625,-0.9787445068359375,0.0098876953125,-0.0020904541015625
1690839983689085000,2.6940849609375,-0.983428955078125,0.007415771484375,-0.000274658203125
1690839983699125000,2.704125,-0.9831695556640625,0.0048980712890625,0.0043792724609375
1690839983709165000,2.7141650390625,-0.98504638671875,0.004119873046875,0.0070343017578125
1690839983719206100,2.7242060546875,-0.9839019775390625,0.004791259765625,0.0063934326171875
1690839983729246200,2.73424609375,-0.9842681884765625,0.00732421875,0.0046234130859375
1690839983739286300,2.744286376953125,-0.9784698486328125,0.010284423828125,0.0026092529296875
1690839983749327000,2.7543271484375,-0.981689453125,0.01318359375,-0.000091552734375
1690839983759367200,2.7643671875,-0.976470947265625,0.014556884765625,-0.0015106201171875
1690839983769407000,2.774406982421875,-0.980987548828125,0.0154266357421875,0.000762939453125
1690839983779447000,2.784447021484375,-0.9776458740234375,0.014923095703125,0.00311279296875
1690839983789488000,2.794488037109375,-0.979827880859375,0.014862060546875,0.0052947998046875
1690839983799528200,2.804528076171875,-0.983612060546875,0.0138092041015625,0.0064849853515625
1690839983809599200,2.81459912109375,-0.9800872802734375,0.011199951171875,0.005401611328125
1690839983819639300,2.824639404296875,-0.982666015625,0.0100860595703125,0.002685546875
1690839983829679000,2.83467919921875,-0.98211669921875,0.0085906982421875,0.000274658203125
1690839983839720000,2.844719970703125,-0.980499267578125,0.007293701171875,-0.0014801025390625
1690839983849760000,2.854760009765625,-0.981903076171875,0.0079498291015625,-0.00079345703125
1690839983859800000,2.864800048828125,-0.98095703125,0.0086212158203125,0.0009002685546875
1690839983869840100,2.874840087890625,-0.98248291015625,0.0103607177734375,0.0031585693359375
1690839983879881200,2.884881103515625,-0.9824371337890625,0.0120849609375,0.00604248046875
1690839983889921300,2.89492138671875,-0.9815673828125,0.0126800537109375,0.005462646484375
1690839983899961300,2.90496142578125,-0.9792022705078125,0.012725830078125,0.0047454833984375
1690839983910002200,2.915002197265625,-0.9812469482421875,0.013397216796875,0.0025634765625
1690839983920042000,2.9250419921875,-0.9786224365234375,0.0126800537109375,0.0009002685546875
1690839983930082000,2.93508203125,-0.980255126953125,0.0124969482421875,0.0006103515625
1690839983940122000,2.9451220703125,-0.9796600341796875,0.011199951171875,0.001678466796875
1690839983950163200,2.9551630859375,-0.984619140625,0.0114593505859375,0.0024261474609375
1690839983960233200,2.965233154296875,-0.977691650390625,0.009674072265625,0.00274658203125
1690839983970274300,2.9752744140625,-0.9866790771484375,0.0096282958984375,0.003326416015625
1690839983980314000,2.985314208984375,-0.974212646484375,0.0087890625,0.002532958984375
1690839983990354200,2.995354248046875,-0.98876953125,0.00958251953125,0.0033416748046875
1690839984000395000,3.00539501953125,-0.9636077880859375,0.0094146728515625,0.0015716552734375
1690839984010435000,3.01543505859375,-1.0116729736328125,0.011322021484375,0.003753662109375
1690839984020475100,3.02547509765625,-0.9585723876953125,0.0102081298828125,0.002044677734375
1690839984030515200,3.03551513671875,-0.99127197265625,0.0127716064453125,0.004791259765625
1690839984040556300,3.045556396484375,-0.975799560546875,0.0117340087890625,0.00262451171875
1690839984050604500,3.0556044921875,-0.985015869140625,0.0128631591796875,0.0027923583984375
1690839984060644600,3.06564453125,-0.9750518798828125,0.0114288330078125,0.0007476806640625
1690839984070685700,3.075685791015625,-0.9833221435546875,0.010711669921875,0.000457763671875
1690839984080725800,3.085725830078125,-0.9824066162109375,0.01055908203125,0.001129150390625
1690839984090765800,3.095765869140625,-0.9784393310546875,0.0100555419921875,0.00213623046875
1690839984100836600,3.105836669921875,-0.987396240234375,0.010406494140625,0.0033721923828125
1690839984110876700,3.115876708984375,-0.9736480712890625,0.0081634521484375,0.0039520263671875
1690839984120917500,3.12591748046875,-0.9957122802734375,0.0102996826171875,0.0052032470703125
1690839984130957600,3.13595751953125,-0.97174072265625,0.009979248046875,0.0034027099609375
1690839984140997600,3.14599755859375,-0.9853363037109375,0.0109100341796875,0.0033721923828125
1690839984151037700,3.15603759765625,-0.985565185546875,0.0127105712890625,0.0020599365234375
1690839984161078800,3.166078857421875,-0.9742584228515625,0.011962890625,0.0005035400390625
1690839984171118800,3.176118896484375,-0.9844207763671875,0.012359619140625,0.0014495849609375
1690839984181158700,3.18615869140625,-0.977935791015625,0.0115966796875,0.001678466796875
1690839984191199500,3.196199462890625,-0.983184814453125,0.0121612548828125,0.0023345947265625
1690839984201239600,3.206239501953125,-0.9761810302734375,0.0098419189453125,0.0031890869140625
1690839984211279600,3.216279541015625,-0.9901123046875,0.010467529296875,0.004486083984375
1690839984221319700,3.226319580078125,-0.97265625,0.0101776123046875,0.0032806396484375
1690839984231360800,3.23636083984375,-0.9905242919921875,0.0102996826171875,0.0040130615234375
1690839984241400800,3.24640087890625,-0.969696044921875,0.0095977783203125,0.00262451171875
1690839984251471600,3.2564716796875,-1.000335693359375,0.0120849609375,0.0028228759765625
1690839984261511700,3.26651171875,-0.964141845703125,0.01019287109375,0.001068115234375
1690839984271551500,3.276551513671875,-0.9851226806640625,0.0113067626953125,0.00177001953125
1690839984281592600,3.286592529296875,-0.9864349365234375,0.012786865234375,0.00201416015625
1690839984291632600,3.296632568359375,-0.9753875732421875,0.011566162109375,0.0014801025390625
1690839984301672700,3.306672607421875,-0.985382080078125,0.0113372802734375,0.00286865234375
1690839984311712800,3.316712646484375,-0.978057861328125,0.0105133056640625,0.0025787353515625
1690839984321753900,3.32675390625,-0.9877777099609375,0.0108795166015625,0.0043182373046875
1690839984331793700,3.336793701171875,-0.9755401611328125,0.01031494140625,0.0043792724609375
1690839984341833500,3.34683349609375,-0.98663330078125,0.010498046875,0.0043182373046875
1690839984351874600,3.35687451171875,-0.9780426025390625,0.00970458984375,0.003448486328125
1690839984361914600,3.36691455078125,-0.9878082275390625,0.0108795166015625,0.0027923583984375
1690839984371954700,3.37695458984375,-0.9722747802734375,0.01080322265625,0.0008392333984375
1690839984381994800,3.386994873046875,-0.9866790771484375,0.0109405517578125,0.0016632080078125
1690839984392065500,3.3970654296875,-0.9827117919921875,0.011627197265625,0.0017852783203125
1690839984402106600,3.407106689453125,-0.97442626953125,0.0112457275390625,0.002227783203125
1690839984412146700,3.417146728515625,-0.9862060546875,0.01141357421875,0.003265380859375
1690839984422186500,3.4271865234375,-0.9837493896484375,0.0115509033203125,0.0039215087890625
1690839984432226600,3.4372265625,-0.976531982421875,0.0112457275390625,0.0031890869140625
1690839984442267600,3.447267578125,-0.9850616455078125,0.0115814208984375,0.0027008056640625
1690839984452307700,3.4573076171875,-0.9801483154296875,0.0112457275390625,0.0032806396484375
1690839984462347500,3.467347412109375,-0.9796905517578125,0.0111083984375,0.002655029296875
1690839984472387600,3.4773876953125,-0.98272705078125,0.0115966796875,0.0025634765625
1690839984482428700,3.4874287109375,-0.9785614013671875,0.010772705078125,0.001861572265625
1690839984492468500,3.497468505859375,-0.9850921630859375,0.0108795166015625,0.0023193359375
1690839984502508500,3.507508544921875,-0.9787445068359375,0.010772705078125,0.001617431640625
1690839984512549600,3.517549560546875,-0.9810791015625,0.0103912353515625,0.0020904541015625
1690839984522589700,3.527589599609375,-0.985565185546875,0.0110015869140625,0.002777099609375
1690839984532660700,3.53766064453125,-0.97772216796875,0.0110321044921875,0.0023345947265625
1690839984542700500,3.547700439453125,-0.982574462890625,0.0115966796875,0.002685546875
1690839984552740600,3.55774072265625,-0.9844512939453125,0.011932373046875,0.0034027099609375
1690839984562781700,3.56778173828125,-0.9783782958984375,0.0106964111328125,0.0032806396484375
1690839984572821500,3.577821533203125,-0.9825439453125,0.01165771484375,0.0032806396484375
1690839984582861600,3.587861572265625,-0.982330322265625,0.01068115234375,0.00274658203125
1690839984592901600,3.597901611328125,-0.9799041748046875,0.011199951171875,0.0017547607421875
1690839984602942700,3.607942626953125,-0.9829254150390625,0.0115966796875,0.0021514892578125
1690839984612982500,3.617982421875,-0.979156494140625,0.01104736328125,0.0015716552734375
1690839984623022600,3.628022705078125,-0.9835205078125,0.0111846923828125,0.002349853515625
1690839984633063700,3.638063720703125,-0.9817962646484375,0.01190185546875,0.002899169921875
1690839984643103500,3.648103515625,-0.9786376953125,0.0117340087890625,0.0031280517578125
1690839984653143600,3.6581435546875,-0.9851226806640625,0.0108489990234375,0.002838134765625
1690839984663183600,3.66818359375,-0.9801788330078125,0.011505126953125,0.00347900390625
1690839984673224700,3.678224609375,-0.979522705078125,0.0115966796875,0.003173828125
1690839984683294500,3.68829443359375,-0.9833984375,0.0117950439453125,0.0032501220703125
1690839984693335600,3.69833544921875,-0.9800567626953125,0.011688232421875,0.002777099609375
1690839984703375600,3.708375732421875,-0.9812164306640625,0.01129150390625,0.002593994140625
1690839984713415700,3.718415771484375,-0.9820404052734375,0.01116943359375,0.0020751953125
1690839984723456500,3.72845654296875,-0.979949951171875,0.0111541748046875,0.0014190673828125
1690839984733496600,3.73849658203125,-0.981719970703125,0.010101318359375,0.002410888671875
1690839984743536600,3.74853662109375,-0.980255126953125,0.009063720703125,0.0028228759765625
1690839984753576400,3.758576416015625,-0.9812774658203125,0.0084686279296875,0.0030059814453125
1690839984763617500,3.768617431640625,-0.982818603515625,0.0085296630859375,0.0034637451171875
1690839984773657600,3.77865771484375,-0.9809112548828125,0.008575439453125,0.00341796875
1690839984783697700,3.78869775390625,-0.9828948974609375,0.01025390625,0.00335693359375
1690839984793738500,3.798738525390625,-0.98162841796875,0.01055908203125,0.00347900390625
1690839984803778600,3.808778564453125,-0.9804840087890625,0.0109100341796875,0.0011749267578125
1690839984813818600,3.818818603515625,-0.9831695556640625,0.0120849609375,0.0005645751953125
1690839984823889700,3.8288896484375,-0.9800872802734375,0.012908935546875,0.0005645751953125
1690839984833929500,3.838929443359375,-0.98095703125,0.012359619140625,0.001129150390625
1690839984843970600,3.848970458984375,-0.9818878173828125,0.0126953125,0.0021209716796875
1690839984854010600,3.8590107421875,-0.9793853759765625,0.01263427734375,0.0033416748046875
1690839984864050700,3.86905078125,-0.9811248779296875,0.0122833251953125,0.00457763671875
1690839984874090800,3.8790908203125,-0.9817962646484375,0.010223388671875,0.004669189453125
1690839984884131600,3.889131591796875,-0.9818572998046875,0.010101318359375,0.004974365234375
1690839984894171600,3.899171630859375,-0.98309326171875,0.0102081298828125,0.0044403076171875
1690839984904211500,3.90921142578125,-0.9810791015625,0.00982666015625,0.00274658203125
1690839984914252500,3.91925244140625,-0.9831390380859375,0.0106201171875,0.0024871826171875
1690839984924292600,3.929292724609375,-0.982421875,0.0115814208984375,0.0026397705078125
1690839984934332700,3.939332763671875,-0.9796600341796875,0.012542724609375,0.0016326904296875
1690839984944372700,3.949372802734375,-0.9819488525390625,0.012847900390625,0.0010223388671875
1690839984954413600,3.95941357421875,-0.9794158935546875,0.012725830078125,0.0010528564453125
1690839984964453600,3.96945361328125,-0.978668212890625,0.01171875,0.001434326171875
1690839984974524700,3.979524658203125,-0.98211669921875,0.01031494140625,0.002471923828125
1690839984984564500,3.989564453125,-0.981292724609375,0.01019287109375,0.0029144287109375
1690839984994604500,3.9996044921875,-0.9822845458984375,0.009674072265625,0.00341796875
1690839985004645600,4.009645751953125,-0.9832305908203125,0.008270263671875,0.0031585693359375
1690839985014685700,4.019685791015625,-0.982635498046875,0.008636474609375,0.0037384033203125
1690839985024725800,4.029725830078125,-0.98291015625,0.0101165771484375,0.0041046142578125
1690839985034765800,4.039765869140625,-0.9812164306640625,0.0115814208984375,0.0030670166015625
1690839985044781800,4.04978173828125,-0.981109619140625,0.0115966796875,0.0026397705078125
1690839985054822000,4.05982177734375,-0.980682373046875,0.012664794921875,0.002288818359375
1690839985064862000,4.069862060546875,-0.9799346923828125,0.01263427734375,0.001800537109375
1690839985074903000,4.079903076171875,-0.9799041748046875,0.012725830078125,0.0012664794921875
1690839985084943000,4.089943115234375,-0.9813995361328125,0.01287841796875,0.0022735595703125
1690839985094983200,4.099983154296875,-0.9814300537109375,0.010894775390625,0.0028533935546875
1690839985105023200,4.110023193359375,-0.9815521240234375,0.0099639892578125,0.0035400390625
1690839985115094000,4.120093994140625,-0.9820556640625,0.0094146728515625,0.0038299560546875
1690839985125134000,4.130134033203125,-0.982574462890625,0.01043701171875,0.0035552978515625
1690839985135175000,4.1401748046875,-0.9838714599609375,0.0109405517578125,0.0035552978515625
1690839985145215000,4.150215087890625,-0.9810333251953125,0.0115814208984375,0.0030517578125
1690839985155255000,4.160255126953125,-0.981109619140625,0.0134429931640625,0.0022125244140625
1690839985165296000,4.170296142578125,-0.9807891845703125,0.013458251953125,0.0018463134765625
1690839985175336200,4.180336181640625,-0.980010986328125,0.013336181640625,0.0026092529296875
1690839985185376000,4.1903759765625,-0.9805145263671875,0.0122528076171875,0.001312255859375
1690839985195416000,4.200416015625,-0.981597900390625,0.0110931396484375,0.0018768310546875
1690839985205457000,4.210456787109375,-0.98284912109375,0.009765625,0.002532958984375
1690839985215497000,4.2204970703125,-0.983245849609375,0.0094757080078125,0.002044677734375
1690839985225537000,4.230537109375,-0.98211669921875,0.009063720703125,0.0018768310546875
1690839985235578000,4.240578125,-0.9829254150390625,0.0088348388671875,0.0025177001953125
1690839985245618200,4.2506181640625,-0.98236083984375,0.0084228515625,0.00286865234375
1690839985255658200,4.260658203125,-0.9817657470703125,0.00970458984375,0.002777099609375
1690839985265729000,4.27072900390625,-0.98248291015625,0.0101318359375,0.0033416748046875
1690839985275769000,4.28076904296875,-0.9813995361328125,0.0118560791015625,0.0036163330078125
1690839985285810000,4.290809814453125,-0.98065185546875,0.0116729736328125,0.0035400390625
1690839985295850000,4.30085009765625,-0.9800872802734375,0.01171875,0.003509521484375
1690839985305890000,4.31089013671875,-0.980224609375,0.01177978515625,0.0034637451171875
1690839985315930000,4.32093017578125,-0.981201171875,0.0118865966796875,0.0028533935546875
1690839985325971200,4.33097119140625,-0.9816436767578125,0.0111083984375,0.0035247802734375
1690839985336011000,4.341010986328125,-0.9693450927734375,0.0066375732421875,-0.002105712890625
1690839985346051000,4.351051025390625,-0.98992919921875,0.003509521484375,-0.03424072265625
1690839985356092000,4.361091796875,-0.998321533203125,0.0113983154296875,0.0661163330078125
1690839985366132000,4.371132080078125,-0.9650115966796875,0.008087158203125,-0.00811767578125
1690839985376172000,4.381172119140625,-0.9875335693359375,0.028778076171875,0.0092010498046875
1690839985386212000,4.391212158203125,-0.9839324951171875,-0.0054473876953125,0.0055389404296875
1690839985396253200,4.401253173828125,-0.9768829345703125,0.0143890380859375,-0.01580810546875
1690839985406323000,4.411322998046875,-0.9754791259765625,0.0148162841796875,-0.0102386474609375
1690839985416364000,4.421364013671875,-0.9736785888671875,0.0169525146484375,-0.0093231201171875
1690839985426404000,4.431404052734375,-0.980865478515625,0.01898193359375,0.002716064453125
1690839985436444200,4.441444091796875,-0.9812774658203125,0.01947021484375,0.0119781494140625
1690839985446485000,4.451485107421875,-0.982879638671875,0.017547607421875,0.0164794921875
1690839985456525000,4.461525146484375,-0.9843597412109375,0.0131072998046875,0.0135040283203125
1690839985466565000,4.471565185546875,-0.9848785400390625,0.0096893310546875,0.0060882568359375
1690839985476605000,4.48160498046875,-0.9798583984375,0.0052490234375,-0.002197265625
1690839985486646000,4.49164599609375,-0.983154296875,0.0034027099609375,-0.0067596435546875
1690839985496686000,4.50168603515625,-0.9835968017578125,0.004150390625,-0.005584716796875
1690839985506726100,4.51172607421875,-0.9788360595703125,0.0069122314453125,-0.0005035400390625
1690839985516767000,4.52176708984375,-0.9858551025390625,0.0095367431640625,0.0058441162109375
1690839985526807000,4.53180712890625,-0.9818267822265625,0.0126190185546875,0.0098419189453125
1690839985536847000,4.54184716796875,-0.9826507568359375,0.0137786865234375,0.0101776123046875
1690839985546918100,4.551918212890625,-0.9806365966796875,0.01507568359375,0.00726318359375
1690839985556958000,4.5619580078125,-0.9799957275390625,0.0165252685546875,0.0028533935546875
1690839985566999000,4.5719990234375,-0.979949951171875,0.0171051025390625,-0.0004730224609375
1690839985577039000,4.5820390625,-0.977142333984375,0.0170745849609375,-0.0020599365234375
1690839985587079200,4.5920791015625,-0.978912353515625,0.015625,-0.0013275146484375
1690839985597119000,4.602118896484375,-0.982269287109375,0.0135498046875,0.0014495849609375
1690839985607160000,4.61216015625,-0.981353759765625,0.0112152099609375,0.004638671875
1690839985617200000,4.6222001953125,-0.9825286865234375,0.0090179443359375,0.0067901611328125
1690839985627240000,4.632239990234375,-0.9860382080078125,0.00732421875,0.006256103515625
1690839985637280000,4.642280029296875,-0.9817352294921875,0.0070648193359375,0.0045623779296875
1690839985647321000,4.652321044921875,-0.983001708984375,0.0080108642578125,0.0024566650390625
1690839985657361200,4.662361083984375,-0.98223876953125,0.0096435546875,0.0007781982421875
1690839985667401000,4.67240087890625,-0.9805755615234375,0.0115966796875,-0.0004119873046875
1690839985677442000,4.682442138671875,-0.981109619140625,0.013580322265625,0.0005950927734375
1690839985687482000,4.692482177734375,-0.980560302734375,0.0139007568359375,0.0023345947265625
1690839985697553200,4.70255322265625,-0.981689453125,0.0153656005859375,0.003387451171875
1690839985707593000,4.712593017578125,-0.979400634765625,0.01513671875,0.00433349609375
1690839985717633000,4.722633056640625,-0.9794158935546875,0.0144195556640625,0.005401611328125
1690839985727674000,4.732674072265625,-0.9822845458984375,0.0138702392578125,0.004119873046875
1690839985737714200,4.742714111328125,-0.981475830078125,0.0128631591796875,0.0024871826171875
1690839985747754000,4.75275390625,-0.9808349609375,0.0121002197265625,0.001220703125
1690839985757794000,4.7627939453125,-0.9827423095703125,0.010498046875,0.0015411376953125
1690839985767835100,4.772835205078125,-0.9819488525390625,0.0090179443359375,0.001922607421875
1690839985777875000,4.782875,-0.9827423095703125,0.009002685546875,0.0028076171875
1690839985787915000,4.7929150390625,-0.9829864501953125,0.00994873046875,0.003692626953125
1690839985797956000,4.8029560546875,-0.9825286865234375,0.0113067626953125,0.004058837890625
1690839985807996200,4.81299609375,-0.9826202392578125,0.0113372802734375,0.00408935546875
1690839985818036000,4.823035888671875,-0.9804534912109375,0.01275634765625,0.0031890869140625
1690839985828076000,4.833075927734375,-0.9802398681640625,0.0130157470703125,0.0015869140625
1690839985838146800,4.843146728515625,-0.9812774658203125,0.0137939453125,0.0019989013671875
1690839985848187000,4.853186767578125,-0.9801025390625,0.01373291015625,0.001434326171875
1690839985858228000,4.86322802734375,-0.9813385009765625,0.0136260986328125,0.0025787353515625
1690839985868268000,4.87326806640625,-0.982421875,0.0133209228515625,0.0032501220703125
1690839985878308000,4.88330810546875,-0.9817657470703125,0.012542724609375,0.0034027099609375
1690839985888349200,4.89334912109375,-0.9824371337890625,0.01165771484375,0.003570556640625
1690839985898389000,4.903388916015625,-0.9817657470703125,0.0115203857421875,0.003021240234375
1690839985908429000,4.913428955078125,-0.9813690185546875,0.0103302001953125,0.0023956298828125
1690839985918468900,4.92346875,-0.981719970703125,0.0115203857421875,0.0016937255859375
1690839985928510000,4.933510009765625,-0.9814910888671875,0.0110626220703125,0.00152587890625
1690839985938550000,4.943550048828125,-0.9823455810546875,0.0115509033203125,0.001678466796875
1690839985948590000,4.953590087890625,-0.9810791015625,0.0130157470703125,0.0027923583984375
1690839985958631000,4.963630859375,-0.9811553955078125,0.0128631591796875,0.0035858154296875
1690839985968671000,4.9736708984375,-0.9817657470703125,0.011932373046875,0.0040283203125
1690839985978742000,4.983741943359375,-0.9814605712890625,0.0130462646484375,0.0030517578125
1690839985988781800,4.99378173828125,-0.980987548828125,0.0133056640625,0.002197265625
1690839985998822000,5.00382177734375,-0.9808807373046875,0.013275146484375,0.002349853515625
1690839986008863000,5.013863037109375,-0.9792327880859375,0.0128021240234375,0.0018768310546875
1690839986018903000,5.023903076171875,-0.981048583984375,0.0128326416015625,0.002197265625
1690839986028943000,5.033943115234375,-0.9816131591796875,0.012481689453125,0.00250244140625
1690839986038983200,5.043983154296875,-0.9818878173828125,0.0110931396484375,0.0027008056640625
1690839986049013500,5.054013427734375,-0.9822998046875,0.0119171142578125,0.003662109375
1690839986059053600,5.064053466796875,-0.98211669921875,0.011810302734375,0.00372314453125
1690839986069093600,5.07409375,-0.9817962646484375,0.011871337890625,0.0030059814453125
1690839986079134700,5.084134765625,-0.981903076171875,0.0116119384765625,0.0030975341796875
1690839986089174800,5.0941748046875,-0.982177734375,0.01251220703125,0.0028076171875
1690839986099214600,5.104214599609375,-0.9810333251953125,0.01226806640625,0.00238037109375
1690839986109254700,5.114254638671875,-0.9811248779296875,0.01190185546875,0.0019989013671875
1690839986119295500,5.12429541015625,-0.98150634765625,0.012176513671875,0.0016632080078125
1690839986129365800,5.13436572265625,-0.9815673828125,0.011962890625,0.0025787353515625
1690839986139406600,5.144406494140625,-0.9817657470703125,0.0118255615234375,0.002227783203125
1690839986149446700,5.15444677734375,-0.982818603515625,0.011993408203125,0.0021820068359375
1690839986159486700,5.16448681640625,-0.982421875,0.0120697021484375,0.003631591796875
1690839986169527800,5.17452783203125,-0.9820709228515625,0.0120086669921875,0.0029449462890625
1690839986179567600,5.184567626953125,-0.9814605712890625,0.011871337890625,0.0018768310546875
1690839986189607700,5.194607666015625,-0.9819793701171875,0.0117340087890625,0.002716064453125
1690839986199647700,5.204647705078125,-0.981658935546875,0.0120086669921875,0.0036468505859375
1690839986209688600,5.2146884765625,-0.9828643798828125,0.0131683349609375,0.0032958984375
1690839986219728600,5.224728759765625,-0.98077392578125,0.01300048828125,0.00360107421875
1690839986229768700,5.234768798828125,-0.9815673828125,0.0134735107421875,0.0038604736328125
1690839986239809800,5.244809814453125,-0.982269287109375,0.01361083984375,0.0031585693359375
1690839986249849600,5.254849609375,-0.980987548828125,0.0129852294921875,0.003021240234375
1690839986259889700,5.2648896484375,-0.9818267822265625,0.0133819580078125,0.0021514892578125
1690839986269960700,5.274960693359375,-0.980804443359375,0.0129547119140625,0.003021240234375
1690839986280000800,5.285000732421875,-0.9815673828125,0.0115966796875,0.0030517578125
1690839986290040800,5.295040771484375,-0.981781005859375,0.01116943359375,0.0026092529296875
1690839986300081700,5.30508154296875,-0.9817352294921875,0.0107269287109375,0.0023345947265625
1690839986310121700,5.315121826171875,-0.9815521240234375,0.0108489990234375,0.0021514892578125
1690839986320161500,5.32516162109375,-0.9824676513671875,0.0112152099609375,0.0018463134765625
1690839986330202600,5.33520263671875,-0.9826507568359375,0.0124664306640625,0.0032501220703125
1690839986340242700,5.34524267578125,-0.9832763671875,0.0127410888671875,0.0032958984375
1690839986350282800,5.35528271484375,-0.982391357421875,0.0135498046875,0.002899169921875
1690839986360322800,5.36532275390625,-0.9814910888671875,0.013702392578125,0.0017242431640625
1690839986370363600,5.37536376953125,-0.980712890625,0.0128021240234375,0.001556396484375
1690839986380403700,5.38540380859375,-0.9807891845703125,0.01324462890625,0.0016326904296875
1690839986390443500,5.395443603515625,-0.9813385009765625,0.0132598876953125,0.0014495849609375
1690839986400484600,5.405484619140625,-0.980499267578125,0.011566162109375,0.0020751953125
1690839986410524700,5.415524658203125,-0.98175048828125,0.010711669921875,0.0016632080078125
1690839986420595700,5.425595703125,-0.9831695556640625,0.0094757080078125,0.002838134765625
1690839986430635800,5.4356357421875,-0.9820709228515625,0.0103912353515625,0.0037994384765625
1690839986440675800,5.44567578125,-0.98138427734375,0.0092926025390625,0.004638671875
1690839986450716700,5.455716552734375,-0.982666015625,0.009796142578125,0.0052947998046875
1690839986460756700,5.4657568359375,-0.9839935302734375,0.0115203857421875,0.004547119140625
1690839986470796500,5.475796630859375,-0.983367919921875,0.012847900390625,0.0032958984375
1690839986480836600,5.485836669921875,-0.9821624755859375,0.0144500732421875,0.001007080078125
1690839986490877700,5.495877685546875,-0.98040771484375,0.0157318115234375,-0.000885009765625
1690839986500917800,5.505917724609375,-0.9798431396484375,0.0153350830078125,-0.0012969970703125
1690839986510957800,5.515957763671875,-0.9787139892578125,0.0145263671875,-0.0002593994140625
1690839986520998700,5.52599853515625,-0.979034423828125,0.01324462890625,0.0016632080078125
1690839986531038700,5.536038818359375,-0.9810638427734375,0.0116729736328125,0.0042266845703125
1690839986541078500,5.54607861328125,-0.98199462890625,0.010009765625,0.00726318359375
1690839986551118600,5.55611865234375,-0.9817657470703125,0.009552001953125,0.00732421875
1690839986561189600,5.566189697265625,-0.984130859375,0.0075225830078125,0.0071258544921875
1690839986571229700,5.576229736328125,-0.9839630126953125,0.0078125,0.005279541015625
1690839986581270800,5.586270751953125,-0.983154296875,0.0083770751953125,0.0029296875
1690839986591310800,5.596310791015625,-0.9832000732421875,0.0093231201171875,0.0000152587890625
1690839986601351000,5.606350830078125,-0.9812164306640625,0.0106964111328125,-0.0020599365234375
1690839986611391700,5.616391845703125,-0.9813690185546875,0.01263427734375,-0.0025634765625
1690839986621431600,5.626431640625,-0.9799652099609375,0.0156097412109375,-0.0024871826171875
1690839986631471600,5.6364716796875,-0.9763946533203125,0.017364501953125,0.0002593994140625
1690839986641511700,5.64651171875,-0.9703826904296875,0.0145416259765625,0.005279541015625
1690839986651552800,5.656552734375,-0.989990234375,0.0124969482421875,0.0124359130859375
1690839986661592800,5.6665927734375,-0.9941253662109375,0.0166015625,0.01318359375
1690839986671632600,5.676632568359375,-0.974212646484375,0.0168304443359375,0.0085296630859375
1690839986681673700,5.686673828125,-0.9876251220703125,0.0158843994140625,0.0025634765625
1690839986691713500,5.696713623046875,-0.982147216796875,0.0128631591796875,-0.00439453125
1690839986701753600,5.706753662109375,-0.980072021484375,0.0105743408203125,-0.00732421875
1690839986711824600,5.71682470703125,-0.973175048828125,0.0103759765625,-0.005950927734375
1690839986721864700,5.72686474609375,-0.9793243408203125,0.009002685546875,-0.0011138916015625
1690839986731904800,5.73690478515625,-0.9830169677734375,0.0079498291015625,0.0044097900390625
1690839986741945900,5.74694580078125,-0.9831085205078125,0.0084686279296875,0.007568359375
1690839986751985700,5.756985595703125,-0.983001708984375,0.008056640625,0.0084228515625
1690839986762025500,5.767025390625,-0.98712158203125,0.009033203125,0.0067901611328125
1690839986772066600,5.777066650390625,-0.98583984375,0.0103607177734375,0.006256103515625
1690839986782106600,5.787106689453125,-0.974639892578125,0.012969970703125,0.005340576171875
1690839986792146700,5.797146728515625,-0.9868316650390625,0.0162200927734375,0.0060272216796875
1690839986802186800,5.807186767578125,-0.98004150390625,0.01715087890625,0.0041046142578125
1690839986812227800,5.817227783203125,-0.9788970947265625,0.0181427001953125,0.0003509521484375
1690839986822267600,5.827267578125,-0.982452392578125,0.0168304443359375,-0.0049591064453125
1690839986832307500,5.837307373046875,-0.9754638671875,0.0139007568359375,-0.009124755859375
1690839986842348500,5.8473486328125,-0.97845458984375,0.011993408203125,-0.0095062255859375
1690839986852418600,5.85741845703125,-0.9767913818359375,0.00970458984375,-0.00347900390625
1690839986862459600,5.867459716796875,-0.981353759765625,0.0085296630859375,0.00543212890625
1690839986872499700,5.877499755859375,-0.98724365234375,0.00823974609375,0.016571044921875
1690839986882539800,5.887539794921875,-0.9856109619140625,0.0071563720703125,0.021392822265625
1690839986892580900,5.897580810546875,-0.989471435546875,0.007843017578125,0.0187835693359375
1690839986902620700,5.90762060546875,-0.990570068359375,0.008880615234375,0.009307861328125
1690839986912660500,5.917660400390625,-0.9792022705078125,0.0112457275390625,-0.0030670166015625
1690839986922700500,5.927700439453125,-0.978424072265625,0.0141448974609375,-0.0118255615234375
1690839986932741600,5.93774169921875,-0.9766845703125,0.0161895751953125,-0.0131988525390625
1690839986942781700,5.94778173828125,-0.971221923828125,0.01824951171875,-0.01019287109375
1690839986952821800,5.95782177734375,-0.978240966796875,0.0180206298828125,-0.0014190673828125
1690839986962862800,5.96786279296875,-0.9799346923828125,0.0170135498046875,0.0068359375
1690839986972902700,5.977902587890625,-0.9834442138671875,0.0153961181640625,0.0139312744140625
1690839986982942500,5.9879423828125,-0.985015869140625,0.0125732421875,0.01531982421875
1690839986993013500,5.998013427734375,-0.98358154296875,0.009857177734375,0.0131683349609375
1690839987003053600,6.008053466796875,-0.9854736328125,0.0083770751953125,0.0065155029296875
1690839987013093600,6.01809375,-0.9811248779296875,0.0075531005859375,-0.0000762939453125
1690839987023134700,6.028134765625,-0.9814300537109375,0.008056640625,-0.004364013671875
1690839987033174800,6.0381748046875,-0.983612060546875,0.0088653564453125,-0.00506591796875
1690839987043214600,6.048214599609375,-0.98028564453125,0.0105438232421875,-0.0034027099609375
1690839987053253000,6.058253173828125,-0.979949951171875,0.0120849609375,0.0003509521484375
1690839987063293200,6.068293212890625,-0.9835205078125,0.0135955810546875,0.004241943359375
1690839987073333000,6.0783330078125,-0.979583740234375,0.0150146484375,0.00726318359375
1690839987083373000,6.088373046875,-0.980926513671875,0.01544189453125,0.008514404296875
1690839987093414100,6.0984140625,-0.9810028076171875,0.015716552734375,0.0077667236328125
1690839987103454200,6.1084541015625,-0.980682373046875,0.01495361328125,0.005889892578125
1690839987113494300,6.118494384765625,-0.982025146484375,0.0138397216796875,0.0037078857421875
1690839987123535000,6.12853515625,-0.9790191650390625,0.0116119384765625,0.00091552734375
1690839987133575200,6.1385751953125,-0.982879638671875,0.0099639892578125,-0.001007080078125
1690839987143646200,6.148646240234375,-0.983184814453125,0.0086669921875,-0.00164794921875
1690839987153686000,6.15868603515625,-0.980377197265625,0.008819580078125,-0.000152587890625
1690839987163726000,6.16872607421875,-0.98382568359375,0.0092315673828125,0.0020294189453125
1690839987173767200,6.17876708984375,-0.98321533203125,0.0098419189453125,0.0040740966796875
1690839987183807200,6.18880712890625,-0.9804229736328125,0.0113983154296875,0.005340576171875
1690839987193847300,6.198847412109375,-0.9824371337890625,0.0134124755859375,0.0061187744140625
1690839987203887000,6.20888720703125,-0.9808197021484375,0.0138702392578125,0.0063018798828125
1690839987213928200,6.21892822265625,-0.9803009033203125,0.014892578125,0.0047149658203125
1690839987223968000,6.228968017578125,-0.9814453125,0.014312744140625,0.0032501220703125
1690839987234008000,6.239008056640625,-0.98052978515625,0.014892578125,0.00213623046875
1690839987244048100,6.249048095703125,-0.9810028076171875,0.013885498046875,0.0007171630859375
1690839987254089200,6.259089111328125,-0.9801788330078125,0.0124969482421875,-0.0006561279296875
1690839987264129300,6.26912939453125,-0.9814300537109375,0.011749267578125,-0.0007781982421875
1690839987274169000,6.279169189453125,-0.9825286865234375,0.0114593505859375,0.0005340576171875
1690839987284240100,6.289240234375,-0.9813690185546875,0.010467529296875,0.002532958984375
1690839987294280000,6.299280029296875,-0.9833526611328125,0.0108489990234375,0.005706787109375
1690839987304321000,6.309321044921875,-0.9841461181640625,0.0112152099609375,0.0076446533203125
1690839987314361000,6.319361083984375,-0.9815826416015625,0.0117340087890625,0.0071563720703125
1690839987324401200,6.329401123046875,-0.982330322265625,0.01263427734375,0.0046844482421875
1690839987334442200,6.339442138671875,-0.9818572998046875,0.01318359375,0.002044677734375
1690839987344482300,6.349482421875,-0.980194091796875,0.0131683349609375,0.000396728515625
1690839987354522000,6.359522216796875,-0.981414794921875,0.0130615234375,-0.0009918212890625
1690839987364562000,6.36956201171875,-0.9813232421875,0.013580322265625,-0.0010833740234375
1690839987374603000,6.37960302734375,-0.9803009033203125,0.0123443603515625,0.0012664794921875
1690839987384643000,6.38964306640625,-0.980712890625,0.0126495361328125,0.002838134765625
1690839987394683100,6.39968310546875,-0.9814910888671875,0.0114898681640625,0.0047149658203125
1690839987404724200,6.40972412109375,-0.982818603515625,0.0109710693359375,0.0059814453125
1690839987414764300,6.419764404296875,-0.9822540283203125,0.0108184814453125,0.0059661865234375
1690839987424835300,6.42983544921875,-0.9816741943359375,0.010162353515625,0.00555419921875
1690839987434875100,6.439875244140625,-0.9827728271484375,0.0106353759765625,0.003814697265625
1690839987444915000,6.4499150390625,-0.981231689453125,0.01190185546875,0.00201416015625
1690839987454955000,6.459955078125,-0.9814605712890625,0.0130462646484375,0.00067138671875
1690839987464996000,6.46999609375,-0.9817352294921875,0.0126495361328125,0.0005340576171875
1690839987475036200,6.4800361328125,-0.98077392578125,0.01214599609375,0.00103759765625
1690839987485076200,6.490076171875,-0.981536865234375,0.0129241943359375,0.001068115234375
1690839987495117300,6.500117431640625,-0.9813995361328125,0.0125732421875,0.0026092529296875
1690839987505157000,6.5101572265625,-0.9816131591796875,0.013092041015625,0.004119873046875
1690839987515197000,6.520197021484375,-0.9817962646484375,0.0135955810546875,0.0051116943359375
1690839987525237000,6.530237060546875,-0.980865478515625,0.014892578125,0.0045166015625
1690839987535278000,6.540278076171875,-0.982177734375,0.0132904052734375,0.0045013427734375
1690839987545318100,6.550318115234375,-0.980499267578125,0.0123291015625,0.003875732421875
1690839987555358200,6.560358154296875,-0.980865478515625,0.0127410888671875,0.001983642578125
1690839987565399300,6.5703994140625,-0.9817047119140625,0.0134429931640625,0.001220703125
1690839987575469000,6.580468994140625,-0.979736328125,0.01153564453125,0.0007476806640625
1690839987585510000,6.590510009765625,-0.9811553955078125,0.0099639892578125,0.0016632080078125
1690839987595550000,6.600550048828125,-0.98297119140625,0.009735107421875,0.00299072265625
1690839987605590000,6.610590087890625,-0.98150634765625,0.0101776123046875,0.003448486328125
1690839987615631000,6.620631103515625,-0.982818603515625,0.01025390625,0.0030059814453125
1690839987625671200,6.630671142578125,-0.982452392578125,0.009796142578125,0.0031585693359375
1690839987635711200,6.640711181640625,-0.9818878173828125,0.0109710693359375,0.0030975341796875
1690839987645751300,6.650751220703125,-0.9822540283203125,0.012359619140625,0.0043487548828125
1690839987655792000,6.660792236328125,-0.98052978515625,0.0131988525390625,0.00372314453125
1690839987665832000,6.67083203125,-0.981048583984375,0.0142364501953125,0.0037841796875
1690839987675872000,6.6808720703125,-0.981201171875,0.013763427734375,0.0028839111328125
1690839987685913000,6.6909130859375,-0.9807891845703125,0.01397705078125,0.00213623046875
1690839987695953200,6.700953125,-0.980010986328125,0.013214111328125,0.001434326171875
1690839987705993200,6.7109931640625,-0.9811248779296875,0.0126800537109375,0.0018463134765625
1690839987716064300,6.721064208984375,-0.9801177978515625,0.0121307373046875,0.001922607421875
1690839987726104000,6.73110400390625,-0.9815521240234375,0.0114898681640625,0.002471923828125
1690839987736144100,6.74114404296875,-0.9814910888671875,0.01080322265625,0.00262451171875
1690839987746185000,6.75118505859375,-0.9829864501953125,0.0104217529296875,0.00372314453125
1690839987756225000,6.76122509765625,-0.9825897216796875,0.0117645263671875,0.0041351318359375
1690839987766265000,6.77126513671875,-0.9824066162109375,0.0119781494140625,0.0035400390625
1690839987776306200,6.78130615234375,-0.98223876953125,0.01202392578125,0.00311279296875
1690839987786346200,6.79134619140625,-0.9809722900390625,0.01177978515625,0.0020294189453125
1690839987796386300,6.80138623046875,-0.9809417724609375,0.0125579833984375,0.001007080078125
1690839987806426000,6.811426025390625,-0.9820098876953125,0.0137176513671875,0.0023193359375
1690839987816467000,6.821467041015625,-0.9823150634765625,0.013824462890625,0.002197265625
1690839987826507000,6.831507080078125,-0.9817657470703125,0.013153076171875,0.0023651123046875
1690839987836547000,6.841547119140625,-0.9822998046875,0.0140838623046875,0.0036468505859375
1690839987846588200,6.851588134765625,-0.982025146484375,0.013641357421875,0.00323486328125
1690839987856628200,6.861628173828125,-0.9823150634765625,0.0132904052734375,0.00384521484375
1690839987866699300,6.87169921875,-0.982086181640625,0.012481689453125,0.004058837890625
1690839987876739000,6.881739013671875,-0.9803314208984375,0.011993408203125,0.0028533935546875
1690839987886779100,6.891779052734375,-0.981719970703125,0.0114593505859375,0.0019378662109375
1690839987896819200,6.901819091796875,-0.9797210693359375,0.011383056640625,0.00115966796875
1690839987906860000,6.911860107421875,-0.9813232421875,0.0100555419921875,0.001434326171875
1690839987916900000,6.921900146484375,-0.9824981689453125,0.01068115234375,0.0022735595703125
1690839987926940200,6.931940185546875,-0.9828643798828125,0.0108489990234375,0.003875732421875
1690839987936981200,6.941981201171875,-0.98260498046875,0.0117950439453125,0.0036163330078125
1690839987947021000,6.95202099609375,-0.982147216796875,0.0124664306640625,0.003143310546875
1690839987957061000,6.96206103515625,-0.981201171875,0.0129547119140625,0.0037994384765625
1690839987967101200,6.97210107421875,-0.9813995361328125,0.0135040283203125,0.0037689208984375
1690839987977142000,6.98214208984375,-0.9807281494140625,0.013885498046875,0.00286865234375
1690839987987182000,6.99218212890625,-0.9811553955078125,0.0148773193359375,0.0026397705078125
1690839987997222100,7.00222216796875,-0.98028564453125,0.0142059326171875,0.0020294189453125
1690839988007293200,7.012293212890625,-0.97991943359375,0.0135955810546875,0.00225830078125
1690839988017333000,7.0223330078125,-0.9805145263671875,0.013092041015625,0.00164794921875
1690839988027374000,7.0323740234375,-0.98211669921875,0.011322021484375,0.00152587890625
1690839988037414100,7.0424140625,-0.981536865234375,0.0104827880859375,0.0021209716796875
1690839988047454200,7.0524541015625,-0.9824371337890625,0.0101318359375,0.0012664794921875
1690839988057480000,7.06247998046875,-0.9824981689453125,0.0105743408203125,0.0019683837890625
1690839988067520000,7.07252001953125,-0.9820098876953125,0.011260986328125,0.0027618408203125
1690839988077560000,7.08256005859375,-0.9827728271484375,0.0117950439453125,0.0031280517578125
1690839988087599900,7.092599853515625,-0.9807891845703125,0.0128326416015625,0.0032806396484375
1690839988097641000,7.102640869140625,-0.9817047119140625,0.0139617919921875,0.004852294921875
1690839988107680800,7.1126806640625,-0.9819793701171875,0.0145721435546875,0.003692626953125
1690839988117720800,7.122720947265625,-0.9816741943359375,0.015289306640625,0.0026092529296875
1690839988127762000,7.132761962890625,-0.9803619384765625,0.0144500732421875,0.001922607421875
1690839988137802000,7.142802001953125,-0.98065185546875,0.0131683349609375,0.001922607421875
1690839988147873000,7.152873046875,-0.9811553955078125,0.0135955810546875,0.000518798828125
1690839988157913000,7.1629130859375,-0.9816741943359375,0.0122528076171875,0.0007171630859375
1690839988167953000,7.172952880859375,-0.9832611083984375,0.011199951171875,0.0014495849609375
1690839988177992700,7.18299267578125,-0.9832916259765625,0.0103302001953125,0.0015869140625
1690839988188033800,7.19303369140625,-0.9810333251953125,0.0091705322265625,0.0023193359375
1690839988198073900,7.203073974609375,-0.981292724609375,0.009857177734375,0.0022735595703125
1690839988208114000,7.213114013671875,-0.982269287109375,0.010986328125,0.0036163330078125
1690839988218155000,7.223155029296875,-0.98138427734375,0.01177978515625,0.0052337646484375
1690839988228195000,7.233195068359375,-0.9818572998046875,0.01190185546875,0.00555419921875
1690839988238235000,7.24323486328125,-0.98236083984375,0.0126190185546875,0.0042724609375
1690839988248274700,7.253274658203125,-0.9814910888671875,0.0134429931640625,0.0027618408203125
1690839988258315800,7.263315673828125,-0.9816131591796875,0.01385498046875,0.0021514892578125
1690839988268355800,7.27335595703125,-0.980438232421875,0.0144805908203125,0.00140380859375
1690839988278396000,7.28339599609375,-0.97998046875,0.0147552490234375,0.001373291015625
1690839988288437000,7.29343701171875,-0.9795989990234375,0.01416015625,0.0016632080078125
1690839988298507000,7.303507080078125,-0.9805755615234375,0.0138397216796875,0.0027008056640625
1690839988308548000,7.313548095703125,-0.981475830078125,0.0120391845703125,0.0039520263671875
1690839988318588000,7.323587890625,-0.982147216796875,0.010650634765625,0.003936767578125
1690839988328627700,7.333627685546875,-0.9827728271484375,0.010101318359375,0.0044403076171875
1690839988338668800,7.343668701171875,-0.98297119140625,0.0096282958984375,0.0036468505859375
1690839988348708900,7.353708984375,-0.9824676513671875,0.010406494140625,0.003387451171875
1690839988358749000,7.3637490234375,-0.983001708984375,0.010955810546875,0.001434326171875
1690839988368789000,7.3737890625,-0.9816131591796875,0.0110931396484375,0.0015716552734375
1690839988378830000,7.383830078125,-0.9812774658203125,0.012969970703125,0.0021209716796875
1690839988388870000,7.393869873046875,-0.98101806640625,0.013702392578125,0.00238037109375
1690839988398909700,7.40390966796875,-0.981048583984375,0.01434326171875,0.0024871826171875
1690839988408949800,7.41394970703125,-0.97943115234375,0.0148162841796875,0.003997802734375
1690839988418990800,7.423990966796875,-0.9847412109375,0.014801025390625,0.003753662109375
1690839988429031000,7.434031005859375,-0.977325439453125,0.0141448974609375,0.0026702880859375
1690839988439102000,7.44410205078125,-0.980255126953125,0.012481689453125,0.0033416748046875
1690839988449142000,7.45414208984375,-0.98455810546875,0.0105743408203125,0.002349853515625
1690839988459181800,7.464181884765625,-0.9800872802734375,0.0096893310546875,0.0018157958984375
1690839988469223000,7.474222900390625,-0.9840240478515625,0.009521484375,0.002166748046875
1690839988479262700,7.4842626953125,-0.982269287109375,0.0091552734375,0.00274658203125
1690839988489302800,7.494302734375,-0.9827117919921875,0.0094757080078125,0.0029144287109375
1690839988499344000,7.50434375,-0.9799346923828125,0.01043701171875,0.0031280517578125
1690839988509384000,7.514384033203125,-0.9826812744140625,0.010772705078125,0.00494384765625
1690839988519424000,7.524424072265625,-0.9841461181640625,0.0133819580078125,0.0043182373046875
1690839988529463800,7.5344638671875,-0.9807586669921875,0.0153961181640625,0.0018157958984375
1690839988539504600,7.544504638671875,-0.9804534912109375,0.0154266357421875,-0.0014495849609375
1690839988549544700,7.554544677734375,-0.9803619384765625,0.0144805908203125,-0.0019683837890625
1690839988559584800,7.564584716796875,-0.9814453125,0.0141754150390625,-0.0002593994140625
1690839988569625900,7.5746259765625,-0.97857666015625,0.013885498046875,0.001922607421875
1690839988579666000,7.584666015625,-0.9812774658203125,0.0125579833984375,0.0063018798828125
1690839988589737000,7.594737060546875,-0.9823455810546875,0.0105133056640625,0.00933837890625
1690839988599777000,7.604777099609375,-0.9835357666015625,0.0094146728515625,0.009185791015625
1690839988609816800,7.61481689453125,-0.982879638671875,0.008697509765625,0.00567626953125
1690839988619857000,7.62485693359375,-0.98333740234375,0.0073089599609375,0.000640869140625
1690839988629897700,7.634897705078125,-0.9827728271484375,0.0076904296875,-0.003753662109375
1690839988639937800,7.644937744140625,-0.9790496826171875,0.0104827880859375,-0.0045928955078125
1690839988649977900,7.654977783203125,-0.9817962646484375,0.013153076171875,-0.000946044921875
1690839988660019000,7.66501904296875,-0.9822540283203125,0.0155487060546875,0.0036163330078125
1690839988670059000,7.67505908203125,-0.981597900390625,0.0185394287109375,0.006805419921875
1690839988680098800,7.685098876953125,-0.9818115234375,0.0196685791015625,0.008026123046875
1690839988690139000,7.695138916015625,-0.9821014404296875,0.018890380859375,0.00665283203125
1690839988700179700,7.7051796875,-0.9789886474609375,0.0167999267578125,0.0021820068359375
1690839988710219800,7.7152197265625,-0.9779815673828125,0.01409912109375,-0.00177001953125
1690839988720259800,7.725259765625,-0.9788055419921875,0.010986328125,-0.0029144287109375
1690839988730331000,7.735330810546875,-0.9789886474609375,0.0077667236328125,-0.0009307861328125
1690839988740371000,7.745370849609375,-0.9828643798828125,0.006317138671875,0.00164794921875
1690839988750412000,7.755412109375,-0.98529052734375,0.0055084228515625,0.00445556640625
1690839988760451800,7.765451904296875,-0.9877471923828125,0.0054473876953125,0.0055694580078125
1690839988770492000,7.775491943359375,-0.9851226806640625,0.00762939453125,0.004730224609375
1690839988780532700,7.78553271484375,-0.9838104248046875,0.009796142578125,0.0027313232421875
1690839988790572800,7.79557275390625,-0.9818267822265625,0.0122528076171875,0.0010986328125
1690839988800612900,7.80561279296875,-0.9787750244140625,0.0160980224609375,0.0009002685546875
1690839988810653000,7.81565283203125,-0.97674560546875,0.0181121826171875,0.0032501220703125
1690839988820694000,7.825694091796875,-0.9779815673828125,0.0191650390625,0.0043487548828125
1690839988830733800,7.83573388671875,-0.9795989990234375,0.018646240234375,0.005889892578125
1690839988840774000,7.84577392578125,-0.9804534912109375,0.0165252685546875,0.005584716796875
1690839988850814000,7.85581396484375,-0.9834747314453125,0.0139007568359375,0.003875732421875
1690839988860854800,7.865854736328125,-0.982635498046875,0.01171875,0.001953125
1690839988870894800,7.875894775390625,-0.98211669921875,0.00982666015625,0.0003662109375
1690839988880966000,7.8859658203125,-0.9826202392578125,0.0074310302734375,0.0005035400390625
1690839988891006000,7.896005859375,-0.9830780029296875,0.0071563720703125,0.0002593994140625
1690839988901045800,7.906045654296875,-0.98223876953125,0.0070953369140625,0.00164794921875
1690839988911086800,7.9160869140625,-0.982177734375,0.0081329345703125,0.00335693359375
1690839988921127000,7.926126953125,-0.9832763671875,0.0093841552734375,0.004150390625
1690839988931167000,7.9361669921875,-0.9818878173828125,0.010711669921875,0.0053863525390625
1690839988941207800,7.946207763671875,-0.9815673828125,0.013458251953125,0.005218505859375
1690839988951248000,7.956247802734375,-0.981475830078125,0.0150146484375,0.003997802734375
1690839988961288000,7.966287841796875,-0.98028564453125,0.0162506103515625,0.0036468505859375
1690839988971327700,7.97632763671875,-0.981048583984375,0.01611328125,0.0033111572265625
1690839988981368800,7.986368896484375,-0.9823150634765625,0.015625,0.0024566650390625
1690839988991409000,7.996408935546875,-0.9821014404296875,0.01507568359375,0.00177001953125
1690839989001449000,8.006448974609375,-0.9815673828125,0.01336669921875,0.00128173828125
1690839989011489800,8.01648974609375,-0.981048583984375,0.0128021240234375,0.0001983642578125
1690839989021560000,8.02656005859375,-0.9815673828125,0.0110931396484375,0.0006866455078125
1690839989031601000,8.036600830078125,-0.9815216064453125,0.0108489990234375,0.001922607421875
1690839989041640700,8.046640625,-0.9813232421875,0.01068115234375,0.0032806396484375
1690839989051689500,8.056689453125,-0.9831390380859375,0.0115203857421875,0.0050048828125
1690839989061729500,8.0667294921875,-0.9830322265625,0.0126190185546875,0.0069732666015625
1690839989071770400,8.076770263671875,-0.981597900390625,0.013763427734375,0.0065460205078125
1690839989081810400,8.086810546875,-0.98187255859375,0.014312744140625,0.004669189453125
1690839989091850500,8.0968505859375,-0.981536865234375,0.01507568359375,0.001129150390625
1690839989101891600,8.1068916015625,-0.979827880859375,0.016204833984375,-0.0011749267578125
1690839989111931400,8.116931396484375,-0.9791717529296875,0.014801025390625,-0.002716064453125
1690839989121971500,8.126971435546874,-0.9795379638671875,0.0128936767578125,-0.0020599365234375
1690839989132011500,8.137011474609375,-0.980926513671875,0.01116943359375,0.000152587890625
1690839989142052400,8.14705224609375,-0.9815673828125,0.0097198486328125,0.0033416748046875
1690839989152092400,8.157092529296875,-0.983428955078125,0.00897216796875,0.0054779052734375
1690839989162132500,8.167132568359374,-0.98492431640625,0.0082550048828125,0.0064697265625
1690839989172203300,8.177203369140624,-0.983856201171875,0.00860595703125,0.00604248046875
1690839989182243300,8.187243408203125,-0.98388671875,0.0091400146484375,0.00421142578125
1690839989192284400,8.197284423828124,-0.9823150634765625,0.0114593505859375,0.00299072265625
1690839989202324500,8.207324462890625,-0.9798583984375,0.0139923095703125,0.001861572265625
1690839989212364500,8.217364501953124,-0.979278564453125,0.0145721435546875,0.000762939453125
1690839989222405400,8.2274052734375,-0.9801788330078125,0.01531982421875,0.00048828125
1690839989232445400,8.237445556640624,-0.9792022705078125,0.015655517578125,0.00189208984375
1690839989242485500,8.247485595703125,-0.9801177978515625,0.0153961181640625,0.0027618408203125
1690839989252525300,8.257525390625,-0.981475830078125,0.0144500732421875,0.004302978515625
1690839989262566400,8.26756640625,-0.982269287109375,0.0132293701171875,0.0039520263671875
1690839989272606500,8.2776064453125,-0.982147216796875,0.01202392578125,0.0045013427734375
1690839989282646500,8.287646484375,-0.9827728271484375,0.01202392578125,0.004913330078125
1690839989292687400,8.297687255859374,-0.9841461181640625,0.009857177734375,0.0036468505859375
1690839989302727400,8.3077275390625,-0.9825592041015625,0.0104217529296875,0.0024261474609375
1690839989312798500,8.317798583984375,-0.9820556640625,0.010223388671875,0.0019378662109375
1690839989322838300,8.32783837890625,-0.9814453125,0.0112152099609375,0.000732421875
1690839989332878300,8.33787841796875,-0.981109619140625,0.012176513671875,-0.000213623046875
1690839989342918400,8.34791845703125,-0.9802093505859375,0.013275146484375,0.0007476806640625
1690839989352959500,8.35795947265625,-0.977203369140625,-0.015960693359375,-0.026031494140625
1690839989362999600,8.36799951171875,-1.0216522216796875,0.021087646484375,0.0533905029296875
1690839989373039400,8.378039306640625,-0.95526123046875,0.0084381103515625,-0.0011138916015625
1690839989383080400,8.38808056640625,-0.984527587890625,0.036468505859375,0.008209228515625
1690839989393120500,8.39812060546875,-0.985870361328125,0.0226593017578125,0.0213165283203125
1690839989403160300,8.408160400390624,-0.9710693359375,0.021514892578125,-0.01263427734375
1690839989413200400,8.418200439453125,-0.975189208984375,0.0250396728515625,-0.0141754150390625
1690839989423241500,8.428241455078124,-0.97039794921875,0.0179290771484375,-0.012054443359375
1690839989433281500,8.438281494140625,-0.98187255859375,0.0155792236328125,-0.0062408447265625
1690839989443321300,8.4483212890625,-0.9806671142578125,0.0126495361328125,0.00177001953125
1690839989453392400,8.458392333984374,-0.986114501953125,0.008697509765625,0.0101776123046875
1690839989463432200,8.46843212890625,-0.9860687255859375,0.0059356689453125,0.016143798828125
1690839989473473300,8.478473388671874,-0.99188232421875,0.0051422119140625,0.014739990234375
1690839989483513300,8.488513427734375,-0.9853057861328125,0.00384521484375,0.009063720703125
1690839989493553400,8.498553466796874,-0.982818603515625,0.0056610107421875,0.0020599365234375
1690839989503593500,8.508593505859375,-0.98480224609375,0.0079345703125,-0.003326416015625
1690839989513634600,8.518634521484374,-0.9763946533203125,0.010162353515625,-0.005767822265625
1690839989523674400,8.52867431640625,-0.980438232421875,0.0131072998046875,-0.0048065185546875
1690839989533714400,8.53871435546875,-0.979736328125,0.0158538818359375,-0.0001678466796875
1690839989543755500,8.548755615234375,-0.9793853759765625,0.0181121826171875,0.00433349609375
1690839989553795300,8.55879541015625,-0.9825286865234375,0.01995849609375,0.0086822509765625
1690839989563835400,8.56883544921875,-0.98193359375,0.0204620361328125,0.00927734375
1690839989573875500,8.57887548828125,-0.982666015625,0.0197601318359375,0.0073394775390625
1690839989583916500,8.58891650390625,-0.9801177978515625,0.019439697265625,0.00482177734375
1690839989593956400,8.598956298828124,-0.978973388671875,0.017120361328125,0.000762939453125
1690839989604027400,8.60902734375,-0.9803619384765625,0.0146484375,-0.0012359619140625
1690839989614067200,8.619067138671875,-0.9798126220703125,0.0118560791015625,-0.0022125244140625
1690839989624107300,8.629107177734374,-0.9788360595703125,0.0095672607421875,-0.0001068115234375
1690839989634148400,8.6391484375,-0.98419189453125,0.0064239501953125,0.00347900390625
1690839989644188400,8.6491884765625,-0.983856201171875,0.0061798095703125,0.0059356689453125
1690839989654228500,8.659228515625,-0.984039306640625,0.0064544677734375,0.006378173828125
1690839989664269600,8.66926953125,-0.9857940673828125,0.00762939453125,0.0056304931640625
1690839989674309400,8.679309326171875,-0.9826812744140625,0.0101165771484375,0.0028076171875
1690839989684349200,8.68934912109375,-0.9826507568359375,0.0129852294921875,0.000152587890625
1690839989694389200,8.69938916015625,-0.980621337890625,0.0151824951171875,0.0005645751953125
1690839989704430300,8.709430419921874,-0.980316162109375,0.0174102783203125,0.0005340576171875
1690839989714470400,8.719470458984375,-0.9795074462890625,0.017578125,0.0013427734375
1690839989724510500,8.729510498046874,-0.977752685546875,0.01861572265625,0.0034027099609375
1690839989734551600,8.739551513671875,-0.97998046875,0.01824951171875,0.0039520263671875
1690839989744621600,8.74962158203125,-0.9792633056640625,0.0166778564453125,0.0040435791015625
1690839989754662400,8.759662353515624,-0.9793243408203125,0.015777587890625,0.003936767578125
1690839989764702200,8.7697021484375,-0.982513427734375,0.01361083984375,0.003265380859375
1690839989774742300,8.7797421875,-0.982757568359375,0.0128173828125,0.0033721923828125
1690839989784782300,8.7897822265625,-0.9815826416015625,0.01165771484375,0.0018463134765625
1690839989794823400,8.799823486328124,-0.984222412109375,0.0100860595703125,0.0018310546875
1690839989804863500,8.809863525390625,-0.98345947265625,0.009490966796875,0.0031585693359375
1690839989814903600,8.819903564453124,-0.9828948974609375,0.0105743408203125,0.0027618408203125
1690839989824944400,8.8299443359375,-0.981689453125,0.010833740234375,0.0037078857421875
1690839989834984200,8.839984130859374,-0.9808807373046875,0.011138916015625,0.0036773681640625
1690839989845024300,8.850024169921875,-0.9809417724609375,0.0129852294921875,0.0033111572265625
1690839989855064300,8.860064208984374,-0.978759765625,0.0148162841796875,0.0032501220703125
1690839989865105400,8.87010546875,-0.979339599609375,0.0144500732421875,0.0023956298828125
1690839989875145500,8.8801455078125,-0.9813690185546875,0.01580810546875,0.0023651123046875
1690839989885185500,8.890185546875,-0.980438232421875,0.0162811279296875,0.0022735595703125
1690839989895256600,8.900256591796875,-0.9824981689453125,0.01641845703125,0.0013580322265625
1690839989905296400,8.91029638671875,-0.982666015625,0.014892578125,0.0025177001953125
1690839989915337200,8.920337158203125,-0.9810028076171875,0.013946533203125,0.0020904541015625
1690839989925377300,8.930377197265624,-0.9818267822265625,0.0142974853515625,0.0025787353515625
1690839989935417300,8.940417236328125,-0.981353759765625,0.013275146484375,0.0030059814453125
1690839989945458400,8.95045849609375,-0.981597900390625,0.0122833251953125,0.0019989013671875
1690839989955498500,8.96049853515625,-0.9815826416015625,0.0107574462890625,0.0014190673828125
1690839989965538600,8.97053857421875,-0.981414794921875,0.0116729736328125,0.0020751953125
1690839989975578400,8.980578369140625,-0.9828643798828125,0.010833740234375,0.0025787353515625
1690839989985619200,8.990619140625,-0.982818603515625,0.0111083984375,0.0031585693359375
1690839989995659300,9.0006591796875,-0.9819793701171875,0.012847900390625,0.0034027099609375
1690839990005699300,9.01069921875,-0.98291015625,0.0136566162109375,0.003173828125
1690839990015739400,9.020739501953125,-0.9822235107421875,0.0143890380859375,0.004547119140625
1690839990025780500,9.030780517578124,-0.9806060791015625,0.014678955078125,0.0032196044921875
1690839990035851500,9.0408515625,-0.9810028076171875,0.0153045654296875,0.0020599365234375
1690839990045891600,9.0508916015625,-0.9801177978515625,0.0146484375,0.00146484375
1690839990055926500,9.060926513671875,-0.979949951171875,0.014495849609375,0.0011444091796875
1690839990065966600,9.070966552734374,-0.9800262451171875,0.01422119140625,0.00189208984375
1690839990076007700,9.081007568359375,-0.9802093505859375,0.0131683349609375,0.0028228759765625
1690839990086047700,9.0910478515625,-0.9826507568359375,0.01312255859375,0.0039520263671875
1690839990096087800,9.101087890625,-0.98321533203125,0.01226806640625,0.0038299560546875
1690839990106128600,9.111128662109374,-0.98358154296875,0.011749267578125,0.0042572021484375
1690839990116168700,9.121168701171875,-0.983612060546875,0.0125274658203125,0.0032806396484375
1690839990126208500,9.13120849609375,-0.981842041015625,0.0126495361328125,0.0030670166015625
1690839990136248600,9.14124853515625,-0.982666015625,0.0131072998046875,0.0023040771484375
1690839990146289700,9.15128955078125,-0.981689453125,0.0125732421875,0.001617431640625
1690839990156329700,9.161329833984375,-0.980682373046875,0.0123138427734375,0.0005340576171875
1690839990166369800,9.171369873046874,-0.980865478515625,0.013031005859375,0.0018768310546875
1690839990176410600,9.18141064453125,-0.9811553955078125,0.0137786865234375,0.0023651123046875
1690839990186480600,9.191480712890625,-0.982086181640625,0.0136260986328125,0.0031890869140625
1690839990196521500,9.201521484375,-0.9813079833984375,0.014801025390625,0.0034942626953125
1690839990206561500,9.2115615234375,-0.9821624755859375,0.0144195556640625,0.00323486328125
1690839990216601600,9.2216015625,-0.981781005859375,0.0136871337890625,0.00347900390625
1690839990226641700,9.2316416015625,-0.9815826416015625,0.0137176513671875,0.001983642578125
1690839990236682800,9.241682861328124,-0.980987548828125,0.0125274658203125,0.0022735595703125
1690839990246722800,9.251722900390625,-0.981689453125,0.013671875,0.0019683837890625
1690839990256762600,9.2617626953125,-0.9808807373046875,0.0140228271484375,0.0008087158203125
1690839990266803700,9.2718037109375,-0.9807891845703125,0.013458251953125,0.0013885498046875
1690839990276843500,9.281843505859374,-0.981475830078125,0.012359619140625,0.0019073486328125
1690839990286883600,9.291883544921875,-0.9816741943359375,0.012481689453125,0.002899169921875
1690839990296923600,9.301923583984374,-0.981903076171875,0.0134124755859375,0.0035858154296875
1690839990306964700,9.31196484375,-0.9824676513671875,0.0135040283203125,0.003509521484375
1690839990317004800,9.3220048828125,-0.9817962646484375,0.0131378173828125,0.0034332275390625
1690839990327075800,9.332075927734374,-0.981903076171875,0.0133056640625,0.003082275390625
1690839990337115600,9.34211572265625,-0.9815826416015625,0.0144195556640625,0.0019989013671875
1690839990347155500,9.352155517578124,-0.9815826416015625,0.0136871337890625,0.0020904541015625
1690839990357196500,9.362196533203125,-0.9810028076171875,0.0140838623046875,0.0022430419921875
1690839990367236600,9.372236572265624,-0.980499267578125,0.013885498046875,0.002044677734375
1690839990377276700,9.382276611328125,-0.9811859130859375,0.01336669921875,0.002349853515625
1690839990387317800,9.39231787109375,-0.981292724609375,0.0132293701171875,0.0024261474609375
1690839990397357800,9.40235791015625,-0.9813690185546875,0.0128173828125,0.00286865234375
1690839990407397600,9.412397705078124,-0.9812469482421875,0.0130767822265625,0.0040130615234375
1690839990417437400,9.4224375,-0.981658935546875,0.012908935546875,0.00396728515625
1690839990427478500,9.432478515625,-0.981903076171875,0.01373291015625,0.003143310546875
1690839990437518600,9.4425185546875,-0.9822998046875,0.014404296875,0.00164794921875
1690839990447558700,9.45255859375,-0.9817962646484375,0.013458251953125,0.0016021728515625
1690839990457599700,9.462599853515625,-0.9815521240234375,0.0128173828125,0.0018768310546875
1690839990467669800,9.472669677734375,-0.981536865234375,0.01318359375,0.0020904541015625
1690839990477710800,9.4827109375,-0.980926513671875,0.013824462890625,0.002716064453125
1690839990487750700,9.492750732421875,-0.98114013671875,0.013671875,0.002227783203125
1690839990497790500,9.50279052734375,-0.9808502197265625,0.0131683349609375,0.0030517578125
1690839990507830500,9.51283056640625,-0.98126220703125,0.013275146484375,0.0030975341796875
1690839990517871600,9.52287158203125,-0.982147216796875,0.0138397216796875,0.0030670166015625
1690839990527911700,9.53291162109375,-0.98309326171875,0.0138397216796875,0.00384521484375
1690839990537951700,9.54295166015625,-0.9824676513671875,0.0133819580078125,0.0029144287109375
1690839990547992800,9.552992919921875,-0.981689453125,0.01348876953125,0.0031280517578125
1690839990558032600,9.56303271484375,-0.98211669921875,0.01275634765625,0.0022430419921875
1690839990568072400,9.573072509765625,-0.9823760986328125,0.012847900390625,0.001495361328125
1690839990578112500,9.583112548828124,-0.98114013671875,0.012939453125,0.0020751953125
1690839990588153600,9.593153564453125,-0.98101806640625,0.0124969482421875,0.0017547607421875
1690839990598193700,9.603193603515624,-0.981536865234375,0.0127410888671875,0.00164794921875
1690839990608233700,9.613233642578125,-0.981292724609375,0.0121917724609375,0.00286865234375
1690839990618304800,9.6233046875,-0.9818115234375,0.0137481689453125,0.0031890869140625
1690839990628344600,9.633344482421874,-0.9817352294921875,0.0138092041015625,0.0031280517578125
1690839990638385400,9.643385498046875,-0.981597900390625,0.013336181640625,0.0028533935546875
1690839990648425500,9.653425537109374,-0.9814605712890625,0.013031005859375,0.0027923583984375
1690839990658465500,9.663465576171875,-0.9814453125,0.012969970703125,0.002716064453125
1690839990668505600,9.673505615234374,-0.981842041015625,0.0131988525390625,0.0025787353515625
1690839990678546700,9.683546630859375,-0.98138427734375,0.0133209228515625,0.002593994140625
1690839990688586800,9.693586669921874,-0.981231689453125,0.013641357421875,0.0016937255859375
1690839990698626600,9.70362646484375,-0.981353759765625,0.012939453125,0.0018768310546875
1690839990708667400,9.71366748046875,-0.982177734375,0.0132293701171875,0.00274658203125
1690839990718707500,9.72370751953125,-0.9818572998046875,0.0138397216796875,0.00213623046875
1690839990728747500,9.73374755859375,-0.981689453125,0.0126953125,0.0025177001953125
1690839990738787600,9.74378759765625,-0.9825897216796875,0.0131683349609375,0.003448486328125
1690839990748828700,9.75382861328125,-0.98223876953125,0.0129852294921875,0.0027008056640625
1690839990758899700,9.763899658203124,-0.981658935546875,0.0142364501953125,0.0024566650390625
1690839990768939800,9.773939697265625,-0.9815673828125,0.0141754150390625,0.0025634765625
1690839990778979600,9.7839794921875,-0.9813690185546875,0.0129852294921875,0.0025634765625
1690839990789019600,9.79401953125,-0.9814300537109375,0.0133514404296875,0.0021514892578125
1690839990799060500,9.804060546875,-0.9813079833984375,0.013641357421875,0.0019073486328125
1690839990809100500,9.8141005859375,-0.981781005859375,0.013153076171875,0.001983642578125
1690839990819140600,9.824140625,-0.9810638427734375,0.013092041015625,0.00299072265625
1690839990829181700,9.834181640625,-0.98077392578125,0.0128021240234375,0.00311279296875
1690839990839221800,9.8442216796875,-0.9815521240234375,0.01324462890625,0.003814697265625
1690839990849261600,9.854261474609375,-0.981475830078125,0.013885498046875,0.00360107421875
1690839990859301600,9.864301513671874,-0.9816436767578125,0.013458251953125,0.0027618408203125
1690839990869342500,9.874342529296875,-0.981170654296875,0.01348876953125,0.0026397705078125
1690839990879382500,9.884382568359374,-0.98211669921875,0.0129241943359375,0.0021820068359375
1690839990889422600,9.894422607421875,-0.9807891845703125,0.0129241943359375,0.0022735595703125
1690839990899463700,9.904463623046874,-0.98150634765625,0.013671875,0.00347900390625
1690839990909533700,9.91453369140625,-0.981109619140625,0.0133209228515625,0.0032501220703125
1690839990919574800,9.92457470703125,-0.9806671142578125,0.0140533447265625,0.00311279296875
1690839990929614600,9.934614501953124,-0.9817657470703125,0.013671875,0.00311279296875
1690839990939654700,9.944654541015625,-0.981536865234375,0.01300048828125,0.0022430419921875
1690839990949694700,9.95469482421875,-0.9813385009765625,0.0135040283203125,0.0021209716796875
1690839990959735600,9.964735595703125,-0.982818603515625,0.0140533447265625,0.0030975341796875
1690839990969775600,9.974775634765624,-0.981414794921875,0.0134124755859375,0.0027313232421875
1690839990979815700,9.984815673828125,-0.981048583984375,0.0136871337890625,0.00201416015625
1690839990989856800,9.994856689453124,-0.981292724609375,0.0146026611328125,0.002197265625
1690839990999896600,10.004896484375,-0.981658935546875,0.0142822265625,0.0023193359375
1690839991009936600,10.0149365234375,-0.981658935546875,0.01336669921875,0.003692626953125
1690839991019976700,10.024976806640625,-0.9807586669921875,0.0132293701171875,0.003204345703125
1690839991030017500,10.035017578125,-0.981170654296875,0.0128631591796875,0.00238037109375
1690839991040057600,10.0450576171875,-0.9823760986328125,0.012969970703125,0.002593994140625
1690839991050128600,10.055128662109375,-0.98223876953125,0.0134735107421875,0.0023956298828125
1690839991060143400,10.065143310546874,-0.981536865234375,0.013702392578125,0.0021514892578125
1690839991070183400,10.075183349609375,-0.9808197021484375,0.0139923095703125,0.0021209716796875
1690839991080224500,10.085224609375,-0.9808502197265625,0.013946533203125,0.0020294189453125
1690839991090264600,10.0952646484375,-0.980865478515625,0.013031005859375,0.0020751953125
1690839991100304600,10.1053046875,-0.980621337890625,0.0125885009765625,0.002899169921875
1690839991110345700,10.115345703125,-0.981201171875,0.0127410888671875,0.0027008056640625
1690839991120385500,10.125385498046874,-0.981048583984375,0.012481689453125,0.0036468505859375
1690839991130425300,10.13542529296875,-0.9815673828125,0.0134735107421875,0.0036773681640625
1690839991140465400,10.14546533203125,-0.9810943603515625,0.0137786865234375,0.0030975341796875
1690839991150506500,10.155506591796875,-0.9817962646484375,0.013153076171875,0.003021240234375
1690839991160546600,10.165546630859374,-0.9806976318359375,0.013946533203125,0.0029754638671875
1690839991170586600,10.175586669921875,-0.980987548828125,0.0134429931640625,0.001800537109375
1690839991180626700,10.185626708984374,-0.9819183349609375,0.0131378173828125,0.001800537109375
1690839991190697500,10.195697509765624,-0.98162841796875,0.013275146484375,0.0022735595703125
1690839991200738300,10.20573828125,-0.9804534912109375,0.0135040283203125,0.0022735595703125
1690839991210778400,10.2157783203125,-0.9814300537109375,0.0137481689453125,0.00225830078125
1690839991220818400,10.225818359375,-0.98175048828125,0.0134124755859375,0.003875732421875
1690839991230858500,10.2358583984375,-0.9812164306640625,0.0135345458984375,0.003082275390625
1690839991240899600,10.245899658203125,-0.9806671142578125,0.0134124755859375,0.0030975341796875
1690839991250939600,10.255939697265624,-0.98114013671875,0.01361083984375,0.0028228759765625
1690839991260979700,10.265979736328125,-0.9817962646484375,0.0125732421875,0.0030670166015625
1690839991271020500,10.2760205078125,-0.9817657470703125,0.01300048828125,0.0029144287109375
1690839991281060400,10.286060302734375,-0.9811248779296875,0.013153076171875,0.00274658203125
1690839991291100400,10.296100341796874,-0.9817047119140625,0.0139007568359375,0.0022125244140625
1690839991301140500,10.306140380859375,-0.980560302734375,0.0130767822265625,0.002105712890625
1690839991311181600,10.316181640625,-0.97967529296875,0.0130157470703125,0.00225830078125
1690839991321221600,10.3262216796875,-0.9808349609375,0.012847900390625,0.0018768310546875
1690839991331261700,10.33626171875,-0.98065185546875,0.0135955810546875,0.0023651123046875
1690839991341332500,10.34633251953125,-0.98040771484375,0.0129852294921875,0.00323486328125
1690839991351372500,10.35637255859375,-0.980194091796875,0.0133514404296875,0.003631591796875
1690839991361413400,10.366413330078124,-0.981292724609375,0.0139617919921875,0.00360107421875
1690839991371453400,10.376453369140625,-0.98065185546875,0.0128631591796875,0.0033416748046875
1690839991381493500,10.386493408203124,-0.9810638427734375,0.0128021240234375,0.003204345703125
1690839991391533600,10.396533447265625,-0.9818267822265625,0.013641357421875,0.0029144287109375
1690839991401574700,10.40657470703125,-0.981292724609375,0.01397705078125,0.00189208984375
1690839991411614700,10.41661474609375,-0.9799652099609375,0.013397216796875,0.0018463134765625
1690839991421654500,10.426654541015624,-0.980987548828125,0.012542724609375,0.0020904541015625
1690839991431695400,10.4366953125,-0.9803924560546875,0.0132904052734375,0.001922607421875
1690839991441735400,10.4467353515625,-0.981353759765625,0.0136260986328125,0.002166748046875
1690839991451775500,10.456775390625,-0.9797210693359375,0.013092041015625,0.0026397705078125
1690839991461815600,10.466815673828124,-0.9806976318359375,0.0129852294921875,0.0027923583984375
1690839991471856600,10.476856689453125,-0.981048583984375,0.012542724609375,0.00274658203125
1690839991481927700,10.486927734375,-0.98052978515625,0.013336181640625,0.002227783203125
1690839991491967500,10.496967529296874,-0.9805145263671875,0.01361083984375,0.0024566650390625
1690839991502007600,10.507007568359375,-0.9795074462890625,0.014129638671875,0.00299072265625
1690839991512047600,10.517047607421874,-0.9805450439453125,0.0135040283203125,0.0020904541015625
1690839991522088400,10.52708837890625,-0.980682373046875,0.014007568359375,0.0013580322265625
1690839991532128500,10.53712841796875,-0.9804534912109375,0.0132904052734375,0.0023956298828125
1690839991542168600,10.54716845703125,-0.9798736572265625,0.0135345458984375,0.0027618408203125
1690839991552209700,10.557209716796875,-0.97979736328125,0.0142822265625,0.00244140625
1690839991562249500,10.56724951171875,-0.9798126220703125,0.013336181640625,0.0037384033203125
1690839991572289500,10.57728955078125,-0.9803314208984375,0.0131683349609375,0.0037078857421875
1690839991582329600,10.58732958984375,-0.98114013671875,0.0128326416015625,0.00372314453125
1690839991592370400,10.597370361328124,-0.9801788330078125,0.0135345458984375,0.0021209716796875
1690839991602410500,10.607410400390625,-0.9803924560546875,0.01336669921875,0.0022125244140625
1690839991612450600,10.617450439453124,-0.98052978515625,0.0135498046875,0.0025177001953125
1690839991622490600,10.62749072265625,-0.9804229736328125,0.0131683349609375,0.00177001953125
1690839991632561400,10.6375615234375,-0.9804229736328125,0.012603759765625,0.0014801025390625
1690839991642602500,10.6476025390625,-0.980224609375,0.0132598876953125,0.0014190673828125
1690839991652642600,10.657642578125,-0.9807281494140625,0.013427734375,0.0017242431640625
1690839991662682600,10.6676826171875,-0.97967529296875,0.01318359375,0.0020294189453125
1690839991672722700,10.67772265625,-0.9797821044921875,0.0137786865234375,0.0021209716796875
1690839991682763500,10.687763427734374,-0.9800872802734375,0.013153076171875,0.0030517578125
1690839991692803600,10.697803466796875,-0.980010986328125,0.0132293701171875,0.0030517578125
1690839991702843400,10.707843505859374,-0.9805755615234375,0.0136260986328125,0.002960205078125
1690839991712884500,10.717884521484375,-0.98016357421875,0.0132904052734375,0.002410888671875
1690839991722924500,10.727924560546874,-0.9802703857421875,0.013458251953125,0.0031890869140625
1690839991732964600,10.737964599609375,-0.9802093505859375,0.0129547119140625,0.0033111572265625
1690839991743004700,10.748004638671874,-0.97967529296875,0.0127716064453125,0.002471923828125
1690839991753045500,10.75804541015625,-0.9802093505859375,0.013519287109375,0.0031280517578125
1690839991763085600,10.76808544921875,-0.9792022705078125,0.0130462646484375,0.00250244140625
1690839991773156600,10.778156494140624,-0.980133056640625,0.0137939453125,0.0023040771484375
1690839991783196400,10.788196533203125,-0.980010986328125,0.0140838623046875,0.0023956298828125
1690839991793236500,10.798236572265624,-0.9803009033203125,0.01318359375,0.00225830078125
1690839991803277600,10.808277587890625,-0.9799957275390625,0.0135955810546875,0.0035858154296875
1690839991813317600,10.818317626953124,-0.9803009033203125,0.0128936767578125,0.003692626953125
1690839991823357700,10.828357666015625,-0.9795989990234375,0.012786865234375,0.0035552978515625
1690839991833397500,10.8383974609375,-0.9793548583984375,0.0140228271484375,0.0031280517578125
1690839991843438600,10.8484384765625,-0.9791259765625,0.0135498046875,0.0033416748046875
1690839991853478400,10.858478515625,-0.9799957275390625,0.0139007568359375,0.002777099609375
1690839991863518500,10.8685185546875,-0.9797821044921875,0.01324462890625,0.001739501953125
1690839991873559600,10.8785595703125,-0.9792327880859375,0.0129547119140625,0.0018463134765625
1690839991883599600,10.888599609375,-0.97882080078125,0.0137176513671875,0.0022430419921875
1690839991893639700,10.8986396484375,-0.979278564453125,0.0133209228515625,0.003021240234375
1690839991903679500,10.908679443359375,-0.980438232421875,0.0137176513671875,0.0032501220703125
1690839991913750500,10.91875048828125,-0.980560302734375,0.0129547119140625,0.0030517578125
1690839991923791600,10.92879150390625,-0.9801483154296875,0.01287841796875,0.002777099609375
1690839991933831400,10.93883154296875,-0.9801177978515625,0.0132904052734375,0.0030975341796875
1690839991943871500,10.94887158203125,-0.9783172607421875,0.0125579833984375,0.00299072265625
1690839991953911600,10.95891162109375,-0.9788970947265625,0.013763427734375,0.0025482177734375
1690839991963952600,10.96895263671875,-0.9804840087890625,0.013519287109375,0.0030975341796875
1690839991973992700,10.97899267578125,-0.9789886474609375,0.01416015625,0.0024871826171875
1690839991984032500,10.989032470703124,-0.9794921875,0.0136871337890625,0.0018768310546875
1690839991994073600,10.999073486328125,-0.9795074462890625,0.012939453125,0.003204345703125
1690839992004113400,11.009113525390624,-0.9789276123046875,0.013153076171875,0.003021240234375
1690839992014153500,11.019153564453125,-0.978668212890625,0.0129852294921875,0.0030670166015625
1690839992024193500,11.029193603515624,-0.979278564453125,0.013153076171875,0.00341796875
1690839992034234600,11.039234619140625,-0.979461669921875,0.0126190185546875,0.0032958984375
1690839992044274700,11.049274658203124,-0.9799346923828125,0.012420654296875,0.0033416748046875
1690839992054328600,11.05932861328125,-0.9798126220703125,0.0128326416015625,0.0034027099609375
1690839992064399600,11.069399658203125,-0.979583740234375,0.0124053955078125,0.0036468505859375
1690839992074439700,11.079439697265625,-0.9796295166015625,0.0133209228515625,0.0025634765625
1690839992084480800,11.089480712890625,-0.979095458984375,0.013641357421875,0.0020751953125
1690839992094520600,11.0995205078125,-0.97930908203125,0.0143585205078125,0.0030364990234375
1690839992104560600,11.109560546875,-0.9786529541015625,0.0138702392578125,0.002838134765625
1690839992114600700,11.1196005859375,-0.9784088134765625,0.0127716064453125,0.0023651123046875
1690839992124641500,11.1296416015625,-0.9783782958984375,0.0137939453125,0.0028228759765625
1690839992134681600,11.139681640625,-0.9793701171875,0.0136871337890625,0.00274658203125
1690839992144721700,11.1497216796875,-0.9796142578125,0.013641357421875,0.0029296875
1690839992154762800,11.1597626953125,-0.9795379638671875,0.013763427734375,0.0032958984375
1690839992164802600,11.169802490234375,-0.97918701171875,0.01336669921875,0.0024261474609375
1690839992174842600,11.179842529296875,-0.97760009765625,0.0132598876953125,0.002166748046875
1690839992184882700,11.189882568359375,-0.9786376953125,0.013519287109375,0.0029449462890625
1690839992194923500,11.199923583984376,-0.9794921875,0.0140380859375,0.0024261474609375
1690839992204994600,11.20999462890625,-0.978363037109375,0.0133819580078125,0.002044677734375
1690839992215034600,11.22003466796875,-0.978271484375,0.012969970703125,0.0027618408203125
1690839992225074700,11.23007470703125,-0.97943115234375,0.013580322265625,0.0029144287109375
1690839992235114500,11.240114501953125,-0.9790191650390625,0.014129638671875,0.00238037109375
1690839992245155600,11.250155517578126,-0.97900390625,0.013427734375,0.0040740966796875
1690839992255195600,11.260195556640625,-0.978607177734375,0.013702392578125,0.004119873046875
1690839992265235700,11.270235595703125,-0.979095458984375,0.013946533203125,0.0032958984375
1690839992275275800,11.28027587890625,-0.97845458984375,0.01318359375,0.002227783203125
1690839992285316600,11.290316650390626,-0.9782867431640625,0.0128631591796875,0.001678466796875
1690839992295356700,11.300356689453125,-0.9782257080078125,0.013214111328125,0.0016632080078125
1690839992305396500,11.310396484375,-0.97857666015625,0.012847900390625,0.0027008056640625
1690839992315437600,11.3204375,-0.978485107421875,0.0132904052734375,0.0026702880859375
1690839992325477600,11.3304775390625,-0.979827880859375,0.01336669921875,0.002655029296875
1690839992335517700,11.340517578125,-0.9795989990234375,0.0131072998046875,0.002960205078125
1690839992345588700,11.350588623046875,-0.9783172607421875,0.012725830078125,0.00311279296875
1690839992355628800,11.36062890625,-0.9785003662109375,0.0139617919921875,0.003265380859375
1690839992365669600,11.370669677734375,-0.9789886474609375,0.0130615234375,0.0029449462890625
1690839992375709700,11.380709716796876,-0.9786376953125,0.0133056640625,0.0032958984375
1690839992385749500,11.39074951171875,-0.9790802001953125,0.0134429931640625,0.0022125244140625
1690839992395789600,11.40078955078125,-0.9781646728515625,0.0133514404296875,0.0020599365234375
1690839992405830700,11.41083056640625,-0.9789581298828125,0.0129852294921875,0.002288818359375
1690839992415870700,11.42087060546875,-0.97900390625,0.0135498046875,0.00189208984375
1690839992425910800,11.430910888671875,-0.9786376953125,0.013336181640625,0.002044677734375
1690839992435951600,11.44095166015625,-0.9792327880859375,0.012908935546875,0.0035552978515625
1690839992445991700,11.45099169921875,-0.97918701171875,0.013458251953125,0.0033111572265625
1690839992456031500,11.461031494140625,-0.9784393310546875,0.013580322265625,0.0029144287109375
1690839992466071600,11.471071533203125,-0.9787750244140625,0.0134735107421875,0.002685546875
1690839992476112600,11.481112548828126,-0.978271484375,0.013641357421875,0.0021209716796875
1690839992486152700,11.491152587890625,-0.9775543212890625,0.0135345458984375,0.0029754638671875
1690839992496223700,11.5012236328125,-0.9779815673828125,0.013519287109375,0.0029144287109375
1690839992506263800,11.511263916015626,-0.9784698486328125,0.0135650634765625,0.0021209716796875
1690839992516304000,11.521303955078125,-0.97833251953125,0.0138092041015625,0.002532958984375
1690839992526344700,11.5313447265625,-0.978302001953125,0.013275146484375,0.00189208984375
1690839992536384500,11.541384521484375,-0.978057861328125,0.01318359375,0.002288818359375
1690839992546424600,11.551424560546875,-0.9788970947265625,0.013641357421875,0.00164794921875
1690839992556464600,11.561464599609375,-0.978851318359375,0.0138397216796875,0.0030059814453125
1690839992566505700,11.571505615234376,-0.9783935546875,0.01385498046875,0.0025482177734375
1690839992576545800,11.5815458984375,-0.9783477783203125,0.01361083984375,0.00225830078125
1690839992586585900,11.5915859375,-0.9789886474609375,0.01361083984375,0.00244140625
1690839992596626700,11.601626708984375,-0.9786834716796875,0.012908935546875,0.0024261474609375
1690839992606666500,11.61166650390625,-0.9783935546875,0.01385498046875,0.002410888671875
1690839992616706600,11.62170654296875,-0.9788360595703125,0.0137176513671875,0.003570556640625
1690839992626746600,11.63174658203125,-0.979339599609375,0.0136260986328125,0.00299072265625
1690839992636817700,11.641817626953125,-0.978363037109375,0.0131683349609375,0.002593994140625
1690839992646858800,11.651858642578125,-0.977630615234375,0.0128173828125,0.0023956298828125
1690839992656898800,11.66189892578125,-0.978302001953125,0.013427734375,0.0034637451171875
1690839992666939000,11.67193896484375,-0.9782562255859375,0.01324462890625,0.0026092529296875
1690839992676978700,11.681978759765625,-0.9792633056640625,0.0142364501953125,0.00262451171875
1690839992687019500,11.69201953125,-0.978424072265625,0.013580322265625,0.00286865234375
1690839992697059600,11.7020595703125,-0.978302001953125,0.013458251953125,0.0022735595703125
1690839992707099600,11.712099609375,-0.9786529541015625,0.013763427734375,0.0023956298828125
1690839992717140700,11.722140625,-0.9787445068359375,0.0140380859375,0.00213623046875
1690839992727180800,11.732180908203125,-0.97808837890625,0.013824462890625,0.0018463134765625
1690839992737220900,11.742220947265626,-0.9783477783203125,0.0131072998046875,0.0029144287109375
1690839992747260700,11.7522607421875,-0.9783935546875,0.013031005859375,0.0032806396484375
1690839992757301500,11.762301513671876,-0.978973388671875,0.01312255859375,0.00262451171875
1690839992767341600,11.772341552734375,-0.9793548583984375,0.0135498046875,0.0027923583984375
1690839992777412600,11.78241259765625,-0.9793243408203125,0.0130157470703125,0.0028076171875
1690839992787452700,11.79245263671875,-0.9785308837890625,0.012939453125,0.0032196044921875
1690839992797492700,11.80249267578125,-0.9779205322265625,0.0131072998046875,0.0029449462890625
1690839992807533800,11.812533935546876,-0.9787750244140625,0.013946533203125,0.0031280517578125
1690839992817573600,11.82257373046875,-0.979461669921875,0.01336669921875,0.0030364990234375
1690839992827613700,11.83261376953125,-0.9791259765625,0.0133514404296875,0.0023345947265625
1690839992837653800,11.84265380859375,-0.9793548583984375,0.0140228271484375,0.0022125244140625
1690839992847694600,11.852694580078126,-0.9788818359375,0.0136260986328125,0.0030975341796875
1690839992857734700,11.862734619140625,-0.9782562255859375,0.013153076171875,0.0020904541015625
1690839992867774700,11.872774658203125,-0.9786224365234375,0.013702392578125,0.00201416015625
1690839992877815800,11.88281591796875,-0.979736328125,0.013519287109375,0.00201416015625
1690839992887855900,11.89285595703125,-0.9793548583984375,0.0137939453125,0.0027923583984375
1690839992897895700,11.902895751953125,-0.9793701171875,0.013214111328125,0.0025787353515625
1690839992907935700,11.912935791015625,-0.979827880859375,0.0131683349609375,0.0030517578125
1690839992918006800,11.9230068359375,-0.9796142578125,0.0135955810546875,0.003631591796875
1690839992928046600,11.933046630859375,-0.9800567626953125,0.0131378173828125,0.002960205078125
1690839992938087700,11.943087646484376,-0.979705810546875,0.013885498046875,0.002899169921875
1690839992948127700,11.953127685546875,-0.97930908203125,0.012786865234375,0.0030975341796875
1690839992958167600,11.96316748046875,-0.9790191650390625,0.013092041015625,0.0023193359375
1690839992968208600,11.973208740234375,-0.9780120849609375,0.0137176513671875,0.0031890869140625
1690839992978248700,11.983248779296876,-0.9785308837890625,0.0128936767578125,0.0021820068359375
1690839992988288800,11.993288818359375,-0.979644775390625,0.01361083984375,0.00238037109375
1690839992998328600,12.00332861328125,-0.97900390625,0.013702392578125,0.002716064453125
1690839993008369700,12.01336962890625,-0.97894287109375,0.0136260986328125,0.002777099609375
1690839993018409700,12.02340966796875,-0.9793853759765625,0.013427734375,0.003387451171875
1690839993028449800,12.03344970703125,-0.9797821044921875,0.0135345458984375,0.0032958984375
1690839993038491000,12.043490966796876,-0.9790496826171875,0.0138702392578125,0.0027923583984375
1690839993048530700,12.05353076171875,-0.979827880859375,0.012908935546875,0.0027923583984375
1690839993058592300,12.06359228515625,-0.9795684814453125,0.0133819580078125,0.0020599365234375
1690839993068632300,12.07363232421875,-0.98040771484375,0.0135040283203125,0.001953125
1690839993078672100,12.083672119140624,-0.9792022705078125,0.0133056640625,0.0023956298828125
1690839993088713200,12.093713134765625,-0.9784088134765625,0.013671875,0.002838134765625
1690839993098753300,12.103753173828125,-0.979278564453125,0.013580322265625,0.0030059814453125
1690839993108793300,12.11379345703125,-0.9783172607421875,0.01373291015625,0.0029754638671875
1690839993118833400,12.12383349609375,-0.978485107421875,0.01434326171875,0.0026702880859375
1690839993128874200,12.133874267578125,-0.9795989990234375,0.01397705078125,0.0027313232421875
1690839993138914300,12.143914306640625,-0.979949951171875,0.013641357421875,0.002838134765625
1690839993148954000,12.1539541015625,-0.9791717529296875,0.01373291015625,0.0030364990234375
1690839993158995200,12.1639951171875,-0.9792938232421875,0.0135040283203125,0.0029144287109375
1690839993169035300,12.17403515625,-0.978973388671875,0.01318359375,0.0028533935546875
1690839993179075300,12.184075439453125,-0.9786529541015625,0.0129547119140625,0.0028839111328125
1690839993189115400,12.194115478515625,-0.9804534912109375,0.0133209228515625,0.001953125
1690839993199186400,12.2041865234375,-0.9799346923828125,0.013427734375,0.0023345947265625
1690839993209226200,12.214226318359374,-0.979248046875,0.0120086669921875,0.002716064453125
1690839993219267000,12.22426708984375,-0.9787445068359375,0.0125579833984375,0.0023193359375
1690839993229307100,12.23430712890625,-0.97894287109375,0.0129547119140625,0.0028228759765625
1690839993239347200,12.24434716796875,-0.9794464111328125,0.0128936767578125,0.0028839111328125
1690839993249388300,12.25438818359375,-0.9795074462890625,0.013458251953125,0.002410888671875
1690839993259428400,12.264428466796875,-0.978851318359375,0.0140228271484375,0.0023040771484375
1690839993269468400,12.274468505859375,-0.9799346923828125,0.0133819580078125,0.002105712890625
1690839993279508500,12.284508544921875,-0.9795074462890625,0.0133514404296875,0.0026092529296875
1690839993289549300,12.29454931640625,-0.978363037109375,0.0135040283203125,0.0027618408203125
1690839993299589000,12.304589111328125,-0.9790191650390625,0.0136871337890625,0.00238037109375
1690839993309629200,12.314629150390624,-0.979095458984375,0.0132904052734375,0.002044677734375
1690839993319670300,12.324670166015625,-0.9794769287109375,0.013519287109375,0.0027008056640625
1690839993329710300,12.33471044921875,-0.9802093505859375,0.0133209228515625,0.002197265625
1690839993339781400,12.344781494140625,-0.9790496826171875,0.013763427734375,0.0024261474609375
1690839993349821400,12.354821533203125,-0.979339599609375,0.0135345458984375,0.0023651123046875
1690839993359861200,12.364861328125,-0.9795074462890625,0.012664794921875,0.0030975341796875
1690839993369902000,12.374902099609375,-0.9793243408203125,0.0129547119140625,0.00250244140625
1690839993379942100,12.384942138671875,-0.9800872802734375,0.0132598876953125,0.00238037109375
1690839993389982200,12.394982177734375,-0.9810333251953125,0.013641357421875,0.0029754638671875
1690839993400022300,12.405022216796874,-0.9806060791015625,0.013580322265625,0.0027618408203125
1690839993410063400,12.4150634765625,-0.979339599609375,0.0127716064453125,0.003082275390625
1690839993420103400,12.425103515625,-0.9795684814453125,0.012542724609375,0.00262451171875
1690839993430143200,12.435143310546875,-0.9807586669921875,0.0131683349609375,0.0031585693359375
1690839993440183000,12.44518310546875,-0.97991943359375,0.013580322265625,0.0028076171875
1690839993450224000,12.45522412109375,-0.9799346923828125,0.0139312744140625,0.0019989013671875
1690839993460264200,12.46526416015625,-0.979644775390625,0.013641357421875,0.0017242431640625
1690839993470304300,12.47530419921875,-0.98004150390625,0.0136871337890625,0.0023651123046875
1690839993480345300,12.485345458984375,-0.9800872802734375,0.0132293701171875,0.00250244140625
1690839993490415400,12.495415283203124,-0.9801483154296875,0.013397216796875,0.0023345947265625
1690839993500456400,12.50545654296875,-0.9806365966796875,0.013519287109375,0.002166748046875
1690839993510496300,12.515496337890625,-0.979644775390625,0.014129638671875,0.0025482177734375
1690839993520536000,12.5255361328125,-0.9800262451171875,0.0131072998046875,0.0027008056640625
1690839993530577200,12.5355771484375,-0.98077392578125,0.0132293701171875,0.0029449462890625
1690839993540617200,12.5456171875,-0.97967529296875,0.014251708984375,0.0024871826171875
1690839993550657300,12.5556572265625,-0.9794769287109375,0.0146026611328125,0.0023651123046875
1690839993560697300,12.565697265625,-0.9789581298828125,0.0141448974609375,0.0018310546875
1690839993570738400,12.575738525390625,-0.9794464111328125,0.0137176513671875,0.0020751953125
1690839993580778200,12.5857783203125,-0.979644775390625,0.0137939453125,0.002838134765625
1690839993590818000,12.595818115234374,-0.97918701171875,0.01275634765625,0.002197265625
1690839993600859100,12.605859130859375,-0.9796905517578125,0.0135345458984375,0.002105712890625
1690839993610899200,12.615899169921875,-0.9793701171875,0.013916015625,0.0020904541015625
1690839993620939300,12.625939208984375,-0.9791717529296875,0.012908935546875,0.00299072265625
1690839993631010300,12.63601025390625,-0.9798126220703125,0.0138397216796875,0.0016937255859375
1690839993641050400,12.64605029296875,-0.9796905517578125,0.0134124755859375,0.0016632080078125
1690839993651090200,12.656090087890625,-0.9791107177734375,0.0138092041015625,0.002166748046875
1690839993661131300,12.66613134765625,-0.97930908203125,0.0131683349609375,0.002288818359375
1690839993671171000,12.676171142578125,-0.979400634765625,0.013153076171875,0.0025482177734375
1690839993681211100,12.686211181640624,-0.9801177978515625,0.01361083984375,0.0019073486328125
1690839993691252200,12.696252197265625,-0.9804229736328125,0.013153076171875,0.00274658203125
1690839993701292300,12.706292236328125,-0.97998046875,0.01416015625,0.0024566650390625
1690839993711332400,12.716332275390625,-0.9792938232421875,0.014068603515625,0.0031280517578125
1690839993721372400,12.726372314453124,-0.9791107177734375,0.0133056640625,0.002349853515625
1690839993731413200,12.736413330078125,-0.9803314208984375,0.012969970703125,0.0018463134765625
1690839993741453000,12.746453125,-0.9796600341796875,0.0135650634765625,0.0027618408203125
1690839993751493000,12.7564931640625,-0.9799346923828125,0.0134429931640625,0.0020599365234375
1690839993761534200,12.7665341796875,-0.9798126220703125,0.012481689453125,0.0028839111328125
1690839993771604200,12.776604248046874,-0.98101806640625,0.0136566162109375,0.002685546875
1690839993781645300,12.786645263671875,-0.9810943603515625,0.01361083984375,0.0034942626953125
1690839993791685400,12.796685302734375,-0.97967529296875,0.013336181640625,0.003204345703125
1690839993801725200,12.80672509765625,-0.9801788330078125,0.0134429931640625,0.0029449462890625
1690839993811766300,12.816766357421875,-0.9800872802734375,0.0137786865234375,0.002960205078125
1690839993821806000,12.82680615234375,-0.9793243408203125,0.0131378173828125,0.00341796875
1690839993831846100,12.83684619140625,-0.9788818359375,0.0138397216796875,0.002166748046875
1690839993841886200,12.84688623046875,-0.9788360595703125,0.013641357421875,0.002227783203125
1690839993851927300,12.85692724609375,-0.9799957275390625,0.013519287109375,0.002716064453125
1690839993861967400,12.86696728515625,-0.9803924560546875,0.01409912109375,0.0027618408203125
1690839993872007200,12.877007080078124,-0.979583740234375,0.0137939453125,0.0029144287109375
1690839993882047200,12.887047119140625,-0.9793853759765625,0.0131378173828125,0.002593994140625
1690839993892088000,12.897088134765625,-0.97900390625,0.0133819580078125,0.0020751953125
1690839993902128000,12.907128173828125,-0.980255126953125,0.013580322265625,0.0024566650390625
1690839993912199200,12.91719921875,-0.9799652099609375,0.013427734375,0.0018463134765625
1690839993922239200,12.9272392578125,-0.97894287109375,0.013214111328125,0.00244140625
1690839993932279300,12.937279296875,-0.97900390625,0.0136566162109375,0.0021820068359375
1690839993942320400,12.9473203125,-0.9793853759765625,0.013580322265625,0.0030059814453125
1690839993952360200,12.957360107421875,-0.98052978515625,0.012939453125,0.0030975341796875
1690839993962400300,12.967400146484374,-0.9798736572265625,0.0136871337890625,0.002532958984375
1690839993972441000,12.977441162109375,-0.9792022705078125,0.014068603515625,0.002960205078125
1690839993982481200,12.987481201171875,-0.9795074462890625,0.0139923095703125,0.00262451171875
1690839993992521200,12.997521240234375,-0.979705810546875,0.012908935546875,0.00274658203125
1690839994002561300,13.007561279296874,-0.9796600341796875,0.0129547119140625,0.00250244140625
1690839994012602400,13.017602294921875,-0.9788818359375,0.0125732421875,0.003021240234375
1690839994022642200,13.02764208984375,-0.9803314208984375,0.013336181640625,0.002197265625
1690839994032682200,13.03768212890625,-0.9806671142578125,0.013519287109375,0.0021820068359375
1690839994042723000,13.04772314453125,-0.979034423828125,0.0134124755859375,0.002960205078125
