time,seconds_elapsed,z,y,x
1690839981190522400,0.1955224609375,0.1886462565898895,-0.15350677334330975,0.01096585441280622
1690839981200562400,0.2055625,0.2133949133992195,-0.09885100838239304,0.026454172952426597
1690839981210603500,0.215603515625,0.23965163668394088,-0.027940018462855366,0.023093736059020736
1690839981220674600,0.225674560546875,0.2720686361640692,0.03755271840076893,0.0065249288063147105
1690839981230714600,0.235714599609375,0.29284780482053757,0.07932049721330404,-0.00590655716266483
1690839981240754700,0.245754638671875,0.30438451335728167,0.11386591442371718,-0.00415436146678403
1690839981250794800,0.255794677734375,0.3078706019073725,0.12590899244686587,-0.01222179102434311
1690839981260835600,0.265835693359375,0.30194997968673704,0.10857503234082833,-0.010989598331286106
1690839981270875400,0.27587548828125,0.2782265742719173,0.07842607825738378,-0.0015796087580849415
1690839981280915500,0.28591552734375,0.2472977675229311,0.10568621556414291,-0.016596343713602982
1690839981290955500,0.29595556640625,0.21959669064879417,0.023673561223992143,-0.01910997963550035
1690839981300996600,0.30599658203125,0.2122878289401531,-0.06414249129844829,-0.014873570475028826
1690839981311036700,0.31603662109375,0.20611352421939372,-0.1274484769738279,-0.01472378674079664
1690839981321076700,0.32607666015625,0.19868892717659473,-0.16109189471006394,-0.012685547495016361
1690839981331117600,0.33611767578125,0.19563830743432045,-0.18370648036645723,-0.017212621581577697
1690839981341157400,0.346157470703125,0.2048211463212967,-0.16326827063476665,-0.0008443487195181659
1690839981351197400,0.356197509765625,0.21802315772175787,-0.12523763252394274,0.0023893131391960194
1690839981361268500,0.3662685546875,0.23572715671658515,-0.07421214122362435,-0.00206654974152334
1690839981371308500,0.37630859375,0.24486674098372457,-0.039581502548325806,-0.002697351608483586
1690839981381349600,0.386349609375,0.2603717686295509,0.0023289178716018794,0.0028697307670139706
1690839981391389700,0.3963896484375,0.27604806118905545,0.03365328154312446,0.00487923482536571
1690839981401429800,0.4064296875,0.2667068168699741,0.042205439577437935,-0.005875876613322179
1690839981411469600,0.416469482421875,0.2622679576396942,0.036274359894869844,-0.0050225340198841876
1690839981421510400,0.426510498046875,0.24474106877744195,0.021761932616122064,-0.013142033974686636
1690839981431550500,0.436550537109375,0.222213595148921,-0.016500167029863223,-0.006814301391039043
1690839981441590500,0.446590576171875,0.2077086844563484,-0.04962642902419902,0.005267179263604339
1690839981451631600,0.456631591796875,0.20903145749270916,-0.07182990399589761,0.008969817190803586
1690839981461671700,0.466671630859375,0.20478432144224643,-0.08330606885128654,0.013057737241697032
1690839981471711700,0.476711669921875,0.20410686057209967,-0.08846570750363171,0.006811999836098402
1690839981481751600,0.48675146484375,0.214955002322793,-0.0734607931333594,-0.003725932037818711
1690839981491792400,0.49679248046875,0.22417525061070917,-0.05217336442749947,-0.010177185969857965
1690839981501832400,0.50683251953125,0.23117782284915445,-0.025506955230189487,-0.0045843184158438815
1690839981511903500,0.516903564453125,0.23852000230550766,0.00553778778235428,-0.007582299222005531
1690839981521943600,0.526943603515625,0.24349895976185798,0.01999076735829003,-0.005392568342096638
1690839981531983600,0.536983642578125,0.24251111776828765,0.018689712963392956,-0.0005281246604863554
1690839981542024700,0.547024658203125,0.2446697571069002,0.015948561029089613,-0.004869724928215146
1690839981552064800,0.557064697265625,0.24203765503764152,0.010298334981361403,-0.00540394368605921
1690839981562104600,0.5671044921875,0.23220891946256159,0.003609550532978028,-0.0016920150574180296
1690839981572144400,0.577144287109375,0.21308394775390624,-0.00821899882350117,0.0022054490388487467
1690839981582185500,0.587185546875,0.22566168977618217,-0.028397141980053855,0.000468186050618533
1690839981592225500,0.5972255859375,0.19916297442913053,-0.04510678704213351,0.0005966461523203179
1690839981602265600,0.607265625,0.21619828038215635,-0.04603526353128254,0.0052041262480430305
1690839981612306700,0.617306640625,0.19806758040785788,-0.042935397819802164,0.004539278264297173
1690839981622346800,0.6273466796875,0.23455635937154293,-0.04027598761850968,-0.00805666156837251
1690839981632386600,0.637386474609375,0.2131423999428749,-0.021824485591473056,-0.004942872362816706
1690839981642426400,0.64742626953125,0.21477906123399734,-0.013127831919398158,-0.0020042433613445608
1690839981652467500,0.657467529296875,0.20445406657457352,-0.0021686310096643863,0.005049132049153558
1690839981662538500,0.66753857421875,0.23708675463199613,0.00553410712108016,0.0027171614206512457
1690839981672578600,0.67757861328125,0.21481296350359916,0.017917979672225193,0.004262703512352891
1690839981682618600,0.68761865234375,0.2434188802629709,0.013550359047250821,0.00007972102257190271
1690839981692658400,0.697658447265625,0.21306582757532597,0.0040739623074885455,0.003995579292054754
1690839981702699500,0.707699462890625,0.22879998780190944,-0.004212895854143426,0.00453332344754599
1690839981712739600,0.717739501953125,0.21250059490799902,-0.013769910948909819,-0.001851208224100992
1690839981722779400,0.727779296875,0.22073475476801394,-0.018852182649262247,-0.00009103243445279076
1690839981732820500,0.737820556640625,0.1984334911108017,-0.031198052144423127,-0.0146065627024509
1690839981742860500,0.747860595703125,0.20321020399332046,-0.028489916563732547,-0.004610519152891356
1690839981752900600,0.757900634765625,0.20214695867598056,-0.02992810527384281,-0.003294299154903274
1690839981762940700,0.767940673828125,0.20542378838956354,-0.019167130349949,-0.00651684824784752
1690839981772981800,0.777981689453125,0.2350415125399828,-0.015847128214919938,-0.005252239706087857
1690839981783021600,0.788021484375,0.1796715074956417,-0.006595589739596471,0.006568023595947306
1690839981793061400,0.798061279296875,0.2670622061789036,-0.0005640179577749222,0.008182897746947127
1690839981803132400,0.80813232421875,0.16427110926806926,0.00489618367687799,0.0001310744671849534
1690839981813172500,0.81817236328125,0.2907324201017618,0.0047796994240488855,-0.00448849792513065
1690839981823213600,0.828213623046875,0.1488929228723049,0.010631941716745495,-0.0021169396383338606
1690839981833253600,0.838253662109375,0.2859755809634924,-0.007022144588595256,-0.0030718406268162653
1690839981843293400,0.84829345703125,0.13589724769890307,-0.011781285281805321,-0.0007656277773668989
1690839981853333500,0.85833349609375,0.2612958977371454,-0.018489733411883934,-0.009817675324948504
1690839981863374600,0.86837451171875,0.15100947663486003,-0.01786466944925487,-0.00680565686027985
1690839981873414400,0.878414306640625,0.23988661448359488,-0.02388145465389825,-0.00696629763195524
1690839981883454500,0.888454345703125,0.17897651096880435,-0.017295125932991505,-0.00491966045058798
1690839981893495600,0.89849560546875,0.21353695221841335,-0.02125173633797094,-0.013577110056858509
1690839981903535600,0.90853564453125,0.19917992556393146,-0.009869140650704503,-0.0029143028443912042
1690839981913575700,0.91857568359375,0.25671090803444385,0.1494545388104394,0.001586814817006234
1690839981923615500,0.928615478515625,0.30375849041342734,0.4713763893587514,0.09784089062493294
1690839981933656600,0.938656494140625,0.19905308431386948,-0.2597194056680426,-0.0005667464876896701
1690839981943696400,0.9486962890625,0.13831132310330868,-0.1682995975991711,-0.07925232734791934
1690839981953767400,0.958767333984375,0.1568447586596012,-0.23233696628902106,-0.05612847699513659
1690839981963807500,0.968807373046875,0.12611702744066713,-0.22682978370748458,-0.05357642702530138
1690839981973847600,0.97884765625,0.16465338658392428,-0.1361297686799895,-0.0015266113456571474
1690839981983888600,0.988888671875,0.19121289220750332,-0.053215101165929805,0.02281341214714339
1690839981993928400,0.998928466796875,0.2162526409178972,0.044278848318010565,0.035719698853907175
1690839982003968500,1.008968505859375,0.46241935858428473,0.7327676006965339,0.24991145715266463
1690839982014008600,1.019008544921875,0.2591682380586862,0.16879781117858364,0.025480706544080748
1690839982024049400,1.02904931640625,0.1969645876020193,-0.3252119416022673,-0.2758670968652703
1690839982034089500,1.03908935546875,0.14237141214907167,-0.19269421680644153,-0.1699242579252459
1690839982044129800,1.0491298828125,0.16454174290299414,-0.17188151120655237,-0.04482598820622079
1690839982054171000,1.0591708984375,0.16545593513846396,0.03756915807891637,0.13074021199559793
1690839982064210700,1.069210693359375,0.19446341843605042,0.15802412290358914,0.22059722772715612
1690839982074250800,1.079250732421875,0.11943418867588043,-0.2547767251014709,0.015189445190900005
1690839982084290800,1.089290771484375,0.14435937109589575,-0.24919468718543647,-0.09514575152313336
1690839982094361900,1.09936181640625,0.2090554228901863,-0.039981370319798586,-0.04208709216108546
1690839982104402700,1.109402587890625,0.24350948115587234,0.058131642644247035,-0.036229721602122296
1690839982114442800,1.11944287109375,0.245955120742321,0.1333292603744194,0.022177625861100385
1690839982124482600,1.129482666015625,0.29359599283933635,0.1999710576753132,0.07398318673938047
1690839982134522600,1.139522705078125,0.24139468095898628,0.03374572733324021,-0.06897254636997822
1690839982144563700,1.149563720703125,0.22732933072745798,-0.01010256581408903,-0.08058591403923929
1690839982154603800,1.159603759765625,0.21406711357235908,-0.015671141460351645,-0.02070605318790767
1690839982164643800,1.169643798828125,0.18688275404870508,-0.02168193531562574,0.03315263626131927
1690839982174684700,1.1796845703125,0.15292144773602484,-0.0343237007511314,0.06653162405784241
1690839982184724700,1.189724853515625,0.18537351852953432,-0.06255045460034162,0.056057918809843246
1690839982194764800,1.199764892578125,0.16618015775978565,-0.05898029536283575,0.02601432251372607
1690839982204804600,1.2098046875,0.1989022776663303,-0.03940170726832002,0.004961791692418046
1690839982214845700,1.219845703125,0.2134077728807926,0.01024139889604412,-0.012563348170742391
1690839982224885800,1.2298857421875,0.22119535801708698,0.02304184375829063,-0.029536217596137428
1690839982234925800,1.23992578125,0.23108254578113555,0.020382579687470568,-0.048388859186414626
1690839982244996900,1.249996826171875,0.2221171490371227,0.01615507078608498,-0.044939079492143354
1690839982255037000,1.260036865234375,0.21150632317364215,-0.002012225738400593,-0.018909347063442692
1690839982265077800,1.270077880859375,0.19221476272642612,-0.022398577418690547,0.006447086930286604
1690839982275117600,1.28011767578125,0.1700730735450983,-0.030815811361186204,0.036535764477145856
1690839982285157600,1.29015771484375,0.17725392495989797,-0.04069148221737705,0.04132255122910719
1690839982295197700,1.30019775390625,0.1886164459735155,-0.031505300595844166,0.03465397845169063
1690839982305238800,1.31023876953125,0.1805260784983635,-0.007957626207266002,0.010209304991038516
1690839982315278800,1.32027880859375,0.21134733321964738,0.0029659645329695194,-0.009466519233142024
1690839982325319000,1.33031884765625,0.21224691240787505,0.013076138264779,-0.019990947738091926
1690839982335359700,1.34035986328125,0.22347616243064403,0.02167434566421434,-0.03179541296608513
1690839982345399800,1.35039990234375,0.22752573008239269,0.01373730558725074,-0.028642248448077588
1690839982355439600,1.360439697265625,0.20404080959856508,0.0049550285914912815,-0.007091969838237855
1690839982365479700,1.370479736328125,0.20539280872941015,-0.019737897708918897,0.012801794285827782
1690839982375520800,1.380520751953125,0.18414426899552344,-0.023113009298359972,0.013325258754217065
1690839982385591800,1.390591796875,0.1795008271038532,-0.017018857141723857,0.02200987492862623
1690839982395631900,1.4006318359375,0.1980494602292776,-0.015926568392990156,0.018346000392525454
1690839982405672000,1.410671875,0.19265724579691887,-0.004458961303392425,0.008701948618411552
1690839982415711700,1.420711669921875,0.20656945129334925,-0.0007054996545426547,-0.009187802756461314
1690839982425752600,1.430752685546875,0.21659575526714323,0.009045165715645998,-0.014411955729092004
1690839982435792600,1.440792724609375,0.2052256354689598,0.010983677763864398,-0.025720545465231406
1690839982445832700,1.450832763671875,0.21346271793842314,-0.003372974431281909,-0.02129922189164208
1690839982455872800,1.460872802734375,0.20239596500098705,-0.007051589878788217,-0.011375722988485357
1690839982465913900,1.470913818359375,0.19072715451717376,-0.018867873408738522,0.003030930944404099
1690839982475954000,1.480953857421875,0.19072715451717376,-0.01808498853589408,0.008998050054733175
1690839982485994000,1.490993896484375,0.18743337366878984,-0.024772677005734295,0.0062577931695734145
1690839982496034800,1.501034912109375,0.19326631760597227,-0.015560137100238352,0.0046906717170146295
1690839982506074600,1.51107470703125,0.1979015761911869,-0.004568449559854343,-0.0018609989657532423
1690839982516114700,1.52111474609375,0.20807576420307158,0.009310264658927916,-0.009555743302998599
1690839982526154800,1.53115478515625,0.2043365776747465,0.004985944319562986,-0.015566153565782587
1690839982536225800,1.541225830078125,0.20853052223324775,0.011069520283257589,-0.015139553051011171
1690839982546267000,1.551266845703125,0.20359949557185172,0.0023816618389915674,-0.020800426073628475
1690839982556307000,1.561306884765625,0.20046119754612446,-0.010329241576278582,-0.007112106160679831
1690839982566346800,1.5713466796875,0.19238310503065584,-0.01607077176980674,-0.00368137822675053
1690839982576386800,1.58138671875,0.19552607923150062,-0.021795707021560518,-0.0046533650640631094
1690839982586427600,1.591427734375,0.19372808989882467,-0.014740034622699022,0.0033475363126373846
1690839982596467700,1.6014677734375,0.18669161539077758,-0.005293092306284233,0.0015190627934411167
1690839982606507800,1.6115078125,0.19237550624608993,-0.0017770561425015329,-0.006705087129212916
1690839982616548900,1.621548828125,0.19551614235937595,0.013879472270607948,-0.0036158341432921586
1690839982626589000,1.6315888671875,0.2024018102198839,0.016044851877260954,-0.013176870109338778
1690839982636629000,1.64162890625,0.2019569890618324,0.0012400723221246152,-0.011013750958431046
1690839982646668800,1.651668701171875,0.19283377140760422,-0.006947070058388635,-0.008355464135145303
1690839982656709600,1.661709716796875,0.18325988737642765,-0.010824514279933646,-0.0013411786260199732
1690839982666749700,1.671749755859375,0.18984452646374703,-0.012157233321573585,0.004990198086283635
1690839982676820700,1.68182080078125,0.18894553179740906,-0.015312847808282822,0.0133983970556641
1690839982686860800,1.69186083984375,0.18430618155896664,-0.015897369697969406,0.012152952155389357
1690839982696900900,1.70190087890625,0.18564999738335608,-0.005438756987825036,0.00803766917353496
1690839982706942000,1.71194189453125,0.1923807669430971,0.0030954543978441505,0.003679526479670312
1690839982716981800,1.721981689453125,0.19761925211846829,0.009183112881612032,0.0017721196724800393
1690839982727021600,1.732021484375,0.19612579869031904,0.003757416304759681,-0.006566591973975301
1690839982737061600,1.7420615234375,0.1977753194630146,0.01119344805702567,-0.00958389625182608
1690839982747102700,1.752102783203125,0.19149287819266317,0.001298561043711379,-0.00437469425315503
1690839982757142800,1.762142822265625,0.1849129152804613,-0.009974354590848087,0.0073773558010114355
1690839982767182800,1.772182861328125,0.18790742092132567,-0.014739084774628281,0.01019254793577129
1690839982777224000,1.782223876953125,0.18700667268931864,-0.017246921143401414,0.008984051212132908
1690839982787263700,1.792263671875,0.18326222546398638,-0.013997399561852216,0.01265773932277225
1690839982797303600,1.802303466796875,0.18400807539522646,-0.00920052067413926,0.005219561279192567
1690839982807343600,1.812343505859375,0.18041501933932302,0.006777869237633421,0.0028401872954098508
1690839982817384700,1.822384765625,0.19029051666557786,0.002043716855207458,-0.009655269571160897
1690839982827455700,1.832455810546875,0.2010638396143913,0.013853716774843632,-0.015002439285395667
1690839982837495800,1.842495849609375,0.19687632479667663,0.018311189374048263,-0.014078899266268126
1690839982847535900,1.852535888671875,0.1989741738587618,0.0040031072946731,-0.01286568070173962
1690839982857575700,1.86257568359375,0.19703239214122295,0.0002045552619267255,-0.010367299431189895
1690839982867616800,1.87261669921875,0.18715864838063717,-0.0038335959466639902,-0.0016124036327004431
1690839982877656600,1.882656494140625,0.18521277500987052,-0.007926747011812403,0.005884751756233163
1690839982887696600,1.892696533203125,0.18491116171479224,-0.01265247862576507,0.011935795423504895
1690839982897736700,1.90273681640625,0.1862549775391817,-0.013014699534280225,0.002673155598854646
1690839982907777800,1.91277783203125,0.18505436957776544,-0.007246463996917009,-0.005452322005585301
1690839982917817900,1.92281787109375,0.18475334080457687,-0.007315885104471817,-0.006749417177995201
1690839982927857700,1.932857666015625,0.19463000717461107,0.009639542279066517,-0.005289528092730324
1690839982937898800,1.942898681640625,0.1956792239665985,0.008536421609064563,-0.011390486732777207
1690839982947938600,1.9529384765625,0.195683900141716,-0.008814252169756218,-0.008288874305493663
1690839982957978600,1.962978515625,0.18820377351939677,-0.01176623384314589,-0.011559657870780211
1690839982968049700,1.973049560546875,0.17877601996064185,-0.006125140949944033,-0.0045168472367804495
1690839982978089700,1.98308984375,0.19119477202892302,0.0067618588177487254,0.012834840322192757
1690839982988130800,1.993130859375,0.19852643009126186,0.0058753400404937565,-0.002663168494380079
1690839982998171000,2.0031708984375,0.19314122992157934,0.008387277195649221,-0.007572232202428858
1690839983008210700,2.013210693359375,0.17967326106131076,-0.0010363116446416825,-0.013422531416499987
1690839983018250800,2.023250732421875,0.18431319582164288,-0.005645111481193453,-0.01936762364140013
1690839983028291600,2.03329150390625,0.1989823571652174,-0.009172344892425462,-0.014334899304353166
1690839983038331600,2.04333154296875,0.18656594318449496,-0.012981747112749143,0.0037363780833082273
1690839983048368000,2.0533681640625,0.184620654335618,-0.011668289894005283,0.017320643966738134
1690839983058409200,2.0634091796875,0.1763864944756031,-0.024391532201040535,0.0193714595663012
1690839983068449000,2.073448974609375,0.1781768850237131,-0.013147148541221395,0.011137877378310077
1690839983078489000,2.083489013671875,0.18176409586071968,-0.003170446729660034,0.0005634060364216566
1690839983088529200,2.093529052734375,0.20376082361340522,0.007661136611877009,-0.011344227305101231
1690839983098570000,2.103570068359375,0.1977788265943527,0.018893647170811892,-0.017894073640252462
1690839983108610000,2.113610107421875,0.19943126997649668,0.012599250601185484,-0.018364990504074374
1690839983118681000,2.12368115234375,0.1992868930697441,0.006124191101873293,-0.015230085445253644
1690839983128721200,2.13372119140625,0.1763952623039484,0.004694149165600538,-0.01077896267173346
1690839983138761000,2.143760986328125,0.18612287559211252,-0.013790451413439585,0.007761925538652576
1690839983148802000,2.153802001953125,0.18597382251024244,-0.010588668830599635,0.008930247798818163
1690839983158842000,2.163842041015625,0.1853746875733137,-0.017565147646563126,0.011746634093532339
1690839983168882200,2.173882080078125,0.17310323502123354,-0.018534979059407486,0.024401391441351734
1690839983178922200,2.183922119140625,0.18222937528491018,-0.008347155247814953,0.019276127699355126
1690839983188963000,2.193963134765625,0.18402210392057894,-0.008868201713543385,0.00816188235838199
1690839983199003100,2.204003173828125,0.1855143883049488,-0.0027338636769913137,-0.005398000285751186
1690839983209043000,2.21404296875,0.18955109647512436,0.009094831809960305,-0.022898601645987945
1690839983219084000,2.224083984375,0.19209610478281974,0.01671408377517946,-0.023893574349954722
1690839983229124000,2.2341240234375,0.21065467478036878,0.00476609102380462,-0.024516992061480412
1690839983239164200,2.2441640625,0.20692133347094058,-0.003092303459532559,-0.018745808798493815
1690839983249204200,2.254204345703125,0.19989538035690782,-0.011694109321851283,-0.00019208393942099063
1690839983259275300,2.264275146484375,0.1780506282955408,-0.019420968113699928,0.013406571228965184
1690839983269316000,2.274316162109375,0.17685294294357298,-0.028519590182788667,0.016282914399856234
1690839983279356200,2.284356201171875,0.16158640022873877,-0.027484630245016885,0.0216202317236457
1690839983289396000,2.29439599609375,0.1699602608203888,-0.01067322357520461,0.013000269150128587
1690839983299436000,2.30443603515625,0.19255144733488558,-0.007172512844717129,-0.0034631940149818545
1690839983309477000,2.31447705078125,0.19614274982511995,0.010716907453304156,-0.006327748566668015
1690839983319517200,2.32451708984375,0.20437749420702456,0.016735747617715967,-0.018092066730652005
1690839983329557200,2.33455712890625,0.21964637500941753,0.005114128143340349,-0.020376711635687387
1690839983339598000,2.34459814453125,0.19481062443852423,-0.004382005343353376,-0.014402959571883547
1690839983349638100,2.35463818359375,0.13615619089603423,-0.010113196805957705,-0.01102409425593214
1690839983359678000,2.364677978515625,0.1946639094442129,-0.010545505542308091,-0.0026176762516843155
1690839983369718000,2.374718017578125,0.2000485250920057,-0.006303968115570023,0.014479036465799434
1690839983379759000,2.384759033203125,0.18313479969203472,0.005525357559043913,0.024381599895493124
1690839983389799200,2.394799072265625,0.19106208555996418,0.038784780946373935,0.01501355661774287
1690839983399839200,2.404839111328125,0.21695757431685922,0.05619178802231326,0.009745260825997684
1690839983409910300,2.41491015625,0.22162147447466848,0.08615803334945812,0.03594605723897693
1690839983419950000,2.4249501953125,0.200555305570364,0.11160622586342506,0.0764658110350836
1690839983429991000,2.434990966796875,0.19068389989733694,0.07948687588931061,0.08182726500299758
1690839983440031000,2.445031005859375,0.14021335733234883,-0.17027619490176438,-0.07957376872147433
1690839983450071000,2.455071044921875,0.11367606354057788,-0.2831859867775813,-0.1158228023788426
1690839983460111000,2.465111083984375,0.09926409182846546,-0.1116484210373368,0.09638991549848579
1690839983470152200,2.475152099609375,0.1330424427896738,-0.11444439016510732,0.07195321528173516
1690839983480192300,2.485192138671875,0.16742694295048713,-0.05603419544096105,-0.019622808545443692
1690839983490232300,2.495232421875,0.22366905465424058,0.03266752190878615,-0.09676927020489237
1690839983500273200,2.505273193359375,0.2812742714047432,0.09538069279016927,-0.1334935475580394
1690839983510313000,2.51531298828125,0.26587270413339137,0.1393182259903755,-0.12289541677935048
1690839983520353000,2.52535302734375,0.2699573430985212,0.13580910362456924,-0.05116865349751897
1690839983530393000,2.53539306640625,0.215102301838994,0.11085211956049315,0.041201897691236805
1690839983540434200,2.54543408203125,0.18088848206996916,0.057514332729810845,0.11288496796181424
1690839983550504200,2.555504150390625,0.16268062520623205,-0.01138096085260622,0.12231716023366898
1690839983560545300,2.565545166015625,0.10330196904242038,-0.07527991658560931,0.0776155564589426
1690839983570585000,2.575585205078125,0.15582710604965685,-0.11998717378298751,0.0023823468255810437
1690839983580625200,2.585625244140625,0.17615327024161814,-0.12159673700463026,-0.07921303651714696
1690839983590666000,2.595666015625,0.14977145927250385,-0.09173683812879026,-0.09922070934446528
1690839983600706000,2.6057060546875,0.1872743837147951,-0.05186961397426203,-0.06940642144232988
1690839983610746000,2.61574609375,0.184229024669528,-0.01045786379147321,-0.015268303130369167
1690839983620786200,2.6257861328125,0.181500476488471,0.028730155060393735,0.043416331470850854
1690839983630827300,2.6358271484375,0.17386019086837767,0.04302565165283158,0.06979897812360432
1690839983640867300,2.645867431640625,0.1931774702787399,0.05300144928209483,0.0669325832412811
1690839983650907100,2.6559072265625,0.2146107189297676,0.05826273081116378,0.02659495367958443
1690839983660948000,2.665947998046875,0.2239303359389305,0.05237069536419585,-0.01810025460368488
1690839983670988000,2.675988037109375,0.19329379013478754,0.04202769012404606,-0.048132053147442636
1690839983681028000,2.686028076171875,0.24060674545168875,0.010053392910119146,-0.06302574852847029
1690839983691068200,2.696068115234375,0.173283267763257,-0.018736794374976305,-0.04112664049793966
1690839983701139200,2.70613916015625,0.17477905927896498,-0.04265668134312145,-0.01593019882191438
1690839983711180300,2.71618017578125,0.14184651149213312,-0.06244551465483382,0.03040356131546432
1690839983721220000,2.72622021484375,0.16412088714241982,-0.06608751528584397,0.03844666243265383
1690839983731260200,2.73626025390625,0.13910744191706179,-0.05278658268870785,0.03165281702446518
1690839983741300200,2.74630029296875,0.18876374548971653,-0.029757799341389907,0.009398557147022802
1690839983751341000,2.756341064453125,0.19173837738633154,0.0014842198089230804,-0.008717214686202351
1690839983761381000,2.766381103515625,0.20549510006010532,0.020452704047923907,-0.03894957045349292
1690839983771421200,2.776421142578125,0.2114811887323856,0.03237065785406157,-0.03376578374058008
1690839983781462300,2.786462158203125,0.191291802662611,0.03576171593130566,-0.008477101770415902
1690839983791502300,2.79650244140625,0.2207891153037548,0.03477464112271555,0.01316293976539746
1690839983801542100,2.806542236328125,0.1838490854412317,0.03144364266963676,0.03193143760302337
1690839983811582200,2.816582275390625,0.15438801315724848,0.016716412729583678,0.036427214652311524
1690839983821623000,2.826623046875,0.20961597938239573,-0.006667960856063291,0.01580447409999324
1690839983831663000,2.8366630859375,0.1419832896143198,-0.010802275048661976,-0.011787187582917977
1690839983841734100,2.846734130859375,0.2067722803890705,-0.031783861808897924,-0.03208407773133367
1690839983851774200,2.856774169921875,0.1624696128040552,-0.03409190128925256,-0.04104621393918059
1690839983861814000,2.86681396484375,0.19986673878431319,-0.030846106034750118,-0.026156868222996125
1690839983871855000,2.876855224609375,0.16693477551937103,-0.02096996938767843,-0.013309188968827948
1690839983881895200,2.886895263671875,0.18413433212339878,-0.004124167257919907,0.017973121092678047
1690839983891935200,2.896935302734375,0.15704408062398434,0.01239354456178844,0.0333591505848919
1690839983901975000,2.90697509765625,0.20253332764506338,0.010602085434598847,0.024487713451357557
1690839983912016100,2.91701611328125,0.18697335494160652,0.01878649700190872,0.013023248166916891
1690839983922056200,2.92705615234375,0.19820377400815486,0.015652792952908202,-0.011625823008746374
1690839983932096300,2.93709619140625,0.20359832652807233,0.014102668300922959,-0.016568024084705393
1690839983942137300,2.947137451171875,0.1977712278097868,0.005070663460949435,-0.019723659121012312
1690839983952177200,2.95717724609375,0.17488368869721888,-0.002017860894743353,-0.004967561562790069
1690839983962217200,2.96721728515625,0.17758301078379155,-0.005420034021046012,-0.0019436791303916834
1690839983972257000,2.977257080078125,0.18117548231780528,-0.015631759298034013,0.00456728051607497
1690839983982328000,2.987328125,0.1756377219349146,-0.01888235859181732,0.0035223882727557793
1690839983992369200,2.997369140625,0.20645722309052944,-0.01720644300254062,0.0013720349885872564
1690839984002409200,3.0074091796875,0.14509294606745243,-0.015785534220794213,0.004541616351855919
1690839984012449000,3.017448974609375,0.24369886624813078,-0.006454911760427057,-0.00008219154087128117
1690839984022489000,3.027489013671875,0.005169511592388153,0.0034181196141056715,0.005032251696300227
1690839984032530200,3.0375302734375,0.3888379895448684,-0.005851447708252817,0.0017181153297657146
1690839984042570200,3.0475703125,0.02536883453428745,0.0211189859369304,0.018729449035448487
1690839984052618800,3.05761865234375,0.29577158331274983,0.005970507510658353,-0.0011492453836486674
1690839984062658600,3.067658447265625,0.08449088558852672,0.017617919013416392,-0.0017098658079397863
1690839984072699600,3.07769970703125,0.3225742500424385,0.0005315861260518431,-0.02630079532188829
1690839984082739700,3.08773974609375,0.05787234325408935,0.002894086606847122,-0.01707984834765084
1690839984092779500,3.097779541015625,0.283978854188323,-0.013589686410641297,-0.0153966582007939
1690839984102820600,3.107820556640625,0.11069733999073504,-0.005509274073923006,-0.0018980042246053925
1690839984112860700,3.117860595703125,0.19823358462452886,-0.01600381661397405,0.007693047853792085
1690839984122900700,3.127900634765625,0.19613222843110562,-0.023648851474421098,0.016140115245548075
1690839984132971500,3.137971435546875,0.061600423866510386,-0.006593352116737514,0.02076329751719022
1690839984143011600,3.148011474609375,0.3414151441127062,-0.016044139491207896,-0.0015700098126777448
1690839984153052700,3.158052734375,0.015052023181319235,0.008605559588829055,0.006476354123966303
1690839984163092700,3.1680927734375,0.29307810644507404,0.007209629984712228,-0.01954447804564843
1690839984173132500,3.178132568359375,0.13297171564102173,0.009729540383769199,-0.016753292407561092
1690839984183172600,3.188172607421875,0.25134148995578287,0.004910431397939101,-0.01455740806479007
1690839984193213700,3.198213623046875,0.12550386397838592,0.011948878667363896,-0.0069776432931656016
1690839984203253500,3.20825341796875,0.26661913858652114,0.001086123869428411,-0.006198683393478859
1690839984213293600,3.21829345703125,0.10546294646859168,-0.012318798825144767,0.012490022639627568
1690839984223334700,3.228334716796875,0.2220306397974491,-0.004631130399368703,0.008244366160198115
1690839984233374700,3.238374755859375,0.1563350555717945,-0.008518611957738176,0.0054524407365941436
1690839984243414500,3.24841455078125,0.19598492891490457,-0.010896437871828675,0.006776704760431311
1690839984253454600,3.25845458984375,0.20271277586519718,-0.009122286072466523,-0.0027095877522602674
1690839984263495700,3.26849560546875,0.04349368928968906,0.005213953522313386,-0.00250228341082111
1690839984273565400,3.2785654296875,0.4163894288152456,-0.01259848341620527,-0.017982003085454924
1690839984283606500,3.2886064453125,0.003541618129611015,0.012932081018434837,-0.0008940170971211046
1690839984293646600,3.298646484375,0.271994401884079,0.0096559636909049,-0.016361064519849606
1690839984303686700,3.308686767578125,0.14630290637910365,0.0029032836934551596,-0.0070517748251673765
1690839984313727700,3.318727783203125,0.21469138295054435,0.000007215192075818777,-0.005783181944745593
1690839984323767600,3.328767578125,0.1472065772205591,-0.003983571477141231,0.00206078443772858
1690839984333807600,3.3388076171875,0.1802764876514673,-0.003083608696423471,0.014893293522228486
1690839984343847400,3.348847412109375,0.19000293189585207,-0.00551780444025062,0.01688752009634627
1690839984353888500,3.358888427734375,0.16725918516814708,-0.010768217515433207,0.009417622607096563
1690839984363928600,3.368928466796875,0.17279402294158935,-0.007807321883225813,0.0063056486160028725
1690839984373968600,3.37896875,0.1663572678923607,0.0005163428911473602,-0.006813410908472724
1690839984384009500,3.389009521484375,0.25404431917369363,-0.003574716681614518,-0.02044445909267524
1690839984394049500,3.399049560546875,0.09273381327688693,0.0012953096406999975,-0.010127184232114814
1690839984404089600,3.409089599609375,0.2348889523267746,0.0017551000390201806,-0.012808278825541492
1690839984414129700,3.419129638671875,0.2051116537004709,0.002925614256272092,-0.0005885404776781797
1690839984424200400,3.429200439453125,0.11951894434988498,0.0065174464694689955,0.0063009267751127475
1690839984434241500,3.439241455078125,0.20032266585826872,0.001526314518135041,0.010189260000141802
1690839984444281600,3.449281494140625,0.20181962641775608,0.0033816235286183655,-0.004255234875238966
1690839984454321700,3.45932177734375,0.14720307008922098,0.0018246855433564633,0.0039374787295353595
1690839984464361700,3.46936181640625,0.21514088028371334,0.0022611407318618147,0.0002763601228129119
1690839984474402600,3.479402587890625,0.17249650129973887,0.0018222561242524533,-0.0020414860822143962
1690839984484442600,3.489442626953125,0.19464462022185325,0.005122210985096172,-0.005215435376635286
1690839984494482400,3.499482421875,0.18536825783252714,-0.0033362043511588123,-0.008472459844627883
1690839984504523500,3.5095234375,0.15543956803679465,0.0012446480325423181,-0.006037487782665994
1690839984514563600,3.5195634765625,0.2239735905587673,-0.004732837208174169,-0.013638934663136024
1690839984524603600,3.529603759765625,0.1488543444275856,-0.002699997940007597,-0.0033302495344076305
1690839984534643700,3.539643798828125,0.1750397560417652,0.0006475406559184193,-0.003093143709748983
1690839984544684500,3.5496845703125,0.21663784084320067,0.0017410897799767552,-0.002579285036632791
1690839984554724600,3.559724609375,0.14421148705780507,0.009373164694150908,0.001207480660197325
1690839984564795600,3.569795654296875,0.1796755991488695,0.0009728727533016353,0.0052637451975024304
1690839984574835500,3.57983544921875,0.20601240193247794,0.0006960011738352478,0.0032227431724779305
1690839984584875500,3.58987548828125,0.15588438919484615,0.002039990528160706,0.004002342392981518
1690839984594916600,3.59991650390625,0.19284546184539794,-0.0032629381855484095,-0.006123334868636448
1690839984604956700,3.609956787109375,0.17907997134327888,0.006542736174352467,-0.009228196415642742
1690839984614996700,3.619996826171875,0.1810264292359352,0.0015543807019945232,-0.009126880049193277
1690839984625036800,3.630036865234375,0.19599077413380145,-0.0009553279634565115,-0.011186184915888589
1690839984635077600,3.64007763671875,0.15079904875457287,0.006127707366365939,-0.0021300228821928614
1690839984645117400,3.650117431640625,0.2033212631523609,0.01085515601336956,0.0026073694868013263
1690839984655157500,3.660157470703125,0.18237082958221434,0.0029993918785359707,0.003141919321496971
1690839984665198600,3.670198486328125,0.14974924744069576,-0.0008049231747165322,0.003044299599342048
1690839984675238700,3.68023876953125,0.21379414184987544,0.0053139524312224235,0.004530800413608085
1690839984685278700,3.69027880859375,0.17578560597300527,0.005964534427598118,0.005005224408768117
1690839984695318800,3.70031884765625,0.1714461154639721,0.009045859835390002,0.004111609170446172
1690839984705359600,3.710359619140625,0.19868074387013912,0.004267913977010175,-0.000009916322526987642
1690839984715429600,3.7204296875,0.1738420706897974,0.0020932824848219752,-0.002380780489579774
1690839984725470500,3.730470458984375,0.1853659197449684,0.0023987408379558474,-0.010960705596941988
1690839984735510500,3.740510498046875,0.19300094466805456,-0.002353029399551451,-0.0131575215214747
1690839984745550600,3.750550537109375,0.18028467095792292,-0.012499909279402345,0.0018491715306416152
1690839984755591700,3.760591796875,0.19734628039598465,-0.022750569194136185,-0.001111886215058621
1690839984765631700,3.7706318359375,0.17086334713995455,-0.02263677008873783,0.0034121533809113314
1690839984775671800,3.780671875,0.17744857074916362,-0.02375079574524425,0.007288741369219497
1690839984785711600,3.790711669921875,0.18088965111374855,-0.01476230125343427,0.0021889180291560476
1690839984795752400,3.80075244140625,0.16532266414761543,-0.004052636391669511,0.010200292850809638
1690839984805792500,3.81079248046875,0.19150223054289817,-0.0024832773162517694,0.002190673878113739
1690839984815832600,3.82083251953125,0.17623218069672583,0.0031392478737980126,-0.02042134992843494
1690839984825873700,3.830873779296875,0.17398294046521187,0.015304153045173734,-0.017273144713335204
1690839984835913700,3.840913818359375,0.19792261897921562,0.01590042017158121,-0.023571861265052573
1690839984845953800,3.850953857421875,0.17473112848401068,0.011740624477853998,-0.012399485678807831
1690839984856024800,3.86102490234375,0.19015081593394279,0.0178220176176168,-0.003572426543117035
1690839984866064600,3.871064697265625,0.19764263299405574,0.017702793418429792,0.01226356835643528
1690839984876105500,3.88110546875,0.17819968137741088,0.007579815003974363,0.016144885035499462
1690839984886145500,3.8911455078125,0.181049225589633,-0.009784677237644791,0.020420094119687565
1690839984896185600,3.901185546875,0.17132453491091726,-0.0030710049431771037,0.02034601053674705
1690839984906225700,3.9112255859375,0.17266776621341703,-0.008385441431589424,0.010906189797574187
1690839984916266800,3.921266845703125,0.18223580502569675,-0.009836361759109421,-0.00188148234806722
1690839984926306800,3.931306884765625,0.15978022758960722,-0.00025976518103852864,-0.0014814090806175954
1690839984936346600,3.9413466796875,0.18610884706676006,0.005901086403103545,-0.0029340510077658106
1690839984946387500,3.951387451171875,0.19448387670218945,0.018830025616381318,-0.015365080319019033
1690839984956427500,3.961427490234375,0.17638064925670624,0.0162217245478183,-0.016270116567076182
1690839984966467600,3.971467529296875,0.21409867775440214,0.014864181592175736,-0.016591617306135596
1690839984976507600,3.981507568359375,0.1945078420996666,0.003151586765563115,-0.009495886891521513
1690839984986548700,3.991548828125,0.17431845602989196,-0.005315276738628745,-0.0023541071117855607
1690839984996618500,4.001618408203125,0.1848001025557518,-0.006244547812221572,0.002858828063798137
1690839985006659600,4.01165966796875,0.1643003353625536,-0.01619226099131629,0.0034181081976625135
1690839985016699600,4.02169970703125,0.16983049696087837,-0.024584004299528894,0.004903551849292125
1690839985026739700,4.03173974609375,0.16877309686243533,-0.015242385521112008,0.011085537553008179
1690839985036780500,4.041780517578125,0.17130466116666793,-0.0005477792090270668,0.008922043942764867
1690839985046796000,4.051796142578125,0.18925182126760481,0.006593443448282778,0.0005243709339760244
1690839985056836000,4.061836181640625,0.18206454011201859,0.0073102316818200045,-0.0013570109493914058
1690839985066876000,4.0718759765625,0.1925420949846506,0.01729463274264708,-0.0065735788371879605
1690839985076917000,4.0819169921875,0.19718962852954863,0.014077716522756963,-0.012837096211360767
1690839985086957000,4.09195703125,0.1901677670687437,0.0199277851246763,-0.012031554265425074
1690839985096997000,4.1019970703125,0.18194763573408126,0.01548974787830375,-0.0010881126138265244
1690839985107038000,4.112037841796875,0.18180384334921837,-0.00203211774895899,0.00042163892857497554
1690839985117078000,4.122078125,0.17881050675213336,-0.010614743986772373,0.009267854855884798
1690839985127118000,4.1321181640625,0.17506489048302173,-0.010169520969921722,0.0076950799806741995
1690839985137158100,4.142158203125,0.1624865639388561,-0.0023521800161805002,0.008287609363591764
1690839985147229000,4.15222900390625,0.16472002207934855,0.001149791089631617,0.007580468024522997
1690839985157270000,4.16227001953125,0.18910335270762443,0.010018677789764478,-0.0008790158908115699
1690839985167310000,4.17231005859375,0.1834142011553049,0.027713324434356763,-0.009239482711348682
1690839985177350100,4.18235009765625,0.19104981060028076,0.021190544202644376,-0.0026354014213313347
1690839985187390200,4.19239013671875,0.19629472551643848,0.01995385114769451,-0.006748385131533723
1690839985197431000,4.20243115234375,0.18627952745854853,0.008100331746740266,-0.013253611440246458
1690839985207471000,4.21247119140625,0.1759638851493597,-0.000598824409674853,-0.003978456910606473
1690839985217511000,4.222510986328125,0.16280279028117656,-0.013411242837505414,-0.0034449459722382014
1690839985227551000,4.232551025390625,0.1696890426635742,-0.009988200453110038,-0.008437183035269845
1690839985237592000,4.242592041015625,0.17208032171428203,-0.01622156015103683,-0.0073082954530604175
1690839985247632100,4.252632080078125,0.16848200496137142,-0.022703917040815577,-0.0014325649702106602
1690839985257672200,4.262672119140625,0.17490999218225478,-0.02090224704686552,0.0009454321905272081
1690839985267713000,4.272713134765625,0.1738549301713705,-0.00826730407779105,-0.00156136299862992
1690839985277753000,4.282753173828125,0.1750485238701105,-0.003519771623983979,0.00795132433064282
1690839985287824100,4.29282421875,0.18193010007739066,0.009925108621641993,0.004674389585782773
1690839985297864000,4.302864013671875,0.19315467392504215,0.007103995919460431,0.006930963740381412
1690839985307904000,4.312904052734375,0.193757315993309,0.01073117344067432,0.008730112983682193
1690839985317945000,4.322945068359375,0.19166765023767948,0.009276956044370307,0.0012268520809477195
1690839985327985200,4.332985107421875,0.1785036327600479,0.0075397204556036735,0.004199502083030529
1690839985338025200,4.343025146484375,0.1810749445527792,-0.0013280976654496044,-0.00902269815551117
1690839985348065000,4.35306494140625,0.19353753576278684,-0.18218283272944388,-0.25672774957139044
1690839985358106000,4.363106201171875,-0.12251344999074935,0.1254191174375359,0.17197251395825294
1690839985368146000,4.37314599609375,0.19428747734725474,-0.137857423589658,0.32243476850651204
1690839985378186000,4.38318603515625,0.26008886003494264,0.09733492299732752,-0.15476393379755318
1690839985388227000,4.39322705078125,0.05610358001589775,-0.007287362262886017,0.17173227546159178
1690839985398267100,4.40326708984375,0.22276947546601295,-0.11201494366163388,-0.11690143706155941
1690839985408307200,4.41330712890625,0.19836159491837024,0.022313903943076727,-0.1488804104506038
1690839985418347000,4.423346923828125,0.2718313202768564,0.0161113412422128,-0.13760635317172853
1690839985428388000,4.43338818359375,0.21469079842865466,0.04323622566359117,-0.0791102885287255
1690839985438457900,4.443457763671875,0.18598317486047744,0.06006135946465656,0.03662167092862073
1690839985448499000,4.4534990234375,0.17914368422925472,0.06065490491101518,0.1110105889246799
1690839985458539000,4.4635390625,0.15314590414166449,0.0293986106401775,0.1313226515260525
1690839985468579000,4.4735791015625,0.15213000509738922,-0.0060891197884920985,0.0806798759330064
1690839985478620200,4.4836201171875,0.16068214486539362,-0.044580352015234526,-0.00015124503895640372
1690839985488660200,4.49366015625,0.20213293015062808,-0.0794566542809829,-0.06961719181591179
1690839985498700000,4.503699951171875,0.14151567210257052,-0.08938686833600513,-0.09629653812660835
1690839985508739800,4.51373974609375,0.19460837986469268,-0.07254598897653632,-0.06633515163767151
1690839985518781000,4.523781005859375,0.17766776645779608,-0.04775398621582426,-0.007175809913501143
1690839985528821000,4.533821044921875,0.14516484225988388,-0.0215935446461197,0.04563286587600596
1690839985538861000,4.543861083984375,0.18584230508506297,0.0007557411375921219,0.07249957428523339
1690839985548902100,4.553902099609375,0.17041735693812368,0.0065857350658625365,0.06283004785985685
1690839985558942000,4.56394189453125,0.20004735604822635,0.02404305669008754,0.028814385578013024
1690839985568982000,4.57398193359375,0.1904810708016157,0.03287431479357183,-0.013091575579217168
1690839985579052800,4.584052734375,0.20830431226193905,0.038303472835989665,-0.04196853468217887
1690839985589092900,4.5940927734375,0.2220914300739765,0.034498408864066,-0.04588575835826341
1690839985599134000,4.604134033203125,0.19098785127997397,0.01768734925412573,-0.03227620733652729
1690839985609174000,4.614174072265625,0.16960837864279746,-0.0017029953924473373,-0.002464748429006431
1690839985619214000,4.624214111328125,0.1881768855124712,-0.02091529832468368,0.027087511553056536
1690839985629254100,4.634254150390625,0.1488286254644394,-0.04245649172905832,0.03889768500262871
1690839985639295000,4.644294921875,0.15032383245825767,-0.052761959704104806,0.024521558638743588
1690839985649335000,4.6543349609375,0.18188567641377448,-0.050414017471624537,0.009216636125301011
1690839985659374800,4.664374755859375,0.15852525909245013,-0.04366736535616219,-0.010173692538251634
1690839985669415000,4.674414794921875,0.18678455437123775,-0.026155299603706224,-0.026835301774099932
1690839985679456000,4.6844560546875,0.18257424319982526,-0.006108555141324177,-0.03161077254760312
1690839985689496000,4.69449609375,0.18959201300740242,0.006070387688558549,-0.017173056756169536
1690839985699536100,4.7045361328125,0.18494740207195282,0.012915769204450771,0.0008706841705949046
1690839985709577000,4.714576904296875,0.1833060646057129,0.020619996039383113,0.005642061007581651
1690839985719647000,4.72464697265625,0.20935820522904394,0.016298187317512928,0.019365965973853597
1690839985729687800,4.734687744140625,0.1876788728624582,0.011750177757488564,0.02180987026094226
1690839985739728000,4.744727783203125,0.17183482252061366,0.0081164243650157,0.006155663952371105
1690839985749768000,4.754767822265625,0.18606442340314386,-0.002205766415968537,-0.00821704432843253
1690839985759809000,4.76480908203125,0.17829145131409166,-0.008247877858113498,-0.01774005212232005
1690839985769849000,4.77484912109375,0.16811726330220697,-0.028866713986871764,-0.010797829485696275
1690839985779889200,4.78488916015625,0.17813655301332473,-0.0352564972223714,-0.005888119606964755
1690839985789929200,4.79492919921875,0.16421031899154184,-0.0371133588691242,0.0021272190037532708
1690839985799970000,4.804969970703125,0.16988544201850891,-0.019276052350830287,0.010533365296653937
1690839985810009900,4.815009765625,0.1679290472537279,-0.017048804755415765,0.012711905778979416
1690839985820050000,4.8250498046875,0.17719839538037777,-0.011432334846816956,0.010043631851219106
1690839985830091000,4.835091064453125,0.19500293214023112,-0.0004615074313711375,-0.005602870641509071
1690839985840131000,4.845131103515625,0.18782208072543144,0.0020873185349162666,-0.012956617238069883
1690839985850171100,4.855171142578125,0.18558160832226275,0.007542433002498,-0.010339450159750413
1690839985860211200,4.865211181640625,0.19322130942046642,0.008652787130884826,-0.012705060479661915
1690839985870282000,4.875281982421875,0.17302841621935366,0.005612697915779426,0.002384086691518314
1690839985880322000,4.885322021484375,0.17468202864527702,0.003305370821477845,0.0034418612492969256
1690839985890363000,4.89536279296875,0.17558511496484278,-0.006082872710796073,0.007924634969828185
1690839985900403000,4.90540283203125,0.17229601029157637,-0.008734674994368105,0.0050028475053026334
1690839985910443000,4.915443115234375,0.1821720921397209,-0.015205030919099225,-0.0014070446531753986
1690839985920484000,4.925484130859375,0.1790267798513174,-0.02084330166755244,-0.006392203521449118
1690839985930524200,4.935524169921875,0.17962123861312865,-0.01054130429122597,-0.013493475477572065
1690839985940564200,4.945564208984375,0.17482874363958834,-0.017722347502270714,-0.012651971735688857
1690839985950604000,4.95560400390625,0.17647066562771796,-0.006507336067408323,-0.007304190100100822
1690839985960644900,4.965644775390625,0.18888766413033006,0.0017830840244889257,0.005470720745378639
1690839985970685000,4.975684814453125,0.17945874152779578,-0.0059784716214053325,0.006417538892105222
1690839985980725000,4.98572509765625,0.17766425932645796,-0.006127022379776462,0.01043250330464216
1690839985990766000,4.99576611328125,0.18499708643257617,0.006193484345264733,-0.004408457242150325
1690839986000806100,5.00580615234375,0.18245733882188797,0.0030045064450707286,-0.004541463371517602
1690839986010877200,5.015877197265625,0.1959270612478256,0.0029188922545406964,-0.0018277314503910018
1690839986020917000,5.0259169921875,0.19922434922754764,-0.0005592047853395343,-0.008186799887218512
1690839986030957000,5.03595703125,0.18022329615950583,-0.001553933177422732,-0.006530244302249047
1690839986040998000,5.045997802734375,0.17962474574446677,-0.007788315788656473,-0.00031390880435938016
1690839986051027700,5.05602783203125,0.1743862605690956,-0.014892686167452483,0.001147217823343817
1690839986061067500,5.066067626953125,0.1740858163177967,-0.006755867468379437,0.010218171000794973
1690839986071107600,5.076107666015625,0.17527999453842638,-0.009823200883436948,0.0050770338362315665
1690839986081148700,5.086148681640625,0.1749777967214584,-0.011123268897645176,0.003984096633526496
1690839986091188700,5.096188720703125,0.17617372850775717,-0.009306720994971693,0.0023016805215156635
1690839986101228800,5.106228759765625,0.17677344796657563,-0.002665730344224721,-0.003869290597841609
1690839986111269600,5.11626953125,0.18724983379542826,-0.0056736160564702,-0.005658562334522139
1690839986121309700,5.126309814453125,0.17977087621688842,-0.012454106509452684,-0.010254336009430699
1690839986131349500,5.136349609375,0.18291501946151256,-0.006033416679035872,-0.0069359504427528
1690839986141389600,5.1463896484375,0.17857845156192778,-0.008790816495241598,-0.004120208035432733
1690839986151430700,5.1564306640625,0.17513854024112224,-0.007165708644594997,-0.0077829774598358195
1690839986161500700,5.166500732421875,0.16720891628563403,-0.007232682066736743,-0.00030353125752881165
1690839986171541800,5.176541748046875,0.17050152809023855,-0.006108929600659757,0.007532372832787223
1690839986181581800,5.186581787109375,0.1782820989638567,-0.0070470598341431465,-0.0052657156755914905
1690839986191622000,5.196621826171875,0.17768179498314857,-0.007904434715304524,-0.007226982978312298
1690839986201662700,5.206662841796875,0.17767887237370014,-0.012909129401110112,0.005185432964016218
1690839986211702500,5.21670263671875,0.17333645925521848,-0.003667500398447737,0.006637572567665484
1690839986221742600,5.22674267578125,0.17288579287827013,0.0029114304672926664,0.004037205927097239
1690839986231782700,5.23678271484375,0.18904606956243514,0.0037441275649238376,0.01175931776188081
1690839986241823700,5.24682373046875,0.17333470568954942,0.007235129752149805,0.006305322105728555
1690839986251863800,5.25686376953125,0.1799205138206482,0.007684161294437945,0.004684228276496287
1690839986261904000,5.26690380859375,0.18351590796411035,0.001581003847438842,-0.0034474370401352643
1690839986271944700,5.27694482421875,0.1811269670009613,0.007102306285873055,-0.0034481996585382147
1690839986281984500,5.286984619140625,0.18547347177267073,-0.003285341813601553,0.0036687881732359526
1690839986292024600,5.297024658203125,0.17829612748920917,-0.013939038704428822,0.00035463582368101923
1690839986302095600,5.307095703125,0.179945063740015,-0.013708846677746623,-0.00047807725697057317
1690839986312135700,5.3171357421875,0.17799743680357932,-0.019117610386107115,-0.006897082020377274
1690839986322175700,5.32717578125,0.17933833001852034,-0.0177172146694269,-0.008267587205581366
1690839986332216800,5.337216796875,0.1658639314174652,-0.011091385055193676,-0.006320978615875356
1690839986342257000,5.3472568359375,0.1709451802045107,-0.0015879450448788703,0.007743608997249975
1690839986352296700,5.357296630859375,0.1622603539675474,0.0023704554583877323,0.003146885474270675
1690839986362337500,5.367337646484375,0.17781974214911458,0.009142844803305343,-0.002769359682057984
1690839986372377600,5.377377685546875,0.18440555028021335,0.006427932421956211,-0.012986656183307058
1690839986382417700,5.387417724609375,0.1863549307823181,-0.002238444842863828,-0.010049515886022709
1690839986392457700,5.397457763671875,0.1847171004474163,0.01008285646662116,-0.011765507757361047
1690839986402498800,5.407498779296875,0.18307985463440418,-0.0012949169150553643,-0.010543834175029769
1690839986412539000,5.417538818359375,0.19012275888323782,-0.011913743421901017,-0.009168218989868183
1690839986422578700,5.42757861328125,0.16977905903458596,-0.024947019792487844,-0.010043385256046894
1690839986432619500,5.43761962890625,0.16709025834202765,-0.023959963250206783,0.005169251297484152
1690839986442689500,5.447689453125,0.18399989208877085,-0.02566842026906088,0.010783280370535794
1690839986452730600,5.457730712890625,0.1772615237444639,-0.030807326660631223,0.023517192485346457
1690839986462770700,5.467770751953125,0.1616898606032133,-0.023101903382455928,0.022317157629376742
1690839986472810800,5.477810791015625,0.16167641659975052,-0.005297868946101516,0.012753395416704005
1690839986482851800,5.487851806640625,0.16196224780380725,0.005022413005586713,-0.0006262626891606487
1690839986492891600,5.4978916015625,0.18679332219958306,0.022087757903849706,-0.026155628397269173
1690839986502931700,5.507931640625,0.18963292953968047,0.026673322995286432,-0.035876674947328865
1690839986512971500,5.517971435546875,0.20594985809028146,0.020694056789437306,-0.03908664540320169
1690839986523012600,5.5280126953125,0.20805881306827068,0.011078205913212149,-0.024233983002172315
1690839986533052700,5.538052734375,0.1976040545493364,0.002180449311621487,-0.0033523837344022465
1690839986543092700,5.5480927734375,0.18206454011201859,-0.017041178571386262,0.02565034803954186
1690839986553133800,5.5581337890625,0.17669395298957824,-0.021685122786555436,0.04467772514221724
1690839986563174000,5.568173828125,0.1716144577682018,-0.033388840186968444,0.04304969924869947
1690839986573213700,5.578213623046875,0.14856851322352885,-0.04807189305857755,0.03677579519454157
1690839986583253500,5.58825341796875,0.1639689114511013,-0.04085411630002782,0.015811502062401266
1690839986593324500,5.598324462890625,0.16155600509047507,-0.03534566421001218,-0.006451470844459254
1690839986603364600,5.608364501953125,0.1693149486541748,-0.02774720843764953,-0.03663177219752688
1690839986613405700,5.61840576171875,0.18650398386418818,-0.012262127601308747,-0.04745197106194682
1690839986623445800,5.62844580078125,0.18259703955352305,0.006812986216787249,-0.053988003500876944
1690839986633485600,5.638485595703125,0.20563246270418165,0.035119289841921995,-0.04359882103144191
1690839986643526700,5.648526611328125,0.2541203070193529,0.03843568438091315,-0.011333863458002452
1690839986653566700,5.658566650390625,0.27209552417099475,0.0029380444795824587,0.05168338438689243
1690839986663606500,5.6686064453125,-0.01638648665547371,0.012338334642676635,0.10908939333744347
1690839986673646600,5.678646484375,0.18024959964454174,0.046219543190160764,0.08256512342402711
1690839986683687700,5.688687744140625,0.2092810483396053,0.037578501295996825,0.03750628315986832
1690839986693727700,5.698727783203125,0.11575462338030337,0.021249845774983987,-0.02903928722493583
1690839986703767800,5.708767822265625,0.1911702221095562,-0.008504318570904433,-0.08186062841648235
1690839986713809000,5.718808837890625,0.21526479892432687,-0.01995886524952948,-0.09786670091962442
1690839986723848700,5.7288486328125,0.25567747333347796,-0.02637791111213155,-0.06957542590026278
1690839986733919700,5.738919677734375,0.1790788022994995,-0.03526306396047584,-0.021739718501025344
1690839986743959600,5.74895947265625,0.16053659891486166,-0.0403725524613168,0.031244542184250892
1690839986753999600,5.75899951171875,0.16682546992599964,-0.033956365276081486,0.04962333288481459
1690839986764040700,5.769040771484375,0.16008067184090613,-0.042848495854483915,0.04785964768053964
1690839986774080800,5.779080810546875,0.10364332982599735,-0.02827262055124156,0.037894818969862534
1690839986784120600,5.78912060546875,0.20042612623274325,-0.015289960123039781,0.027582528528384862
1690839986794160600,5.79916064453125,0.21476386366486547,0.01576134962760843,0.02956567430277355
1690839986804201700,5.80920166015625,0.12062252167761325,0.03510142539166845,0.028601085320627315
1690839986814241500,5.819241455078125,0.23150457058548926,0.0438229121109005,0.00015982107105664908
1690839986824281600,5.829281494140625,0.1697200223237276,0.04809931078846566,-0.039804808176495135
1690839986834321700,5.83932177734375,0.2077571997731924,0.02658526111934334,-0.09048506623571738
1690839986844362800,5.84936279296875,0.2287403665691614,0.007264529376570135,-0.12092411670638248
1690839986854402800,5.85940283203125,0.2124573402881622,-0.01162645091312006,-0.10346301395618356
1690839986864442600,5.869442626953125,0.2242956621199846,-0.029891307794256135,-0.03294701927017886
1690839986874483700,5.879483642578125,0.14768763873577118,-0.03534184655142016,0.06604359394572674
1690839986884553700,5.8895537109375,0.12748071700930594,-0.039847268211888144,0.16032644502921028
1690839986894594600,5.899594482421875,0.13464870894253253,-0.050558887568721546,0.1772066517520696
1690839986904634600,5.909634521484375,0.08419628655612468,-0.03925259025436826,0.1271121942241676
1690839986914674700,5.9196748046875,0.12995616721212863,-0.031782592300418765,0.020636216521821914
1690839986924715800,5.9297158203125,0.22419921600818632,-0.005455525459535419,-0.09511649802918545
1690839986934755600,5.939755615234375,0.20098376011550426,0.01877600300735794,-0.15035684881187042
1690839986944795600,5.949795654296875,0.2584358321309089,0.0388466672014445,-0.14748412465346045
1690839986954835700,5.959835693359375,0.2611345696955919,0.052415036829421294,-0.0961270815775264
1690839986964876500,5.96987646484375,0.19725801759064196,0.04611680433489382,-0.01281316506321309
1690839986974916600,5.97991650390625,0.19160159926414488,0.03921745500890538,0.0679419931792654
1690839986984956700,5.989956787109375,0.14449848730564116,0.019535443072533232,0.11863537558154202
1690839986994997800,5.999997802734375,0.15889350788295267,-0.00782388029238209,0.11744369071209802
1690839987005037800,6.010037841796875,0.14783786086142062,-0.030874254417000337,0.07902076534805819
1690839987015077600,6.02007763671875,0.1562210738033056,-0.04154303927910514,0.012150474787224084
1690839987025148700,6.030148681640625,0.19481880774497984,-0.04500485190446488,-0.0469423319062218
1690839987035188700,6.040188720703125,0.17055764219164848,-0.03835821696422063,-0.07480310198725201
1690839987045228800,6.050228759765625,0.16574293538630008,-0.03090331611470319,-0.07081589551460929
1690839987055267000,6.06026708984375,0.20462240887880323,-0.013838363942084833,-0.047512934868410225
1690839987065307100,6.07030712890625,0.17527414931952953,-0.003682305241934955,-0.008451882847480009
1690839987075347200,6.08034716796875,0.1727221267491579,0.013094651169003917,0.02658677265641745
1690839987085388300,6.09038818359375,0.20190496661365032,0.022190999082615598,0.05057027661241591
1690839987095428400,6.100428466796875,0.17842413778305052,0.0274150082080625,0.054022910417476665
1690839987105468200,6.11046826171875,0.1902636286586523,0.029569035303639246,0.04356514709070325
1690839987115508000,6.120508056640625,0.18130699974298475,0.021972342230100184,0.024756260160473175
1690839987125549000,6.130549072265625,0.18431904104053973,0.006800345930922776,-0.0005615679890732281
1690839987135589000,6.140589111328125,0.19959435158371924,-0.01531590741504915,-0.02603818287992617
1690839987145629200,6.150629150390625,0.1545575245052576,-0.02612924271384254,-0.041887934593483805
1690839987155670300,6.160670166015625,0.18133797940313814,-0.03446773059801198,-0.0368394783977652
1690839987165740000,6.170739990234375,0.17878420326709746,-0.032756908092135564,-0.02163414380127797
1690839987175781000,6.180781005859375,0.15527590190768242,-0.027755099483160302,0.004245606247079558
1690839987185821200,6.1908212890625,0.17366671412289142,-0.020178599814279004,0.015697216616524384
1690839987195861000,6.200861083984375,0.18951660968363285,-0.001818392799887806,0.02726233383042272
1690839987205902000,6.210902099609375,0.1696066250771284,0.008749826897727325,0.03566568994461559
1690839987215942100,6.220942138671875,0.19818565382957457,0.015393858888931572,0.031356891401368193
1690839987225982200,6.230982177734375,0.1823299130499363,0.019621915779588744,0.013700391659943852
1690839987236022300,6.241022216796875,0.18593115241229533,0.016094271376403048,-0.00038884405395947394
1690839987246063400,6.2510634765625,0.19013152671158312,0.024009538012975826,-0.011282914155477192
1690839987256103000,6.26110302734375,0.1865507456153631,0.0069085646789055315,-0.02427987938695587
1690839987266143000,6.27114306640625,0.19553776966929434,-0.0023345530279446393,-0.03453557166983373
1690839987276184000,6.28118408203125,0.17384265521168707,-0.008552322431094944,-0.030798558832285924
1690839987286224100,6.29122412109375,0.1751882246017456,-0.011034394170949235,-0.016258702407206872
1690839987296264200,6.30126416015625,0.1792225946843624,-0.020675160292722282,0.0070961003073723985
1690839987306304300,6.31130419921875,0.1528799466818571,-0.009806980400998144,0.0386138219933724
1690839987316375000,6.321375,0.16604162607192993,-0.01194120681756176,0.04675618451724294
1690839987326415000,6.3314150390625,0.17875380812883376,-0.0015386990756727755,0.0342400479055359
1690839987336456000,6.3414560546875,0.17186697122454642,0.0025255729548633097,0.008468808866105973
1690839987346496000,6.35149609375,0.1868301470786333,0.004046407580282539,-0.014425064089125953
1690839987356536000,6.3615361328125,0.19072247834205627,0.004788777779648081,-0.029211401521984953
1690839987366577200,6.3715771484375,0.17875497717261313,0.004649953830847517,-0.04014969435771927
1690839987376617200,6.3816171875,0.1863900020956993,0.008477348365588113,-0.03014017483865609
1690839987386657300,6.3916572265625,0.19492460620701313,-0.0032276842090766876,-0.008896820453251712
1690839987396697000,6.401697021484375,0.18520225361585615,-0.0005121507732197642,0.005029454667726531
1690839987406738000,6.411738037109375,0.1772749677479267,-0.012471450369898229,0.02471785524568986
1690839987416778000,6.421778076171875,0.16560615726411343,-0.01442698661815375,0.0330236350202118
1690839987426818000,6.431818115234375,0.17802724741995335,-0.015577654490619897,0.027438653945131227
1690839987436859100,6.441859130859375,0.1712929707288742,-0.021745228076493366,0.02344181656104047
1690839987446899200,6.451899169921875,0.17353519669771195,-0.012303573856549337,0.002360838246671483
1690839987456970200,6.46197021484375,0.18520576074719428,0.0010178261398803442,-0.012520869869040325
1690839987467010000,6.472010009765625,0.17697335445284842,0.004255127560673281,-0.022870302566688042
1690839987477050000,6.482050048828125,0.18415362134575844,-0.000059365504421293734,-0.020907921019115018
1690839987487090200,6.492090087890625,0.1883417206853628,-0.0006997640335001051,-0.017633331211679613
1690839987497131000,6.502131103515625,0.17846388527154922,0.005674301043059676,-0.012427912622271105
1690839987507171000,6.512171142578125,0.18355214832127092,0.00022361615542322395,0.003003983571974095
1690839987517211100,6.522211181640625,0.17547230224013327,0.0086721859510988,0.020072052433574572
1690839987527252200,6.532252197265625,0.18250702318251133,0.016767686259094625,0.02125400821015937
1690839987537292300,6.542292236328125,0.18101123166680336,0.020573590481234715,0.01658422173425788
1690839987547332000,6.55233203125,0.1777197889059782,0.002930080368835479,0.017148879012849647
1690839987557372200,6.5623720703125,0.1931342156589031,-0.0017745262586977332,0.004485351553396321
1690839987567413000,6.5724130859375,0.1802729805201292,0.008962729862891138,-0.010808154516888316
1690839987577453000,6.582453125,0.18716215551197526,0.0033583065851125866,-0.015932728705718182
1690839987587493000,6.5924931640625,0.19884031834602356,-0.012054759327787904,-0.016664440513751468
1690839987597564200,6.602564208984375,0.17176117276251315,-0.02565066541666165,-0.0034088540288386864
1690839987607604000,6.61260400390625,0.17176234180629252,-0.022663411500491202,0.008237488894839771
1690839987617645000,6.62264501953125,0.17939152151048182,-0.01897473131669685,0.005630028076493181
1690839987627685000,6.63268505859375,0.1665174268901348,-0.02137201998308301,0.0040167453776695766
1690839987637725200,6.64272509765625,0.1760854657024145,-0.025377711960487066,0.0035124605337856336
1690839987647766000,6.65276611328125,0.17382979573011398,-0.006527566004684194,0.009071871059481054
1690839987657806000,6.66280615234375,0.1811538550078869,0.0012163535198196768,0.015106751326529774
1690839987667846100,6.67284619140625,0.1887812811464071,0.011372941942932084,0.010125277686107437
1690839987677886000,6.682885986328125,0.18324527432918547,0.01618740215310827,0.009303250396251678
1690839987687927000,6.692927001953125,0.18355039475560186,0.013344452078454196,-0.0027484356250381094
1690839987697967000,6.702967041015625,0.1941851860165596,0.014735203183954581,-0.006661962656828109
1690839987708007200,6.713007080078125,0.188660285115242,0.003272445799410343,-0.01120975073785521
1690839987718048000,6.723048095703125,0.18552783230841158,0.0026379564213100818,-0.005958787390112411
1690839987728088000,6.733088134765625,0.19286533558964727,0.000018686434160917995,-0.006477301688748411
1690839987738128100,6.743128173828125,0.1767033053398132,-0.010024778736988081,-0.0017730558208189904
1690839987748199200,6.75319921875,0.1796931348055601,-0.015073988417955115,0.0037024118816247208
1690839987758239000,6.763239013671875,0.16442366948127746,-0.014884192333742975,0.013036176147148944
1690839987768279000,6.773279052734375,0.17219956417977808,-0.0031366357916034755,0.013374338043353053
1690839987778320100,6.783320068359375,0.17249357869029044,-0.004230979500105605,0.005922090375225525
1690839987788360200,6.793360107421875,0.17727905940115452,-0.00430328668449074,0.004425524824671447
1690839987798400300,6.803400146484375,0.18955109647512436,-0.0043509160853456704,-0.014091811263479758
1690839987808441000,6.813441162109375,0.1835661768466234,0.006217696337914094,-0.006494506268587429
1690839987818481200,6.823481201171875,0.17010054607391356,0.015834816722618415,-0.002618986859358847
1690839987828521000,6.83352099609375,0.1760854657024145,0.010597783718816936,-0.0059086623547831545
1690839987838561000,6.84356103515625,0.17518647103607654,0.009192647894937544,0.001846089090988971
1690839987848602000,6.85360205078125,0.1696498796969652,0.018603441185737028,0.009364257585199083
1690839987858642200,6.86364208984375,0.18072423141896723,0.007453494343720376,0.008050750134105328
1690839987868682200,6.87368212890625,0.16681144140064716,0.009488717365218327,0.015285868469811975
1690839987878723000,6.88372314453125,0.18671908791959285,-0.0022478793914895503,0.00919689709508093
1690839987888793300,6.89379345703125,0.18328502181768416,-0.004325461983680725,-0.002325881097721867
1690839987898834200,6.903834228515625,0.18673545453250406,-0.007979299182957037,-0.009517368070967494
1690839987908874000,6.9138740234375,0.19526830507814882,-0.012101347549026831,-0.014982672855712007
1690839987918914000,6.9239140625,0.17402151890993117,-0.021076242773747072,-0.010190182448748964
1690839987928954000,6.9339541015625,0.1695277146220207,-0.011661604424891992,0.00173153650034219
1690839987938995200,6.9439951171875,0.16547873149216175,-0.011660992503538727,0.011337550969142466
1690839987949035300,6.95403515625,0.17324644288420676,-0.0021342720823362468,0.006757388138608075
1690839987959075300,6.964075439453125,0.1775748274773359,0.0014030717309564352,0.008915027396799996
1690839987969116200,6.9741162109375,0.17951251754164696,0.006758653080509975,0.011633152365253772
1690839987979156000,6.984156005859375,0.18983517411351203,0.0088318517585285,0.00748527087160619
1690839987989196000,6.994196044921875,0.18535013765394687,0.02112449322910979,0.0002893977008992806
1690839987999236000,7.004236083984375,0.18461013294160364,0.02119361294256523,-0.0030765373515314423
1690839988009277200,7.014277099609375,0.19838789840340612,0.016296698613325132,-0.004045110672339797
1690839988019317200,7.024317138671875,0.19495792395472525,0.012892835853435099,-0.005615883103420492
1690839988029357300,7.034357421875,0.1877835022807121,0.002958429680485278,-0.009376119269640184
1690839988039428400,7.044428466796875,0.16953180627524853,-0.01329483164991252,-0.005548012348846532
1690839988049452800,7.054452880859375,0.18509236350059508,-0.017756852560071274,-0.009117890741850715
1690839988059494000,7.064493896484375,0.1653331855416298,-0.018463365994766355,-0.013903042659151833
1690839988069534000,7.074533935546875,0.17789280738532542,-0.013566479064989834,-0.002507105716411024
1690839988079573800,7.08457373046875,0.16800737318694592,-0.010808567792130633,0.0015169553180341608
1690839988089614800,7.09461474609375,0.17787527172863482,-0.0006901833544019609,0.005331830581207759
1690839988099655000,7.104655029296875,0.18610007923841476,0.008777061964524909,0.010331515731755643
1690839988109695000,7.114695068359375,0.17637363499403,0.018272921456582842,0.02117506807229947
1690839988119734800,7.12473486328125,0.1795177782386541,0.025260277859587222,0.0037721503662993196
1690839988129775900,7.13477587890625,0.1795230389356613,0.02607580462670885,-0.002707932368002366
1690839988139815700,7.144815673828125,0.1953922237187624,0.012676672352105378,-0.007609057081479113
1690839988149855700,7.154855712890625,0.18238310454189777,0.010742407220741733,-0.012475313694262876
1690839988159896800,7.164896728515625,0.1886766517281532,0.011056523804366588,-0.023498875943943856
1690839988169937000,7.17493701171875,0.16743571077883243,-0.004320813208026812,-0.015533223977137823
1690839988180008000,7.185008056640625,0.16235270842611788,-0.011512816204503179,-0.012107080886780749
1690839988190048000,7.195048095703125,0.16923837628662586,-0.02269239099980332,-0.008788841450575274
1690839988200087800,7.205087890625,0.18958558326661587,-0.027123669711826368,-0.0021527827032725324
1690839988210128000,7.2151279296875,0.1777583673506975,-0.01796486928756349,-0.0010463398483116179
1690839988220168700,7.225168701171875,0.17490648505091666,-0.009044782123155891,0.013425668655079789
1690839988230208800,7.235208740234375,0.18223054432868957,-0.004335225325869396,0.028500421974726485
1690839988240248800,7.245248779296875,0.17294658315479755,-0.002232243430940434,0.02249482031780062
1690839988250290000,7.2552900390625,0.17668284707367418,0.0044788259144872425,0.008478222865134012
1690839988260330000,7.265330078125,0.18057108668386934,0.01308082357305102,-0.0011276568896370009
1690839988270369800,7.275369873046875,0.18476327767670153,0.015039501626463605,-0.007099415642465464
1690839988280409900,7.285409912109375,0.19015549210906027,0.022206781173637134,-0.01532108363037696
1690839988290450700,7.29545068359375,0.19944003780484199,0.02211518476689234,-0.01205876193275908
1690839988300490800,7.30549072265625,0.19660569116175172,0.01747544180280529,-0.006111390985804609
1690839988310530800,7.31553076171875,0.18643676384687421,0.011659987856540828,0.006331273964315187
1690839988320572000,7.325572021484375,0.17836276298463344,-0.009071944124717264,0.01149269358179299
1690839988330642000,7.335641845703125,0.17133388726115226,-0.01612123244856484,0.013449271009664516
1690839988340683000,7.34568310546875,0.1674456476509571,-0.020978143560979514,0.015335801708896177
1690839988350722800,7.355722900390625,0.1656470737963915,-0.021590768167143688,0.007863191672752146
1690839988360763000,7.365762939453125,0.16983049696087837,-0.013412521479139104,0.002239385557780042
1690839988370803700,7.3758037109375,0.16772446459233759,-0.013835943656135349,-0.015198009806557092
1690839988380843800,7.38584375,0.1828255876123905,-0.0039056017369497567,-0.007007682238402776
1690839988390883800,7.3958837890625,0.1814671587407589,0.00851642000065185,-0.0037696296156500466
1690839988400924000,7.405923828125,0.1847515872389078,0.014977679303474723,-0.004923003185144625
1690839988410965000,7.415965087890625,0.18774375479221342,0.018816535947145892,0.0023620392564916983
1690839988421004800,7.4260048828125,0.2092991685181856,0.025812240053387357,0.012019843278033657
1690839988431044900,7.436044921875,0.16068097582161425,0.022286458813725037,0.0024661389517830683
1690839988441085000,7.4460849609375,0.21516601472496985,0.012714090886199847,0.004193031243048608
1690839988451125800,7.456125732421875,0.18076339438557623,-0.004988483336521313,0.002481578549509868
1690839988461165800,7.466165771484375,0.170896080365777,-0.018931421897932885,-0.006916371242736931
1690839988471236900,7.47623681640625,0.17553835321366787,-0.024451637490978465,-0.007797821119229774
1690839988481277000,7.48627685546875,0.15862345876991749,-0.023250609404454007,-0.004058235015394166
1690839988491316700,7.496316650390625,0.17177870841920376,-0.03012934520067647,0.003514026869786903
1690839988501357800,7.50635791015625,0.17834873445928096,-0.02198332028184086,0.000624148363887798
1690839988511398000,7.51639794921875,0.19838848292529582,-0.016582502417918293,0.00922566424855031
1690839988521438000,7.52643798828125,0.1413689571082592,-0.01005656211473979,0.023992735291935966
1690839988531478800,7.536478759765625,0.17967443010509013,0.02191715971045196,0.00640264271707274
1690839988541518800,7.546518798828125,0.1841635582178831,0.029691547438455743,-0.01971368571626954
1690839988551559000,7.556558837890625,0.194040809109807,0.02619607913866639,-0.04727339962464757
1690839988561598700,7.5665986328125,0.1874614307194948,0.01819597462969832,-0.03920629886065144
1690839988571639800,7.576639892578125,0.19255729255378246,0.017208972886344417,-0.023042843838711267
1690839988581679900,7.586679931640625,0.20453823772668836,0.013161825520545243,0.006459368739835917
1690839988591720000,7.596719970703125,0.1738765574812889,-0.00254457904943265,0.048651601775828744
1690839988601760800,7.6067607421875,0.17089958749711512,-0.01890579426633194,0.06533878841092809
1690839988611831000,7.6168310546875,0.15609773968458174,-0.024257311362121253,0.05408997060458641
1690839988621871900,7.626871826171875,0.17181377973258494,-0.03789170456416905,0.0099957512886147
1690839988631912000,7.636911865234375,0.15863748729526997,-0.04872970851333812,-0.03518104823282919
1690839988641951700,7.64695166015625,0.18555588935911654,-0.034159778893692413,-0.07077079599755816
1690839988651991800,7.65699169921875,0.20079086789190767,-0.007777282937988638,-0.05954457818209193
1690839988662033000,7.667032958984375,0.1703863772779703,0.018470444189524277,-0.01890910046827048
1690839988672073000,7.677072998046875,0.1779945141941309,0.036998034526919944,0.022710963269532657
1690839988682113000,7.687113037109375,0.18217384570538997,0.067011132936785,0.04509920195729937
1690839988692153900,7.69715380859375,0.1723036090761423,0.0664050476692617,0.04894530119250994
1690839988702194000,7.70719384765625,0.1841454380393028,0.05483302122396417,0.024007939710933714
1690839988712233700,7.717233642578125,0.21620120299160478,0.03535312599726021,-0.020517741241306064
1690839988722273800,7.727273681640625,0.208606510078907,0.009135547412838787,-0.049137321199849246
1690839988732315000,7.73731494140625,0.21148411134183406,-0.021246320377336814,-0.05076193586015142
1690839988742355000,7.74735498046875,0.19160393735170364,-0.042739245060039684,-0.028280806140985805
1690839988752395000,7.75739501953125,0.15704291158020495,-0.05517613557321019,0.0005578553617582656
1690839988762466000,7.767466064453125,0.13233867843449115,-0.0602486256650649,0.019770197109901345
1690839988772505900,7.777505859375,0.12407821508944034,-0.056775825854809954,0.027765828656440134
1690839988782546700,7.787546630859375,0.1562087988436222,-0.033948529029497874,0.013067585065565072
1690839988792586800,7.797586669921875,0.16215455550551414,-0.01702130482713692,-0.00637411987548694
1690839988802626800,7.807626708984375,0.18950784185528755,0.008969406198849901,-0.018339109427435323
1690839988812668000,7.81766796875,0.21807634921371935,0.04347984342742711,-0.007686150038836058
1690839988822708000,7.8277080078125,0.22601357195377347,0.05374329889165237,0.010144283780676777
1690839988832748000,7.837748046875,0.20598609844744203,0.06594557693134993,0.018874129619589074
1690839988842788000,7.8477880859375,0.1998842744410038,0.05288807943495921,0.03333593867266318
1690839988852829000,7.857828857421875,0.17822189320921897,0.0371908171526622,0.022382804460823535
1690839988862868700,7.86786865234375,0.15954408074617385,0.009915327013144268,0.0065280751780490386
1690839988872908800,7.87790869140625,0.17332593786120415,-0.006908847806695848,-0.013578429797687567
1690839988882950000,7.887949951171875,0.17258125697374344,-0.027235030264966188,-0.022258986284909767
1690839988892990000,7.897989990234375,0.16658873856067657,-0.04715289678382687,-0.020627236347633877
1690839988903061000,7.90806103515625,0.16522680255770683,-0.044077654056949536,-0.02171718244223157
1690839988913101000,7.91810107421875,0.17807751630246638,-0.04929784552380442,-0.0032925935382954775
1690839988923140900,7.928140869140625,0.1675847638607025,-0.03416872025197372,0.009014170072472188
1690839988933181000,7.938180908203125,0.16846856095790863,-0.02488830274203792,0.016806858358858152
1690839988943221800,7.9482216796875,0.1805821925997734,-0.006363406685227528,0.03190035976145882
1690839988953261800,7.95826171875,0.17788579312264918,0.019257758642314,0.017228905996098182
1690839988963302000,7.968302001953125,0.1837234132349491,0.03182246765308082,0.0132952061092481
1690839988973343000,7.978343017578125,0.19315408940315246,0.04079683315483853,0.009208891210262663
1690839988983383000,7.988383056640625,0.17894553130865096,0.0367244691493921,0.0034292871788027695
1690839988993423000,7.998423095703125,0.17311960163414478,0.03328485008953139,-0.0035934990138979626
1690839989003463000,8.008462890625,0.17372925796508787,0.020195368285989387,-0.00951580858483212
1690839989013503700,8.018503662109374,0.18346330099403857,0.010160607011104002,-0.01840904655822087
1690839989023543800,8.028543701171875,0.1852653819799423,0.0023396401950158178,-0.021579479588149115
1690839989033583900,8.038583984375,0.17703706733882427,-0.009965376699948682,-0.015262793554901144
1690839989043625000,8.048625,0.18481471560299395,-0.014763260234659537,-0.002598786604835186
1690839989053703400,8.058703369140625,0.17612755127847193,-0.009339235025085508,0.012677526302053592
1690839989063744300,8.068744140625,0.16204934156537054,-0.0031758626902941615,0.030616078404849395
1690839989073784300,8.078784423828125,0.17221300818324087,0.010083386189583689,0.04342701726164669
1690839989083824400,8.088824462890624,0.18192951555550096,0.01702112216404639,0.03441959202379221
1690839989093864400,8.098864501953125,0.17728607366383076,0.022337202620273455,0.0072686781120137305
1690839989103905500,8.108905517578124,0.18776421305835245,0.03194385640989057,-0.025273929642315486
1690839989113945600,8.118945556640625,0.20198972228765485,0.03608761428426951,-0.042233341364515946
1690839989123985400,8.1289853515625,0.20544658474326133,0.016541777681885285,-0.054183316010423
1690839989134026500,8.139026611328125,0.1960369513630867,0.0035794659219682214,-0.03739466459511313
1690839989144066300,8.14906640625,0.1809393354743719,-0.011399318493204191,-0.013934061135211959
1690839989154106400,8.1591064453125,0.17556114956736563,-0.020916312104836104,0.016123134427994953
1690839989164146400,8.169146484375,0.1540127501040697,-0.03276984063894488,0.033245088901300915
1690839989174187500,8.1791875,0.14832009142041205,-0.03435395889207721,0.037823612330597826
1690839989184227600,8.1892275390625,0.16042553975582122,-0.029163934234622865,0.02626537694863509
1690839989194298600,8.199298583984374,0.1589098744958639,-0.023531024647876618,0.00917239969135262
1690839989204338400,8.20933837890625,0.18358254345953465,0.00402288970737718,-0.00006138393157161772
1690839989214378200,8.219378173828124,0.2010778681397438,0.021397401019511743,-0.011177510702377184
1690839989224419300,8.22941943359375,0.19733166734874247,0.025351125347660854,-0.02214596121435752
1690839989234459400,8.23945947265625,0.1982330001026392,0.03302606215602718,-0.014630468734423628
1690839989244499500,8.24949951171875,0.20213468371629714,0.031419001418724654,-0.005773754245985765
1690839989254540500,8.25954052734375,0.188982941198349,0.027412852783594278,0.00607936101288069
1690839989264580600,8.26958056640625,0.1777753184854984,0.020470367568777872,0.01820130610865308
1690839989274620400,8.279620361328124,0.17105448579788207,0.006461743360012769,0.01147502321107313
1690839989284660200,8.28966015625,0.1762988161921501,0.0031408005100674926,0.022649488006415777
1690839989294701300,8.299701416015624,0.161035780608654,-0.008531425773538649,0.01799976250443142
1690839989304741400,8.309741455078125,0.15743921742141245,-0.017288988453149794,0.005876447435480076
1690839989314781400,8.319781494140624,0.1746393585473299,-0.015505511703016235,-0.005114205775153823
1690839989324822500,8.329822509765625,0.1735837120145559,-0.014746838822821155,-0.010778647577902301
1690839989334862600,8.339862548828124,0.1853968994051218,-0.007192167393257841,-0.024914960136811715
1690839989344933600,8.34993359375,0.1826163287758827,0.0016967574479058384,-0.034270016068825494
1690839989354973400,8.359973388671875,0.278529356610775,0.0010846808310132473,-0.009722950812778436
1690839989365013200,8.37001318359375,0.012056933018565178,-0.5334728531138971,-0.4130889259651303
1690839989375053300,8.38005322265625,0.05707154826521873,0.3016570063558407,0.6749425306502729
1690839989385094400,8.390094482421874,0.4073737631887197,-0.052911423777928575,-0.24676906747370958
1690839989395134500,8.400134521484375,0.08102116365134715,0.2504972211513668,0.27308827980170025
1690839989405174500,8.410174560546874,0.22799276307225225,0.01737357059721835,0.030191676697030195
1690839989415215600,8.420215576171875,0.2599105808585882,0.12291965617146343,-0.1571042315796949
1690839989425255400,8.43025537109375,0.28734394670724867,0.07954414076819084,-0.14088647082094102
1690839989435295200,8.440295166015625,0.23007950621843337,0.03719961238047108,-0.11739949537734501
1690839989445335300,8.450335205078124,0.20020283887088297,0.021240822218311948,-0.04983867440223694
1690839989455376400,8.46037646484375,0.15159809017777442,-0.007769949014903977,0.028762358563253654
1690839989465416400,8.47041650390625,0.14084931714832782,-0.044129548640968276,0.1128452022070065
1690839989475456500,8.48045654296875,0.11451894410550593,-0.06065933449096046,0.14086226796144619
1690839989485527600,8.490527587890625,0.08458440909087657,-0.0709985403388273,0.11318341205227188
1690839989495567400,8.5005673828125,0.17898177166581153,-0.08002712024585343,0.04948716668398119
1690839989505608400,8.5106083984375,0.14093699543178081,-0.05391972403763793,-0.015675616706069557
1690839989515648300,8.520648193359374,0.18698562990128992,-0.03874883285015821,-0.05554944413132034
1690839989525688300,8.530688232421875,0.2246533895164728,-0.01688707485506311,-0.07229833435839973
1690839989535729400,8.5407294921875,0.1770358982950449,0.010804302608966827,-0.043866952182026575
1690839989545769500,8.55076953125,0.21262918972373007,0.033420221705920995,-0.0028922942252713256
1690839989555809500,8.5608095703125,0.1819458821684122,0.0537237265415024,0.04474544291645288
1690839989565849300,8.570849365234375,0.1752186197400093,0.06817701664469204,0.07409139178763144
1690839989575890200,8.58089013671875,0.16999942378699778,0.06752538433554582,0.06895650398405269
1690839989585930200,8.59093017578125,0.1761596999824047,0.06403830940476618,0.05177209015022963
1690839989595970300,8.60097021484375,0.19953180774152277,0.05726794762015342,0.018187048112793126
1690839989606010400,8.61101025390625,0.20464754332005977,0.032380293332086876,-0.015191792411613277
1690839989616051500,8.621051513671874,0.18552081804573534,0.008995198227232321,-0.030465232941403516
1690839989626122500,8.63112255859375,0.20888941867351532,-0.013845652199396864,-0.03207065199417993
1690839989636162600,8.64116259765625,0.1885556556969881,-0.03637333589047193,-0.0032686669567250646
1690839989646202400,8.651202392578124,0.1459171219319105,-0.05941544451024383,0.027483525133319198
1690839989656242400,8.661242431640625,0.16521686568558216,-0.05674585084165446,0.04757782593131996
1690839989666283300,8.671283203125,0.14290449611246586,-0.053858641500165685,0.046239960357104426
1690839989676323300,8.6813232421875,0.15215280145108698,-0.04109419953306205,0.03379088621579576
1690839989686363400,8.69136328125,0.17126842080950735,-0.01260667585581541,0.0013574755986279342
1690839989696404500,8.701404541015625,0.17556874835193156,0.005188508553802967,-0.011402664652693783
1690839989706444500,8.711444580078124,0.19424246916174887,0.029865990689909083,-0.005486863596003968
1690839989716484400,8.721484375,0.1894359456628561,0.040435890887957064,-0.008290299077599775
1690839989726524400,8.7315244140625,0.21098200703859327,0.04217168343830854,0.006297202731354627
1690839989736565200,8.741565185546875,0.21055062988400458,0.05394062069519422,0.020499237470235673
1690839989746605300,8.751605224609374,0.19412205765247345,0.042543147099204356,0.023501490309427026
1690839989756645400,8.761645263671875,0.20702830097675323,0.03682284235679544,0.02642479159431532
1690839989766686500,8.7716865234375,0.189404381480813,0.022510138901229947,0.019175998642994088
1690839989776756500,8.781756591796874,0.16339315738976,0.006891586144641041,0.01802666991931037
1690839989786797600,8.791797607421875,0.1753752716064453,0.001383298451406881,0.014741817871120291
1690839989796837400,8.80183740234375,0.17148352486491203,-0.013027148023899643,-0.0002220977684832178
1690839989806877400,8.81187744140625,0.15127017339766025,-0.027637336588697506,0.008231610568257747
1690839989816917500,8.82191748046875,0.16546645653247832,-0.027191684313584118,0.01709495915181469
1690839989826958300,8.831958251953125,0.1694850445240736,-0.01863022872796282,0.012273730132490163
1690839989836998400,8.841998291015624,0.18682605542540548,-0.02011547145019285,0.02364197877564002
1690839989847038500,8.85203857421875,0.18292554085552692,-0.011192059817537665,0.01831596487222123
1690839989857079600,8.86207958984375,0.19459201325178146,0.009795536558376625,0.020866767024819273
1690839989867119400,8.872119384765625,0.21045359925031662,0.01789724741145037,0.012842471072799526
1690839989877159400,8.882159423828124,0.19040625199973582,0.017177783163636922,0.006101508912607096
1690839989887199500,8.892199462890625,0.18726970753967762,0.031120146336313336,0.008186592107953038
1690839989897240300,8.902240234375,0.18413316307961938,0.03575830926466733,0.0025135137659555765
1690839989907280400,8.9122802734375,0.1651326945334673,0.030826780279772353,0.002725888149801176
1690839989917351400,8.922351318359375,0.17845511744320391,0.014572267707204446,0.009915336146298795
1690839989927391500,8.9323916015625,0.18444822037816047,0.015277128040930255,0.004863784952840069
1690839989937431300,8.942431396484375,0.17891864330172538,0.011348529020883142,0.013666192562819923
1690839989947472400,8.952472412109374,0.1823684914946556,0.0022496694897767154,0.012659916438482468
1690839989957512400,8.962512451171875,0.18147768013477325,-0.007061435419367626,0.0013535597586247603
1690839989967552500,8.972552490234374,0.17938684533536434,-0.012697212816635146,0.0001409599653154146
1690839989977593300,8.98259326171875,0.17878771039843558,-0.011366557867918162,0.008163452119316206
1690839989987633400,8.99263330078125,0.16531272727549076,-0.017331256692297757,0.012476759015966671
1690839989997673500,9.002673583984375,0.1715846471518278,-0.008456305577559397,0.019900689338485242
1690839990007713300,9.01271337890625,0.1733656853497028,0.006253288241103291,0.013357743101578671
1690839990017754400,9.02275439453125,0.1664694960951805,0.010301084060873836,0.0223886496797204
1690839990027794400,9.03279443359375,0.18231880713403223,0.014717685793573037,0.024846988917537963
1690839990037834500,9.04283447265625,0.18874854792058468,0.018381669927528127,0.010790416789153823
1690839990047875300,9.052875244140624,0.18665654407739637,0.022044348020385948,0.003022169965924695
1690839990057910800,9.062910888671874,0.19788871670961378,0.015862261851970105,-0.006097306519880658
1690839990067981800,9.07298193359375,0.19221651629209519,0.017007550296420232,0.00045641113114543256
1690839990078021600,9.083021728515625,0.1985147396534681,0.00956330783823505,0.004928914619411807
1690839990088061700,9.093061767578124,0.1852086833566427,0.005614606745075434,0.01884229144291021
1690839990098101500,9.1031015625,0.16441431713104246,0.003069735434697941,0.02198869514327962
1690839990108142600,9.113142578125,0.16546002679169178,-0.005598094001691788,0.021774034045869483
1690839990118182700,9.1231826171875,0.1581213544666767,-0.005131015346059575,0.022269361548451706
1690839990128222700,9.13322265625,0.16754034019708633,-0.0013388199888635427,0.01563405856968602
1690839990138263800,9.143263916015625,0.1781552577137947,0.002074723914824426,0.00909985732823843
1690839990148303600,9.1533037109375,0.16961948455870152,-0.0012777648508548736,0.005191764523391612
1690839990158343700,9.16334375,0.1874222677528858,-0.003988384649576619,-0.00540490723386174
1690839990168383500,9.173383544921874,0.18757190535664559,-0.0017166677247732877,-0.00571721202795743
1690839990178424600,9.183424560546875,0.18832126241922378,0.005035153756150976,0.005243446761567611
1690839990188464600,9.193464599609374,0.17740122447609902,0.01013321668067947,0.008544145974505226
1690839990198504700,9.203504638671875,0.17830197270810602,0.01380624263761565,0.01925551188630052
1690839990208575700,9.21357568359375,0.17770517585873602,0.020370651787659153,0.015732769703806843
1690839990218615600,9.223615478515624,0.17800620463192462,0.015071166273206472,0.019467832612863275
1690839990228656600,9.23365673828125,0.17561083392798899,0.007927340666856617,0.009833767943223938
1690839990238696400,9.243696533203124,0.18533786269426344,0.006285071618854999,0.005225881422124803
1690839990248736500,9.253736572265625,0.17995149348080158,-0.000697535543795675,0.009338584287825505
1690839990258776600,9.263776611328124,0.1801028846502304,0.012780461520142852,-0.0011206882927333936
1690839990268817700,9.273817626953125,0.1868394994288683,0.011806273592589423,-0.005159869264496956
1690839990278857700,9.283857666015624,0.18444880490005014,0.004945173917757347,-0.0005952898788731545
1690839990288897500,9.2938974609375,0.178613522875309,-0.003959898340608925,0.007570512886089272
1690839990298938600,9.303938720703124,0.17801321889460087,0.001601270317332819,0.01442267576921731
1690839990308978400,9.313978515625,0.17352292173802852,0.005950515035400167,0.02050612843532581
1690839990319018500,9.3240185546875,0.1732195548772812,0.006832019710820167,0.018018839380948337
1690839990329058600,9.33405859375,0.17546002728044985,0.000037245004158467055,0.018627532164088915
1690839990339099600,9.344099609375,0.18174246855080126,0.013432998011587188,0.011620933346141827
1690839990349139700,9.3541396484375,0.17904723811745643,0.012414797412371262,0.00445232606662903
1690839990359210800,9.364210693359375,0.18159224642515182,0.01087025311780162,0.004416629132162779
1690839990369250600,9.37425048828125,0.18982640628516673,0.01387330739130266,0.005176392282679444
1690839990379290600,9.38429052734375,0.18668869278132916,0.008167697894526645,0.004113118424231652
1690839990389331500,9.39433154296875,0.18340309523940085,0.005821098235761746,0.006999533181276637
1690839990399371500,9.40437158203125,0.18295944312512874,0.005337634700909257,0.00877217344356468
1690839990409411600,9.41441162109375,0.1814665742188692,0.0024744546889793125,0.017492598433583043
1690839990419452700,9.42445263671875,0.1819149025082588,0.0028706235328689214,0.02466522315944312
1690839990429492700,9.43449267578125,0.1748790125221014,0.004270023735705763,0.02111540345706744
1690839990439532500,9.444532470703125,0.17442600805759428,0.014550749995140357,0.008796894609578885
1690839990449572600,9.454572509765624,0.17397300359308718,0.013650942478049545,0.0016381865279283374
1690839990459613400,9.464613525390625,0.1799550006121397,0.0025853585843928157,-0.000004762940085493028
1690839990469653500,9.474653564453124,0.1804027443796396,0.0019126469545997678,0.002915218443132471
1690839990479693600,9.484693603515625,0.18294892173111438,0.007636376629956066,0.007128565246780636
1690839990489734700,9.494734619140624,0.1851952393531799,0.011555367571441455,0.009743500410462728
1690839990499804700,9.5048046875,0.1880418609559536,0.0074914973997045305,0.00787374389116303
1690839990509845800,9.514845703125,0.18400515278577803,0.0034671372544486075,0.015017488440766464
1690839990519885600,9.524885498046874,0.17891981234550475,0.007692381133511662,0.014380103852681349
1690839990529925600,9.534925537109375,0.17024200037121773,0.011497518170671538,0.015635898900323082
1690839990539965700,9.544965576171874,0.16665011335909366,0.01127556424937211,0.019062421016592997
1690839990550006500,9.555006591796875,0.1739811868995428,0.006686455493979155,0.011096129728970117
1690839990560046600,9.565046630859374,0.1807131255030632,0.0065210083997342735,0.01452942522096564
1690839990570086700,9.575086669921875,0.17113514981865882,-0.0014661635624244808,0.0013890637552016413
1690839990580127700,9.585127685546874,0.17861819905042647,0.0026593006034381686,-0.0009244499096472281
1690839990590167600,9.59516748046875,0.18744798671603202,0.0032516039407812056,0.0063786111042252736
1690839990600207600,9.60520751953125,0.18236147723197935,-0.0007004398869350552,-0.0016172110969142521
1690839990610247700,9.61524755859375,0.1852045917034149,0.0002049205881077796,0.007062260828207945
1690839990620288500,9.62528857421875,0.1768260549366474,0.00047043052334338423,0.013558460155315696
1690839990630328600,9.63532861328125,0.18011808221936224,0.01335711063062772,0.013998694186506327
1690839990640399600,9.645399658203125,0.17577859171032906,0.010316939217131584,0.013697990781947736
1690839990650439700,9.655439697265624,0.1822106705844402,0.006259909778134897,0.011638465577899477
1690839990660479500,9.6654794921875,0.18086276310682295,0.003172848749300465,0.008873505793034564
1690839990670520600,9.6755205078125,0.178320677408576,0.005376678936509415,0.011254790889401919
1690839990680560600,9.685560546875,0.17907237255871294,0.00624430121704936,0.00834494616606389
1690839990690600700,9.6956005859375,0.18326514807343483,0.008464406685624272,0.00640873909771908
1690839990700640800,9.705640869140625,0.18341770828664303,0.008398026918526738,-0.0018882454489939846
1690839990710681600,9.715681640625,0.17878069613575934,0.00227272157180123,0.00718155695098685
1690839990720721700,9.7257216796875,0.17518997816741466,0.012231458468409255,0.00918091179137118
1690839990730761500,9.735761474609374,0.17623568782806395,0.008945449934527278,0.0028951620357926004
1690839990740802600,9.745802490234375,0.17413959233164786,0.0017850659190211443,0.013105674886517225
1690839990750842600,9.755842529296874,0.17084230435192585,0.0063099320654757315,0.015268698139302431
1690839990760882700,9.765882568359375,0.17607728239595888,0.005945710996119305,0.008925551074102986
1690839990770922800,9.7759228515625,0.17772037342786787,0.01771935182758607,0.008944486386724747
1690839990780963600,9.785963623046875,0.18370529305636882,0.009122550933947786,0.008742481558199506
1690839990791034600,9.79603466796875,0.17741992917656899,0.002967234041448682,0.0066524139437708065
1690839990801074400,9.806074462890624,0.18565116642713544,0.011869721617083996,0.004327134492603363
1690839990811114500,9.816114501953125,0.18011808221936224,0.006636131812538951,0.002232789136923384
1690839990821154600,9.826154541015624,0.18116729901134968,0.006654069328028709,0.007292547611368354
1690839990831195600,9.836195556640625,0.1874532474130392,0.0027187665725592522,0.012780753781087695
1690839990841235700,9.846235595703124,0.1847597705453634,0.003743342113634571,0.01594956681773183
1690839990851275800,9.85627587890625,0.17982114509940147,0.008656714387331158,0.022590558610123115
1690839990861316600,9.866316650390624,0.1780243248105049,0.011727838061517103,0.01555378042468801
1690839990871356700,9.876356689453125,0.18251345292329788,0.00705822054897435,0.008667380770173622
1690839990881396500,9.886396484375,0.17787118007540703,0.007568654289143159,0.008809130753355566
1690839990891436500,9.8964365234375,0.18027005791068076,0.0034801337333396076,0.002098294303368311
1690839990901477600,9.9064775390625,0.18715104959607123,0.00597514715315774,0.009097022625402315
1690839990911517700,9.916517578125,0.17846680788099764,0.010776135960407555,0.01657243882327457
1690839990921557800,9.926557861328124,0.18655249918103217,0.005967740164836868,0.013050348519685211
1690839990931628800,9.93662890625,0.1870002429485321,0.014990392654575406,0.012469044925324852
1690839990941668600,9.946668701171875,0.17293430819511413,0.006774837030330673,0.013152224291849415
1690839990951709400,9.95670947265625,0.18625380849540232,0.004641332132974639,0.0015454256439814344
1690839990961749500,9.96674951171875,0.17218027495741844,0.009251364945387468,0.007413755988376214
1690839990971789600,9.97678955078125,0.17188567592501638,0.009915966333961114,0.012729799911985173
1690839990981829600,9.98682958984375,0.18370821566581724,0.007795211320323869,0.004991017786902375
1690839990991870700,9.99687060546875,0.1870008274704218,0.013692306534899399,0.0007063467546249739
1690839991001910800,10.006910888671875,0.1783241845399141,0.020794704152317718,0.005209160899475682
1690839991011950800,10.016950927734374,0.17983049744963645,0.010174681202229112,0.010301649174810154
1690839991021991700,10.02699169921875,0.18073299924731254,0.007444452520739287,0.021131818019039926
1690839991032031500,10.037031494140624,0.19136369885504245,0.007182559314696118,0.010173056642367737
1690839991042071600,10.047071533203125,0.1777449233472347,0.0032921551468782125,0.0070303450197156045
1690839991052086500,10.05708642578125,0.172509360781312,0.007338480528770014,0.006376608660095371
1690839991062127600,10.067127685546875,0.17474924866259098,0.011256138029694556,0.006379588351759594
1690839991072167700,10.077167724609374,0.18312427829802036,0.010390479377377778,0.0032640261725813613
1690839991082238500,10.087238525390624,0.18567279373705387,0.0178604864644818,0.0036195764533593316
1690839991092278500,10.097278564453125,0.18746552237272263,0.01032501292573288,0.00196060971559491
1690839991102318600,10.107318603515624,0.18716624716520308,0.0025426428206730633,0.005477367398585192
1690839991112359400,10.117359375,0.18686872552335262,-0.0006173921128269285,0.011948078374698525
1690839991122399500,10.1273994140625,0.18687106361091135,0.003628218700829893,0.011507765570050104
1690839991132439600,10.137439453125,0.18087971424162386,-0.0002938227142672986,0.021821820993639992
1690839991142480600,10.147480712890625,0.18072832307219505,0.013301151792844758,0.017530572948459302
1690839991152520700,10.157520751953125,0.1828220804810524,0.00973860047305934,0.01406314343306585
1690839991162560500,10.167560546875,0.18072890759408472,0.006714887004019692,0.014264737269637407
1690839991172600600,10.1776005859375,0.19120237081348895,0.013212523661321028,0.011396080789924599
1690839991182641400,10.187641357421874,0.1810264292359352,0.007457476399093866,-0.0004444501236488577
1690839991192681500,10.197681396484375,0.1754886688530445,0.00860261871307157,0.005518402661872096
1690839991202721500,10.207721435546874,0.18521628214120864,0.007476537292590364,0.0045347425114305225
1690839991212761600,10.21776171875,0.19030454519093035,0.00963372445963323,0.0035572472402942367
1690839991222832400,10.227832275390625,0.17609131092131136,0.009213425821484997,0.011345625819388078
1690839991232873500,10.23787353515625,0.18073183020353317,0.007293828536290675,0.021144782531890085
1690839991242913500,10.24791357421875,0.18372399775683879,0.01126075940588489,0.010516874244512291
1690839991252953600,10.25795361328125,0.1888040775001049,0.00976815536110662,0.012218035014544147
1690839991262993700,10.26799365234375,0.18027414956390855,0.00942174394307658,0.013025227778160477
1690839991273034500,10.278034423828124,0.1751882246017456,-0.0016579689406324178,0.01218474238300696
1690839991283074600,10.288074462890625,0.1799760434001684,0.006168194640381261,0.012720009170332922
1690839991293114400,10.2981142578125,0.1831178485572338,0.00956773741818033,0.00935802877381211
1690839991303155500,10.308155517578125,0.178926826608181,0.010406161003699526,0.003966752773080952
1690839991313195500,10.318195556640624,0.19583529131114483,0.003022224764851853,0.0037500949397624933
1690839991323235600,10.328235595703125,0.1943365771859884,0.0012282174875494092,0.003903192867443431
1690839991333275600,10.338275634765624,0.18730419433116913,0.006230765882041305,0.0024486535274423657
1690839991343316500,10.34831640625,0.18805355139374733,0.008288858322473242,0.009773760834697168
1690839991353356500,10.3583564453125,0.19344225869476794,0.003049222369631752,0.018591453920421188
1690839991363427600,10.368427490234374,0.190001178330183,0.011909039847319945,0.01852213898578775
1690839991373467400,10.37846728515625,0.18506313740611074,0.011604047285066917,0.01860239772283239
1690839991383507500,10.388507568359374,0.18925123674571512,-0.0008245868564117699,0.013786081198998726
1690839991393548500,10.398548583984375,0.1820680472433567,0.007039351451722905,0.014492929135478333
1690839991403588600,10.408588623046874,0.17398703211843966,0.014173103188630192,0.008129329512361437
1690839991413628700,10.418628662109375,0.18998948789238929,0.012166950997989624,0.0023240818662801756
1690839991423668700,10.428668701171874,0.19193769935071467,0.004032844845810905,0.0016120268900762312
1690839991433709600,10.43870947265625,0.18745090932548045,-0.0002444854135159403,0.003970711995568126
1690839991443749400,10.448749267578124,0.18759820884168146,0.010222274070465937,0.0025355166768538766
1690839991453789400,10.45878955078125,0.1864034460991621,0.009994146136706695,0.004488075516733806
1690839991463830500,10.46883056640625,0.196877493840456,0.004243994245305657,0.010738977721217088
1690839991473870600,10.47887060546875,0.18251286840140818,0.0015766199332661926,0.009316168101684888
1690839991483910700,10.48891064453125,0.18910159914195537,0.0013652239385992288,0.006665976678242441
1690839991493950700,10.49895068359375,0.18954758934378624,0.010090984974149614,0.006133892795268912
1690839991503991600,10.508991455078124,0.19388649533092975,0.013145385842397809,0.010596885244740405
1690839991514062600,10.5190625,0.19867314508557318,0.012084807406179607,0.008150606337474891
1690839991524102400,10.529102294921875,0.1849047319740057,0.01106788544859737,-0.0019544585360214113
1690839991534142500,10.539142578125,0.19119711011648177,0.013338899120502174,-0.002997501315549016
1690839991544182500,10.5491826171875,0.192093766695261,0.005753439827030524,0.012222980617720168
1690839991554223600,10.5592236328125,0.20167057333588598,0.012779712601471692,0.004859214950643945
1690839991564263700,10.569263671875,0.19359189629852772,0.013384062569634989,0.013572043439385015
1690839991574303700,10.5793037109375,0.20017419729828834,0.00650734520056285,0.017270506373321403
1690839991584344600,10.589344482421875,0.18655775987803935,0.004031045614369213,0.022429472597164567
1690839991594384400,10.59938427734375,0.1889519615381956,0.006572300195554271,0.01237868834430701
1690839991604424400,10.609424560546875,0.19448387670218945,0.00919498598249629,-0.001183188752445858
1690839991614464500,10.619464599609374,0.19104454990327357,0.007281891503324732,0.0074648331550648435
1690839991624505600,10.629505615234375,0.1905950525701046,0.008412393370596691,0.005197348305740161
1690839991634545700,10.639545654296874,0.19149580080211162,0.0019537461499683556,-0.003622647476568818
1690839991644585700,10.649585693359375,0.19299334588348865,0.0007256291271187364,0.0007772930989856831
1690839991654656800,10.65965673828125,0.18999591763317583,0.010960488684521987,-0.0043787996061146256
1690839991664696600,10.669696533203124,0.19059622161388395,0.004533533510100096,0.0025377839824650434
1690839991674737400,10.6797373046875,0.20151976668834684,0.008122388314921408,0.0021125169082544743
1690839991684777500,10.689777587890624,0.19373802677094934,0.010919763948488979,0.007598849639651598
1690839991694817500,10.699817626953125,0.19733458995819092,0.004219471725402399,0.011892422072659246
1690839991704857600,10.709857666015624,0.19389058698415756,0.008943605037312953,0.014724311897181906
1690839991714898700,10.719898681640625,0.19014847784638403,0.009901389819337055,0.00750879102780018
1690839991724938800,10.729938720703124,0.19374387198984622,0.00811081660813652,0.008363541268679546
1690839991734978600,10.739978515625,0.19119827916026114,0.00856998595194891,0.015439883137878495
1690839991745019400,10.750019287109374,0.19509353303313254,0.0025079642329365014,0.010481999293953412
1690839991755059500,10.7600595703125,0.19718845948576927,0.005820458914944902,0.007545633031515171
1690839991765099500,10.770099609375,0.1949421418637037,0.00898793736938387,0.01244924082137877
1690839991775139600,10.7801396484375,0.20108254431486128,0.006864341944688931,0.006485133368754759
1690839991785180700,10.7901806640625,0.1927028385043144,0.017351714958436786,0.006397489334631246
1690839991795220700,10.800220703125,0.1934527800887823,0.010320875606732442,0.003504611729114549
1690839991805291800,10.810291748046875,0.1959977883964777,0.007555740008642896,0.009814611151604912
1690839991815331600,10.82033154296875,0.19239771807789802,0.008665719677694141,0.019845143775944596
1690839991825371400,10.830371337890625,0.19643793337941168,0.0010418737357482315,0.018554213482839987
1690839991835412500,10.84041259765625,0.2003285110771656,0.005493866442237049,0.015754757773329037
1690839991845452500,10.85045263671875,0.20271979012787342,0.014552412229264153,0.013289193068636813
1690839991855492600,10.86049267578125,0.20227263088226316,0.01079642982976511,0.013601203318499028
1690839991865532700,10.87053271484375,0.1940367174565792,0.010183595161046832,0.005045558702445123
1690839991875573800,10.88057373046875,0.20137129812836646,0.006592365736048668,-0.0016532950488035566
1690839991885613600,10.890613525390625,0.2043669728130102,0.0051947556314989925,0.0026292525250464676
1690839991895653400,10.9006533203125,0.20646073022186756,0.010023965886235237,0.007915373951138463
1690839991905694500,10.910694580078125,0.19703648379445074,0.01055947926873341,0.016572656877338884
1690839991915734500,10.920734619140624,0.18745909263193605,0.008997417583782225,0.01228034025307861
1690839991925774600,10.930774658203125,0.19359306534230708,0.0026478293613530694,0.012676471422705799
1690839991935814700,10.940814697265624,0.19284546184539794,0.00582449576924555,0.007746224504377459
1690839991945885700,10.9508857421875,0.19957798497080803,0.002891291861562058,0.01334570788720157
1690839991955926800,10.9609267578125,0.21379414184987544,0.00534656692603603,0.007423891506611835
1690839991965966300,10.97096630859375,0.19643617981374262,0.011908738453220576,0.009213906453741946
1690839991976006400,10.98100634765625,0.19493863473236558,0.01301175865852274,0.010961173671111464
1690839991986046500,10.99104638671875,0.20361936931610106,0.01345289915530011,0.002997932857100386
1690839991996087600,11.001087646484375,0.19898060359954833,0.00914810550031252,0.004203384815348545
1690839992006127600,11.011127685546874,0.20272212821543215,0.0035035328752361238,0.015039089492865605
1690839992016167700,11.021167724609375,0.20780980674326419,0.006208809778559953,0.009825315208709799
1690839992026208500,11.03120849609375,0.20691256564259528,0.004767223534965888,0.014447087549621937
1690839992036248300,11.041248291015625,0.20047990224659443,0.004326283967588097,0.016176893317181383
1690839992046288400,11.051288330078124,0.1979360629826784,-0.004055723397899419,0.013836363781243562
1690839992056342500,11.061342529296875,0.19464462022185325,0.00539837931166403,0.01589316730524297
1690839992066383600,11.071383544921876,0.19808686963021754,-0.0008514291975647211,0.015200009967398363
1690839992076423700,11.081423583984375,0.198384391272068,0.003188621707167476,0.014462069347978102
1690839992086494700,11.09149462890625,0.20257482869923113,0.007582262689387425,0.0028094587970059364
1690839992096534800,11.10153466796875,0.20107962170541285,0.014398354178713635,0.006542197318235412
1690839992106574800,11.111574951171875,0.20437223351001738,0.019711813419591634,0.01145496680373326
1690839992116615700,11.12161572265625,0.2093120279997587,0.005781478611426427,0.008643821798072894
1690839992126655500,11.131655517578125,0.21200725843310356,0.007588829427491873,0.004858427216066047
1690839992136695600,11.141695556640625,0.2070692175090313,0.014178099024156107,0.009032798282773001
1690839992146735600,11.151735595703125,0.19734277326464653,0.010889633671706542,0.009200898558407788
1690839992156776700,11.161776611328126,0.20168226377367973,0.01254722815300338,0.009852527442621066
1690839992166816800,11.171816650390625,0.20003566561043262,0.009788147836364804,0.012621040024596731
1690839992176856800,11.18185693359375,0.20886428423225878,0.0075550550220534205,0.0022420570054790005
1690839992186897700,11.191897705078125,0.2182920377910137,0.010710623842990026,0.007118992559192702
1690839992196937500,11.2019375,0.2022808141887188,0.01055167042161338,0.010652091738919262
1690839992206977500,11.2119775390625,0.20332886193692684,0.014234149193484336,0.0036824136981449553
1690839992217017600,11.222017578125,0.2163496715515852,0.0052837764886673536,0.0018534458469599484
1690839992227058700,11.23205859375,0.2097656169861555,0.006462291349284351,0.014162871772272045
1690839992237129700,11.242129638671875,0.20003917274177074,0.013677857884438708,0.004734505150519544
1690839992247169800,11.252169677734376,0.2084188785523176,0.016915698161348698,0.01221001838815864
1690839992257209900,11.2622099609375,0.20602409237027167,0.009387622477766125,0.026119732816691974
1690839992267249700,11.272249755859375,0.20841770950853825,0.013348543731682002,0.018143504656944424
1690839992277290500,11.28229052734375,0.20617197640836238,0.01220763006825,0.01319919838886708
1690839992287330600,11.29233056640625,0.2109592106848955,0.003714810138894245,-0.00039597476435592393
1690839992297370600,11.30237060546875,0.21020868457853792,0.005482550463778898,-0.00030950434058904644
1690839992307411700,11.31241162109375,0.21275369288623333,0.006011972032207995,0.003430513304797932
1690839992317451800,11.32245166015625,0.20946225012540817,0.002609049987234175,0.00984396282696398
1690839992327491800,11.332491943359376,0.20871347758471964,0.008581658123433589,0.007168204279069322
1690839992337531600,11.34253173828125,0.19509762468636035,0.008821394296595826,0.008988789036043453
1690839992347572500,11.352572509765626,0.20676935777962208,0.0037538269750308243,0.011478056560020194
1690839992357612500,11.362612548828125,0.211707983225584,0.006953015741985291,0.013879133202246157
1690839992367652600,11.372652587890625,0.20901684444546698,0.013984686210751532,0.011560023196961264
1690839992377723600,11.3827236328125,0.20722060867846012,0.004378571277251467,0.013012199333228636
1690839992387763700,11.392763671875,0.20871756923794746,0.01041824416713789,0.01300118589051417
1690839992397804800,11.4028046875,0.2075216374516487,0.010187568083265796,0.0015542711041402072
1690839992407844900,11.412844970703125,0.2118605434387922,0.007302587231481447,0.0075487828281824475
1690839992417884700,11.422884765625,0.20527648887336253,0.007450416470644995,0.00433885347150499
1690839992427924700,11.4329248046875,0.20647358970344065,0.013871188499452545,0.0005090329425933305
1690839992437965600,11.442965576171876,0.20737141532599926,0.004021674997825175,0.007959489370789379
1690839992448005600,11.453005615234375,0.20228256775438785,0.006647475190460682,0.018385242132592246
1690839992458045700,11.463045654296875,0.20482757606208324,0.010475107187218963,0.012730124138970858
1690839992468086800,11.473086669921875,0.2096183174699545,0.010665095067676156,0.011965535257931332
1690839992478126800,11.483126953125,0.20617665258347986,0.009117829093057661,0.004282512182876235
1690839992488166700,11.493166748046875,0.21754852594733237,0.013575867947842926,0.005520274958549998
1690839992498206700,11.503206787109375,0.21814766088426113,0.011348803015518933,0.016291444766183848
1690839992508247600,11.51324755859375,0.2130593978345394,0.011341112899407743,0.005158668254676741
1690839992518317800,11.52331787109375,0.20946751082241533,0.011262567770481109,0.007438728316139895
1690839992528358700,11.533358642578126,0.2094657572567463,0.013825166533794253,0.004759848512685858
1690839992538398700,11.543398681640625,0.21664777771532534,0.006903934169560671,0.002231494512269273
1690839992548438500,11.5534384765625,0.20901684444546698,0.007500767551548778,0.0011633914983656722
1690839992558479600,11.563479736328125,0.2073690772384405,0.012468153301114216,0.005139054805331398
1690839992568519700,11.573519775390626,0.2057230635970831,0.017822474275343118,0.012283959265559679
1690839992578559700,11.583559814453125,0.21365444111824033,0.010870892438618466,0.006304360841214656
1690839992588599800,11.593599853515625,0.20647300518155096,0.012412559789512306,0.0059198287778359365
1690839992598640600,11.603640625,0.2084188785523176,0.007536889177700504,0.006278647586290026
1690839992608680700,11.6136806640625,0.20737258436977862,0.005544728979794308,0.005721176958666183
1690839992618720800,11.623720703125,0.2124585093319416,0.015561379209253936,0.010762481894390656
1690839992628761900,11.633761962890626,0.2007856071949005,0.011613089108048006,0.015434293647308367
1690839992638801700,11.6438017578125,0.20692133347094058,0.010911790704587475,0.01050691796443425
1690839992648841700,11.653841796875,0.2145534357845783,0.002757710343459621,0.005395824311685282
1690839992658912800,11.663912841796876,0.2160521499097347,0.006951810165587813,0.008199399073887616
1690839992668952600,11.67395263671875,0.21545243045091628,0.010267629315843805,0.01591623080371064
1690839992678993700,11.68399365234375,0.2067722803890705,0.010482221914594992,0.005669991335767554
1690839992689033700,11.69403369140625,0.20497429105639456,0.01587565105650574,0.01025107547326479
1690839992699073500,11.704073486328125,0.21335282782316206,0.011131022945838048,0.00789097244553268
1690839992709113600,11.714113525390625,0.21050737526416777,0.009327937312936409,0.004183242784684989
1690839992719154700,11.72415478515625,0.2085620864152908,0.01667301197927445,0.005708029782725498
1690839992729194800,11.73419482421875,0.2099099938929081,0.013022152188373728,0.00236005736195948
1690839992739234600,11.744234619140625,0.21095745711922645,0.011240858262171968,0.004241398146131541
1690839992749275600,11.754275634765625,0.21290391501188277,0.006366402359912171,0.015449588256207061
1690839992759315700,11.764315673828126,0.20946225012540817,0.006264421556470915,0.012069448865199228
1690839992769355800,11.774355712890625,0.2027291424781084,0.008666550794756039,0.008835913729004096
1690839992779395600,11.7843955078125,0.20287819555997846,0.008477467096596955,0.006746875877748243
1690839992789436700,11.794436767578125,0.20407588091194628,0.005095944032678381,0.012516533903928938
1690839992799476700,11.804476806640626,0.21215572699308394,0.0038339612728450446,0.0105644225886208
1690839992809547800,11.8145478515625,0.2154465852320194,0.007818162937648594,0.012308861953020096
1690839992819587600,11.824587646484375,0.2033259393274784,0.015169868274172767,0.012376633384538581
1690839992829627600,11.834627685546875,0.20317279459238052,0.005014421495376155,0.01059965829878347
1690839992839668700,11.844668701171875,0.2037748521387577,0.011683204335346817,0.0036111214355565606
1690839992849708500,11.85470849609375,0.2019797854155302,0.01517855390412733,0.0063417222930933345
1690839992859748600,11.86474853515625,0.21035949122607706,0.008497276908764615,0.01008064167664852
1690839992869788700,11.87478857421875,0.21215631151497363,0.00813798774285242,0.0006867881042067893
1690839992879829800,11.884829833984375,0.20542261934578418,0.011586529894685373,0.0007793880163051653
1690839992889869600,11.89486962890625,0.19719313566088675,0.013723724586470051,0.003015277859190246
1690839992899909600,11.90490966796875,0.20273089604377745,0.013781537454621866,0.011717381741228746
1690839992909950700,11.91495068359375,0.19644553216397762,0.0034329518570564684,0.006503631431603571
1690839992919990800,11.92499072265625,0.20198036993741988,0.012555584989394991,0.014915372923295945
1690839992930030600,11.935030517578125,0.19300328275561332,0.0054543838152196255,0.016377778192632832
1690839992940070700,11.945070556640625,0.19719313566088675,0.012043087156303227,0.007913646643288665
1690839992950141700,11.9551416015625,0.2000362501323223,0.009915948067652062,0.0151987187676772
1690839992960181800,11.965181640625,0.20108254431486128,0.003995316713862121,0.006794267816585488
1690839992970222600,11.97522265625,0.21140695445239543,0.0077182188276667145,0.011693989449198125
1690839992980262700,11.9852626953125,0.21394962467253206,0.012570910422690212,0.007980777612345991
1690839992990302500,11.995302490234375,0.20736732367277144,0.0038585751242935654,0.006189279669249662
1690839993000343600,12.005343505859376,0.19794249272346495,0.014960627703974022,0.0050940614612016355
1690839993010383600,12.015383544921875,0.20991116293668746,0.008231602576747536,0.009698113199044019
1690839993020423700,12.025423583984375,0.2024234375298023,0.012066376700345426,0.01185859971815953
1690839993030463700,12.035463623046875,0.19987784470021724,0.0070050655896309755,0.014497295924986246
1690839993040504600,12.045504638671876,0.19763444968760013,0.01079453013362363,0.014669874871271894
1690839993050544600,12.055544677734375,0.20451836398243903,0.007704254234395921,0.010273382061551092
1690839993060575200,12.0655751953125,0.19524083254933355,0.00505209575779736,0.00610778909798828
1690839993070616300,12.0756162109375,0.19793314037322998,0.008884403929673134,0.0024173918811429755
1690839993080656400,12.085656494140625,0.19494038829803464,0.008219218019209803,0.002288276475603925
1690839993090727400,12.0957275390625,0.20526596747934817,0.009753569713328034,0.008660745533410227
1690839993100767200,12.105767333984375,0.20810674386322497,0.011266275831218808,0.008870060310489498
1690839993110807300,12.115807373046875,0.20466507897675038,0.009327179261110723,0.01147377196890302
1690839993120848100,12.12584814453125,0.21274726314544676,0.01571715429285541,0.008506986593670444
1690839993130888200,12.13588818359375,0.2073603094100952,0.018155962279718368,0.007390362554701277
1690839993140928300,12.14592822265625,0.196886846190691,0.011363023337116465,0.009965430357231525
1690839993150968300,12.15596826171875,0.1941939538449049,0.011086188290268181,0.008732769590005044
1690839993161009400,12.166009521484375,0.20736381654143332,0.010195751389721407,0.013358997768681729
1690839993171049500,12.176049560546875,0.20093056862354278,0.010130294071231036,0.00896609771362273
1690839993181089300,12.18608935546875,0.208714646628499,0.006322252690931782,0.00907743657552055
1690839993191130000,12.196130126953125,0.20213760632574557,0.006938539692061022,0.006613223577698227
1690839993201170200,12.206170166015625,0.19046295062303542,0.010426281343121081,-0.0006420367886719759
1690839993211210200,12.216210205078125,0.19854221218228338,0.004670877887867391,0.005649328715295996
1690839993221250300,12.226250244140624,0.20707038655281065,-0.003813740468723699,0.009287327882979297
1690839993231321300,12.2363212890625,0.20602350784838197,0.003969396821316332,0.0024781033842125907
1690839993241361200,12.246361083984375,0.2043763251632452,0.005549067228194326,0.01092284182156436
1690839993251402200,12.25640234375,0.1995867527991533,0.006803551668161526,0.008593218413775321
1690839993261442300,12.2664423828125,0.20347674597501753,0.011085156243806705,0.003295135980186751
1690839993271482000,12.276482177734374,0.20422668755948542,0.013001703055389224,0.005345167270104866
1690839993281523200,12.286523193359375,0.19464988091886043,0.008343702915403992,0.0037653142001363446
1690839993291563300,12.296563232421875,0.20751929936408994,0.010801389132672921,0.008367531315563247
1690839993301603300,12.306603271484375,0.21051263596117495,0.008774477281793952,0.008906936563533963
