time,seconds_elapsed,z,y,x
1691248242356484900,0.08348486328125,-0.00640783179551363,-0.019776102155447006,0.057918693870306015
1691248242366525000,0.09352490234375,-0.004764928016811609,-0.008946357294917107,0.03887442871928215
1691248242376565000,0.10356494140625,-0.005330050364136696,0.00021731393644586205,0.014970960095524788
1691248242386606000,0.113606201171875,-0.007657120935618877,0.004246676806360483,-0.01315148826688528
1691248242396646100,0.123646240234375,-0.00515774404630065,0.0062970444560050964,-0.04713129252195358
1691248242406717200,0.13371728515625,-0.0016863135388121009,0.007230216171592474,-0.05301794409751892
1691248242416757000,0.143757080078125,0.00166633992921561,0.007105313707143068,-0.06325194239616394
1691248242426796800,0.153796875,-0.0012785836588591337,0.003479952458292246,-0.04697656258940697
1691248242436838000,0.163837890625,-0.0046605318784713745,0.0039145806804299355,-0.03471856564283371
1691248242446878000,0.1738779296875,-0.006453372072428465,-0.005534847732633352,-0.01510198786854744
1691248242456918000,0.18391796875,-0.008851282298564911,-0.007918376475572586,0.0031246868893504143
1691248242466958000,0.1939580078125,-0.006713296286761761,-0.01061962079256773,0.0035987296141684055
1691248242476999200,0.203999267578125,-0.0068235513754189014,-0.009514941833913326,0.007780425250530243
1691248242487039000,0.2140390625,-0.005017661955207586,-0.006083725020289421,-0.01167263463139534
1691248242497078800,0.224078857421875,-0.00433029979467392,-0.003864513011649251,-0.01776115410029888
1691248242507119900,0.234119873046875,-0.00242107966914773,0.0028543761000037193,-0.03647385537624359
1691248242517160000,0.244159912109375,-0.00210682675242424,0.004461593925952911,-0.03899800032377243
1691248242527200000,0.254199951171875,-0.0008703210623934865,0.005787315312772989,-0.03659609332680702
1691248242537271000,0.26427099609375,-0.0035635759122669697,0.0030269487760961056,-0.029529396444559097
1691248242547311000,0.27431103515625,-0.004659732803702354,-0.0025691515766084194,-0.014394385740160942
1691248242557352200,0.284352294921875,-0.008422779850661755,-0.008264853619039059,-0.01025556679815054
1691248242567392000,0.29439208984375,-0.006478671915829182,-0.00983345601707697,-0.00020266656065359712
1691248242577431800,0.304431884765625,-0.006726612336933613,-0.006702910177409649,-0.004796885885298252
1691248242587472000,0.314471923828125,-0.004905542824417353,-0.006968693342059851,-0.009587912820279598
1691248242597513000,0.324512939453125,-0.005756688769906759,-0.001127316034398973,-0.018667694181203842
1691248242607553000,0.334552978515625,-0.003338006092235446,0.0018317222129553556,-0.0323246493935585
1691248242617593000,0.344593017578125,-0.002424275502562523,0.002549444092437625,-0.031612519174814224
1691248242627634200,0.35463427734375,-0.003096190979704261,0.004036020487546921,-0.03772607445716858
1691248242637673700,0.364673828125,-0.002810700098052621,0.0008492820779792964,-0.024953819811344147
1691248242647713800,0.3747138671875,-0.0026373283471912146,-0.0010748518398031592,-0.019474098458886147
1691248242657753900,0.38475390625,-0.007814247161149979,-0.006226737052202225,-0.011174623854458332
1691248242667825000,0.394824951171875,-0.006852846127003431,-0.00751996785402298,-0.0032948628067970276
1691248242677865000,0.404864990234375,-0.006030195392668247,-0.0065436530858278275,-0.009857690893113613
1691248242687906000,0.414906005859375,-0.005006742663681507,-0.0029971215408295393,-0.01329769566655159
1691248242697946000,0.424946044921875,-0.0036573191173374653,-0.0008029430755414069,-0.02419774793088436
1691248242707986000,0.43498583984375,-0.0025598304346203804,0.0012218583142384887,-0.02749074622988701
1691248242718026800,0.44502685546875,-0.003204049076884985,0.0027483822777867317,-0.03470365330576897
1691248242728066800,0.45506689453125,-0.00415453128516674,0.0020719394087791443,-0.028205005452036858
1691248242738107000,0.46510693359375,-0.0032586439047008753,-0.0006410228670574725,-0.02394288405776024
1691248242748147000,0.47514697265625,-0.005514607764780521,-0.003875698195770383,-0.016586434096097946
1691248242758188000,0.48518798828125,-0.006758570205420256,-0.003284476464614272,-0.00999431125819683
1691248242768228000,0.49522802734375,-0.006700513418763876,-0.004479969386011362,-0.012229235842823982
1691248242778268000,0.505267822265625,-0.005846437532454729,-0.0035747610963881016,-0.00920335203409195
1691248242788308700,0.515308837890625,-0.005283178761601448,-0.003049319377169013,-0.017676198855042458
1691248242798379000,0.52537890625,-0.004591289907693863,-0.0003121224872302264,-0.020955348387360573
1691248242808419800,0.535419921875,-0.002910302486270666,-0.00025779398856684566,-0.026389796286821365
1691248242818460000,0.5454599609375,-0.0029547770973294973,0.0015062838792800903,-0.03069319762289524
1691248242828500000,0.5555,-0.0028868666850030422,-0.0007257114048115909,-0.025777269154787064
1691248242838541000,0.565541015625,-0.003998470026999712,-0.001967277145013213,-0.02370825968682766
1691248242848580900,0.575580810546875,-0.004196875728666782,-0.0031348068732768297,-0.012939234264194965
1691248242858621000,0.585620849609375,-0.005421929527074099,-0.003865312086418271,-0.011937885545194149
1691248242868661000,0.595660888671875,-0.0049489522352814674,-0.004661863669753075,-0.01031735260039568
1691248242878701800,0.605701904296875,-0.004402738064527512,-0.00301682879216969,-0.013678793795406818
1691248242888742000,0.615741943359375,-0.006807039491832256,-0.0025747441686689854,-0.019945744425058365
1691248242898782000,0.625781982421875,-0.003263437654823065,-0.0017150756902992725,-0.02190529927611351
1691248242908823000,0.635822998046875,-0.0018008295446634293,0.004867991898208857,-0.027827635407447815
1691248242918863000,0.645863037109375,-0.0035776905715465546,0.0012389025650918484,-0.027715783566236496
1691248242928938200,0.655938232421875,-0.004195011220872402,-0.0016884441720321774,-0.023358851671218872
1691248242938978300,0.665978271484375,-0.00544323492795229,-0.0026900589000433683,-0.01793132908642292
1691248242949018000,0.67601806640625,-0.004024568945169449,-0.0033513219095766544,-0.01534619927406311
1691248242959058000,0.686057861328125,-0.004756139125674963,-0.002654372714459896,-0.013252422213554382
1691248242969099000,0.69609912109375,-0.006820089183747768,-0.0027265443932265043,-0.011537346057593822
1691248242979139000,0.70613916015625,-0.004484763368964195,-0.002058623591437936,-0.016653278842568398
1691248242989179100,0.71617919921875,-0.0026027073618024588,-0.00021012341312598437,-0.019344935193657875
1691248242999220200,0.72622021484375,-0.004002731293439865,0.0009504822082817554,-0.02678127959370613
1691248243009260300,0.73626025390625,-0.004347610287368298,-0.00043569316039793193,-0.026862772181630135
1691248243019300000,0.746300048828125,-0.004467186518013477,-0.002659432590007782,-0.025950374081730843
1691248243029340000,0.75633984375,-0.003864246653392911,-0.001877262257039547,-0.022618493065238
1691248243039381000,0.766381103515625,-0.0046333675272762775,0.00021544973424170166,-0.014942198060452938
1691248243049452000,0.7764521484375,-0.0030892668291926384,-0.002314553363248706,-0.015684686601161957
1691248243059492000,0.7864921875,-0.005471996963024139,-0.004818989895284176,-0.012463061138987541
1691248243069532200,0.7965322265625,-0.0026791400741785765,-0.0023491743486374617,-0.017491109669208527
1691248243079572000,0.806572021484375,-0.005530586466193199,-0.0046906257048249245,-0.015780827030539513
1691248243089613300,0.81661328125,-0.004043477587401867,0.00021172130072955042,-0.021683458238840103
1691248243099653000,0.826653076171875,-0.003314037574455142,0.0008117315010167658,-0.02478444203734398
1691248243109693000,0.83669287109375,-0.004030694253742695,0.00007483482477255166,-0.026006566360592842
1691248243119733000,0.84673291015625,-0.002588326344266534,-0.002019741339609027,-0.024949025362730026
1691248243129774000,0.856774169921875,-0.004443484358489513,-0.00358807691372931,-0.018673019483685493
1691248243139814100,0.866814208984375,-0.0038461373187601566,-0.003126284806057811,-0.015667110681533813
1691248243149854200,0.876854248046875,-0.006648048758506775,-0.0033688987605273724,-0.014627411961555481
1691248243159895300,0.886895263671875,-0.0067902617156505585,-0.0033843449782580137,-0.016291888430714607
1691248243169935000,0.89693505859375,-0.004874916281551123,-0.004210457671433687,-0.0137240681797266
1691248243180006100,0.907006103515625,-0.004605670925229788,-0.0016591493040323257,-0.01974174752831459
1691248243190046000,0.9170458984375,-0.0043769050389528275,-0.0004010720585938543,-0.022046446800231934
1691248243200086000,0.9270859375,-0.0029851372819393873,-0.0028671592008322477,-0.023440077900886536
1691248243210127000,0.937127197265625,-0.006228867452591658,-0.0009930927772074938,-0.02520788460969925
1691248243220167200,0.947167236328125,-0.005342833697795868,-0.001455151243135333,-0.021804364398121834
1691248243230207000,0.95720703125,-0.00555189186707139,-0.0028386632911860943,-0.021772140637040138
1691248243240247000,0.9672470703125,-0.004018709994852543,-0.0036970002111047506,-0.017678596079349518
1691248243250288000,0.9772880859375,-0.005133775528520346,-0.0022594258189201355,-0.014509700238704681
1691248243260328000,0.987327880859375,-0.004001133143901825,-0.0046480149030685425,-0.01387027557939291
1691248243270368000,0.997367919921875,-0.006705040577799082,-0.003260508179664612,-0.01636539027094841
1691248243280409000,1.0074091796875,-0.004012851044535637,-0.0015209312550723553,-0.023553529754281044
1691248243290449200,1.01744921875,-0.0038421424105763435,-0.000707868195604533,-0.02263740263879299
1691248243300489200,1.0274892578125,-0.003061836352571845,-0.00013209278404247016,-0.024173513054847717
1691248243310560000,1.03756005859375,-0.0026612968649715185,-0.0012567456578835845,-0.023860059678554535
1691248243320600000,1.04760009765625,-0.003869839245453477,0.0002031991898547858,-0.021588915959000587
1691248243330640100,1.05764013671875,-0.005286374595016241,-0.003766508772969246,-0.018441058695316315
1691248243340681000,1.067680908203125,-0.005604356061667204,-0.0031462584156543016,-0.017234914004802704
1691248243350721000,1.077720947265625,-0.004697815980762243,-0.00458622956648469,-0.01497894898056984
1691248243360761000,1.087760986328125,-0.00455666845664382,-0.003692472819238901,-0.01570519432425499
1691248243370802200,1.09780224609375,-0.004166781902313232,-0.0029435919132083654,-0.018143316730856895
1691248243380842000,1.107842041015625,-0.0016080166678875685,-0.0006745787104591727,-0.02148185670375824
1691248243390882000,1.117882080078125,-0.003565173828974366,-0.0010719223646447062,-0.023634489625692368
1691248243400922000,1.127922119140625,-0.003522563260048628,0.001321194227784872,-0.022879216820001602
1691248243410963000,1.137962890625,-0.0026351979468017817,0.0003275688213761896,-0.022968964651226997
1691248243421003000,1.1480029296875,-0.005636846646666527,-0.0022679478861391544,-0.020677847787737846
1691248243431043000,1.15804296875,-0.003319630166515708,-0.0020519655663520098,-0.0169688630849123
1691248243441114000,1.168114013671875,-0.003810983384028077,-0.0027454528026282787,-0.01661599427461624
1691248243451154000,1.17815380859375,-0.0041614556685090065,-0.0032778186723589897,-0.016866864636540413
1691248243461195000,1.188195068359375,-0.0041273669339716434,-0.0035923379473388195,-0.019241871312260628
1691248243471235000,1.198235107421875,-0.0057281930930912495,-0.0008287757518701255,-0.0179933812469244
1691248243481275100,1.208275146484375,-0.0028703550342470407,0.00028762139845639467,-0.022834476083517075
1691248243491316000,1.21831591796875,-0.004031493328511715,0.0003225088003091514,-0.025061411783099174
1691248243501356000,1.22835595703125,-0.003984888084232807,0.00011371697473805398,-0.021332185715436935
1691248243511396000,1.23839599609375,-0.005594502668827772,-0.001216531964018941,-0.019997943192720413
1691248243521436000,1.248435791015625,-0.00427304208278656,0.0003115898580290377,-0.018682874739170074
1691248243531477000,1.25847705078125,-0.0037465349305421114,-0.002954244613647461,-0.017673535272479057
1691248243541517000,1.26851708984375,-0.006054696626961231,-0.002460228279232979,-0.01708124950528145
1691248243551557000,1.27855712890625,-0.004047472029924393,-0.0016916398890316486,-0.016711601987481117
1691248243561597200,1.28859716796875,-0.005368666257709265,-0.0007147924043238163,-0.020591294392943382
1691248243571668200,1.298668212890625,-0.004203266929835081,-0.001529453438706696,-0.01997903361916542
1691248243581709000,1.308708984375,-0.0028133634477853775,-0.00003861583536490798,-0.024032365530729294
1691248243591749000,1.3187490234375,-0.0046485476195812225,0.001249821507371962,-0.022066419944167137
1691248243601789000,1.328788818359375,-0.0046173888258636,-0.003619768423959613,-0.021397700533270836
1691248243611829000,1.3388291015625,-0.0033252229914069176,-0.001273523666895926,-0.02015027590095997
1691248243621870000,1.3488701171875,-0.00563950976356864,-0.0017100156983360648,-0.016864733770489693
1691248243631910100,1.35891015625,-0.004714594222605228,-0.002095108851790428,-0.017295099794864655
1691248243641950200,1.3689501953125,-0.0027470507193356752,0.010890197940170765,0.013908358290791512
1691248243651991000,1.378990966796875,-0.01438106968998909,0.052433114498853683,0.030597057193517685
1691248243662031000,1.389031005859375,-0.019059445708990097,0.09022044390439987,0.07780851423740387
1691248243672071000,1.39907080078125,-0.025847842916846275,0.11033369600772858,0.10557542741298676
1691248243682111000,1.409111083984375,-0.03111930377781391,0.09675290435552597,0.10837361216545105
1691248243692152000,1.419152099609375,-0.025678198784589767,0.06699341535568237,0.08578920364379883
1691248243702222000,1.42922216796875,-0.010615626350045204,0.039628636091947556,0.00466532539576292
1691248243712263200,1.43926318359375,-0.006537261418998241,-0.016413327306509018,-0.059184227138757706
1691248243722303200,1.44930322265625,-0.010173807851970196,-0.09246974438428879,-0.11415533721446991
1691248243732343300,1.45934326171875,-0.00987153872847557,-0.1630014330148697,-0.13762018084526062
1691248243742384000,1.469384033203125,-0.00006578007742064074,-0.18858270347118378,-0.16945454478263855
1691248243752424000,1.479423828125,0.018459700047969818,-0.16283339262008667,-0.1788666844367981
1691248243762464000,1.489464111328125,0.03879480063915253,-0.09107504785060883,-0.14775989949703217
1691248243772504000,1.499504150390625,0.04472006857395172,0.0049220542423427105,-0.10791048407554626
1691248243782545200,1.509545166015625,0.03050198219716549,0.0807981789112091,-0.059599146246910095
1691248243792585200,1.519585205078125,0.012522183358669281,0.10658183693885803,-0.010794324800372124
1691248243802625300,1.529625244140625,-0.008012652397155762,0.09118743240833282,0.019402991980314255
1691248243812666000,1.539666015625,-0.031134217977523804,0.04640744626522064,0.04632622003555298
1691248243822706000,1.549705810546875,-0.04242522269487381,-0.010348510928452015,0.056954097002744675
1691248243832777000,1.55977685546875,-0.03555826097726822,-0.048521995544433594,0.055145543068647385
1691248243842817000,1.569817138671875,-0.017648501321673393,-0.05860472470521927,0.03778919205069542
1691248243852857000,1.579857177734375,0.0016596820205450058,-0.050935618579387665,0.016884706914424896
1691248243862898200,1.589898193359375,0.00945129245519638,-0.030230872333049774,-0.006958307232707739
1691248243872938200,1.599938232421875,0.006589459255337715,-0.004890096373856068,-0.03299097344279289
1691248243882978000,1.60997802734375,0.0013177321525290608,0.02251090109348297,-0.05307280644774437
1691248243893018000,1.62001806640625,-0.006551376078277826,0.032529979944229126,-0.06180717423558235
1691248243903059000,1.630058837890625,-0.00714712543413043,0.028114991262555122,-0.05814746022224426
1691248243913099000,1.64009912109375,-0.002710299100726843,0.016088955104351044,-0.049738794565200806
1691248243923139000,1.65013916015625,-0.0041002025827765465,0.0008290420519188046,-0.029993584379553795
1691248243933168000,1.660168212890625,-0.0032418658956885338,-0.012777580879628658,-0.013345099985599518
1691248243943208200,1.670208251953125,-0.003849332919344306,-0.01570785604417324,0.004400607198476791
1691248243953279200,1.680279296875,-0.005486910697072744,-0.014988004229962826,0.010044910944998264
1691248243963319300,1.6903193359375,-0.00965688843280077,-0.009192166849970818,0.004049869254231453
1691248243973359000,1.700359130859375,-0.010100305080413818,-0.0020754013676196337,-0.006800648290663958
1691248243983399200,1.710399169921875,-0.0049825082533061504,0.0047849016264081,-0.023364445194602013
1691248243993440300,1.720440185546875,-0.002386458683758974,0.00643845833837986,-0.03560939431190491
1691248244003480300,1.730480224609375,0.00022317290131468326,0.0031286815647035837,-0.0453653521835804
1691248244013520100,1.74052001953125,-0.0012926984345540404,0.002686596941202879,-0.04027312248945236
1691248244023561200,1.750561279296875,-0.004232561681419611,0.003296727081760764,-0.02779354713857174
1691248244033601300,1.760601318359375,-0.006226737052202225,-0.00023542344570159912,-0.017167801037430763
1691248244043641000,1.77064111328125,-0.007528756279498339,-0.005917810369282961,-0.0032115059439092875
1691248244053681200,1.78068115234375,-0.0070523167960345745,-0.009728793986141682,-0.0013158678775653243
1691248244063722200,1.79072216796875,-0.005126318894326687,-0.009983125142753124,-0.0014064153656363487
1691248244073762300,1.80076220703125,-0.005583317019045353,-0.008959139697253704,-0.012868660502135754
1691248244083833300,1.810833251953125,-0.00276196445338428,0.00003222424857085571,-0.022836873307824135
1691248244093873200,1.820873046875,-0.003916178364306688,0.005234443116933107,-0.029893983155488968
1691248244103913200,1.830913330078125,-0.0029057750944048166,0.008540757931768894,-0.03539500758051872
1691248244113954300,1.840954345703125,-0.0032650355715304613,0.005091165192425251,-0.03206552565097809
1691248244123994000,1.850994140625,-0.002835467690601945,0.0009451558580622077,-0.02822657860815525
1691248244134034200,1.8610341796875,-0.002630670554935932,-0.001936917076818645,-0.01570039987564087
1691248244144075300,1.8710751953125,-0.006698648910969496,-0.006666957400739193,-0.007508782669901848
1691248244154115300,1.881115234375,-0.0057497648522257805,-0.006451241206377745,-0.006655772216618061
1691248244164155100,1.891155029296875,-0.007570301648229361,-0.004776113200932741,-0.006672549992799759
1691248244174195200,1.9011953125,-0.007640875410288572,-0.00436145905405283,-0.01607537269592285
1691248244184236300,1.911236328125,-0.0034591800067573786,-0.00008655273268232122,-0.023680029436945915
1691248244194276000,1.921276123046875,-0.0029965888243168592,0.0012681973166763783,-0.03142663091421127
1691248244204316200,1.931316162109375,-0.0006407565670087934,0.0022301310673356056,-0.03254329413175583
1691248244214387200,1.94138720703125,-0.0030269487760961056,0.0023704797495156527,-0.028919266536831856
1691248244224427300,1.95142724609375,-0.0036479979753494263,-0.00004846953015658073,-0.021860292181372643
1691248244234468000,1.961468017578125,-0.006361226551234722,-0.0030450583435595036,-0.015379488468170166
1691248244244508200,1.971508056640625,-0.005675995256751776,-0.005723399575799704,-0.010713097639381886
1691248244254548200,1.98154833984375,-0.005434979218989611,-0.007084807381033897,-0.007657120935618877
1691248244264588000,1.991588134765625,-0.0037923413328826427,-0.0057439059019088745,-0.012790096923708916
1691248244274629000,2.001629150390625,-0.005272792652249336,-0.003175287041813135,-0.01649002730846405
1691248244284669200,2.011669189453125,-0.004310592543333769,-0.000012250540748937055,-0.024929052218794823
1691248244294709200,2.021709228515625,-0.00458836043253541,0.0026144252624362707,-0.029405824840068817
1691248244304750000,2.03175,-0.0028855351265519857,0.002704173792153597,-0.030722226947546005
1691248244314790100,2.0417900390625,-0.003724697045981884,-0.0001227717293659225,-0.026254773139953613
1691248244324830200,2.051830322265625,-0.0057167415507137775,-0.004049336537718773,-0.019244268536567688
1691248244334870000,2.0618701171875,-0.005252019967883825,-0.006081860978156328,-0.013560550287365913
1691248244344941000,2.071941162109375,-0.007471764925867319,-0.005204349290579557,-0.010586864314973354
1691248244354981000,2.081981201171875,-0.006706372369080782,-0.005274390336126089,-0.010331200435757637
1691248244365022200,2.092022216796875,-0.003983556292951107,-0.004345479886978865,-0.015119032002985477
1691248244375062300,2.102062255859375,-0.0038360171020030975,-0.001175519311800599,-0.020566260442137718
1691248244385102300,2.112102294921875,-0.0031380027066916227,-0.001531850197352469,-0.02749713882803917
1691248244395143200,2.12214306640625,-0.0033214944414794445,0.0012343751732259989,-0.02792084775865078
1691248244405183200,2.132183349609375,-0.003477289341390133,0.002368615474551916,-0.028139226138591766
1691248244415223000,2.14222314453125,-0.005120726302266121,0.0011110707418993115,-0.022775353863835335
1691248244425263000,2.15226318359375,-0.004986769054085016,-0.0010700580896809697,-0.018979815766215324
1691248244435304200,2.16230419921875,-0.0031260184478014708,-0.003335076617076993,-0.014272945001721382
1691248244445344300,2.17234423828125,-0.00598545465618372,-0.0070280819199979305,-0.011806858703494072
1691248244455384300,2.18238427734375,-0.005060272291302681,-0.005690376274287701,-0.013583187013864517
1691248244465425200,2.192425048828125,-0.004661863669753075,-0.0036970002111047506,-0.016701482236385345
1691248244475495200,2.2024951171875,-0.0034194989129900932,0.002469815546646714,-0.024419056251645088
1691248244485536000,2.212535888671875,-0.0043835630640387535,0.0008096009842120111,-0.024998294189572334
1691248244495576000,2.222576171875,-0.0031353395897895098,0.003138535423204303,-0.029411684721708298
1691248244505616100,2.2326162109375,-0.002609365154057741,-0.001812014845199883,-0.025102689862251282
1691248244515657200,2.2426572265625,-0.005572131834924221,-0.00350418733432889,-0.021464012563228607
1691248244525697300,2.252697265625,-0.0030828751623630524,-0.003181145992130041,-0.013514476828277111
1691248244535737300,2.2627373046875,-0.004728975240141153,-0.00660650385543704,-0.013104350306093693
1691248244545777400,2.27277734375,-0.007764446083456278,-0.0039049931801855564,-0.028850024566054344
1691248244555818200,2.282818359375,-0.004285026341676712,-0.002162486780434847,-0.016817862167954445
1691248244565858000,2.292858154296875,-0.00279019377194345,0.00449994346126914,-0.030900923535227776
1691248244575898000,2.302898193359375,-0.0015164038632065058,0.002429601736366749,-0.011480887420475483
1691248244585939200,2.312939208984375,-0.005744970869272947,-0.0017150756902992725,-0.022652581334114075
1691248244595979300,2.322979248046875,-0.0065287393517792225,-0.004010454285889864,-0.013784521259367466
1691248244606050300,2.33305029296875,-0.005788380745798349,-0.00401657959446311,-0.014119015075266361
1691248244616090400,2.34309033203125,-0.00370179396122694,-0.003585147438570857,-0.017768343910574913
1691248244626130200,2.353130126953125,-0.0020535634830594063,-0.0027869981713593006,-0.015806926414370537
1691248244636170200,2.363170166015625,-0.004449076950550079,0.0011728560784831643,-0.026390595361590385
1691248244646211000,2.373211181640625,-0.004869057331234217,-0.0005408879951573908,-0.022823024541139603
1691248244656251100,2.383251220703125,-0.006373210810124874,-0.003698598127812147,-0.02598952315747738
1691248244666291200,2.393291259765625,-0.004886367823928595,-0.0008527441532351077,-0.02406991645693779
1691248244676332300,2.403332275390625,-0.003087668912485242,-0.003739610780030489,-0.018011225387454033
1691248244686372400,2.413372314453125,-0.0035055188927799463,-0.0009917612187564373,-0.017580857500433922
1691248244696412200,2.423412109375,-0.007503989152610302,-0.0032197616528719664,-0.014220747165381908
1691248244706452200,2.4334521484375,-0.006025401875376701,-0.004221909213811159,-0.01637311466038227
1691248244716493000,2.4434931640625,-0.004552940372377634,-0.00042983421008102596,-0.017519870772957802
1691248244726533000,2.453533203125,-0.002694586291909218,-0.002612028270959854,-0.021732991561293602
1691248244736604200,2.463604248046875,-0.0022359900176525116,0.00021438446128740907,-0.021090637892484665
1691248244746644200,2.473644287109375,-0.003686081152409315,-0.0024980450980365276,-0.024118652567267418
1691248244756684300,2.483684326171875,-0.004458131734281778,-0.0010761833982542157,-0.023735955357551575
1691248244766725400,2.493725341796875,-0.004461327567696571,0.00004207794336252846,-0.021456822752952576
1691248244776765200,2.50376513671875,-0.004689560271799564,-0.001577123999595642,-0.018341191112995148
1691248244786805200,2.51380517578125,-0.003849332919344306,-0.00433109886944294,-0.016566192731261253
1691248244796846000,2.52384619140625,-0.005338306538760662,-0.0043840957805514336,-0.016598951071500778
1691248244806886100,2.53388623046875,-0.005396629683673382,-0.0044165863655507565,-0.017532654106616974
1691248244816926200,2.54392626953125,-0.004861867055296898,-0.0019680759869515896,-0.018989136442542076
1691248244826966300,2.55396630859375,-0.004139351192861795,0.00008388957212446257,-0.018379272893071175
1691248244837007400,2.56400732421875,-0.003878894029185176,0.0015994944842532277,-0.023136744275689125
1691248244847047200,2.574047119140625,-0.00504136411473155,-0.0016849819803610444,-0.02197027951478958
1691248244857118200,2.5841181640625,-0.006556968670338392,-0.002835201332345605,-0.022907979786396027
1691248244867158300,2.594158203125,-0.005253884010016918,-0.0041097900830209255,-0.020852550864219666
1691248244877198300,2.6041982421875,-0.003828826593235135,-0.0024719461798667908,-0.017671670764684677
1691248244887239200,2.6142392578125,-0.003606186481192708,-0.0037675739731639624,-0.017002152279019356
1691248244897279200,2.624279296875,-0.003984888084232807,-0.00293400464579463,-0.01611798256635666
1691248244907319300,2.6343193359375,-0.005790244787931442,-0.002585130510851741,-0.018604043871164322
1691248244917359000,2.644359130859375,-0.005480252671986818,-0.0019092201255261898,-0.019509784877300262
1691248244927400200,2.654400146484375,-0.0036304211243987083,-0.0019329222850501537,-0.02118544653058052
1691248244937427700,2.664427734375,-0.0044171190820634365,-0.001276186783798039,-0.022183598950505257
1691248244947467800,2.6744677734375,-0.0036525253672152758,0.0005510080372914672,-0.02232048474252224
1691248244957508900,2.6845087890625,-0.004932973068207502,-0.0005853627808392048,-0.020618459209799767
1691248244967549000,2.694548828125,-0.005053347907960415,-0.0006846986943855882,-0.019337745383381844
1691248244977589000,2.704589111328125,-0.0054727960377931595,-0.0037705034483224154,-0.016353139653801918
1691248244987660000,2.714659912109375,-0.003980893176048994,-0.001788312685675919,-0.016274577006697655
1691248244997699800,2.724699951171875,-0.0031824775505810976,-0.003683418035507202,-0.0172698013484478
1691248245007740000,2.734739990234375,-0.005044293589890003,-0.000681236619129777,-0.016880180686712265
1691248245017780700,2.74478076171875,-0.0049430932849645615,-0.0013177321525290608,-0.019947875291109085
1691248245027820800,2.75482080078125,-0.003704723436385393,0.001145425601862371,-0.023511983454227448
1691248245037860900,2.76486083984375,-0.0033278861083090305,0.0014109427575021982,-0.022342324256896973
1691248245047902000,2.77490185546875,-0.004002198576927185,0.0008367652189917862,-0.021504759788513184
1691248245057942000,2.78494189453125,-0.0041129859164357185,-0.00013502225920092314,-0.021448567509651184
1691248245067981800,2.79498193359375,-0.006788397673517466,-0.004788363818079233,-0.018094316124916077
1691248245078022000,2.80502197265625,-0.005960953421890736,-0.0038091193418949842,-0.01757792755961418
1691248245088062700,2.815062744140625,-0.0041151163168251514,-0.002121474128216505,-0.015107846818864346
1691248245098102800,2.825102783203125,-0.005370264407247305,-0.0011094729416072369,-0.01859658770263195
1691248245108142800,2.835142822265625,-0.00381417921744287,-0.0024956483393907547,-0.018095646053552628
1691248245118214000,2.8452138671875,-0.005792375188320875,-0.0015150723047554493,-0.02058010920882225
1691248245128254000,2.85525390625,-0.006523945834487677,-0.002435727044939995,-0.020957212895154953
1691248245138295000,2.865294921875,-0.003929493948817253,-0.0015845808666199446,-0.021854432299733162
1691248245148334800,2.8753349609375,-0.00352868833579123,-0.005004345905035734,-0.023559121415019035
1691248245158375000,2.885375,-0.004789162427186966,-0.0030184267088770866,-0.0205707885324955
1691248245168415700,2.895415771484375,-0.002653573639690876,-0.005591573193669319,-0.019061308354139328
1691248245178455800,2.905455810546875,-0.005739378277212381,-0.003549727378413081,-0.0190192312002182
1691248245188496000,2.915495849609375,-0.004595284350216389,-0.0027483822777867317,-0.017254620790481567
1691248245198536000,2.925535888671875,-0.0037846181076020002,-0.0012665993999689817,-0.018503909930586815
1691248245208577000,2.935576904296875,-0.0027574370615184307,-0.00017230652156285942,-0.019088206812739372
1691248245218616800,2.945616943359375,-0.004180630203336477,0.00018082863243762404,-0.021926337853074074
1691248245228657000,2.955656982421875,-0.0041068606078624725,-0.0009712548344396055,-0.02123285084962845
1691248245238697700,2.96569775390625,-0.0036695697344839573,-0.0025329324416816235,-0.022584404796361923
1691248245248767700,2.975767822265625,-0.0038772961124777794,-0.0014588796766474843,-0.0217156819999218
1691248245258808800,2.985808837890625,-0.0030929953791201115,-0.00020719393796753138,-0.017042366787791252
1691248245268849000,2.995848876953125,-0.005301554687321186,-0.0022024342324584723,-0.016474580392241478
1691248245278889000,3.005888916015625,-0.004679706413298845,-0.0010066748363897204,-0.017661284655332565
1691248245288928800,3.0159287109375,-0.00433163158595562,-0.0018660769565030932,-0.01722026616334915
1691248245298969900,3.025969970703125,-0.00398728484287858,-0.0024684839881956577,-0.017961157485842705
1691248245309009700,3.036009765625,-0.005314071662724018,-0.0011270497925579548,-0.0211846474558115
1691248245319049700,3.0460498046875,-0.00458702864125371,-0.00013795174891129136,-0.02153325453400612
1691248245329090800,3.0560908203125,-0.004262655507773161,-0.002290052128955722,-0.022425148636102676
1691248245339131000,3.066130859375,-0.005173456855118275,-0.0009736517095007002,-0.020383834838867188
1691248245349171000,3.0761708984375,-0.0052024852484464645,-0.00115394766908139,-0.02016172744333744
1691248245359210800,3.086210693359375,-0.00421418622136116,-0.0019827233627438545,-0.01768392138183117
1691248245369251800,3.096251953125,-0.004837099462747574,-0.0024503744207322598,-0.016713466495275497
1691248245379323000,3.106322998046875,-0.005640575196594,-0.0029672940727323294,-0.017648234963417053
1691248245389362700,3.11636279296875,-0.0028807413764297962,-0.0022032330743968487,-0.017135044559836388
1691248245399402800,3.12640283203125,-0.0032293491531163454,-0.003043993143364787,-0.02033323422074318
1691248245409442800,3.13644287109375,-0.005379052832722664,-0.0011137339752167463,-0.019947076216340065
1691248245419484000,3.14648388671875,-0.0031403994653373957,-0.0016082830261439085,-0.02021206170320511
1691248245429524000,3.15652392578125,-0.00509888818487525,-0.0024668860714882612,-0.02021339163184166
1691248245439563800,3.166563720703125,-0.003991279285401106,-0.0028706213925033808,-0.019511116668581963
1691248245449604900,3.17660498046875,-0.003165166825056076,-0.002293780678883195,-0.017916949465870857
1691248245459644700,3.186644775390625,-0.004436027258634567,-0.0003680488734971732,-0.018185928463935852
1691248245469684700,3.196684814453125,-0.004513525404036045,0.0011598066193982959,-0.01727193035185337
1691248245479724800,3.206724853515625,-0.004314054735004902,-0.0032144354190677404,-0.019095662981271744
1691248245489766000,3.216765869140625,-0.005626194179058075,-0.0021283982787281275,-0.01925758458673954
1691248245499806000,3.226805908203125,-0.0041244374588131905,-0.002257561543956399,-0.019239207729697227
1691248245509876700,3.236876708984375,-0.0038986015133559704,-0.001460477476939559,-0.02292502298951149
1691248245519916800,3.246916748046875,-0.004548945464193821,-0.0024719461798667908,-0.024026505649089813
1691248245529956900,3.256956787109375,-0.004254133440554142,-0.0012860405258834362,-0.0206283126026392
1691248245539997700,3.266997802734375,-0.004192348103970289,-0.001207477180287242,-0.01781335100531578
1691248245550037800,3.277037841796875,-0.003206978552043438,-0.0016889767721295357,-0.01655607298016548
1691248245560077800,3.287077880859375,-0.004308728501200676,-0.000827177835162729,-0.01684129796922207
1691248245570117600,3.29711767578125,-0.00490181427448988,-0.001797101111151278,-0.01751774176955223
1691248245580159000,3.307158935546875,-0.006540190894156694,0.00009853696246864274,-0.019211245700716972
1691248245590198800,3.31719873046875,-0.0044232443906366825,-0.0011787151452153921,-0.02047118730843067
1691248245600238800,3.32723876953125,-0.0057407100684940815,-0.0009675264009274542,-0.02130422368645668
1691248245610279700,3.33727978515625,-0.0033598439767956734,-0.002150502521544695,-0.022000640630722046
1691248245620319700,3.34731982421875,-0.005199822131544352,-0.001327053178101778,-0.02202167920768261
1691248245630359800,3.35735986328125,-0.005018993280827999,-0.0012825783342123032,-0.020419787615537643
1691248245640430800,3.367430908203125,-0.004779042676091194,-0.0012218583142384887,-0.019637349992990494
1691248245650470700,3.377470703125,-0.0049337721429765224,-0.005877862684428692,-0.016923589631915092
1691248245660510700,3.3875107421875,-0.005360943265259266,-0.0010032127611339092,-0.018483402207493782
1691248245670551800,3.3975517578125,-0.004187288228422403,-0.002004561247304082,-0.017287909984588623
1691248245680592000,3.407591796875,-0.004703674931079149,-0.003783819265663624,-0.020265856757760048
1691248245690632000,3.4176318359375,-0.004049869254231453,-0.0003885551996063441,-0.020076505839824677
1691248245700672800,3.4276728515625,-0.005805957596749067,-0.002674079965800047,-0.01991751603782177
1691248245710712800,3.437712890625,-0.004785700235515833,-0.002929743379354477,-0.020167319104075432
1691248245720752600,3.447752685546875,-0.005407282151281834,-0.002375007141381502,-0.0211244598031044
1691248245730792700,3.457792724609375,-0.004560397006571293,0.00020213393145240843,-0.01894812472164631
1691248245740833800,3.467833740234375,-0.003993143793195486,-0.004042678512632847,-0.018517225980758667
1691248245750873900,3.477873779296875,-0.0033185649663209915,-0.0036706349346786737,-0.019710853695869446
1691248245760945000,3.48794482421875,-0.004032292403280735,0.00037816885742358863,-0.0173286572098732
1691248245770985000,3.49798486328125,-0.0043960800394415855,-0.0014002900570631027,-0.020350012928247452
1691248245781025000,3.50802490234375,-0.0031137678306549788,-0.0024469124618917704,-0.018916966393589973
1691248245791065900,3.51806591796875,-0.0044996771030128,-0.0014048174489289522,-0.019475163891911507
1691248245801105700,3.528105712890625,-0.003952663857489824,-0.0028213527984917164,-0.02033696323633194
1691248245811145700,3.538145751953125,-0.005178783088922501,-0.0003992078418377787,-0.020748155191540718
1691248245821186800,3.548186767578125,-0.003605920122936368,-0.0017073525814339519,-0.019592875614762306
1691248245831227000,3.558226806640625,-0.004041879437863827,-0.0022101574577391148,-0.01926530711352825
1691248245841267000,3.568266845703125,-0.00433109886944294,-0.001781921018846333,-0.01829698123037815
1691248245851307000,3.57830712890625,-0.0037119139451533556,-0.0029025792609900236,-0.020592626184225082
1691248245861347800,3.588347900390625,-0.0035340148024260998,-0.002990197157487273,-0.01974228024482727
1691248245871387600,3.5983876953125,-0.0030298782512545586,-0.0008250473183579743,-0.01817287877202034
1691248245881427700,3.608427734375,-0.0037473340053111315,-0.002612827345728874,-0.019469838589429855
1691248245891498800,3.618498779296875,-0.004033357370644808,-0.0020210728980600834,-0.02081899531185627
1691248245901538800,3.628538818359375,-0.003817108692601323,-0.000017843178284238093,-0.019001653417944908
1691248245911580000,3.638579833984375,-0.0032107068691402674,-0.00004021373388241045,-0.019567841663956642
1691248245921620000,3.648619873046875,-0.005528722424060106,-0.0010836402652785182,-0.0189041830599308
1691248245931660000,3.658659912109375,-0.005003014579415321,-0.0014058827655389905,-0.020790765061974525
1691248245941693200,3.668693115234375,-0.005485845264047384,-0.0024913870729506016,-0.020477045327425003
1691248245951734300,3.678734375,-0.005558283533900976,-0.0007874967413954437,-0.01912629045546055
1691248245961774300,3.6887744140625,-0.00461552431806922,-0.001683916780166328,-0.020019780844449997
1691248245971814100,3.698814208984375,-0.0025856629945337772,-0.0008767126128077507,-0.020258134230971336
1691248245981855200,3.708855224609375,-0.003938282374292612,-0.0017787253018468618,-0.019584087654948235
1691248245991895300,3.718895263671875,-0.005356681998819113,-0.0028583707753568888,-0.01942829228937626
1691248246001935400,3.728935302734375,-0.0036578518338501453,-0.00025832661776803434,-0.020389428362250328
1691248246011975200,3.73897509765625,-0.004077832214534283,-0.00213638786226511,-0.020383302122354507
1691248246022046200,3.749046142578125,-0.0031515848822891712,-0.001281779375858605,-0.019602462649345398
1691248246032087300,3.75908740234375,-0.004803543444722891,-0.0020783308427780867,-0.019720973446965218
1691248246042127000,3.769127197265625,-0.00370179396122694,0.00018642126815393567,-0.01882455311715603
1691248246052167200,3.779167236328125,-0.006485862657427788,-0.003748132847249508,-0.018270084634423256
1691248246062207200,3.789207275390625,-0.003658917034044862,-0.0027212179265916348,-0.019219767302274704
1691248246072248300,3.799248291015625,-0.004445881117135286,-0.0005627259379252791,-0.019474098458886147
1691248246082288400,3.809288330078125,-0.003909786697477102,-0.0038663772866129875,-0.02112925425171852
1691248246092328200,3.819328125,-0.0029550434555858374,-0.001972869737073779,-0.020432038232684135
1691248246102368300,3.8293681640625,-0.003780623432248831,-0.001258343574590981,-0.018800053745508194
1691248246112409300,3.839409423828125,-0.005754292011260986,-0.0036184368655085564,-0.019635220989584923
1691248246122449200,3.84944921875,-0.0055034225806593895,-0.002808569697663188,-0.021042434498667717
1691248246132489200,3.8594892578125,-0.006488792132586241,-0.0016306535108014941,-0.017764350399374962
1691248246142530300,3.8695302734375,-0.004598480183631182,-0.0026961842086166143,-0.01799631118774414
1691248246152600300,3.879600341796875,-0.0052046156488358974,-0.0020013656467199326,-0.019600333645939827
1691248246162641400,3.889641357421875,-0.0036224317736923695,-0.0016679377295076847,-0.018694858998060226
1691248246172681200,3.89968115234375,-0.004848018288612366,-0.0023039006628096104,-0.02046745829284191
1691248246182721000,3.909720947265625,-0.004515123087912798,0.00028522455249913037,-0.019833359867334366
1691248246192762000,3.91976220703125,-0.0054243262857198715,-0.0008215851848945022,-0.02009035460650921
1691248246202802200,3.92980224609375,-0.00455666845664382,-0.001392300589941442,-0.020483704283833504
1691248246212842200,3.93984228515625,-0.0041364217177033424,-0.0013978932984173298,-0.01938435062766075
1691248246222882300,3.94988232421875,-0.005682653281837702,-0.003826429834589362,-0.01786421798169613
1691248246232923400,3.95992333984375,-0.005563609767705202,-0.0009720537927933037,-0.020302075892686844
1691248246242963200,3.969963134765625,-0.0028929917607456446,-0.0007504787645302713,-0.01962057314813137
1691248246253003300,3.980003173828125,-0.004443484358489513,-0.0024048343766480684,-0.02069755457341671
1691248246263044400,3.99004443359375,-0.004082892090082169,-0.0019435749854892492,-0.0187798123806715
1691248246273084200,4.000084228515625,-0.003852262394502759,-0.001401355373673141,-0.02099849283695221
1691248246283155200,4.0101552734375,-0.003120425855740905,-0.002886333968490362,-0.02008795738220215
1691248246293195300,4.0201953125,-0.004978246986865997,-0.0033041839487850666,-0.01884159818291664
1691248246303235300,4.0302353515625,-0.004023237619549036,-0.0019973707385361195,-0.018453575670719147
1691248246313275400,4.040275390625,-0.00370072852820158,-0.0016029566759243608,-0.019650133326649666
1691248246323316200,4.050316162109375,-0.006295446306467056,-0.0030133668333292007,-0.01836382783949375
1691248246333356000,4.06035595703125,-0.0037004624027758837,-0.0013789847726002336,-0.019184080883860588
1691248246343396000,4.07039599609375,-0.0041468082927167416,0.0003043993201572448,-0.01859898492693901
1691248246353437200,4.080437255859375,-0.004345213528722525,0.0010964233661070466,-0.019390475004911423
1691248246363477200,4.090477294921875,-0.002642388455569744,-0.0020101540721952915,-0.019402991980314255
1691248246373517300,4.100517333984375,-0.0044349622912704945,-0.002930542454123497,-0.020779579877853394
1691248246383557400,4.110557373046875,-0.004506601020693779,-0.0002609897928778082,-0.018928950652480125
1691248246393598200,4.12059814453125,-0.0046325684525072575,-0.002508165081962943,-0.01907595619559288
1691248246403638300,4.13063818359375,-0.003838414093479514,-0.00166607357095927,-0.019273295998573303
1691248246413709000,4.140708984375,-0.0053553506731987,-0.0030248183757066727,-0.020066386088728905
1691248246423749000,4.1507490234375,-0.005256281234323978,-0.0036133769899606705,-0.018090320751070976
1691248246433789200,4.1607890625,-0.004028830211609602,-0.003254382871091366,-0.018573684617877007
1691248246443830300,4.170830322265625,-0.005050684791058302,-0.0032021848019212484,-0.018858643248677254
1691248246453870300,4.180870361328125,-0.004326571244746447,-0.0015448997728526592,-0.019514845684170723
1691248246463910400,4.190910400390625,-0.0041822283528745174,-0.0022098910994827747,-0.020548151805996895
1691248246473951200,4.200951171875,-0.004649613052606583,-0.001728924224153161,-0.020679712295532227
1691248246483991000,4.210990966796875,-0.0041100564412772655,0.0003025351034011692,-0.021156683564186096
1691248246494031000,4.221031005859375,-0.005178516730666161,-0.0009187905816361308,-0.020688500255346298
1691248246504071200,4.2310712890625,-0.005061870440840721,-0.002466353354975581,-0.02069995179772377
1691248246514112300,4.2411123046875,-0.004857073072344065,-0.002603772561997175,-0.02051938883960247
1691248246524152300,4.25115234375,-0.005137504078447819,-0.003311108099296689,-0.01792600378394127
1691248246534192400,4.2611923828125,-0.00526666734367609,-0.00024048343766480684,-0.02027837373316288
1691248246544263400,4.271263427734375,-0.005255482159554958,-0.00043888893560506403,-0.019651997834444046
1691248246554303200,4.28130322265625,-0.004444282967597246,-0.001276453142054379,-0.018923889845609665
1691248246564344000,4.291343994140625,-0.005341768264770508,-0.002746251644566655,-0.019947342574596405
1691248246574384000,4.301384033203125,-0.0049369679763913155,0.0008138620178215206,-0.019579026848077774
1691248246584424200,4.311424072265625,-0.004698082339018583,-0.0015787219163030386,-0.01733451522886753
1691248246594464300,4.32146435546875,-0.005135905928909779,-0.001725728390738368,-0.01877501979470253
1691248246604505300,4.33150537109375,-0.0038069887086749077,-0.0006293049664236605,-0.020724719390273094
1691248246614545400,4.34154541015625,-0.004806472919881344,-0.0023491743486374617,-0.01822454296052456
1691248246624585200,4.351585205078125,-0.004442152567207813,-0.0030192257836461067,-0.019760388880968094
1691248246634626000,4.3616259765625,-0.004258661065250635,-0.000853809411637485,-0.020144149661064148
1691248246644666000,4.371666015625,-0.004569185432046652,-0.00011638013529591262,-0.02022537589073181
1691248246654706200,4.3817060546875,-0.002808036981150508,-0.0011819108622148633,-0.020052270963788033
1691248246664777200,4.391777099609375,-0.0032828785479068756,0.00008149272616719827,-0.020108196884393692
1691248246674817300,4.4018173828125,-0.003994208760559559,-0.002659166231751442,-0.018870893865823746
1691248246684858400,4.4118583984375,-0.0035238948184996843,-0.0005853627808392048,-0.020674385130405426
1691248246694898200,4.421898193359375,-0.004478105343878269,-0.0023704797495156527,-0.02082112617790699
1691248246704938200,4.431938232421875,-0.005245894659310579,-0.002624012529850006,-0.02082538604736328
1691248246714978300,4.441978271484375,-0.003308178624138236,-0.0011805793037638068,-0.02154443971812725
1691248246725019100,4.45201904296875,-0.004484497010707855,-0.0008695221040397882,-0.01884346269071102
1691248246735059200,4.46205908203125,-0.0034642398823052645,-0.0024887239560484886,-0.02027357928454876
1691248246745099300,4.472099365234375,-0.004211256746202707,-0.00387383415363729,-0.01906956546008587
1691248246755139300,4.482139404296875,-0.004764395300298929,-0.002039981307461858,-0.019270900636911392
1691248246765180400,4.492180419921875,-0.004005128052085638,-0.003200853243470192,-0.02111407369375229
1691248246775220200,4.50222021484375,-0.003703924361616373,-0.0023758059833198786,-0.02056972309947014
1691248246785260300,4.51226025390625,-0.004904743749648333,-0.0026165556628257036,-0.01937316544353962
1691248246795331300,4.522331298828125,-0.004504470620304346,-0.0002103897277265787,-0.01974387653172016
1691248246805371400,4.532371337890625,-0.0057281930930912495,-0.0026636936236172915,-0.018339060246944427
1691248246815412200,4.542412109375,-0.004159058444201946,-0.0007590008899569511,-0.021633656695485115
1691248246825452300,4.552452392578125,-0.0040948763489723206,-0.0015068164793774486,-0.020424582064151764
1691248246835492000,4.5624921875,-0.0038242992013692856,-0.0021672805305570364,-0.019268237054347992
1691248246845533200,4.572533203125,-0.004938033409416676,-0.002014681464061141,-0.017837319523096085
1691248246855573200,4.5825732421875,-0.005107143893837929,-0.0018519621808081865,-0.020375313237309456
1691248246865613300,4.59261328125,-0.006588394287973642,-0.003186738584190607,-0.0214802585542202
1691248246875653400,4.6026533203125,-0.0034961977507919073,-0.0016178702935576439,-0.01793239451944828
1691248246885694200,4.612694091796875,-0.003680488560348749,-0.0020996362436562777,-0.01936810463666916
1691248246895734300,4.622734375,-0.005146026145666838,-0.0017073525814339519,-0.018387263640761375
1691248246905774300,4.6327744140625,-0.004825115203857422,-0.0025481125339865685,-0.018741730600595474
1691248246915815400,4.6428154296875,-0.004049869254231453,-0.00036724991514347494,-0.020376112312078476
1691248246925885200,4.65288525390625,-0.004729241598397493,-0.0025121597573161125,-0.019038937985897064
1691248246935947800,4.66294775390625,-0.0057710702531039715,-0.0009835053933784366,-0.020316457375884056
1691248246945987600,4.672987548828125,-0.00384427304379642,-0.0037555897142738104,-0.020428042858839035
1691248246956027400,4.68302734375,-0.005691708065569401,-0.0027515781112015247,-0.018763834610581398
1691248246966067500,4.6930673828125,-0.003822701284661889,-0.0027595674619078636,-0.01925119198858738
1691248246976108500,4.703108642578125,-0.004848284646868706,-0.0036674391012638807,-0.02022084966301918
1691248246986148600,4.713148681640625,-0.0041529336012899876,-0.0033686324022710323,-0.0201026052236557
1691248246996188700,4.723188720703125,-0.004602475091814995,-0.0028783443849533796,-0.020562000572681427
1691248247006229800,4.733229736328125,-0.0046331011690199375,-0.0024791366886347532,-0.019332684576511383
1691248247016269600,4.74326953125,-0.0034562505315989256,-0.0012189288390800357,-0.020078103989362717
1691248247026309400,4.753309326171875,-0.003290601773187518,-0.0017150756902992725,-0.018819494172930717
1691248247036349400,4.763349365234375,-0.004803809802979231,-0.0008333030855283141,-0.019449863582849503
1691248247046390500,4.773390625,-0.003950266633182764,-0.002520149340853095,-0.019450929015874863
1691248247056461600,4.783461669921875,-0.004680505488067865,-0.002797118155285716,-0.021820344030857086
1691248247066501600,4.793501708984375,-0.003853327827528119,-0.0019241338595747948,-0.02154710330069065
1691248247076541700,4.803541748046875,-0.004526575095951557,-0.002805906580761075,-0.017584053799510002
1691248247086581500,4.81358154296875,-0.004561728797852993,-0.0034671693574637175,-0.01992364041507244
1691248247096622600,4.82362255859375,-0.004005394410341978,-0.0038637141697108746,-0.018172612413764
1691248247106662400,4.833662353515625,-0.004990763962268829,-0.001981658162549138,-0.02064775489270687
1691248247116702500,4.843702392578125,-0.005782521795481443,-0.0025957829784601927,-0.020532172173261642
1691248247126743600,4.85374365234375,-0.005250688176602125,-0.002353435382246971,-0.019054118543863297
1691248247136783600,4.86378369140625,-0.006696252152323723,-0.0021369203459471464,-0.020771590992808342
1691248247146823700,4.87382373046875,-0.0039880839176476,-0.0026285399217158556,-0.019816314801573753
1691248247156863700,4.88386376953125,-0.004339088220149279,-0.0007837683078832924,-0.020658673718571663
1691248247166904600,4.893904541015625,-0.004640558268874884,-0.0027473168447613716,-0.0180000402033329
1691248247176944400,4.9039443359375,-0.003922570031136274,0.0000756337758502923,-0.017827732488512993
1691248247187015400,4.914015380859375,-0.003626160090789199,-0.002656503114849329,-0.01955239661037922
1691248247197055500,4.924055419921875,-0.0027419906109571457,-0.0021489046048372984,-0.019457854330539703
1691248247207095600,4.934095458984375,-0.003856257302686572,0.0013171994360163808,-0.018916433677077293
1691248247217136600,4.94413671875,-0.004320712294429541,-0.00242081331089139,-0.019830429926514626
1691248247227176700,4.9541767578125,-0.0030250847339630127,-0.005371595732867718,-0.017766745761036873
1691248247237216500,4.964216552734375,-0.005446697119623423,-0.001371794263832271,-0.019357452169060707
1691248247247256600,4.974256591796875,-0.005452289711683989,-0.002642122097313404,-0.01908234879374504
1691248247257297400,4.98429736328125,-0.005291967187076807,-0.0011941614793613553,-0.02044881507754326
1691248247267337500,4.99433740234375,-0.005593703594058752,-0.0026343988720327616,-0.020773455500602722
1691248247277377500,5.00437744140625,-0.004227501805871725,-0.0024836640805006027,-0.019220300018787384
1691248247287418600,5.014418701171875,-0.004531368613243103,-0.001973402453586459,-0.0178770013153553
1691248247297458700,5.024458740234375,-0.0046211169101297855,-0.002120941411703825,-0.020115921273827553
1691248247307498800,5.034498779296875,-0.005515406373888254,-0.001597896683961153,-0.020417124032974243
1691248247317569500,5.044569580078125,-0.004573978949338198,-0.0012202603975310922,-0.017682325094938278
1691248247327609600,5.054609619140625,-0.004512193612754345,-0.0017323862994089723,-0.01900484971702099
1691248247337650400,5.064650390625,-0.004225105047225952,-0.0016682040877640247,-0.019724968820810318
1691248247347690500,5.0746904296875,-0.0041252365335822105,-0.0012719257501885295,-0.019574500620365143
1691248247357730600,5.08473046875,-0.003869839245453477,-0.0008498146780766547,-0.020112458616495132
1691248247367770600,5.0947705078125,-0.005464540328830481,-0.0016671388875693083,-0.01960832253098488
1691248247377811700,5.104811767578125,-0.005619269795715809,-0.0025398568250238895,-0.020922591909766197
1691248247387851500,5.1148515625,-0.005185973364859819,-0.0037260286044329405,-0.017948107793927193
1691248247397891600,5.1248916015625,-0.00398728484287858,-0.0038360171020030975,-0.021584920585155487
1691248247407931600,5.134931640625,-0.00577799417078495,-0.000847950461320579,-0.02016066201031208
1691248247417972500,5.144972412109375,-0.0036426717415452003,-0.0020487697329372168,-0.019286079332232475
1691248247428012500,5.155012451171875,-0.003984089009463787,0.0002687129599507898,-0.019120430573821068
1691248247438052600,5.165052490234375,-0.005163869354873896,-0.0006000102148391306,-0.018493790179491043
1691248247448123600,5.17512353515625,-0.005133242812007666,-0.0021174794528633356,-0.01998169720172882
1691248247458163500,5.18516357421875,-0.0041374871507287025,-0.0022418489679694176,-0.022710105404257774
1691248247468204500,5.19520458984375,-0.003963849041610956,-0.0021979068405926228,-0.019716713577508926
1691248247478244600,5.20524462890625,-0.0038575888611376286,-0.0029856697656214237,-0.01948421820998192
1691248247488284700,5.21528466796875,-0.005017661955207586,-0.003882888937368989,-0.019820842891931534
1691248247498325500,5.225325439453125,-0.004758269991725683,-0.0023760723415762186,-0.019180618226528168
1691248247508365600,5.235365478515625,-0.003356115659698844,-0.0027382622938603163,-0.019962789490818977
1691248247518405600,5.245405517578125,-0.005044559482485056,-0.0023334617726504803,-0.01709722727537155
1691248247528445400,5.255445556640625,-0.0049034119583666325,-0.0013424995122477412,-0.017172062769532204
1691248247538486500,5.265486572265625,-0.005648298189043999,-0.0008333030855283141,-0.021759090945124626
1691248247548526600,5.275526611328125,-0.0038250982761383057,-0.0028818065766245127,-0.02039848268032074
1691248247558566700,5.285566650390625,-0.004565190523862839,-0.003257312346249819,-0.020605675876140594
1691248247568637700,5.2956376953125,-0.003910053055733442,-0.00022610237647313625,-0.01859818585216999
1691248247578677800,5.305677734375,-0.0029001825023442507,-0.0008855010382831097,-0.019787287339568138
1691248247588718600,5.315718505859375,-0.0026098978705704212,-0.0022357236593961716,-0.019905798137187958
1691248247598758700,5.325758544921875,-0.0037404096219688654,-0.004141747951507568,-0.01906423829495907
1691248247608798500,5.335798583984375,-0.002794188680127263,-0.0018008295446634293,-0.020687168464064598
1691248247618838500,5.345838623046875,-0.0048948898911476135,-0.0009414274245500565,-0.020832045003771782
1691248247628879600,5.355879638671875,-0.0037803570739924908,0.00018801917030941695,-0.020001936703920364
1691248247638919700,5.365919677734375,-0.003933222498744726,-0.001421861699782312,-0.020057331770658493
1691248247648959700,5.375959716796875,-0.0037324202712625265,-0.0015385081060230732,-0.017776601016521454
1691248247659000600,5.38600048828125,-0.004308728501200676,-0.00245117349550128,-0.019964920356869698
1691248247669040600,5.39604052734375,-0.003896737238392234,-0.002017344580963254,-0.020853882655501366
1691248247679080400,5.40608056640625,-0.003409378696233034,0.0002743055811151862,-0.020236827433109283
1691248247689120500,5.41612060546875,-0.004333229269832373,-0.001344630029052496,-0.020782776176929474
1691248247699191600,5.426191650390625,-0.003997138235718012,0.000883636821527034,-0.020614996552467346
1691248247709232600,5.436232666015625,-0.004847219679504633,-0.005287972744554281,-0.020181700587272644
1691248247719272700,5.446272705078125,-0.004196076653897762,-0.0017571536591276526,-0.019650932401418686
1691248247729312800,5.456312744140625,-0.004433630499988794,-0.00018508969515096396,-0.019453059881925583
1691248247739352600,5.4663525390625,-0.004253068007528782,-0.0014452975010499358,-0.020299412310123444
1691248247749393400,5.476393310546875,-0.002653839997947216,-0.0008199872681871057,-0.019413111731410027
1691248247759433500,5.48643359375,-0.005000085104256868,-0.00011638013529591262,-0.02027038484811783
1691248247769473500,5.4964736328125,-0.003026682650670409,-0.0010905644157901406,-0.01956464722752571
1691248247779514600,5.5065146484375,-0.00461658975109458,-0.003038134193047881,-0.019708190113306046
1691248247789554700,5.5165546875,-0.004502340219914913,-0.0034269557800143957,-0.019170498475432396
1691248247799594800,5.5265947265625,-0.004345479886978865,-0.000023435817638528533,-0.018213357776403427
1691248247809634600,5.536634521484375,-0.004768922459334135,-0.001540638622827828,-0.01901869848370552
1691248247819675600,5.546675537109375,-0.0049287122674286366,-0.002679672557860613,-0.01956384815275669
1691248247829745400,5.556745361328125,-0.00455613574013114,-0.002680737990885973,-0.019408319145441055
1691248247839786500,5.566786376953125,-0.004601942375302315,-0.0008815063047222793,-0.01811295747756958
1691248247849826600,5.57682666015625,-0.005804359447211027,-0.0017837852938100696,-0.018813101574778557
1691248247859866600,5.58686669921875,-0.0037563887890428305,-0.0002817624481394887,-0.019336147233843803
1691248247869907700,5.59690771484375,-0.00495081627741456,-0.00023675501870457083,-0.01942696049809456
1691248247879947800,5.60694775390625,-0.00566933723166585,-0.0018250643042847514,-0.01877075806260109
1691248247889987600,5.616987548828125,-0.004080495331436396,-0.001344363670796156,-0.018882345408201218
1691248247900027400,5.62702734375,-0.004523379262536764,-0.003313771216198802,-0.017892980948090553
1691248247910068500,5.637068359375,-0.004722849931567907,-0.002828276949003339,-0.02137026935815811
1691248247920108500,5.647108642578125,-0.004314054735004902,-0.0016048208344727755,-0.01920006051659584
1691248247930148600,5.657148681640625,-0.0026943201664835215,-0.0027079021092504263,-0.019529493525624275
1691248247940169500,5.66716943359375,-0.004731904715299606,-0.001972603378817439,-0.020126041024923325
1691248247950209500,5.67720947265625,-0.004323908127844334,-0.0016223976854234934,-0.017733722925186157
1691248247960280600,5.687280517578125,-0.0034314829390496016,-0.0036330842413008213,-0.018941733986139297
1691248247970320400,5.6973203125,-0.005452556069940329,-0.0004721784498542547,-0.023023827001452446
1691248247980360400,5.7073603515625,-0.004849350079894066,-0.00035473305615596473,-0.020613664761185646
1691248247990401500,5.717401611328125,0.157688170671463,-0.06576117128133774,0.06346525996923447
1691248248000441600,5.727441650390625,0.41723185777664185,0.21339057385921478,-0.14726242423057556
1691248248010481700,5.737481689453125,0.643918514251709,0.24752244353294373,-0.08742278814315796
1691248248020521700,5.747521728515625,0.8809776902198792,0.20158983767032623,-0.1376103311777115
1691248248030562600,5.7575625,1.1087617874145508,0.14240401983261108,-0.08887820690870285
1691248248040602600,5.7676025390625,1.3057430982589722,0.0817481279373169,-0.055743422359228134
1691248248050642400,5.777642333984375,1.5102016925811768,0.02371624857187271,-0.021672537550330162
1691248248060682500,5.7876826171875,1.7331939935684204,-0.02148851379752159,0.025302426889538765
1691248248070723600,5.7977236328125,1.931215763092041,-0.06371559947729111,0.04099031165242195
1691248248080763600,5.807763671875,2.030804395675659,-0.10947802662849426,0.07706868648529053
1691248248090834700,5.817834716796875,2.1738486289978027,-0.16276948153972626,-0.10102248936891556
1691248248100874800,5.827874755859375,2.3944005966186523,-0.004802212119102478,0.02323208563029766
1691248248110914600,5.83791455078125,2.592921495437622,0.015474297106266022,0.01022973470389843
1691248248120955400,5.847955322265625,2.7891640663146973,0.11701157689094543,-0.04031546413898468
1691248248130995500,5.857995361328125,3.001089334487915,0.030709976330399513,-0.002945456188172102
1691248248141035500,5.868035400390625,3.1755313873291016,0.1557975858449936,0.02611655555665493
1691248248151076600,5.87807666015625,3.3299331665039062,0.14070890843868256,-0.05578390508890152
1691248248161116700,5.88811669921875,3.560725688934326,0.05375510826706886,-0.05826010927557945
1691248248171156700,5.89815673828125,3.767970323562622,0.03127909451723099,0.09584583342075348
1691248248181196800,5.90819677734375,3.9993736743927,-0.017722005024552345,-0.06967148929834366
1691248248191237600,5.918237548828125,4.1243977546691895,-0.07447104156017303,0.06605464965105057
1691248248201277400,5.92827734375,4.315951824188232,-0.0730702131986618,-0.05787980929017067
1691248248211317500,5.9383173828125,4.515519618988037,-0.04977314919233322,0.037874676287174225
1691248248221388500,5.948388427734375,4.718017578125,0.014667092822492123,-0.014451110735535622
1691248248231428600,5.9584287109375,4.869693279266357,0.07975900918245316,-0.11599185317754745
1691248248241469700,5.9684697265625,5.037539005279541,0.06543227285146713,-0.05880206450819969
1691248248251509800,5.978509765625,5.248961448669434,0.12149340659379959,-0.0059540290385484695
1691248248261549600,5.988549560546875,5.407807350158691,0.14534308016300201,-0.0650532990694046
1691248248271589600,5.998589599609375,5.620429039001465,0.00014860439114272594,-0.11443763226270676
1691248248281630500,6.00863037109375,5.792742729187012,-0.06105776131153107,0.04030907154083252
1691248248291670500,6.01867041015625,5.963154315948486,-0.05391596257686615,0.09921926259994507
1691248248301710600,6.028710693359375,6.190218925476074,-0.053881872445344925,-0.020773189142346382
1691248248311751700,6.038751708984375,6.357731342315674,0.018031198531389236,0.060982927680015564
1691248248321791700,6.048791748046875,6.404675483703613,0.15612702071666718,0.16061151027679443
1691248248331831800,6.058831787109375,6.447533130645752,0.4501256048679352,-0.2935016453266144
1691248248341871600,6.06887158203125,6.590072154998779,0.5302297472953796,-0.2579977214336395
1691248248351942700,6.078942626953125,6.816484451293945,0.31610044836997986,-0.16289570927619934
1691248248361983500,6.0889833984375,6.949811935424805,0.15971189737319946,0.1600719541311264
1691248248372023600,6.0990234375,7.180436611175537,-0.09498190879821777,0.02100089006125927
1691248248382063600,6.109063720703125,7.359164237976074,-0.26307210326194763,-0.08711173385381699
1691248248392103700,6.119103759765625,7.569067001342773,-0.2671416997909546,0.004135356284677982
1691248248402144800,6.129144775390625,7.736575603485107,-0.2429005354642868,0.13434262573719025
1691248248412184600,6.1391845703125,7.963673114776611,-0.08633701503276825,0.09388308227062225
1691248248422224600,6.149224609375,8.140742301940918,0.19669069349765778,0.08361446857452393
1691248248432265500,6.159265380859375,8.336870193481445,0.260841965675354,0.19252631068229675
1691248248442305500,6.169305419921875,8.540517807006836,0.3706856667995453,0.043052662163972855
1691248248452345600,6.179345703125,8.594454765319824,0.5626037120819092,-0.01314935740083456
1691248248462385700,6.1893857421875,8.760529518127441,0.4390588402748108,-0.11442804336547852
1691248248472426800,6.1994267578125,8.965727806091309,0.25107908248901367,-0.2573588192462921
1691248248482496500,6.20949658203125,9.126506805419922,0.11973997950553894,-0.2456052303314209
1691248248492537600,6.21953759765625,9.341732025146484,-0.14687146246433258,-0.3083370625972748
1691248248502577700,6.22957763671875,9.506023406982422,-0.17635399103164673,-0.28758490085601807
1691248248512617500,6.239617431640625,9.701204299926758,-0.08363816887140274,-0.27140912413597107
1691248248522658600,6.249658447265625,9.921116828918457,-0.030003972351551056,-0.2679568827152252
1691248248532698600,6.25969873046875,10.08748722076416,0.09930048882961273,-0.08260566741228104
1691248248542738700,6.26973876953125,10.318434715270996,-0.08374442905187607,-0.16286827623844147
1691248248552778500,6.279778564453125,10.503558158874512,-0.23226013779640198,0.09061858057975769
1691248248562819600,6.289819580078125,10.680709838867188,-0.38163071870803833,0.024390295147895813
1691248248572859600,6.299859619140625,10.865090370178223,-0.5305117964744568,0.11653034389019012
1691248248582899500,6.3098994140625,11.064668655395508,-0.3401903212070465,0.09460879862308502
1691248248592940500,6.3199404296875,11.241878509521484,-0.14171425998210907,0.11364347487688065
1691248248603010600,6.330010498046875,11.4033784866333,0.23320315778255463,0.1983833909034729
1691248248613051600,6.3400517578125,11.568720817565918,0.47118455171585083,0.06747172027826309
1691248248623091700,6.350091796875,11.764735221862793,0.5246065258979797,0.2336127609014511
1691248248633131500,6.360131591796875,11.928279876708984,0.41309890151023865,0.29120972752571106
1691248248643172600,6.370172607421875,12.112499237060547,0.1412505954504013,0.2155059278011322
1691248248653212700,6.380212646484375,12.292587280273438,-0.05213271081447601,0.17700380086898804
1691248248663252500,6.39025244140625,12.203100204467773,-0.44711706042289734,0.026275012642145157
1691248248673292500,6.40029248046875,12.354578971862793,-0.40826180577278137,0.2879449725151062
1691248248683333600,6.410333740234375,12.503741264343262,-0.34718751907348633,-0.11122532188892365
1691248248693373700,6.420373779296875,12.636178970336914,0.01792307384312153,-0.12484872341156006
1691248248703413500,6.43041357421875,12.807493209838867,0.38236626982688904,-0.03886803612112999
1691248248713453600,6.44045361328125,12.982789993286133,0.5213441252708435,-0.06197841465473175
1691248248723494700,6.45049462890625,13.160829544067383,0.5224605202674866,-0.042146388441324234
1691248248733565700,6.460565673828125,13.262478828430176,0.35327523946762085,-0.13779620826244354
1691248248743605500,6.47060546875,13.423871040344238,-0.18567319214344025,0.08493566513061523
1691248248753645600,6.4806455078125,13.591964721679688,-0.21375063061714172,0.2815096974372864
1691248248763685400,6.490685302734375,13.768671035766602,-0.4044899642467499,0.3697327673435211
1691248248773726500,6.5007265625,13.958958625793457,-0.15901096165180206,0.11688267439603806
1691248248783766500,6.5107666015625,14.142022132873535,-0.41420358419418335,0.24440628290176392
1691248248793806600,6.520806640625,14.339862823486328,-0.20149396359920502,0.35364195704460144
1691248248803847400,6.530847412109375,14.483588218688965,0.2802921235561371,0.353228360414505
1691248248813887500,6.540887451171875,14.629082679748535,0.7573790550231934,0.26911109685897827
1691248248823927600,6.550927490234375,14.79955005645752,0.7280914783477783,0.388870507478714
1691248248833967600,6.560967529296875,14.950522422790527,0.7499578595161438,0.3706457018852234
1691248248844008700,6.5710087890625,15.129768371582031,0.8089924454689026,0.2411217987537384
1691248248854048500,6.581048583984375,15.263785362243652,0.457085520029068,0.36223411560058594
1691248248864119600,6.59111962890625,15.422233581542969,0.10495251417160034,0.09168757498264313
1691248248874159600,6.60115966796875,15.570582389831543,-0.220604807138443,0.013800767250359058
1691248248884199700,6.61119970703125,15.627394676208496,-0.3261362910270691,0.0017981663113459945
1691248248894240500,6.621240478515625,15.689874649047852,0.30634209513664246,-0.6560545563697815
1691248248904280600,6.631280517578125,15.810721397399902,0.433432400226593,-0.45083481073379517
1691248248914320400,6.6413203125,15.967618942260742,0.5586196184158325,-0.4375389814376831
1691248248924360400,6.6513603515625,16.137182235717773,0.6494578719139099,-0.3313419818878174
1691248248934401500,6.661401611328125,16.300424575805664,0.3856848478317261,-0.3807348310947418
1691248248944424700,6.6714248046875,16.435680389404297,0.08371753245592117,-0.0921163409948349
1691248248954464800,6.68146484375,16.58881378173828,-0.11904755979776382,-0.13919863104820251
1691248248964505600,6.691505615234375,16.760618209838867,-0.35623374581336975,-0.21348725259304047
1691248248974545700,6.701545654296875,16.943498611450195,-0.41137850284576416,-0.01498454250395298
1691248248984585700,6.711585693359375,17.13271141052246,-0.1815365105867386,-0.03658704087138176
1691248248994656800,6.72165673828125,17.30300521850586,-0.21307818591594696,0.051000334322452545
1691248249004696600,6.731696533203125,17.471948623657227,-0.21186591684818268,0.15578240156173706
1691248249014737700,6.741737548828125,17.6749324798584,-0.34259435534477234,0.04507346823811531
1691248249024777700,6.75177783203125,17.866077423095703,-0.13757410645484924,0.1192755252122879
1691248249034817800,6.76181787109375,18.03812026977539,0.053164951503276825,0.1308554857969284
1691248249044857900,6.77185791015625,18.1976318359375,0.10228163003921509,0.2275354266166687
1691248249054898700,6.781898681640625,18.35897445678711,0.274850994348526,0.1333940029144287
1691248249064938800,6.791938720703125,18.52361488342285,0.42960089445114136,0.26009416580200195
1691248249074978600,6.801978515625,18.458370208740234,0.22747363150119781,0.06885816156864166
1691248249085019600,6.81201953125,18.62059783935547,-0.23236745595932007,0.4799138605594635
1691248249095059700,6.822059814453125,18.760921478271484,-0.26727697253227234,0.4981197714805603
1691248249105099800,6.832099853515625,18.919130325317383,-0.04982934147119522,-0.2311951369047165
1691248249115139800,6.842139892578125,19.0656795501709,0.06138293445110321,0.1712777465581894
1691248249125211000,6.8522109375,19.133668899536133,0.2740749716758728,0.15866714715957642
1691248249135250700,6.862250732421875,19.284379959106445,0.2752036154270172,0.23137809336185455
1691248249145291800,6.872291748046875,19.42389678955078,0.19182269275188446,0.099737249314785
1691248249155331600,6.88233154296875,19.579435348510742,0.12380050122737885,0.25125059485435486
1691248249165371600,6.89237158203125,19.750791549682617,0.04679626598954201,0.3959191143512726
1691248249175412700,6.902412841796875,19.867944717407227,0.18469049036502838,0.5089143514633179
1691248249185452800,6.912452880859375,20.049152374267578,0.7829794883728027,0.27769285440444946
1691248249195492900,6.922492919921875,20.198671340942383,0.29347023367881775,0.36688506603240967
1691248249205532700,6.93253271484375,20.365026473999023,0.6530387997627258,0.386663019657135
1691248249215573800,6.94257373046875,20.540817260742188,0.49618151783943176,0.1762770265340805
1691248249225613600,6.952613525390625,20.688447952270508,0.31386443972587585,0.2510239779949188
1691248249235653600,6.962653564453125,20.70024299621582,0.7075995206832886,0.2393404096364975
1691248249245694700,6.97269482421875,20.862133026123047,0.5810633897781372,-0.15775367617607117
1691248249255764700,6.9827646484375,20.9821720123291,0.5855585336685181,0.047262586653232574
1691248249265805800,6.992805908203125,21.127304077148438,0.5204948782920837,-0.44616442918777466
1691248249275846000,7.002845947265625,21.216724395751953,0.5108031034469604,-0.16206613183021545
1691248249285885700,7.0128857421875,21.36832046508789,0.5562927722930908,-0.8390997052192688
1691248249295925500,7.022925537109375,21.491893768310547,0.3183497488498688,-0.33733728528022766
1691248249305966600,7.032966552734375,21.66792869567871,0.3546571433544159,-0.7662476301193237
1691248249316006700,7.043006591796875,21.829753875732422,0.18319138884544373,-0.4728282690048218
1691248249326046700,7.053046630859375,21.955230712890625,-0.34082895517349243,-0.4549323618412018
1691248249336087800,7.063087890625,22.113109588623047,-0.5781855583190918,-0.3242984414100647
1691248249346128000,7.0731279296875,22.271230697631836,-0.6851003170013428,-0.2546245753765106
1691248249356167700,7.083167724609375,22.43433380126953,-0.9244614839553833,-0.19991791248321533
1691248249366207500,7.09320751953125,22.57851219177246,-0.6124458312988281,0.06986883282661438
1691248249376248600,7.10324853515625,22.633586883544922,-0.28926029801368713,-0.09750871360301971
1691248249386319600,7.113319580078125,22.740215301513672,-0.5070107579231262,0.2291381061077118
1691248249396359700,7.123359619140625,22.88624382019043,-0.15689587593078613,0.5915948748588562
1691248249406399700,7.133399658203125,23.033878326416016,0.09812416881322861,0.5818405151367188
1691248249416439800,7.143439697265625,23.14011573791504,-0.2658393979072571,0.5080142021179199
1691248249426481000,7.15348095703125,23.23923110961914,-0.574199378490448,0.6397200226783752
1691248249436520700,7.163520751953125,23.387361526489258,-0.35171541571617126,1.064427375793457
1691248249446560500,7.173560546875,23.534257888793945,-0.10308350622653961,1.0626145601272583
1691248249456601600,7.1836015625,23.66074562072754,-0.03927922993898392,0.6505761742591858
1691248249466641700,7.1936416015625,23.743120193481445,0.6046318411827087,0.8232437968254089
1691248249476681700,7.203681640625,23.855731964111328,0.6927568912506104,0.7364996075630188
1691248249486721800,7.2137216796875,23.968589782714844,0.8212813138961792,0.5265823006629944
1691248249496763000,7.223762939453125,24.06169891357422,0.642869234085083,0.3796543776988983
1691248249506802700,7.233802734375,24.157913208007812,1.1402140855789185,0.3740391135215759
1691248249516873500,7.24387353515625,24.14250946044922,1.5580874681472778,0.04228726774454117
1691248249526913500,7.25391357421875,24.25951385498047,0.758825957775116,0.07961413264274597
1691248249536953600,7.26395361328125,24.405702590942383,1.1583144664764404,-0.3626849949359894
1691248249546994700,7.27399462890625,24.526365280151367,0.3669489622116089,-0.4002116024494171
1691248249557034800,7.28403466796875,24.674345016479492,0.49348029494285583,-1.0073537826538086
1691248249567074800,7.29407470703125,24.802997589111328,0.34278184175491333,-0.8869934678077698
1691248249577115000,7.304114990234375,24.97065544128418,0.3991101086139679,-1.007558822631836
1691248249587155700,7.31415576171875,25.135889053344727,0.2217845916748047,-1.0665762424468994
1691248249597195500,7.324195556640625,25.26116943359375,-0.47546425461769104,-0.7139332890510559
1691248249607235600,7.334235595703125,25.410863876342773,-0.5895096063613892,-0.6008554697036743
1691248249617276700,7.344276611328125,25.556812286376953,-0.7821200489997864,-0.4472411572933197
1691248249627316700,7.354316650390625,25.69159698486328,-1.0370285511016846,-0.19537988305091858
1691248249637387800,7.3643876953125,25.666812896728516,-1.0698964595794678,-0.10056629031896591
1691248249647427800,7.374427734375,25.77674102783203,-1.2503799200057983,0.4627567231655121
1691248249657467600,7.384467529296875,25.896516799926758,-0.6276652812957764,0.4710513949394226
1691248249667508500,7.394508544921875,26.03520965576172,-0.4431222975254059,0.4014507532119751
1691248249677548500,7.404548583984375,26.090015411376953,-0.5315278172492981,0.8247823119163513
1691248249687588600,7.414588623046875,26.243188858032227,-0.0448785237967968,1.3010824918746948
1691248249697628700,7.424628662109375,26.37751579284668,-0.13105495274066925,1.1965616941452026
1691248249707669800,7.434669677734375,26.52461051940918,-0.22385014593601227,1.1679809093475342
1691248249717709800,7.444709716796875,26.63170623779297,0.3037457764148712,1.4628543853759766
1691248249727750000,7.45475,26.747655868530273,0.30073532462120056,1.145045280456543
1691248249737790700,7.464790771484375,26.853883743286133,0.7132722735404968,0.9692422747612
1691248249747830500,7.47483056640625,26.914775848388672,0.4919276535511017,0.8627680540084839
1691248249757870600,7.48487060546875,26.75719451904297,0.7162497043609619,0.6594756245613098
1691248249767941600,7.494941650390625,26.87223243713379,1.9185519218444824,0.13743935525417328
1691248249777981700,7.504981689453125,26.88979721069336,1.4733542203903198,0.28232890367507935
1691248249788021800,7.515021728515625,27.01097869873047,2.032496213912964,-0.31083908677101135
1691248249798062800,7.525062744140625,27.09400177001953,1.7940558195114136,-0.4681834578514099
1691248249808102700,7.5351025390625,27.216276168823242,0.9893491864204407,-0.7446345090866089
1691248249818142700,7.545142822265625,27.365684509277344,0.4622850716114044,-1.0364506244659424
1691248249828183600,7.55518359375,27.525920867919922,-0.10405396670103073,-1.0812913179397583
1691248249838223600,7.5652236328125,27.68771743774414,-0.565986692905426,-1.198020339012146
1691248249848263700,7.575263671875,27.863880157470703,-0.5679763555526733,-1.1341649293899536
1691248249858303700,7.5853037109375,28.011577606201172,-1.0211420059204102,-1.0031461715698242
1691248249868344800,7.5953447265625,28.125778198242188,-0.9521045684814453,-0.5473307371139526
1691248249878384600,7.605384521484375,28.111881256103516,-1.404011607170105,-0.1874609738588333
1691248249888424700,7.6154248046875,28.25131607055664,-0.5985238552093506,0.151359423995018
1691248249898495700,7.625495849609375,28.333932876586914,-1.160815954208374,0.19953681528568268
1691248249908535800,7.635535888671875,28.364107131958008,-1.0412770509719849,0.9266269207000732
1691248249918576600,7.64557666015625,28.47834014892578,-0.9670081734657288,1.2500643730163574
1691248249928616700,7.65561669921875,28.581134796142578,-1.068009853363037,1.2857000827789307
1691248249938662100,7.665662109375,28.677534103393555,-0.6338896155357361,1.5663970708847046
1691248249948702000,7.675701904296875,28.79179573059082,-0.0029257487040013075,1.615925669670105
1691248249958742800,7.68574267578125,28.90094566345215,0.4583284258842468,1.645430088043213
1691248249968782800,7.695782958984375,29.00084686279297,0.7327836751937866,1.4405637979507446
1691248249978823000,7.705822998046875,28.948450088500977,0.6861575841903687,1.5363643169403076
1691248249988864000,7.715864013671875,28.90128517150879,1.6229686737060547,0.6184695959091187
1691248249998904000,7.725904052734375,28.9168758392334,1.1701396703720093,1.2456533908843994
1691248250008944000,7.735944091796875,29.01139259338379,2.040198802947998,0.06575904041528702
1691248250018984000,7.74598388671875,29.018810272216797,1.5829317569732666,0.13896001875400543
1691248250029055000,7.756054931640625,29.135181427001953,1.9354392290115356,-0.7040393948554993
1691248250039095800,7.766095703125,29.245513916015625,1.3846650123596191,-1.0955123901367188
1691248250049135900,7.776135986328125,29.365562438964844,0.6803396344184875,-1.4632130861282349
1691248250059176000,7.786176025390625,29.510074615478516,0.34222790598869324,-1.6419317722320557
1691248250069216000,7.796216064453125,29.665159225463867,0.10006721317768097,-1.6059702634811401
1691248250079257000,7.806257080078125,29.81940460205078,-0.25089988112449646,-1.646618127822876
1691248250089297200,7.816297119140625,29.669179916381836,-0.588482677936554,-1.467470407485962
1691248250099337000,7.8263369140625,29.769168853759766,-1.7556875944137573,-0.3249621093273163
1691248250109377800,7.836377685546875,29.908933639526367,-0.5510032176971436,-0.5570603013038635
1691248250119417900,7.84641796875,29.902074813842773,-2.1258504390716553,-0.49583983421325684
1691248250129458000,7.8564580078125,30.041887283325195,-1.9482815265655518,0.21132875978946686
1691248250139498000,7.866498046875,30.13145637512207,-1.866965413093567,0.8019155859947205
1691248250149539000,7.8765390625,30.211441040039062,-1.6689915657043457,0.8415263891220093
1691248250159608800,7.88660888671875,30.309329986572266,-0.967281699180603,1.5081441402435303
1691248250169650000,7.89664990234375,30.417015075683594,-0.4519173800945282,1.8275032043457031
1691248250179690000,7.90668994140625,30.504165649414062,-0.25070491433143616,1.7463082075119019
1691248250189730000,7.91672998046875,30.534778594970703,-0.06281491369009018,2.204153060913086
1691248250199771000,7.92677099609375,30.458316802978516,0.9322634935379028,1.5817503929138184
1691248250209811000,7.93681103515625,30.49359703063965,0.40934064984321594,1.4911550283432007
1691248250219851000,7.94685107421875,30.566003799438477,1.1882447004318237,1.9151326417922974
1691248250229891000,7.95689111328125,30.60304832458496,1.2793653011322021,0.5480532646179199
1691248250239932200,7.96693212890625,30.692161560058594,1.6197494268417358,0.9136988520622253
1691248250249972000,7.976971923828125,30.83769989013672,1.6655713319778442,-0.4412676692008972
1691248250260012000,7.987011962890625,30.94376564025879,1.7561908960342407,-0.14640595018863678
1691248250270052900,7.997052978515625,31.083274841308594,1.411863923072815,-1.1288708448410034
1691248250280093000,8.007093017578125,31.20354652404785,1.0502686500549316,-0.7521904110908508
1691248250290164000,8.0171640625,31.339616775512695,0.997921347618103,-1.1083940267562866
1691248250300204000,8.0272041015625,31.15199851989746,-0.2626683712005615,-1.190629005432129
1691248250310243800,8.037243896484375,31.282243728637695,-0.46144458651542664,-0.509493887424469
1691248250320285000,8.047284912109374,31.37367820739746,-0.20395393669605255,-0.641589343547821
1691248250330325000,8.057324951171875,31.470809936523438,-0.9895344972610474,-0.7992689609527588
1691248250340365000,8.067364990234376,31.602394104003906,-1.0032124519348145,-0.7121529579162598
1691248250350404900,8.07740478515625,31.748085021972656,-1.4493534564971924,0.06459683924913406
1691248250360446000,8.087446044921874,31.84244728088379,-0.823689341545105,0.055639028549194336
1691248250370486000,8.097486083984375,31.983835220336914,-0.6379905939102173,0.5860608220100403
1691248250380526000,8.107526123046876,32.07803726196289,-0.6948104500770569,1.0777794122695923
1691248250390567200,8.117567138671875,32.194984436035156,-0.3277115523815155,1.0463064908981323
1691248250400607000,8.12760693359375,32.154537200927734,0.24690859019756317,1.5157079696655273
1691248250410647000,8.13764697265625,32.2936897277832,0.00270710326731205,1.026105523109436
1691248250420718000,8.147718017578125,32.34042739868164,0.21078573167324066,1.6080681085586548
1691248250430758000,8.1577578125,32.414024353027344,0.6024632453918457,1.1532012224197388
1691248250440798000,8.1677978515625,32.51338577270508,0.6090942025184631,0.7976183295249939
1691248250450839000,8.177839111328124,32.65193557739258,1.0805312395095825,0.2050306499004364
1691248250460878800,8.18787890625,32.75140380859375,1.2707630395889282,-0.033249299973249435
1691248250470919000,8.1979189453125,32.87973403930664,1.4204055070877075,-0.2251598834991455
1691248250480960000,8.2079599609375,33.01515579223633,1.4211772680282593,-0.5073047280311584
1691248250491000000,8.218,32.950016021728516,0.7897968888282776,-0.3986075818538666
1691248250501039900,8.228039794921875,33.052433013916016,0.14848187565803528,-0.3000181317329407
1691248250511080000,8.238079833984376,33.19154739379883,0.3603658974170685,0.05073188617825508
1691248250521121000,8.24812109375,33.261497497558594,-0.3367825448513031,-0.17379043996334076
1691248250531161000,8.2581611328125,33.378753662109375,-0.3043995797634125,-0.30990779399871826
1691248250541201000,8.268200927734375,33.49921417236328,-0.4379669725894928,-0.05421610176563263
1691248250551272000,8.27827197265625,33.58381271362305,-0.31183671951293945,-0.02154603786766529
1691248250561312000,8.28831201171875,33.730308532714844,0.32794883847236633,0.08711972087621689
1691248250571352800,8.298352783203125,33.817447662353516,0.000966993800830096,0.5708968043327332
1691248250581393000,8.308392822265626,33.94932174682617,0.3817468285560608,0.546561062335968
1691248250591433000,8.318432861328125,33.93106460571289,0.9573169350624084,0.6402249932289124
1691248250601472800,8.32847265625,34.037986755371094,-0.1090838760137558,0.7877689003944397
1691248250611513900,8.338513916015625,34.12333679199219,0.5973851084709167,1.364855170249939
1691248250621554000,8.348553955078126,34.22643280029297,0.42302370071411133,0.32036468386650085
1691248250631594000,8.358593994140625,34.310325622558594,0.41128313541412354,0.6097760200500488
1691248250641634800,8.368634765625,34.452945709228516,0.766003429889679,-0.359164834022522
1691248250651675000,8.3786748046875,34.54756164550781,0.6280836462974548,-0.23634648323059082
1691248250661715000,8.38871484375,34.67158889770508,0.8424939513206482,-0.6292570233345032
1691248250671754800,8.398754638671875,34.53849411010742,0.8201449513435364,-0.534895122051239
1691248250681825800,8.40882568359375,34.462440490722656,0.06786639988422394,-0.43062782287597656
1691248250691867000,8.418866943359374,34.623138427734375,-0.10732405632734299,-0.15144677460193634
1691248250701907000,8.428906982421875,34.68307876586914,-0.2822476625442505,0.33621901273727417
1691248250711947000,8.438947021484376,34.683876037597656,-0.5738656520843506,0.09199197590351105
1691248250721987000,8.448987060546875,34.68417739868164,-0.4008323848247528,0.137481689453125
1691248250732028000,8.45902783203125,34.68223190307617,-0.9713445901870728,0.43885537981987
1691248250742068000,8.46906787109375,34.683284759521484,-0.28988587856292725,0.40967753529548645
1691248250752107800,8.479107666015626,34.68280029296875,0.1458272486925125,0.7428491115570068
1691248250762148900,8.48914892578125,34.68257141113281,0.025622805580496788,0.740513801574707
1691248250772189000,8.49918896484375,34.68308639526367,0.6755334138870239,0.8185867071151733
1691248250782229000,8.50922900390625,34.6832389831543,0.9820553064346313,0.824512779712677
1691248250792269000,8.51926904296875,34.68071746826172,0.7563449144363403,1.4133459329605103
1691248250802310000,8.529309814453125,34.684791564941406,1.1906561851501465,0.5114182829856873
1691248250812380000,8.5393798828125,34.68276596069336,0.9276818037033081,0.7640728950500488
1691248250822421000,8.5494208984375,34.68659973144531,1.0926278829574585,-0.03503787890076637
1691248250832460800,8.559460693359375,34.687191009521484,0.6084287166595459,-0.2524961531162262
1691248250842500900,8.5695009765625,34.68925094604492,0.8166873455047607,-0.6121158599853516
1691248250852542000,8.5795419921875,34.68936538696289,0.53700190782547,-0.8552651405334473
1691248250862582000,8.58958203125,34.687740325927734,0.24703349173069,-0.5273690223693848
1691248250872622000,8.5996220703125,34.68748092651367,0.22440381348133087,-0.4516417682170868
1691248250882662100,8.609662109375,34.684410095214844,-0.06392465531826019,0.12903335690498352
1691248250892703000,8.619702880859375,34.68482208251953,-0.3198685348033905,-0.020802216604351997
1691248250902742800,8.62974267578125,34.684776306152344,-0.01835450530052185,0.08277690410614014
1691248250912782800,8.639782958984375,34.682952880859375,-0.14672765135765076,0.4162243902683258
1691248250922824000,8.649823974609374,34.683719635009766,-0.5551886558532715,0.32174235582351685
1691248250932864000,8.659864013671875,34.68275833129883,0.18505267798900604,0.6927036643028259
1691248250942921200,8.669921142578126,34.68254089355469,0.33663153648376465,0.7963440418243408
1691248250952961000,8.6799609375,34.6851692199707,0.7591721415519714,0.3242451846599579
1691248250963001000,8.6900009765625,34.681312561035156,0.35698503255844116,1.0338317155838013
1691248250973042000,8.7000419921875,34.682865142822266,1.235469937324524,0.9928475022315979
1691248250983082000,8.71008203125,34.685035705566406,0.9240332841873169,0.2381071001291275
1691248250993122000,8.7201220703125,34.68389892578125,0.8150442242622375,0.6259786486625671
1691248251003162000,8.730162109375,34.68849182128906,0.75210040807724,-0.45920565724372864
1691248251013203200,8.740203125,34.6856803894043,0.6807748079299927,0.05951153114438057
1691248251023243300,8.7502431640625,34.689151763916016,0.5549833178520203,-0.7813965082168579
1691248251033283000,8.760282958984375,34.68659591674805,0.26506733894348145,-0.12372434139251709
1691248251043324000,8.770323974609376,34.687007904052734,0.49410533905029297,-0.1655423641204834
1691248251053364000,8.780364013671875,34.6854248046875,-0.0038631814531981945,0.06228441372513771
1691248251063404000,8.790404052734376,34.684139251708984,0.07722341269254684,0.32658129930496216
1691248251073475000,8.80047509765625,34.68392562866211,-0.2788577377796173,0.1548692137002945
1691248251083515100,8.81051513671875,34.682647705078125,0.011920042335987091,0.7295588850975037
1691248251093555000,8.820554931640626,34.68437957763672,0.3175550699234009,0.418642520904541
1691248251103596000,8.830595947265625,34.681121826171875,-0.013932060450315475,0.9680225849151611
1691248251113636000,8.840635986328126,34.68428421020508,1.0172191858291626,0.5845598578453064
1691248251123676200,8.85067626953125,34.681785583496094,0.044685445725917816,0.7992644309997559
1691248251133717000,8.860717041015626,34.68074417114258,1.2753984928131104,1.3973782062530518
1691248251143757000,8.870757080078125,34.68571472167969,0.899971067905426,0.1195192039012909
1691248251153797000,8.880797119140626,34.68287658691406,1.107620120048523,0.7584773302078247
1691248251163837200,8.890837158203125,34.68904495239258,1.074069619178772,-0.4913255274295807
1691248251173878300,8.900878173828126,34.68635177612305,0.8775733709335327,0.061945926398038864
1691248251183918000,8.91091796875,34.6898193359375,0.9171127676963806,-0.7841336727142334
1691248251193958100,8.920958251953126,34.68778991699219,-0.07100813090801239,-0.5033238530158997
1691248251204029200,8.931029296875,34.68663787841797,0.45348307490348816,-0.09091978520154953
1691248251214069200,8.9410693359375,34.68632125854492,0.03394438326358795,-0.2753804326057434
1691248251224110000,8.951110107421876,34.68388366699219,-0.1935391128063202,0.18367262184619904
1691248251234150100,8.961150146484375,34.68451690673828,-0.17499391734600067,0.0809667557477951
1691248251244190000,8.97118994140625,34.6830940246582,-0.2739732265472412,0.5143594741821289
1691248251254230000,8.98122998046875,34.68375778198242,0.38578736782073975,0.3740910291671753
1691248251264271000,8.99127099609375,34.68173599243164,-0.13630537688732147,0.7179937958717346
1691248251274311200,9.001311279296875,34.68318557739258,0.8093213438987732,0.6299909949302673
1691248251284351200,9.011351318359376,34.68282699584961,0.03307246416807175,0.6925851106643677
1691248251294392000,9.02139208984375,34.68131637573242,1.1749826669692993,1.3676652908325195
1691248251304432000,9.03143212890625,34.68581771850586,0.9349053502082825,0.21329869329929352
1691248251314472200,9.04147216796875,34.68268585205078,0.9631218314170837,0.7754619121551514
1691248251324512000,9.051511962890626,34.68698501586914,0.9999221563339233,-0.23704583942890167
1691248251334583000,9.0615830078125,34.6861457824707,0.8099591732025146,0.14564375579357147
1691248251344624000,9.0716240234375,34.68796157836914,1.0295764207839966,-0.44412046670913696
1691248251354664200,9.081664306640626,34.68672561645508,0.39498674869537354,-0.24871741235256195
1691248251364704300,9.091704345703125,34.68589782714844,0.7669121026992798,0.17462506890296936
1691248251374744000,9.101744140625,34.68599319458008,0.14049479365348816,-0.054305050522089005
1691248251384785200,9.11178515625,34.684165954589844,0.23164334893226624,0.41262832283973694
1691248251394825000,9.121824951171876,34.68318176269531,-0.0748196467757225,0.5060043334960938
1691248251404865000,9.131864990234375,34.6829833984375,0.4109470546245575,0.5938612222671509
1691248251414906000,9.141906005859376,34.68400192260742,0.9460589289665222,0.5724579095840454
1691248251424946200,9.1519462890625,34.68311309814453,0.41362833976745605,0.7349640130996704
1691248251434986200,9.161986328125,34.684940338134766,1.1618977785110474,0.41042187809944153
1691248251445026000,9.172026123046875,34.67959213256836,0.5035046935081482,1.4906187057495117
1691248251455097000,9.18209716796875,34.686824798583984,1.8610358238220215,0.13091593980789185
1691248251465137000,9.192136962890626,34.68389129638672,0.9777753353118896,0.6054084300994873
1691248251475178000,9.202177978515625,34.6873893737793,1.126060962677002,-0.055934637784957886
1691248251485218000,9.212218017578126,34.68760299682617,1.341108798980713,-0.2311091125011444
1691248251495258000,9.222258056640625,34.6880989074707,0.7865214943885803,-0.4574359953403473
1691248251505299200,9.23229931640625,34.68816375732422,0.2498266100883484,-0.6104966402053833
1691248251515339300,9.24233935546875,34.68627166748047,0.3915746808052063,-0.05655328929424286
1691248251525379000,9.252379150390626,34.686100006103516,-0.0014921691035851836,-0.29204118251800537
1691248251535419000,9.2624189453125,34.68426513671875,-0.24330826103687286,0.06585491448640823
1691248251545460000,9.2724599609375,34.683284759521484,-0.36678650975227356,0.40680691599845886
1691248251555500000,9.2825,34.68241500854492,-0.12412221729755402,0.539749801158905
1691248251565540000,9.2925400390625,34.684242248535156,0.7395704984664917,0.5657105445861816
1691248251575581200,9.302581298828125,34.6821174621582,0.2497006505727768,0.7808092832565308
1691248251585651200,9.312651123046875,34.68458938598633,0.9709339141845703,0.5176146626472473
1691248251595692000,9.322692138671876,34.67833709716797,0.10645373910665512,1.608447790145874
1691248251605731800,9.33273193359375,34.68627166748047,1.7057570219039917,0.34135812520980835
1691248251615772000,9.34277197265625,34.683006286621094,0.8930884003639221,0.8343603610992432
1691248251625813000,9.35281298828125,34.68650436401367,1.1511415243148804,0.07568836957216263
1691248251635853000,9.36285302734375,34.68653869628906,1.1731873750686646,-0.011627893894910812
1691248251645893000,9.37289306640625,34.68730163574219,1.066611409187317,-0.2343677580356598
1691248251655933200,9.38293310546875,34.687435150146484,0.30771148204803467,-0.3387303948402405
1691248251665974000,9.39297412109375,34.685367584228516,0.8811054825782776,0.26987993717193604
1691248251676014000,9.40301416015625,34.68513870239258,0.30033373832702637,0.03894872963428497
1691248251686054000,9.413053955078125,34.684993743896484,0.2729015648365021,0.2605823278427124
1691248251696094000,9.423093994140626,34.68247985839844,0.042932819575071335,0.6960704326629639
1691248251706135000,9.433135009765625,34.68444061279297,0.5973123908042908,0.35180729627609253
1691248251716206000,9.4432060546875,34.6843147277832,0.9528585076332092,0.5426883101463318
1691248251726246100,9.45324609375,34.68461227416992,0.9472286105155945,0.5142127275466919
1691248251736286200,9.4632861328125,34.68355178833008,0.6482347249984741,0.5436084270477295
1691248251746326000,9.473325927734376,34.67973709106445,0.9385549426078796,1.5431032180786133
1691248251756366800,9.483366943359375,34.687095642089844,1.7890130281448364,0.056298427283763885
1691248251766407000,9.493406982421876,34.68424987792969,1.2277278900146484,0.706599235534668
1691248251776447000,9.503447021484375,34.688602447509766,1.0890978574752808,-0.3994256854057312
1691248251786488000,9.513488037109376,34.68651580810547,0.8889493346214294,-0.029694246128201485
1691248251796528000,9.523528076171875,34.68928527832031,1.1816085577011108,-0.5374283194541931
1691248251806568200,9.533568115234376,34.687381744384766,0.5243551135063171,-0.4557504951953888
1691248251816608300,9.543608154296875,34.68632888793945,0.9639439582824707,0.0538318045437336
1691248251826649000,9.553649169921876,34.686336517333984,0.06773350387811661,-0.14202025532722473
1691248251836689000,9.56368896484375,34.683921813964844,0.1923888921737671,0.2651160955429077
1691248251846760000,9.573760009765625,34.68278884887695,0.1729171872138977,0.686730146408081
1691248251856800000,9.583800048828126,34.68449020385742,0.5555553436279297,0.3628634214401245
1691248251866840000,9.593840087890625,34.6829948425293,0.5028101205825806,0.7726642489433289
1691248251876881200,9.603881103515626,34.68373489379883,0.6885454058647156,0.4815186858177185
1691248251886921200,9.613921142578125,34.67971420288086,0.0339832678437233,1.312191367149353
1691248251896961000,9.6239609375,34.68581771850586,1.5885827541351318,0.36694976687431335
1691248251907001000,9.6340009765625,34.684078216552734,0.9793623089790344,0.6740915775299072
1691248251917042000,9.6440419921875,34.686500549316406,1.3442816734313965,0.057378336787223816
1691248251927082000,9.65408203125,34.686683654785156,1.2715177536010742,0.027532026171684265
1691248251937122000,9.6641220703125,34.68705749511719,1.1446170806884766,-0.21294476091861725
1691248251947165700,9.674165771484375,34.68684768676758,0.5064107179641724,-0.17833538353443146
1691248251957205800,9.684205810546874,34.68595504760742,0.8185555934906006,0.1716226190328598
1691248251967245800,9.694245849609375,34.68547439575195,0.3766849637031555,0.14523522555828094
1691248251977316600,9.704316650390625,34.68522644042969,0.3459957540035248,0.2264176905155182
1691248251987356700,9.714356689453124,34.6826286315918,0.5089889168739319,0.730883002281189
1691248251997397800,9.724397705078125,34.68394088745117,0.7048974633216858,0.4002169072628021
1691248252007437800,9.734437744140624,34.683135986328125,0.6766655445098877,0.7721233367919922
1691248252017477600,9.7444775390625,34.68485641479492,1.285443663597107,0.34381383657455444
1691248252027517700,9.754517578125,34.679969787597656,0.12002147734165192,1.3421248197555542
1691248252037558800,9.764558837890625,34.6856575012207,2.0527679920196533,0.4820966124534607
1691248252047598600,9.7745986328125,34.68367004394531,0.8717575669288635,0.5716962814331055
1691248252057638700,9.784638671875,34.686092376708984,1.303432822227478,0.2182905226945877
1691248252067679700,9.7946796875,34.68830490112305,1.1552835702896118,-0.29580768942832947
1691248252077719800,9.8047197265625,34.6872673034668,0.9562865495681763,-0.2888650894165039
1691248252087759600,9.814759521484374,34.68860626220703,0.6778298616409302,-0.5578345060348511
1691248252097799700,9.824799560546875,34.687007904052734,0.7576698660850525,-0.10728837549686432
1691248252107870700,9.83487060546875,34.68519973754883,0.24887000024318695,-0.030707845464348793
1691248252117910500,9.84491064453125,34.684967041015625,0.212908536195755,0.09728953242301941
1691248252127951600,9.85495166015625,34.682891845703125,0.42184045910835266,0.7481634616851807
1691248252137991700,9.86499169921875,34.68498611450195,0.6140767335891724,0.36440831422805786
1691248252148031700,9.87503173828125,34.68386459350586,0.7802689075469971,0.6698569059371948
1691248252158072800,9.88507275390625,34.6845588684082,0.8786157369613647,0.5347046852111816
1691248252168112600,9.895112548828125,34.67947769165039,0.16372661292552948,1.312208652496338
1691248252178152700,9.905152587890624,34.68608093261719,1.6877155303955078,0.3832472562789917
1691248252188192500,9.915192626953125,34.683998107910156,1.0322571992874146,0.6263488531112671
1691248252198233600,9.925233642578124,34.687461853027344,1.3575650453567505,-0.008360461331903934
1691248252208273700,9.935273681640625,34.685997009277344,1.196393370628357,0.08948007971048355
1691248252218313700,9.945313720703124,34.687557220458984,1.3020298480987549,-0.16269038617610931
1691248252228354800,9.955354736328125,34.68709182739258,0.7587172985076904,-0.12207024544477463
1691248252238424800,9.9654248046875,34.685665130615234,1.0301032066345215,0.25070226192474365
1691248252248465700,9.975465576171874,34.6854133605957,0.4617822766304016,0.18235808610916138
1691248252258505700,9.985505615234375,34.68437957763672,0.43102994561195374,0.42915722727775574
1691248252268545500,9.995545654296874,34.683311462402344,0.5415186285972595,0.63607257604599
1691248252278586600,10.005586669921875,34.68461608886719,0.7859219908714294,0.3306005597114563
1691248252288626700,10.015626708984374,34.68317794799805,0.642571747303009,0.746274471282959
1691248252298666800,10.025666748046875,34.68434143066406,1.1369572877883911,0.4364737272262573
1691248252308706800,10.035706787109374,34.67970657348633,0.8815212249755859,1.4596152305603027
1691248252318747600,10.04574755859375,34.687435150146484,2.0780129432678223,0.060508884489536285
1691248252328787700,10.05578759765625,34.68397521972656,1.251134991645813,0.6333505511283875
1691248252338827500,10.06582763671875,34.68784713745117,1.3142659664154053,-0.31637582182884216
1691248252348867600,10.07586767578125,34.6871337890625,1.144801378250122,-0.1093565821647644
1691248252358908700,10.08590869140625,34.68767166137695,1.0992906093597412,-0.3389088213443756
1691248252368979700,10.095979736328125,34.688079833984375,0.5564917325973511,-0.40919363498687744
1691248252379019800,10.106019775390624,34.685211181640625,0.6319411993026733,0.10871343314647675
1691248252389059800,10.116059814453125,34.685970306396484,0.18994569778442383,0.012293950654566288
1691248252399099600,10.126099609375,34.68345260620117,0.16683238744735718,0.5984583497047424
1691248252409140500,10.136140380859375,34.683319091796875,0.44199231266975403,0.6921930909156799
1691248252419180500,10.1461806640625,34.6833610534668,0.795587956905365,0.6863128542900085
1691248252429220600,10.156220703125,34.684730529785156,1.440182089805603,0.6501468420028687
1691248252439261700,10.16626171875,34.68083572387695,0.03639182820916176,1.137069582939148
1691248252449301800,10.1763017578125,34.68571472167969,1.9911209344863892,0.4523189961910248
1691248252459341800,10.186341796875,34.68461990356445,1.0729868412017822,0.5292321443557739
1691248252469382000,10.1963818359375,34.68694305419922,1.5351650714874268,0.03293078392744064
1691248252479422700,10.206422607421874,34.687171936035156,1.4695721864700317,-0.0714677944779396
1691248252489462500,10.216462646484375,34.68758010864258,1.4852139949798584,-0.11277608573436737
1691248252499533600,10.226533447265625,34.68710708618164,0.8848802447319031,-0.219708651304245
1691248252509573600,10.23657373046875,34.68519592285156,1.1772010326385498,0.2496202141046524
1691248252519613700,10.24661376953125,34.685630798339844,0.5324154496192932,0.14903448522090912
1691248252529654800,10.25665478515625,34.68399429321289,0.3405115008354187,0.432355135679245
1691248252539694800,10.26669482421875,34.68350601196289,0.6913039088249207,0.6058380007743835
1691248252549734700,10.276734619140624,34.68527603149414,0.8607836961746216,0.3054454028606415
1691248252559774700,10.286774658203125,34.684295654296875,1.1400395631790161,0.6222822070121765
1691248252569815600,10.296815673828124,34.683780670166016,0.5826370716094971,0.5870816111564636
1691248252579855600,10.306855712890625,34.681575775146484,1.6205189228057861,1.2280837297439575
1691248252589895700,10.316895751953124,34.686737060546875,1.7701579332351685,0.18018361926078796
1691248252599936800,10.326936767578125,34.68480682373047,1.4688225984573364,0.4876362383365631
1691248252609976800,10.336976806640624,34.68741226196289,1.1451739072799683,-0.27768674492836
1691248252620017000,10.347016845703125,34.686767578125,1.0533424615859985,-0.15353283286094666
1691248252630087700,10.357087646484375,34.687747955322266,0.950697124004364,-0.29877418279647827
1691248252640127700,10.367127685546874,34.68695831298828,0.7495583891868591,-0.1625971645116806
1691248252650168600,10.37716845703125,34.68467712402344,0.4707222282886505,0.19168448448181152
1691248252660208600,10.387208740234374,34.685672760009766,0.4394167959690094,0.10711579769849777
1691248252670248700,10.397248779296875,34.68232727050781,0.43902823328971863,0.8221865296363831
1691248252680288800,10.407288818359374,34.68473434448242,1.059067726135254,0.5033875107765198
1691248252690329900,10.417329833984375,34.68350601196289,1.095665693283081,0.6823274493217468
1691248252700369700,10.42736962890625,34.68408966064453,0.9308504462242126,0.6397645473480225
1691248252710409700,10.43740966796875,34.682987213134766,1.4832006692886353,1.0236698389053345
1691248252720450600,10.447450439453124,34.68619918823242,1.6673388481140137,0.22923238575458527
1691248252730490600,10.45749072265625,34.685977935791016,1.5655310153961182,0.2700442671775818
1691248252740530700,10.46753076171875,34.68796157836914,1.3468241691589355,-0.3503345847129822
1691248252750570800,10.47757080078125,34.687129974365234,1.0534530878067017,-0.13793176412582397
1691248252760641800,10.487641845703125,34.68733215332031,0.804110050201416,-0.3422318994998932
1691248252770681600,10.497681640625,34.68670654296875,0.5943240523338318,-0.0676722526550293
1691248252780722700,10.50772265625,34.68383026123047,0.2227177619934082,0.2968449890613556
1691248252790762800,10.5177626953125,34.68537139892578,0.4424962103366852,0.03663657605648041
1691248252800802800,10.527802734375,34.68262481689453,0.4588850140571594,0.7787461280822754
1691248252810843600,10.53784375,34.68508529663086,1.0206750631332397,0.37625566124916077
1691248252820883700,10.5478837890625,34.683162689208984,0.8904241919517517,0.8148588538169861
1691248252830923800,10.557923828125,34.68463897705078,1.5145996809005737,0.4924328625202179
1691248252840963600,10.567963623046875,34.681331634521484,1.0133192539215088,1.2765876054763794
1691248252851004700,10.578004638671874,34.68746566772461,2.1331334114074707,0.16858474910259247
1691248252861044700,10.588044677734375,34.685245513916016,1.4768933057785034,0.5199978947639465
1691248252871084800,10.598084716796874,34.68809127807617,1.266895055770874,-0.25636759400367737
1691248252881125600,10.608125732421875,34.68761444091797,1.1735378503799438,-0.14977137744426727
1691248252891195600,10.618195556640625,34.68781280517578,1.0188162326812744,-0.2288675308227539
1691248252901236700,10.62823681640625,34.686771392822266,0.7974864840507507,-0.18262919783592224
1691248252911276800,10.63827685546875,34.68492889404297,0.5637230277061462,0.24200677871704102
1691248252921316600,10.648316650390624,34.685176849365234,0.4172893762588501,0.08283869177103043
1691248252931357700,10.658357666015625,34.68239212036133,0.5668604969978333,0.7575638890266418
1691248252941372700,10.66837255859375,34.684810638427734,1.1757822036743164,0.5035606026649475
1691248252951412700,10.678412841796876,34.68448257446289,1.2918741703033447,0.6004714369773865
1691248252961452500,10.68845263671875,34.683963775634766,0.9329473972320557,0.6663620471954346
1691248252971493400,10.698493408203126,34.683807373046875,1.818700909614563,0.8707764148712158
1691248252981533400,10.708533447265625,34.68594741821289,1.6171696186065674,0.22406665980815887
1691248252991573500,10.718573486328125,34.68614196777344,1.790802240371704,0.18844448029994965
1691248253001613600,10.728613525390625,34.68783187866211,1.2772281169891357,-0.32530272006988525
1691248253011654700,10.738654541015626,34.68697738647461,1.3189481496810913,-0.13971689343452454
1691248253021725700,10.7487255859375,34.68780517578125,0.9821298718452454,-0.36699211597442627
1691248253031765800,10.758765869140625,34.68651580810547,0.8775389790534973,0.01429078821092844
1691248253041805600,10.7688056640625,34.6853141784668,0.6166014075279236,0.2269734889268875
1691248253051845600,10.778845703125,34.68499755859375,0.5262914896011353,0.18173277378082275
1691248253061886500,10.788886474609376,34.68353271484375,0.7863672971725464,0.7154566049575806
1691248253071926500,10.798926513671875,34.684539794921875,1.0373352766036987,0.42143377661705017
1691248253081966600,10.808966552734375,34.68464279174805,1.4122124910354614,0.6416178345680237
1691248253092007700,10.819007568359375,34.68326187133789,0.660048246383667,0.7402849793434143
1691248253102047700,10.8290478515625,34.68489074707031,1.9882508516311646,0.6076092720031738
1691248253112087600,10.839087646484375,34.685176849365234,1.0785677433013916,0.37232136726379395
1691248253122127600,10.849127685546875,34.6867561340332,1.8072941303253174,0.0660352110862732
1691248253132168400,10.85916845703125,34.68717956542969,1.3186216354370117,-0.1591329276561737
1691248253142208500,10.86920849609375,34.687557220458984,1.2695834636688232,-0.18787029385566711
1691248253152279600,10.879279541015626,34.68866729736328,1.0950864553451538,-0.3687673807144165
1691248253162319600,10.889319580078125,34.68659591674805,1.0037297010421753,0.08079711347818375
1691248253172359400,10.899359375,34.68558120727539,0.8044416308403015,0.06890609860420227
1691248253182400500,10.909400390625,34.68418502807617,0.4647311866283417,0.4132767915725708
1691248253192440600,10.919440673828126,34.68413162231445,1.0070713758468628,0.6190435290336609
1691248253202480600,10.929480712890625,34.68242263793945,0.6484339237213135,0.8329896330833435
1691248253212520700,10.939520751953125,34.684391021728516,1.727548599243164,0.7163365483283997
1691248253222561500,10.9495615234375,34.681617736816406,0.6916937828063965,1.0106959342956543
1691248253232601600,10.9596015625,34.68719482421875,2.1643011569976807,0.2682844400405884
1691248253242641700,10.9696416015625,34.68467330932617,1.4041492938995361,0.4342031180858612
1691248253252682800,10.979682861328126,34.68832015991211,1.6102755069732666,-0.2847585082054138
1691248253262722600,10.98972265625,34.688148498535156,1.5130600929260254,-0.17662642896175385
1691248253272762600,10.9997626953125,34.68815612792969,1.0531315803527832,-0.2756046652793884
1691248253282833700,11.009833740234376,34.68793487548828,0.7850958704948425,-0.29522791504859924
1691248253292873700,11.019873779296875,34.68461227416992,0.4976619780063629,0.19610773026943207
1691248253302914600,11.02991455078125,34.685577392578125,0.5523654222488403,0.04928312823176384
1691248253312954600,11.03995458984375,34.68275451660156,0.3569735586643219,0.6120687127113342
1691248253322994400,11.049994384765625,34.68476867675781,1.0182886123657227,0.4184401333332062
1691248253333034500,11.060034423828125,34.683841705322266,0.9847490787506104,0.6163561344146729
1691248253343075600,11.07007568359375,34.68477249145508,1.2515333890914917,0.5425817966461182
1691248253353115600,11.08011572265625,34.682640075683594,1.5692540407180786,0.9773880839347839
1691248253363155700,11.09015576171875,34.6865234375,1.818772315979004,0.14316780865192413
1691248253373196500,11.100196533203125,34.68560791015625,1.7695575952529907,0.33465948700904846
1691248253383236600,11.110236572265626,34.688236236572266,1.3110835552215576,-0.26688656210899353
1691248253393276700,11.120276611328125,34.68770217895508,1.5049957036972046,-0.09542931616306305
1691248253403316500,11.13031640625,34.688358306884766,1.222656488418579,-0.3220140039920807
1691248253413387500,11.140387451171875,34.68695831298828,1.1033039093017578,-0.03454839065670967
1691248253423427600,11.150427490234375,34.68538284301758,0.895868182182312,0.15071015059947968
1691248253433468700,11.16046875,34.685089111328125,0.5352117419242859,0.2707803547382355
1691248253443508700,11.1705087890625,34.684173583984375,1.081371784210205,0.6370962858200073
1691248253453548500,11.180548583984375,34.68384552001953,1.0416642427444458,0.6917861700057983
1691248253463589600,11.190589599609375,34.68511962890625,1.7118340730667114,0.6454703211784363
1691248253473629400,11.20062939453125,34.681884765625,0.7674218416213989,0.9795929193496704
1691248253483669500,11.21066943359375,34.68745040893555,2.2306487560272217,0.20365431904792786
1691248253493709600,11.22070947265625,34.68492126464844,1.3293280601501465,0.446401983499527
1691248253503750700,11.230750732421875,34.68916702270508,1.7291353940963745,-0.3220645785331726
1691248253513790700,11.240790771484376,34.688175201416016,1.4962928295135498,-0.17407885193824768
1691248253523830500,11.25083056640625,34.68808364868164,1.104614496231079,-0.3082995116710663
1691248253533871600,11.26087158203125,34.68805694580078,0.7784262895584106,-0.3904428482055664
1691248253543941400,11.27094140625,34.685298919677734,0.4831751883029938,0.16849926114082336
1691248253553982500,11.280982421875,34.68623733520508,0.5650969743728638,-0.019829630851745605
1691248253564022500,11.2910224609375,34.68373107910156,0.30121415853500366,0.5637112855911255
1691248253574062600,11.3010625,34.6848258972168,0.9373128414154053,0.4506622552871704
1691248253584103700,11.311103759765626,34.6824951171875,1.0084391832351685,0.849980890750885
1691248253594143700,11.321143798828125,34.6845703125,1.6463028192520142,0.6209407448768616
1691248253604183600,11.33118359375,34.683658599853516,1.4690654277801514,0.7092772722244263
1691248253614223400,11.341223388671875,34.686038970947266,1.5316089391708374,0.36896684765815735
1691248253624264400,11.351264404296876,34.687652587890625,1.85015869140625,0.05766196548938751
1691248253634304500,11.361304443359375,34.68745040893555,1.3668056726455688,-0.07718133926391602
1691248253644344600,11.371344482421875,34.6879768371582,1.567789077758789,-0.23887436091899872
1691248253654384600,11.381384521484375,34.68834686279297,1.3220552206039429,-0.2260613590478897
1691248253664425700,11.39142578125,34.68640899658203,1.11448073387146,0.008325307630002499
1691248253674496800,11.401496826171876,34.68632507324219,0.9238327145576477,0.10032900422811508
1691248253684536600,11.41153662109375,34.68410873413086,0.7006920576095581,0.48829057812690735
1691248253694576400,11.421576416015625,34.684173583984375,1.1674776077270508,0.4743768870830536
1691248253704616400,11.431616455078125,34.682945251464844,0.850349485874176,0.811206042766571
1691248253714657500,11.441657470703126,34.685001373291016,1.7333875894546509,0.5283445119857788
1691248253724697600,11.451697509765625,34.68144226074219,0.9264455437660217,1.0822255611419678
1691248253734737700,11.461737548828125,34.68758010864258,2.200309991836548,0.12348465621471405
1691248253744778800,11.47177880859375,34.68605041503906,1.614782452583313,0.3270420432090759
1691248253754818600,11.481818603515626,34.68809509277344,1.5322084426879883,-0.29895395040512085
1691248253764858400,11.4918583984375,34.688453674316406,1.4821280241012573,-0.2724810540676117
1691248253774898400,11.5018984375,34.688255310058594,1.260550618171692,-0.272382527589798
1691248253784939500,11.511939453125,34.6872673034668,0.982012152671814,-0.23353712260723114
1691248253794979600,11.5219794921875,34.68577575683594,0.7298520803451538,0.17600591480731964
1691248253805050600,11.532050537109376,34.68614959716797,0.6233120560646057,0.09393022209405899
1691248253815090700,11.542090576171875,34.68347930908203,0.8146061301231384,0.5753932595252991
1691248253825130500,11.552130615234375,34.68424606323242,1.1683820486068726,0.5203757882118225
1691248253835171600,11.562171630859375,34.68508529663086,1.630777359008789,0.6335932016372681
1691248253845211400,11.57221142578125,34.68254089355469,1.0276880264282227,0.8272246718406677
1691248253855251500,11.58225146484375,34.68680953979492,2.189453601837158,0.280711829662323
1691248253865291500,11.59229150390625,34.68455505371094,1.2826348543167114,0.4423004388809204
1691248253875332600,11.60233251953125,34.68852996826172,1.9437768459320068,-0.2313155084848404
1691248253885372700,11.61237255859375,34.68819808959961,1.414332389831543,-0.17659340798854828
1691248253895412700,11.622412841796875,34.687530517578125,1.0569050312042236,-0.3000974953174591
1691248253905453600,11.63245361328125,34.6880989074707,0.8098494410514832,-0.3810506761074066
1691248253915493400,11.642493408203125,34.68537902832031,0.47533562779426575,0.09091685712337494
1691248253925533400,11.652533447265625,34.68549346923828,0.5753836631774902,-0.010902981273829937
1691248253935604500,11.6626044921875,34.683109283447266,0.3872806131839752,0.5794569849967957
1691248253945659600,11.67265966796875,34.68478012084961,0.9388604164123535,0.4672854244709015
1691248253955700700,11.68270068359375,34.68288040161133,1.2899936437606812,0.8693961501121521
1691248253965740800,11.69274072265625,34.6839714050293,1.3130912780761719,0.6913137435913086
1691248253975780600,11.702780517578125,34.68518829345703,1.798983097076416,0.5382027626037598
1691248253985820700,11.712820556640626,34.6851921081543,1.2600232362747192,0.42937853932380676
1691248253995861800,11.72286181640625,34.68824005126953,2.0079262256622314,-0.1484224945306778
1691248254005901800,11.73290185546875,34.6875,1.5550905466079712,-0.08887341618537903
1691248254015941600,11.742941650390625,34.688663482666016,1.4174286127090454,-0.2963733375072479
1691248254025982700,11.752982666015624,34.6879997253418,1.2437313795089722,-0.24566036462783813
1691248254036022800,11.763022705078125,34.68647384643555,0.9137287139892578,0.06622322648763657
1691248254046062600,11.7730625,34.685855865478516,0.8061449527740479,0.06638860702514648
1691248254056102700,11.7831025390625,34.68388748168945,0.590645432472229,0.5629144906997681
1691248254066173700,11.793173583984375,34.684730529785156,1.0421864986419678,0.3941454291343689
1691248254076213500,11.803213623046876,34.683441162109375,1.060247540473938,0.787146806716919
1691248254086254600,11.813254638671875,34.68501663208008,1.4190139770507812,0.5580518245697021
1691248254096294700,11.823294677734374,34.68356704711914,1.6764870882034302,0.7836154103279114
1691248254106334700,11.833334716796875,34.68584442138672,1.5733106136322021,0.27869129180908203
1691248254116375800,11.843375732421874,34.68770217895508,1.9837697744369507,0.06686984747648239
1691248254126415600,11.85341552734375,34.687950134277344,1.574530839920044,-0.15503326058387756
1691248254136455700,11.86345556640625,34.6884880065918,1.6270414590835571,-0.24542440474033356
1691248254146495700,11.873495849609375,34.688350677490234,1.4261305332183838,-0.28493747115135193
1691248254156536800,11.883536865234374,34.68722915649414,1.2229512929916382,-0.021342840045690536
1691248254166576600,11.89357666015625,34.68672180175781,1.0101468563079834,0.03279656171798706
1691248254176616700,11.90361669921875,34.684513092041016,0.7112528085708618,0.4490816593170166
1691248254186657800,11.91365771484375,34.68503189086914,1.256288766860962,0.39198243618011475
1691248254196727800,11.923727783203125,34.68360900878906,0.8792266249656677,0.725727379322052
1691248254206768600,11.9337685546875,34.68478012084961,1.9010709524154663,0.571368396282196
1691248254216808700,11.94380859375,34.683841705322266,1.406110405921936,0.7599353790283203
1691248254226848500,11.9538486328125,34.68692398071289,1.938323974609375,0.14295849204063416
1691248254236889600,11.9638896484375,34.68730926513672,1.7835091352462769,0.07915740460157394
1691248254246929700,11.9739296875,34.688323974609375,1.4378327131271362,-0.2548733055591583
1691248254256969700,11.9839697265625,34.688255310058594,1.7085627317428589,-0.2937336266040802
1691248254267009800,11.994009765625,34.68865966796875,1.4132753610610962,-0.3756308853626251
1691248254277050600,12.004050537109375,34.687557220458984,1.239466905593872,-0.1173442006111145
1691248254287090700,12.014090576171874,34.68641662597656,1.0062512159347534,0.022183332592248917
1691248254297130800,12.024130859375,34.684669494628906,0.6628962159156799,0.31923019886016846
1691248254307170600,12.034170654296876,34.6846809387207,1.1044272184371948,0.4621167778968811
1691248254317211600,12.044211669921875,34.68341064453125,0.7916134595870972,0.7832934856414795
1691248254327282700,12.05428271484375,34.68526077270508,1.9650146961212158,0.6706153750419617
1691248254337322800,12.06432275390625,34.68341827392578,1.2072548866271973,0.7825430035591125
1691248254347362800,12.07436279296875,34.68620681762695,2.105586290359497,0.29092851281166077
1691248254357403000,12.08440283203125,34.68699264526367,1.7337591648101807,0.12168755382299423
1691248254367443700,12.094443603515625,34.68809509277344,1.442206621170044,-0.13644999265670776
1691248254377483500,12.1044833984375,34.68867874145508,1.701318621635437,-0.25247833132743835
1691248254387523600,12.114523681640625,34.6875114440918,1.3944268226623535,-0.2530983090400696
1691248254397564700,12.124564697265624,34.6869010925293,1.2476675510406494,-0.029464680701494217
1691248254407604700,12.134604736328125,34.68678283691406,1.0452840328216553,0.056894708424806595
1691248254417644800,12.144644775390624,34.683982849121094,0.7404780983924866,0.462721049785614
1691248254427684900,12.154684814453125,34.684852600097656,1.2813408374786377,0.45547670125961304
1691248254437725700,12.1647255859375,34.683433532714844,0.9612025022506714,0.762568473815918
1691248254447765500,12.174765625,34.684425354003906,1.882662296295166,0.6138242483139038
1691248254457836500,12.18483642578125,34.68273162841797,1.2262061834335327,0.8895458579063416
1691248254467876600,12.194876708984374,34.686668395996094,2.1073741912841797,0.2609160244464874
1691248254477916700,12.204916748046875,34.68705749511719,1.8015762567520142,0.1678992509841919
1691248254487957800,12.214957763671874,34.6878662109375,1.5762158632278442,-0.1642078459262848
1691248254497997800,12.224997802734375,34.688743591308594,1.7035423517227173,-0.2330750674009323
1691248254508038000,12.235037841796874,34.68768310546875,1.4404886960983276,-0.2569553554058075
1691248254518077700,12.24507763671875,34.68677520751953,1.3352184295654297,-0.06296511739492416
1691248254528118500,12.255118408203124,34.686180114746094,1.1184890270233154,0.06505676358938217
1691248254538158600,12.26515869140625,34.68496322631836,0.7779626250267029,0.3438037037849426
1691248254548198700,12.27519873046875,34.68464279174805,1.3585267066955566,0.42661842703819275
1691248254558239700,12.28523974609375,34.68326187133789,0.9686524271965027,0.6671503186225891
