time,seconds_elapsed,z,y,x
1690821329238516200,0.19751611328125,0.22813830902278423,-0.02587586160781793,0.019893033471703528
1690821329248587300,0.207587158203125,0.20191490348577498,-0.07360461291768587,0.03734357829526998
1690821329258627000,0.217626953125,0.18177929342985152,-0.10543583926595747,0.04468069798401557
1690821329268667100,0.227667236328125,0.16698270631432532,-0.12917145570837893,0.0612957235652022
1690821329278707200,0.237707275390625,0.17308686840832233,-0.1401892640707083,0.061631476591899985
1690821329288748300,0.247748291015625,0.17720891677439213,-0.11693586905412376,0.04395986376302317
1690821329298788400,0.257788330078125,0.19656243654191494,-0.08578244150271638,0.027116847245395183
1690821329308828400,0.267828369140625,0.22128829699754712,-0.05119460992268286,0.019388938140776007
1690821329318869200,0.277869140625,0.23543898742496966,0.022392266408912835,-0.011327714561717585
1690821329328909000,0.287908935546875,0.25770693333446976,0.08373392974138259,-0.030393877888377753
1690821329338949000,0.29794921875,0.26306349193155765,0.1418319075780455,-0.032155069741467014
1690821329348989200,0.3079892578125,0.2703109788417816,0.1783974507055245,-0.04274934632894583
1690821329359030300,0.3180302734375,0.283460383272171,0.21906446520192546,-0.04482543108379468
1690821329369070300,0.3280703125,0.279752760925889,0.23073767786622046,-0.04421260554823093
1690821329379110400,0.3381103515625,0.2827244702130556,0.21807211143001912,-0.03322096367361955
1690821329389150200,0.348150146484375,0.2684650587141514,0.1814872699470259,-0.03586789798582904
1690821329399191000,0.35819091796875,0.24803660319149493,0.13384241579463704,-0.027281992945540696
1690821329409231000,0.368231201171875,0.23073007908165455,0.0962842540337704,-0.018749900451721622
1690821329419302100,0.37830224609375,0.22358955967724323,0.051465353155462065,-0.020415221581747755
1690821329429342200,0.38834228515625,0.20461247200667856,0.006563495834590867,-0.01706998454076238
1690821329439382300,0.39838232421875,0.18935469712018965,-0.02642268183561973,-0.0040096557664684946
1690821329449423400,0.40842333984375,0.20191373444199562,-0.045728307340806344,0.001649822166794911
1690821329459463400,0.41846337890625,0.20130700072050092,-0.049206541378004474,0.003575986190093681
1690821329469503200,0.428503173828125,0.19308277773261068,-0.0562277726511471,0.009082538583967834
1690821329479544000,0.4385439453125,0.2065887405157089,-0.038232152032293375,0.007461979044275358
1690821329489584000,0.448584228515625,0.21922493472695348,-0.004299660822143778,0.0048973709869664156
1690821329499624200,0.458624267578125,0.22650866199433803,0.01793533266582526,0.002375149899814278
1690821329509664300,0.468664306640625,0.23847148698866366,0.039984877451136706,-0.01032909544580616
1690821329519705300,0.478705322265625,0.2379033317118883,0.06529175266511737,-0.019499303180072456
1690821329529745400,0.488745361328125,0.24858079307079314,0.07451479569831862,-0.02275073359091766
1690821329539785200,0.49878515625,0.2460948214739561,0.07488779372917488,-0.017948073416389525
1690821329549826000,0.508825927734375,0.2552922734081745,0.06640942245027981,-0.010984024823736399
1690821329559866000,0.5188662109375,0.24397534510195254,0.06859935197629966,-0.01869102813764475
1690821329569906200,0.52890625,0.22784604807794093,0.054315308359637854,-0.010396224131574854
1690821329579946200,0.5389462890625,0.21798516379892824,0.036893432508129625,-0.0019159988223109393
1690821329590017300,0.549017333984375,0.21124445736706254,0.008567346470290794,-0.004414135780977085
1690821329600057300,0.559057373046875,0.20777181282043455,-0.008377331190370024,0.0032171536819078027
1690821329610098400,0.569098388671875,0.20503566585481164,-0.021096682773577048,0.018262098668469114
1690821329620138200,0.57913818359375,0.20019582460820673,-0.031059246461931613,0.0019950006089638917
1690821329630178300,0.58917822265625,0.19999591812193393,-0.01901615930562839,-0.003625935412198305
1690821329640219100,0.59921923828125,0.20472586925327776,-0.015766427661525084,-0.0023356764059513807
1690821329650259200,0.60925927734375,0.21260347076058386,-0.01581607548953034,-0.0014279869765043258
1690821329660299300,0.61929931640625,0.21151509100198745,0.005568484314717352,-0.004248688686732203
1690821329670339300,0.62933935546875,0.23258885869085788,0.018645682025421408,0.0015288900677114725
1690821329680380400,0.63938037109375,0.2300339135110378,0.02554135982329026,-0.002805695937341079
1690821329690420200,0.649420166015625,0.231389419773221,0.036426271654106675,-0.0010880692313425242
1690821329700460300,0.659460205078125,0.23559563929140567,0.05048873580880463,-0.003834308332717046
1690821329710501000,0.669501220703125,0.23471710289120673,0.050135118331853294,-0.010947327808849513
1690821329720541200,0.679541259765625,0.22890403269827364,0.03513751048520207,-0.0012995748238638042
1690821329730581200,0.689581298828125,0.22114684270024298,0.02424858006639406,-0.011123670756444335
1690821329740621300,0.699621337890625,0.21443010166585444,0.01806154372822493,-0.01922380157378502
1690821329750662400,0.709662353515625,0.21504092704057692,0.011298561532469466,-0.0035248861905187367
1690821329760702200,0.7197021484375,0.21025661537349222,0.006069949297141284,0.0006599800123833119
1690821329770773200,0.729773193359375,0.20411796648800373,-0.00959185807928443,0.0028871819420251995
1690821329780813300,0.739813232421875,0.20080664998292921,-0.01569401087928563,0.007983409102493897
1690821329790853400,0.749853271484375,0.19688918427824972,-0.01015995855713263,0.006106938572973013
1690821329800894200,0.759894287109375,0.2050952870875597,-0.012793174871243537,0.0025452549028676
1690821329810934300,0.769934326171875,0.20716391005516052,-0.013270930184517055,-0.003440203581750393
1690821329820974300,0.779974365234375,0.20339257482290266,-0.00030070911278016864,0.004302044575475156
1690821329831015400,0.790015380859375,0.21070377461910247,0.0059070320867002,0.0018919420932885257
1690821329841055200,0.80005517578125,0.2310410447269678,0.0018268501009792088,-0.006982972488831728
1690821329851095300,0.81009521484375,0.2295429151237011,0.018749087600968776,-0.0061306847747415304
1690821329861135400,0.82013525390625,0.22161796734333036,0.023586079303361474,-0.001711681022401899
1690821329871176200,0.83017626953125,0.2189332583039999,0.02677955984873697,-0.0009010770255699753
1690821329881216300,0.84021630859375,0.21400749233961103,0.025238038628315553,-0.006993731344863772
1690821329891256300,0.85025634765625,0.22255086427927015,0.012011815235204995,0.0023390465399716048
1690821329901296000,0.860296142578125,0.21238895122706888,0.007174905731203034,-0.0005996555267367512
1690821329911337200,0.870337158203125,0.2100046864390373,0.006588712474238127,0.005180425712047144
1690821329921377300,0.880377197265625,0.21375497888326644,0.005062014363612979,0.008567684397008269
1690821329931417300,0.890417236328125,0.20717092431783674,-0.0031585005635395643,0.00618540150350891
1690821329941488400,0.90048828125,0.19788579410016535,-0.009211845785751939,-0.004582414153125137
1690821329951528200,0.910528076171875,0.1947328830271959,0.003006415274366736,0.0004094119179528206
1690821329961569300,0.9205693359375,0.19980770207345486,-0.0049287799053825436,-0.0038375871351920064
1690821329971609300,0.930609375,0.2065320418924093,-0.015190938461665063,0.0010170224222820251
1690821329981649200,0.940649169921875,0.20711539473831653,-0.0027716018714942035,-0.0013108999354764818
1690821329991690200,0.950690185546875,0.20949732143878935,0.007106324873864651,-0.01069178214520216
1690821330001730300,0.960730224609375,0.20500176358520983,0.011854323118552565,-0.001958723719185218
1690821330011770400,0.970770263671875,0.21472236261069774,0.013936152627598494,-0.0086360734581016
1690821330021810200,0.98081005859375,0.21067980922162532,0.01880048899464309,-0.01045698700863868
1690821330031851300,0.990851318359375,0.21172551888227462,0.020515987675637004,0.0009577939151786268
1690821330041891300,1.000891357421875,0.21965981901288031,0.0047812794597819445,-0.0033368162725120783
1690821330051931100,1.01093115234375,0.21518004325032233,0.007668927192687988,-0.004659497977327555
1690821330061972200,1.02097216796875,0.2005237413883209,0.015786164408456534,-0.0009678129856940358
1690821330072012300,1.03101220703125,0.20830781939327717,0.002998122370056808,-0.0026961528819520026
1690821330082052400,1.04105224609375,0.20202830073237418,0.000528553918749094,-0.005516233537672087
1690821330092092200,1.051092041015625,0.20367256080806254,0.007145195579528808,-0.0035496187729761003
1690821330102133200,1.06113330078125,0.20516250710487363,0.001204480418935418,-0.0013876823655795305
1690821330112203300,1.071203369140625,0.20126608418822287,-0.013423709593433886,0.00032924108752049506
1690821330122244400,1.081244384765625,0.204253575566411,-0.010568174031842499,0.005505840007821098
1690821330132284200,1.0912841796875,0.19556758028566837,0.002647664964571595,0.0009291797420475632
1690821330142324200,1.10132421875,0.20109248118698594,-0.00458075191900134,0.005068142710300162
1690821330152365300,1.111365234375,0.20512392866015433,0.003741524615883827,-0.0008459127722308039
1690821330162405400,1.1214052734375,0.2004804867684841,0.0031707755232229825,-0.0036698476191610097
1690821330172445200,1.131445068359375,0.1973304983049631,0.0013941212395206092,-0.0010419376678299159
1690821330182485200,1.1414853515625,0.20256430730521677,0.011690748320985584,-0.0005630681097041815
1690821330192526300,1.1515263671875,0.20361410861909388,0.0073949690895155065,0.001127223064796999
1690821330202553600,1.1615537109375,0.20735738680064678,0.009804021258931607,-0.0019949184105731545
1690821330212593700,1.17159375,0.20242168396413326,0.008244736052956432,-0.0004143620877061039
1690821330222634500,1.181634521484375,0.20646832900643347,0.007960092158988118,0.0005227817650884389
1690821330232674300,1.19167431640625,0.20916706657111644,0.00027372064115479584,-0.002872861155727878
1690821330242714400,1.20171435546875,0.20213702180385587,-0.008209116750303655,0.0032832959869876503
1690821330252754400,1.21175439453125,0.19630290882289408,-0.00045747971022501584,-0.0007779529694002122
1690821330262795500,1.22179541015625,0.19331015674769877,-0.002741827787738293,0.0036911187360528855
1690821330272835600,1.231835693359375,0.19435820449590682,-0.004610379872284829,-0.003649873410211876
1690821330282906600,1.24190673828125,0.19405542215704916,-0.0019569792866706848,-0.0019421927094925193
1690821330292946700,1.25194677734375,0.1952478468120098,-0.00639322643475607,0.005423285424057394
1690821330302986500,1.261986572265625,0.19958266114592552,-0.00010603592405095696,0.003058200260531157
1690821330313027300,1.27202734375,0.19119652559459208,0.005757979004830121,0.0027660306472331283
1690821330323067400,1.2820673828125,0.19687983192801475,0.005471435414720326,-0.0004873359923716634
1690821330333107500,1.292107421875,0.20959727468192577,0.012709533442091196,0.000592431201506406
1690821330343147500,1.3021474609375,0.20196400332450865,0.00486968839559704,0.007391525890259072
1690821330353188600,1.312188720703125,0.1956792239665985,0.0016262677612714467,0.004924341192282736
1690821330363228700,1.322228759765625,0.19313655374646185,0.00567061124863103,-0.0009822707693092525
1690821330373268500,1.3322685546875,0.20481296301484106,0.007371953540109098,0.0013289744482841341
1690821330383309300,1.342309326171875,0.20466566349864004,0.003410301633831113,-0.003843523685634136
1690821330393349400,1.352349365234375,0.20227438444793222,0.003651453445944935,-0.00892733888910152
1690821330403389400,1.362389404296875,0.19988018278777597,0.005248604710586369,-0.002530861051334068
1690821330413429500,1.372429443359375,0.19718436783254145,-0.0007421784031204879,0.0043305400175973775
1690821330423470600,1.382470703125,0.1925461866378784,-0.001232044279295951,-0.001622514034761116
1690821330433510700,1.3925107421875,0.18775661427378654,0.002842548215854913,0.00043280192669481037
1690821330443550500,1.402550537109375,0.19014964689016342,-0.0023284612138755618,-0.00362860229332
1690821330453621500,1.41262158203125,0.1952349873304367,-0.0003254142957739532,-0.006686729488614946
1690821330463661300,1.422661376953125,0.19463234526216983,0.0016056816309690475,-0.0016285875825211404
1690821330473702400,1.432702392578125,0.19477906025648115,0.004910075204912573,-0.007265616221958771
1690821330483742500,1.442742431640625,0.19163374796807764,0.003992120109777898,0.0024574944210238752
1690821330493782500,1.452782470703125,0.20016484494805334,0.0004450403537601232,0.0015079568775370716
1690821330503823600,1.46282373046875,0.20046528919935225,0.00034877690505236386,-0.006596977979084476
1690821330513863700,1.47286376953125,0.20076281084120273,0.005523147335648537,-0.003424321026029065
1690821330523903500,1.482903564453125,0.20255612399876116,0.000849821762368083,0.0001676481844857335
1690821330533943300,1.492943359375,0.19896306794285773,0.000677607000619173,0.0014803382182493805
1690821330543984400,1.502984375,0.1940238579750061,-0.0011828348427079618,-0.004926551415678114
1690821330554024400,1.5130244140625,0.19207564651668071,-0.000779167678952217,-0.005335588874295354
1690821330564064500,1.523064453125,0.1862427025794983,-0.004431443108804524,-0.0018685886171646415
1690821330574105600,1.533105712890625,0.19686638792455194,-0.003794095053337514,-0.006592493600212037
1690821330584145700,1.543145751953125,0.19372516728937625,-0.00036497912118211385,-0.0056191459228750315
1690821330594185500,1.553185546875,0.19237550624608993,-0.0037032566984184084,0.004540456441231072
1690821330604225300,1.563225341796875,0.1904284638315439,-0.0038335502808913586,0.009291605624230578
1690821330614266400,1.573266357421875,0.1802501841664314,-0.006643858461268246,0.0008563519678544253
1690821330624306400,1.583306396484375,0.19985095669329164,-0.008710179873928426,-0.00458563815667294
1690821330634377500,1.59337744140625,0.19820260496437547,-0.003521579988580197,0.004491548398742452
1690821330644417500,1.60341748046875,0.18398703260719776,-0.00723283733036369,-0.0007630293949041515
1690821330654457600,1.61345751953125,0.19326397951841354,-0.0007109612809494138,-0.004676467378437518
1690821330664498700,1.623498779296875,0.200594468536973,0.0064975087931379676,0.0018870101898442952
1690821330674538500,1.63353857421875,0.1944587422609329,0.006432955656945705,0.0018495733894407747
1690821330684578300,1.643578369140625,0.18862462927997112,-0.002377926378790289,-0.004996675776131451
1690821330694618400,1.653618408203125,0.19685352844297885,0.0072310472320765255,-0.0011525584354531019
1690821330704659500,1.663659423828125,0.19640636919736862,0.001530040845181793,0.004079213871341199
1690821330714699500,1.673699462890625,0.19207038581967353,-0.0027160540256649253,-0.000235626253625378
1690821330724739600,1.683739501953125,0.19536475118994712,-0.0053677010456100105,-0.0011431421531364321
1690821330734780700,1.69378076171875,0.18489128797054288,0.002737370808329433,0.0028493706822860982
1690821330744820500,1.703820556640625,0.19356734637916087,-0.00586105578681454,0.0048962110763415695
1690821330754860300,1.7138603515625,0.19580957234799862,-0.002823405123967677,0.003878074409207329
1690821330764900400,1.723900390625,0.19446400295794009,-0.002367624180484563,-0.002948693737760186
1690821330774941400,1.73394140625,0.18608312810361385,-0.0017413089756853877,-0.0015210538211278617
1690821330784981500,1.7439814453125,0.19176994156837462,-0.007177526946552097,-0.0011807068177033214
1690821330795021600,1.754021484375,0.19536241310238836,0.005416599954944104,-0.001382284671254456
1690821330805092600,1.764092529296875,0.19640870728492735,0.0007045132738538086,0.0014524546974804251
1690821330815132400,1.77413232421875,0.1944587422609329,-0.0023674597837030887,0.0006249452316202223
1690821330825173500,1.784173583984375,0.18787644126117228,0.0016228154288604854,0.00016327340346761047
1690821330835213300,1.79421337890625,0.1908686088144779,-0.0048471477702260015,-0.005039144944678992
1690821330845253400,1.80425341796875,0.1938619454115629,-0.0016985475461930035,0.0012155224027577786
1690821330855293400,1.81429345703125,0.18847557619810104,-0.001224719489365816,-0.0016010419884696602
1690821330865334500,1.82433447265625,0.19101941546201706,0.004228796676173806,0.0017414733724668621
1690821330875374600,1.83437451171875,0.19535890597105024,0.004968965785298496,-0.00033743352713063357
1690821330885414400,1.844414306640625,0.1911702221095562,-0.00620919337105006,-0.0026276176903862504
1690821330895455500,1.85445556640625,0.19027415005266665,-0.005222593486495316,-0.0019142635229509324
1690821330905495300,1.864495361328125,0.20090017348527908,0.0014145795056596398,0.0029383824062999336
1690821330915535400,1.874535400390625,0.19805647449195385,-0.0007588920759037137,0.00038162886188365517
1690821330925575400,1.884575439453125,0.18278876273334024,-0.000011014584358781575,0.0008682159355841577
1690821330935616500,1.894616455078125,0.19266192197203635,0.0018333163743838668,0.0009463774720206856
1690821330945656600,1.904656494140625,0.1972965960353613,-0.003292940598167479,0.009278581745876
1690821330955696400,1.9146962890625,0.19654782349467276,-0.001680938824266195,-0.006456820589723065
1690821330965737200,1.9247373046875,0.19639584780335426,-0.002371971562039107,-0.002944656883459538
1690821330975807500,1.934807373046875,0.192054603728652,0.001387801096588373,0.001984378750249743
1690821330985848300,1.944848388671875,0.19220365681052207,0.009226038707885891,-0.0013866411859635264
1690821330995888400,1.954888427734375,0.1959445969045162,0.00018527517272159456,-0.0035776118915993717
1690821331005928400,1.964928466796875,0.18771335965394972,-0.005281776327826082,-0.0016138284048065543
1690821331015969500,1.974969482421875,0.1878635817795992,-0.0007302505033090711,-0.0012919669061433523
1690821331026009600,1.985009521484375,0.19175591304302214,-0.0003512245904654264,0.008530612922785803
1690821331036049400,1.99504931640625,0.19145605331361293,-0.006857409880403429,-0.0035966271193232386
1690821331046089500,2.00508935546875,0.18741525349020957,-0.0035865349835716184,-0.012096406512428074
1690821331056130300,2.01513037109375,0.18741466896831988,-0.004974811004195362,-0.004166837355867028
1690821331066170400,2.02517041015625,0.1857663172394037,-0.0013337145554833114,0.005168744407407939
1690821331076210400,2.03521044921875,0.1963894180625677,0.00407267453270033,-0.0017759784302674234
1690821331086251500,2.04525146484375,0.19204817398786544,0.0026430253220722077,0.0034820151631720364
1690821331096291600,2.05529150390625,0.195038587975502,0.004492068988550454,-0.00557525198222138
1690821331106331400,2.065331298828125,0.18635843791365622,-0.001264704439882189,-0.0033288795612286775
1690821331116371500,2.075371337890625,0.18949732046127318,0.007713204725831747,-0.0011659202405251562
1690821331126412300,2.085412353515625,0.1848568011790514,0.010294891782104968,-0.004309095370769501
1690821331136452400,2.095452392578125,0.188298466065526,-0.0010111132713034748,-0.001100618185661733
1690821331146523400,2.1055234375,0.1909919429332018,-0.007926536949258297,-0.0038070184669923035
1690821331156563500,2.1155634765625,0.19128946457505225,-0.0005704020327888428,-0.0014503449387848377
1690821331166603500,2.125603515625,0.1971265001654625,0.005894702328089624,-0.0067575205693487074
1690821331176644600,2.13564453125,0.19024492395818232,-0.004928597242292016,0.0016533292981330305
1690821331186684400,2.145684326171875,0.19069617485702037,-0.00886811038199812,-0.004412336549535393
1690821331196724500,2.155724365234375,0.18785189134180544,-0.002805029217060655,-0.003796478806668892
1690821331206754600,2.165754638671875,0.19159166239202022,-0.002272036585211754,0.0007001019602175802
1690821331216795400,2.17579541015625,0.1899450642287731,-0.009638510232605039,-0.0003717924544587731
1690821331226835500,2.18583544921875,0.1996697549074888,-0.009349464158155024,-0.0035605968247167763
1690821331236875500,2.19587548828125,0.19098843580186367,0.005983531389012932,0.0022152192309033126
1690821331246916600,2.20591650390625,0.17946400222480297,0.0005298873593099415,-0.001574610639270395
1690821331256956700,2.215956787109375,0.1818582038849592,-0.0034010954140685497,0.009295441549131646
1690821331266996500,2.22599658203125,0.1926297732681036,-0.004621540587116032,0.00041146687772125004
1690821331277036500,2.23603662109375,0.19023440256416796,-0.003893609905056655,0.003913794176559895
1690821331287077400,2.246077392578125,0.18948621454536912,-0.0018787629513069986,0.00010838314476422965
1690821331297117400,2.256117431640625,0.18095920921862124,-0.001769165096990764,0.002469550184998661
1690821331307157500,2.266157470703125,0.1917325321674347,0.000014466916769742965,-0.006031571781821549
1690821331317228500,2.276228515625,0.1875397566527128,-0.0033173078544437885,-0.0073898636561352754
1690821331327268600,2.2862685546875,0.19307517894804477,-0.003403049909137189,-0.004242596872663125
1690821331337309700,2.296309814453125,0.19382453601062297,-0.002150602162629366,0.0030413678567390886
1690821331347349500,2.306349609375,0.1905336777716875,-0.008679930866137147,-0.003392647246131673
1690821331357389600,2.3163896484375,0.1905336777716875,0.0009147219584323466,-0.004285659696254879
1690821331367429400,2.326429443359375,0.1779629500120878,-0.005260897936578839,0.0032552937352098524
1690821331377470500,2.336470458984375,0.18709259740710257,-0.005389090893510729,-0.0025537030708044765
1690821331387510500,2.346510498046875,0.19636895979642868,-0.00312903700703755,-0.0072365362579468635
1690821331397550600,2.356550537109375,0.1867909841120243,0.004936415222566574,-0.0010431706436909735
1690821331407591700,2.366591796875,0.19487083019316195,-0.003532923366501927,0.00849761483548209
1690821331417631500,2.376631591796875,0.19517127444446086,-0.006526588757149875,0.0070533069118391715
1690821331427671600,2.386671630859375,0.1902326489984989,-0.007746431141998618,-0.002196523663587868
1690821331437711400,2.39671142578125,0.19037819494903085,0.004396024735551327,-0.003266436183732003
1690821331447752400,2.40675244140625,0.1909744072765112,-0.006696246235631406,0.007631280329730361
1690821331457792500,2.41679248046875,0.1828951457172632,-0.0036631621500477192,-0.00364044799474068
1690821331467832600,2.42683251953125,0.18439269079864024,-0.011212298887968063,-0.006311064576636999
1690821331477873700,2.436873779296875,0.18559096067249775,-0.008767298622336238,0.00008819887326098978
1690821331487943400,2.446943359375,0.18574235184192656,-0.0004894274847581983,-0.010739813404856248
1690821331497984500,2.456984619140625,0.18155425250232218,0.002388831365294754,-0.00997244576155208
1690821331508024600,2.467024658203125,0.18604513418078422,-0.000960753057245165,-0.009808231643168255
1690821331518064400,2.477064453125,0.18739362618029118,-0.0008934051757678389,-0.0007513389571104198
1690821331528105500,2.48710546875,0.1897884123623371,-0.0036197979323565957,-0.000357088075671345
1690821331538145500,2.4971455078125,0.1927811644375324,-0.008181991281360388,0.001545366278477013
1690821331548185600,2.507185546875,0.18799042302966118,-0.013328797851596026,0.0034480215620249508
1690821331558225400,2.517225341796875,0.19472411519885063,-0.007921605045814066,0.004248816550895571
1690821331568266500,2.5272666015625,0.19202713119983672,-0.008378829027712345,-0.005426418096059933
1690821331578306600,2.537306640625,0.1906780546784401,-0.006369553298223763,-0.0017351166969165205
1690821331588346400,2.547346435546875,0.19785949061512945,0.001991539143398404,-0.009592460867483167
1690821331598387500,2.557387451171875,0.1908253541946411,-0.003570497164223343,0.0007620430142153054
1690821331608427500,2.567427490234375,0.19157295769155025,-0.01212386077493429,0.0057164505511987955
1690821331618467600,2.577467529296875,0.18843290610015392,-0.009145593882817774,-0.003407525154855102
1690821331628507600,2.587507568359375,0.1917266869485378,-0.0020430136023089286,-0.0039024873312562703
1690821331638548700,2.597548828125,0.18903613269031047,0.001628806778229773,-0.00700397874424234
1690821331648588500,2.607588623046875,0.1882902827590704,0.005087970788776874,-0.0022080679709091783
1690821331658659600,2.61765966796875,0.19023849421739578,0.0010713372922502458,-0.0023580800340045243
1690821331668699400,2.627699462890625,0.1950298201471567,0.0009647168463096022,-0.0005240878061857074
1690821331678739500,2.637739501953125,0.19158932430446146,-0.0010854571491479873,0.0028712445873767135
1690821331688780500,2.647780517578125,0.19248598088324068,-0.002563055421039462,0.0014728855641558765
1690821331698820600,2.657820556640625,0.19697452447414396,-0.006029726884607225,0.0026711189053952693
1690821331708860400,2.6678603515625,0.19353169054389,-0.005248823906295001,0.00006814246592111885
1690821331718900500,2.677900390625,0.19173311668932436,-0.00939081908185035,-0.0019055413603782652
1690821331728941600,2.687941650390625,0.1863473319977522,-0.005147884282469749,0.00034100459055043755
1690821331738981400,2.6979814453125,0.1847030719220638,-0.00019789719227701424,-0.003981516517372802
1690821331749021400,2.708021484375,0.19143793313503266,-0.0008066767403855919,-0.0021408388204406945
1690821331759062500,2.7180625,0.1867991674184799,-0.0008379121288657188,0.0019840225572232157
1690821331769102600,2.7281025390625,0.18425708172023295,-0.007464965585805475,-0.0038667766970582303
1690821331779142700,2.738142578125,0.18785013777613638,-0.0001650543686002493,-0.010861494422610848
1690821331789182500,2.748182373046875,0.1897971801906824,0.0023405169778503475,-0.006365187650360166
1690821331799223300,2.758223388671875,0.19548516269922256,-0.000975219974014908,-0.0024406437509227543
1690821331809263400,2.768263427734375,0.1833656858384609,-0.00017948475275188683,-0.006240812352020293
1690821331819303400,2.778303466796875,0.1800724895119667,-0.012614384238235651,-0.0016829389851074664
1690821331829374500,2.78837451171875,0.18785306038558483,-0.00531260985750705,0.0026826906121801583
1690821331839414500,2.79841455078125,0.1856102498948574,-0.004634089541435241,0.0011248758440837263
1690821331849455600,2.80845556640625,0.19159750761091707,-0.0008721431920304894,-0.003623661256721243
1690821331859495400,2.818495361328125,0.19115034836530684,-0.003644914107304066,-0.0024795783886685965
1690821331869535500,2.828535400390625,0.1826204204291105,-0.0025393822845071554,-0.006261206686077639
1690821331879575600,2.838575439453125,0.18875497766137123,0.00251295093530789,-0.008075252104410902
1690821331889616400,2.848616455078125,0.18456161762475967,0.0018013685998506843,0.0001505143865942955
1690821331899656400,2.858656494140625,0.1945861680328846,-0.0032623627968132495,0.0029818927544634785
1690821331909696500,2.868696533203125,0.19099486554265022,0.005146623907145113,-0.0019156974282115698
1690821331919737600,2.878737548828125,0.18486206187605858,-0.005711564313527196,-0.0014201689962297678
1690821331929777400,2.88877734375,0.1959352445542812,0.002229183824174106,0.003220943941036239
1690821331939817500,2.8988173828125,0.19578677599430083,-0.005642956056725233,-0.0006981017993763089
1690821331949857500,2.908857421875,0.1838157676935196,-0.001085913806874305,-0.000008247238537296653
1690821331959898400,2.9188984375,0.1893529435545206,-0.007363770233653485,0.000536499763187021
1690821331969938400,2.9289384765625,0.18800562059879303,-0.005749284241721033,0.00013168182196095584
1690821331979978500,2.938978515625,0.19369360310733316,-0.0045356706682592625,0.00283476676819846
1690821331990019600,2.94901953125,0.20267010576725006,-0.0024606544924899933,-0.0026075795493554323
1690821332000089300,2.95908935546875,0.19503741893172263,-0.005071421512775123,-0.008107693069288506
1690821332010130400,2.96913037109375,0.19114508766829966,-0.0011364566840231418,-0.004213571707578375
1690821332020170500,2.97917041015625,0.19279460844099522,-0.0005817636770196259,0.0007394110572990029
1690821332030210600,2.98921044921875,0.18710604141056536,-0.0025114530979655682,-0.00496011575856246
1690821332040251400,2.99925146484375,0.19204174424707887,-0.0017219466880895196,-0.009995278647867962
1690821332050291500,3.00929150390625,0.19234218849837778,-0.0019077150511555372,-0.01116245013056323
1690821332060331500,3.01933154296875,0.1912958943158388,-0.004288052582740783,0.0018100085640326141
1690821332070371300,3.029371337890625,0.18456278666853904,0.0006890234437771141,-0.0007572846407070755
1690821332080412400,3.039412353515625,0.18441373358666896,0.00607113660722971,-0.000776528197294101
1690821332090452500,3.049452392578125,0.18037118019759654,-0.0023824381571263074,-0.0033878158073872328
1690821332100492500,3.059492431640625,0.18590894058048724,-0.004010514282993972,-0.0017946922638919203
1690821332110533400,3.069533447265625,0.19353812028467654,-0.004803747019916773,-0.00394663700023666
1690821332120573400,3.079573486328125,0.18874913244247435,-0.002444105216488242,-0.0009556658901739865
1690821332130613500,3.089613525390625,0.19069208320379255,-0.0023902561374008653,-0.007749901740718632
1690821332140653600,3.099653564453125,0.18440613480210302,-0.003917611835151911,-0.006194945649988949
1690821332150694700,3.109694580078125,0.1832096184939146,-0.006136402129475027,0.005474513287795707
1690821332160734500,3.119734375,0.18290917424261569,-0.004538702875562012,0.0036706148041412232
1690821332170805500,3.129805419921875,0.17902151915431022,-0.002504749362543225,-0.0022841928138863294
1690821332180845600,3.139845458984375,0.17632804228663443,-0.004605758496094495,-0.007382584531977772
1690821332190885600,3.1498857421875,0.19293723178207872,-0.0004698094688355922,-0.009345244640763849
1690821332200926500,3.159926513671875,0.19114158053696154,-0.003672441435046494,-0.007770232142694294
1690821332210954800,3.169954833984375,0.19009236374497412,-0.000027107202634215352,-0.006258914264291524
1690821332220994800,3.179994873046875,0.17887188155055045,0.0025462138840928674,0.009472743477951734
1690821332231034600,3.19003466796875,0.17812603161931037,0.0009340111807920038,-0.00027178441239520903
1690821332241075500,3.200075439453125,0.19039806869328021,-0.0012245002936571835,-0.004640418817522004
1690821332251115500,3.210115478515625,0.18052198684513568,-0.0030659999744966624,0.000109479123307392
1690821332261155600,3.220155517578125,0.18680559715926645,0.0010549889456480741,-0.0004900576724205166
1690821332271196700,3.23019677734375,0.19099661910831928,-0.008314093228429555,-0.0024566724371165036
1690821332281236700,3.24023681640625,0.1881540891587734,-0.0017746084570884704,0.00422237606854178
1690821332291276800,3.25027685546875,0.17887538868188857,-0.0048220498615875835,-0.0012701021342072635
1690821332301316900,3.26031689453125,0.183514738920331,0.002893675614893436,0.005029080208390951
1690821332311357700,3.270357666015625,0.18216624692082403,-0.004087835569214076,0.0007071253560483455
1690821332321397500,3.2803974609375,0.18545885872542858,-0.000950012467522174,-0.006505052778776735
1690821332331437600,3.2904375,0.183065241587162,0.0085830828955397,-0.009296153935184702
1690821332341508600,3.300508544921875,0.18710604141056536,0.002951159689482301,-0.00960469929454848
1690821332351548700,3.310548583984375,0.18635785339176653,-0.00483370376676321,-0.00033503150749020276
1690821332361589800,3.32058984375,0.18441373358666896,0.0004396152599714696,-0.0054465567017905414
1690821332371629800,3.3306298828125,0.18172201028466223,-0.0026085019979625937,-0.0014553316411562262
1690821332381669600,3.340669677734375,0.18935469712018965,-0.0026844350446946917,-0.004288929365575313
1690821332391709400,3.35070947265625,0.18860650910139082,-0.000879120922088623,0.0023319957446772603
1690821332401750500,3.36075048828125,0.1845639557123184,-0.0017286504235118627,-0.008675053761620075
1690821332411790600,3.37079052734375,0.19279460844099522,-0.003578881400078535,-0.002982650806289166
1690821332421830700,3.38083056640625,0.18695815737247465,-0.006315558088663965,-0.005251262458553538
1690821332431871700,3.390871826171875,0.18830548032820224,-0.006761000301223248,0.0005729593160562217
1690821332441911800,3.400911865234375,0.18530980564355848,-0.001303136754129082,-0.0018753471515141427
1690821332451951600,3.41095166015625,0.18111936821639538,-0.0002696655205450952,0.0017608173937536775
1690821332461991400,3.420991455078125,0.1897977647125721,-0.001393080059904605,0.00110954127763398
1690821332472032500,3.431032470703125,0.190098208963871,-0.00272580823469907,-0.01015998595659621
1690821332482072600,3.441072509765625,0.18426117337346076,-0.005575370713230222,-0.0048514768854714925
1690821332492112600,3.451112548828125,0.17917524841129778,-0.0017091785380616783,-0.0051319286615122105
1690821332502153700,3.46115380859375,0.19010054705142973,0.001204973609279841,-0.006824009934300556
1690821332512223700,3.4712236328125,0.18740882374942303,-0.004446604145318269,-0.004539396995306015
1690821332522264800,3.481264892578125,0.1920487585097551,-0.003961505775805563,-0.005188946945220232
1690821332532304600,3.4913046875,0.1839683279067278,0.005090126213245094,0.005560127478325739
1690821332542344400,3.501344482421875,0.1874099927932024,0.0038734256335534152,-0.001080013789050281
1690821332552385500,3.511385498046875,0.18516542873680591,-0.005270944406557828,-0.009461016507539898
1690821332562425600,3.521425537109375,0.1820242081016302,-0.007501205942966043,-0.0019061441485770045
1690821332572465700,3.531465576171875,0.1926467244029045,0.0035433899615891274,0.0020896109567023814
1690821332582505700,3.541505615234375,0.18007424307763575,-0.006898874401953071,0.005930677823768929
1690821332592546800,3.551546875,0.18680676620304584,0.0002601122409105301,-0.001221248890645802
1690821332602586600,3.561586669921875,0.18979834923446176,-0.005218830626830458,0.0010221735214348882
1690821332612626400,3.57162646484375,0.19278876322209834,-0.004894384445436299,0.008806169328000397
1690821332622667500,3.58166748046875,0.1848568011790514,0.00027262466261163354,-0.0006348273048177361
1690821332632707600,3.59170751953125,0.18814473680853844,0.003977854122407734,-0.007261022245232015
1690821332642747600,3.60174755859375,0.19113631983995436,0.001545055751223117,-0.0006184880913700908
1690821332652787700,3.61178759765625,0.19158231004178522,0.003700589817296713,0.0015947583781555294
1690821332662828800,3.621828857421875,0.19098551319241522,-0.001303940471727401,-0.0017626896904315798
1690821332672868600,3.63186865234375,0.19472645328640936,-0.0035639578255824743,-0.002803029056219384
1690821332682939600,3.641939697265625,0.186646022683382,0.0007476400295272469,-0.0038958383947610854
1690821332692979500,3.6519794921875,0.19277999539375304,0.0035748080131597815,-0.007262191289011389
1690821332703019500,3.66201953125,0.1987643305003643,-0.010255619217641652,-0.00740768244061619
1690821332713060600,3.672060546875,0.1905325087279081,-0.003014872575458139,0.0017462500122841446
1690821332723100700,3.6821005859375,0.1918798316836357,-0.0015439232400618493,0.00044580753874033684
1690821332733140700,3.692140625,0.1838017391681671,-0.004806943624000996,-0.005508050231216475
1690821332743180500,3.7021806640625,0.18395196129381655,-0.008650211581308393,0.0013891984692309051
1690821332753221600,3.7122216796875,0.19562310986518858,0.00010950652277097105,0.0007866568656638264
1690821332763261400,3.722261474609375,0.1875403411746025,0.0022860103116370736,-0.0068850650723092256
1690821332773301500,3.732301513671875,0.1873877809613943,-0.000014941840805113315,0.001925771297654137
1690821332783342600,3.742342529296875,0.19172610242664812,-0.0012087912678718567,0.004152644433733076
1690821332793382700,3.752382568359375,0.18977906001210212,-0.0031972251387313005,0.0049978265536017715
1690821332803422700,3.762422607421875,0.18513737168610095,-0.0016510734089650212,0.0053975664609111846
1690821332813462800,3.772462890625,0.18229250364899635,-0.0040449280092492695,-0.0013422175223473459
1690821332823503600,3.782503662109375,0.1813964315921068,-0.00868508196529001,0.0099229623303283
1690821332833543400,3.79254345703125,0.19381518366038797,0.0006860643017105758,0.00890334609216079
1690821332843583500,3.80258349609375,0.1948638159304857,0.004364624950289726,-0.002751116205891594
1690821332853654500,3.812654541015625,0.19142332008779048,-0.004706862516701221,-0.006687122214259579
1690821332863694600,3.822694580078125,0.19187340194284916,-0.004394125039409846,-0.010198564401315524
1690821332873735700,3.832735595703125,0.19277064304351804,0.005148231342341751,0.001463578879693523
1690821332883775700,3.842775634765625,0.18663667033314704,-0.002368044305592775,0.0001422580149024725
1690821332893815600,3.852815673828125,0.18828209945261476,0.0005592047853395343,-0.0028933376881759613
1690821332903855600,3.862855712890625,0.18813187732696532,-0.003996924149058759,-0.0014436412033624947
1690821332913896400,3.872896484375,0.18708382957875727,-0.005532390088029205,0.00019651808594353497
1690821332923936500,3.8829365234375,0.182595285987854,-0.004300583270750939,-0.0020203359796199948
1690821332933976600,3.8929765625,0.18962942240834235,-0.004504435279779136,-0.002319894314929843
1690821332944017700,3.903017578125,0.18214929578602312,0.0029250023349188265,-0.0008339483398012817
1690821332954057700,3.9130576171875,0.1788566839814186,-0.0006863930952735245,-0.0021346008758991956
1690821332964097800,3.923097900390625,0.1884340751439333,-0.0003294328837655484,-0.00046900575123727317
1690821332974137600,3.9331376953125,0.1845429129242897,-0.004928597242292016,-0.004397294244030491
1690821332984178400,3.943178466796875,0.18050503571033477,0.004489219444338232,0.0024902641794644293
1690821332994218500,3.953218505859375,0.18349720326364038,0.0009977423330768942,0.004828205607738345
1690821333004258600,3.963258544921875,0.18215104935169218,-0.001539283597562462,-0.0034018717322032896
1690821333014299600,3.973299560546875,0.18426175789535046,-0.002393306611012667,-0.012057380543136969
1690821333024369700,3.98336962890625,0.3307563874542713,-0.25801508596818895,-0.4623797937588766
1690821333034410800,3.99341064453125,-0.11337386572360991,0.16747047156495973,-0.0801705564376898
1690821333044450600,4.003450439453125,0.23718261622190473,-0.15563735563121736,0.5798643462043255
1690821333054490600,4.01349072265625,0.12760697373747826,0.1427555891610682,0.04235366154224612
1690821333064531500,4.023531494140625,0.1604740550726652,0.05315956245325505,0.23232080060550941
1690821333074571500,4.033571533203125,0.240330266597867,-0.022847590694669632,-0.01155786092262715
1690821333084611600,4.043611572265625,0.07645955482423306,0.0781225926656276,0.08138027928732335
1690821333094651600,4.053651611328125,0.11250117454230785,-0.1872132463783957,0.1987110294105485
1690821333104692700,4.063692626953125,0.2943137857198715,-0.02307515237284824,-0.27842933030240236
1690821333114732800,4.07373291015625,0.14828911176025866,-0.13803789472309871,-0.1438513119759038
1690821333124772600,4.083772705078125,0.20613865866065023,-0.05464196476442739,-0.10082252765106968
1690821333134813400,4.0938134765625,0.20455109720826148,-0.024539452771749345,-0.04909240434588864
1690821333144853500,4.103853515625,0.2028460468560457,0.04074546829378232,0.004419451276911422
1690821333154893600,4.1138935546875,0.24053251117169855,0.08570835335319861,-0.03120840914165601
1690821333164933600,4.12393359375,0.22528291959166524,0.0912784085704945,0.004439781678887084
1690821333174974700,4.133974609375,0.22026070751547813,0.09385273430421948,0.048805531962215896
1690821333185044500,4.14404443359375,0.21463176171779633,0.08623696207087486,0.06886596702323294
1690821333195085600,4.15408544921875,0.20559213069379328,0.0863591088795103,0.06833846341725439
1690821333205122000,4.1641220703125,0.20059563758075236,0.047157819554116576,0.04360419132630341
1690821333215162000,4.174162109375,0.19335867206454277,0.026494824623223393,0.01628551049903035
1690821333225203000,4.184202880859375,0.19195465048551558,0.0024288711147382853,-0.01038972132555209
1690821333235243000,4.194242919921875,0.18425474363267422,-0.03237308727316558,-0.0355950632606633
1690821333245282800,4.20428271484375,0.18043313951790332,-0.0639983883863315,-0.04624718011575751
1690821333255323000,4.214322998046875,0.16911738025546072,-0.07969141288492829,-0.039778504691459236
1690821333265364000,4.224364013671875,0.1604693788975477,-0.10211283232308924,-0.015722579386644064
1690821333275404000,4.234404052734375,0.14011691122055053,-0.0921975509757176,0.011071904036588967
1690821333285444000,4.244444091796875,0.14861352140903472,-0.07787217983482406,0.034458186451531946
1690821333295485000,4.25448486328125,0.14795008906424045,-0.06501719177374615,0.050806523920549074
1690821333305525000,4.26452490234375,0.15160101278722285,-0.042515564972534774,0.0589538000815548
1690821333315565000,4.27456494140625,0.18172960906922817,-0.027442188475932924,0.039821183922560885
1690821333325604900,4.28460498046875,0.18552490969896315,-0.003931512496341019,0.022096480066422373
1690821333335646000,4.29464599609375,0.2037000333368778,0.0036297896034084257,-0.0072909607257694
1690821333345686000,4.30468603515625,0.20873101324141025,0.02678812674768269,-0.023126955625321716
1690821333355757000,4.314757080078125,0.21543606383800507,0.03688457334823906,-0.03148333535920828
1690821333365797000,4.324797119140625,0.22261983786225317,0.047656160997692494,-0.03111482170722447
1690821333375837200,4.334837158203125,0.22249942635297773,0.043207967683486635,-0.02546444952902384
1690821333385878000,4.3448779296875,0.21371990756988524,0.042184232392627745,-0.014344441167544573
1690821333395917800,4.354917724609375,0.19806758040785788,0.03282247500848025,0.008012954857386649
1690821333405958000,4.3649580078125,0.19648820226192473,0.01928869263669476,0.01880374039765447
1690821333415998000,4.374998046875,0.17994038756489752,0.012000672786682844,0.03248082196395844
1690821333426039000,4.3850390625,0.18313713777959345,-0.0016649010049179195,0.0346131578175351
1690821333436079000,4.3950791015625,0.16865969961583613,-0.020067732451483605,0.024052957029594108
1690821333446119200,4.405119140625,0.1658417195856571,-0.03566560774622485,0.0026882801027502865
1690821333456160000,4.415159912109375,0.16869477092921734,-0.05395184534210711,-0.0038534331582952288
1690821333466200000,4.425199951171875,0.16869301736354828,-0.06639609717782587,-0.014706662076059729
1690821333476240000,4.435239990234375,0.16897767952382564,-0.06425320339761674,-0.008514885630691424
1690821333486280000,4.445280029296875,0.16715514027178285,-0.052603152413200585,-0.0031438875162974
1690821333496321000,4.455321044921875,0.17056173384487627,-0.03872114112563431,0.006890618030261248
1690821333506361000,4.465361083984375,0.18234160348773001,-0.02675241611348465,0.01613648481662385
1690821333516401200,4.475401123046875,0.1816974603652954,-0.0155911715593189,0.01855956551139243
1690821333526472200,4.48547216796875,0.17791268112957476,-0.0035177075310610234,0.017443192634172735
1690821333536512000,4.495511962890625,0.1846124710291624,0.007233056526072323,0.011097604733426122
1690821333546552800,4.505552734375,0.19700491961240768,0.012150894912332295,0.007638650785433128
1690821333556593000,4.515593017578125,0.20582067875266075,0.012037187138479202,0.002100890402542427
1690821333566633000,4.525633056640625,0.19804186144471167,0.021177830851543695,-0.000010777122341096401
1690821333576674000,4.535674072265625,0.19835808778703212,0.01803871084190905,-0.00971426061624661
1690821333586714000,4.545714111328125,0.19240122520923614,0.005765742186177521,-0.0044179808390326794
1690821333596754200,4.555754150390625,0.19243921913206577,0.008606354173272848,-0.0024079653240274635
1690821333606794200,4.565794189453125,0.1987637459784746,-0.002167151438631117,0.0065550841992720954
1690821333616835000,4.5758349609375,0.18892507353127003,-0.010022066190093755,0.006472922341153025
1690821333626875000,4.585875,0.17788170146942137,-0.013666176579799502,0.009834233734104782
1690821333636915000,4.5959150390625,0.17850129467248915,-0.01741135445749387,0.015285640140948816
1690821333646956000,4.6059560546875,0.17566987063884734,-0.031141992841940372,0.016365288603818043
1690821333656996000,4.61599609375,0.17327742254436015,-0.035246834344882516,0.016416114608757196
1690821333667036200,4.6260361328125,0.16937983058393,-0.035633696504309774,0.002417956995079294
1690821333677076200,4.636076171875,0.1771446193665266,-0.027985848632268606,0.004554786360682919
1690821333687117000,4.646116943359375,0.16994330968558788,-0.023800763233657925,0.003611368030728772
1690821333697187000,4.65618701171875,0.17754852399230003,-0.0241907854645513,0.0020966343525331468
1690821333707228000,4.666227783203125,0.18844693462550638,-0.015869148250482974,0.0017192798069678246
1690821333717268000,4.67626806640625,0.1849830579072237,-0.005368249034881592,-0.0014734061539638786
1690821333727308000,4.68630810546875,0.17733751159012318,-0.004124715247191489,0.009965440632030368
1690821333737349000,4.69634912109375,0.18705284991860388,0.005649604993220418,0.0025065942597575484
1690821333747389200,4.70638916015625,0.1913876642525196,0.010369600986130535,0.003882586187543347
1690821333757429000,4.716428955078125,0.19976970815062522,0.005248129786550999,0.0040590843987651165
1690821333767469000,4.726468994140625,0.19918051008582113,0.008988613222818822,-0.0024287158511113374
1690821333777510000,4.736510009765625,0.1840805561095476,0.005331204960122704,0.006372046649409458
1690821333787550000,4.746550048828125,0.19188333881497383,0.00038777547487989065,0.003144956095376983
1690821333797590000,4.756590087890625,0.19923545514345167,-0.0065515953342430286,-0.003939202612452209
1690821333807631000,4.766631103515625,0.1956669490069151,-0.009650913056451826,0.0004817921675741672
1690821333817671200,4.776671142578125,0.18386486753225326,-0.015998217990249395,0.0030635888217017053
1690821333827711200,4.786711181640625,0.18118191205859183,-0.020635723331477493,0.008471430081455036
1690821333837750800,4.796750732421875,0.1758019725859165,-0.021214747062139213,0.008395679697813466
1690821333847791900,4.8067919921875,0.18463176025152206,-0.019031941396649925,0.005705682562012225
1690821333857832000,4.81683203125,0.17325696427822113,-0.02359860999137163,0.005287429750477895
1690821333867903000,4.826903076171875,0.17549100694060324,-0.02405099340137094,0.0012219795430079101
1690821333877943000,4.836943115234375,0.1832581338107586,-0.021268979733716695,0.003710051765386015
1690821333887983000,4.846983154296875,0.1800987929970026,-0.016942549635656178,0.000637101460294798
1690821333898024200,4.857024169921875,0.1835235067486763,-0.01385815548794344,0.0010165657645557075
1690821333908064000,4.86706396484375,0.18575579584538934,-0.008790460302215069,0.001790025221928954
1690821333918103800,4.877103759765625,0.17901392036974428,-0.003695822310633957,-0.005860900523187593
1690821333928144000,4.887143798828125,0.18753624952137468,-0.003175141171086579,0.0003729432319290936
1690821333938185000,4.89718505859375,0.1975613844513893,0.0009391622799448669,-0.0004213398177642375
1690821333948225000,4.90722509765625,0.1855927142381668,0.0036105003810487685,0.007076751719508319
1690821333958265000,4.91726513671875,0.19053718490302562,-0.00116959176864475,-0.003276665316801518
1690821333968306200,4.92730615234375,0.18590777153670787,0.004986190914735198,0.002230809525679797
1690821333978346000,4.937345947265625,0.19265315414369105,0.0003418905065394938,-0.0028885062494315205
1690821333988385800,4.9473857421875,0.18727730632424353,-0.013734474309347568,0.004302592564746737
1690821333998425900,4.95742578125,0.18713702107071875,-0.014891937248781323,0.004457965789549052
1690821334008467000,4.967467041015625,0.18505203149020671,-0.013777509733475744,-0.002250244878511876
1690821334018507000,4.977507080078125,0.18326514807343483,-0.013953469088580459,0.004872136081010103
1690821334028578000,4.987578125,0.18417115700244902,-0.01484594268258661,0.0037921953571960327
1690821334038618000,4.9976181640625,0.17998130409717558,-0.017689933936856687,0.003034380993526429
1690821334048658000,5.007657958984375,0.18042787882089614,-0.015601382426079361,0.0017920710485428571
1690821334058699000,5.017698974609375,0.18401158252656458,-0.014068181509431451,0.003700735947769135
1690821334068738800,5.02773876953125,0.18714871150851248,-0.016599672748427836,0.010726533798174932
1690821334078779000,5.03777880859375,0.18893617944717406,-0.005640179577749222,-0.001665403328416869
1690821334088820000,5.047820068359375,0.191918410128355,-0.005933609566371887,-0.0007577230321243405
1690821334098860000,5.057860107421875,0.18442600854635238,-0.011909067246783525,0.009123363784700632
1690821334108900000,5.067900146484375,0.1920499275535345,-0.0005753156699240207,0.000055346916429698466
1690821334118940200,5.077940185546875,0.19069792842268943,-0.0030284809757024048,0.001793623684812337
1690821334128981000,5.08798095703125,0.18216975405216215,-0.0022567294182255864,-0.0033479587210342287
1690821334139020800,5.098020751953125,0.1881587653338909,0.002819076008722186,0.0014036471196915954
1690821334149060900,5.108060791015625,0.19280279174745082,-0.00011485855132341385,0.006221641860669478
1690821334159102000,5.11810205078125,0.19639935493469238,-0.0024371274864301083,0.0015188527308870106
1690821334169142000,5.12814208984375,0.19520751480162143,-0.005140449894685298,0.008563556211162358
1690821334179182000,5.13818212890625,0.18803075504004954,-0.0030445005287416276,0.012171152249071747
1690821334189222100,5.14822216796875,0.1902817488372326,-0.005888984973356127,-0.002719771219557151
1690821334199293000,5.15829296875,0.18684534464776514,-0.01012106958515942,0.006830421408778056
1690821334209341000,5.1683408203125,0.17772095794975756,-0.012373890013247728,0.009335773559520021
1690821334219381800,5.1783818359375,0.1890957539230585,-0.0084831661850214,0.0010017609210684895
1690821334229421800,5.188421875,0.18400924443900585,-0.008278967116121203,-0.00035397366997785867
1690821334239462000,5.1984619140625,0.18715163411796093,-0.010529869581758975,-0.0021600093117915093
1690821334249503000,5.2085029296875,0.1795148556292057,-0.011546371414232998,0.007580764852045103
1690821334259543000,5.21854296875,0.18384674735367296,-0.012616411798540502,0.005723254751320928
1690821334269583000,5.2285830078125,0.190724816429615,-0.008680953779444098,0.007408093432569876
1690821334279623000,5.238622802734375,0.18503391131162641,-0.002613214705698192,0.008488079822156578
1690821334289663700,5.248663818359375,0.18787410317361353,-0.0066116184257902205,0.006449075674684718
1690821334299703800,5.258703857421875,0.19131459901630876,-0.006240940216183662,0.0027014409784227606
1690821334309743900,5.268743896484375,0.19595219568908212,-0.002737370808329433,0.005050451789982617
1690821334319785000,5.278784912109375,0.1934095254689455,-0.0029375512892380355,0.00467002850449644
1690821334329825000,5.288824951171875,0.18488135109841822,-0.0033009777741506694,0.002287033224944025
1690821334339865000,5.298864990234375,0.19356734637916087,-0.0055838645469397305,0.000664847983745858
1690821334349905000,5.30890478515625,0.1848953796237707,-0.00604919877005741,0.004142059107637033
1690821334359945700,5.31894580078125,0.1845990270256996,-0.009656575612258165,0.003175670894049108
1690821334370015700,5.329015625,0.18400281469821927,-0.010726780393347143,0.001114180920133367
1690821334380056800,5.339056884765625,0.18505144696831702,-0.00901939195357263,0.011450610289024188
1690821334390097000,5.349096923828125,0.19043898522555827,-0.009275485606491565,0.008006908709090203
1690821334400137000,5.359136962890625,0.18056757955253122,-0.010334602737985551,-0.001129652483901009
1690821334410178000,5.369177978515625,0.17967209201753137,-0.011204133847821504,0.006214207472885027
1690821334420218000,5.379218017578125,0.17592647574841974,-0.004819949236046522,0.0035756117307581005
1690821334430258000,5.3892578125,0.17861586096286772,-0.007849197396729141,0.001255105494474992
1690821334440297700,5.399297607421875,0.17816110293269155,-0.014199899864010513,0.009752893859893082
1690821334450338800,5.4093388671875,0.190724816429615,-0.0045948900422081345,0.010622982092155142
1690821334460379000,5.41937890625,0.18503683392107487,-0.007326689626276492,0.011131433937791734
1690821334470419000,5.4294189453125,0.1869821227699518,-0.005423632483929395,0.005557789390766993
1690821334480460000,5.4394599609375,0.18758242675065992,-0.005510050392057746,0.007881565296370536
1690821334490500000,5.4495,0.18339198932349682,-0.008549034495465457,0.006220354085881263
1690821334500540000,5.459539794921875,0.18488894988298415,-0.0057364247601479285,0.0008939166324213147
1690821334510579700,5.469579833984375,0.18309329863786697,-0.0048295207819901405,-0.0011590612414758652
1690821334520620800,5.479620849609375,0.19042612574398515,-0.004454915315937251,0.001303785208100453
1690821334530660900,5.489660888671875,0.19057868595719335,-0.005552355163823813,0.0017904727465007453
1690821334540732000,5.49973193359375,0.18653905517756939,-0.00914077157722786,0.0013253120533190668
1690821334550772000,5.50977197265625,0.18235270940363407,-0.006726513509731739,0.003834180468553677
1690821334560811800,5.519811767578125,0.17652444164156914,-0.0037799386638216674,0.007193975757854059
1690821334570853000,5.52985302734375,0.18356091614961623,-0.005014777688402682,0.0026324308628216386
1690821334580893000,5.539892822265625,0.19164134675264358,-0.012319401613343507,-0.0061597190729808056
1690821334590932700,5.5499326171875,0.1858054802060127,-0.005154277490638196,0.0016033709428738801
1690821334600973800,5.559973876953125,0.18236030818819998,-0.01602822953602299,0.005606131177674978
1690821334611014000,5.570013916015625,0.1835579935401678,-0.010547496569994836,0.006525300982361659
1690821334621054000,5.580053955078125,0.181461313521862,-0.003939093014597893,-0.0005101597455330193
1690821334631094000,5.590093994140625,0.1868476827353239,-0.0062703307074494655,-0.0023611213744617996
1690821334641135000,5.600135009765625,0.17726795348525046,-0.013366335116699338,0.002038099965173751
1690821334651174700,5.610174560546875,0.18669278443455695,-0.009255922389496117,0.00254720939793624
1690821334661214700,5.620214599609375,0.18295125981867313,0.0007430551859550177,0.0037203904963098466
1690821334671254800,5.6302548828125,0.18444822037816047,-0.008071333981119096,0.006393418231001123
1690821334681296000,5.6402958984375,0.1772661999195814,-0.005272898901626468,-0.006111240288754925
1690821334691336000,5.6503359375,0.18235212488174438,-0.00891501826364547,-0.0038192934266757217
1690821334701376000,5.6603759765625,0.18938450773656368,-0.005492259007040411,0.0020152853451669214
1690821334711446800,5.67044677734375,0.18474808010756968,-0.007450918794143944,0.002635033811861649
1690821334721486800,5.68048681640625,0.1762210747808218,-0.009474570108857005,0.0018215620045084506
1690821334731527700,5.690527587890625,0.18101298523247242,-0.0011385025106370448,0.0026229597815778105
1690821334741567700,5.700567626953125,0.19403437936902046,0.0011075593831017612,0.013212057870440184
1690821334751607800,5.71060791015625,0.18700141199231146,-0.006807433258835226,0.011933726764004678
1690821334761649000,5.72064892578125,0.18969488885998725,-0.016468703312519938,0.00421937126070261
1690821334771689000,5.73068896484375,0.18311258786022663,-0.005528079239092767,0.0014419333034660666
1690821334781729000,5.74072900390625,0.1814665742188692,-0.014149886709824203,0.002725095848646015
1690821334791768800,5.750768798828125,0.18744974028170108,-0.004067578232474625,-0.0018923713515512643
1690821334801809700,5.7608095703125,0.18849661898612974,-0.00443756232233718,0.003306037541758269
1690821334811849700,5.770849609375,0.18759587075412273,-0.014440595018398016,0.0007865016020368785
1690821334821889800,5.780889892578125,0.19073942947685718,-0.006611837621498853,-0.004753989594057202
1690821334831931000,5.790930908203125,0.19433073196709155,-0.004564385306090117,-0.004700396243296563
1690821334841971000,5.800970947265625,0.1890951694011688,-0.00929638226404786,0.011115523982606828
1690821334852011000,5.811010986328125,0.18909400035738944,-0.008062420022301375,0.013894587641349062
1690821334862050800,5.82105078125,0.18415712847709656,-0.005975603810884058,0.013611222389014436
1690821334872121900,5.831121826171875,0.18685294343233108,-0.003160144531354308,0.008521269705705345
1690821334882162000,5.841161865234375,0.19747662877738476,-0.00646464770315215,0.0064538888471201055
1690821334892202800,5.85120263671875,0.1976268509030342,-0.003831595785822719,-0.00005213204603642225
1690821334902242800,5.861242919921875,0.19762918899059295,-0.01076112105436623,0.0017222846148069947
1690821334912283000,5.871282958984375,0.19089725038707256,-0.01532479397440329,0.00425002212729305
1690821334922324000,5.881323974609375,0.1760854657024145,-0.009691793056111783,0.004386288792826235
1690821334932364000,5.891364013671875,0.18940555052459238,-0.005265811573714018,0.003567446690611541
1690821334942403800,5.90140380859375,0.18416940343677995,0.0016511830068193375,0.005634772750269621
1690821334952444000,5.91144384765625,0.18027765669524667,-0.010958415458444505,0.010004758862266316
1690821334962484700,5.921484619140625,0.18671148913502691,-0.00951186991194263,0.004266644468531013
1690821334972524800,5.93152490234375,0.17773381743133068,0.001719188475422561,0.0003295424816198647
1690821334982564900,5.94156494140625,0.1816226415634155,-0.0015037008275277913,0.000963027212722227
1690821334992606000,5.95160595703125,0.19060089778900147,-0.007957845402974634,-0.0004338613726198673
1690821335002646000,5.96164599609375,0.18626140727996826,-0.007390073718689382,0.001193246638868004
1690821335012685800,5.971685791015625,0.17862462879121302,-0.008357676641829312,0.00696198449973017
1690821335022726000,5.981725830078125,0.19179156887829302,-0.018294183440320192,0.006820484536653384
1690821335032766700,5.9917666015625,0.19179098435640335,-0.013620364676695315,0.004956380298361182
1690821335042837800,6.001837646484375,0.1949339585572481,-0.007579038685839623,0.00844630477335304
1690821335052877800,6.0118779296875,0.18640578418672082,-0.00885905029270798,0.0069352243569679554
1690821335062918000,6.02191796875,0.18072013976573942,-0.007066486053820699,0.0032955526803620156
1690821335072958000,6.0319580078125,0.18266659765839577,-0.009849833162035793,0.0043681412147823714
1690821335082999000,6.0419990234375,0.18760346953868864,-0.006991466322541237,0.0004279156890232116
1690821335093038800,6.052038818359375,0.18700199651420116,-0.007217402299214154,-0.00571060533230193
1690821335103079000,6.062078857421875,0.19283727853894234,-0.015757632433716206,0.0029883224952500314
1690821335113119700,6.07211962890625,0.18610417089164255,-0.012923249258007854,0.008457629884965717
1690821335123159800,6.082159912109375,0.18655659083426,0.0006323065541684628,0.0005138221404980867
1690821335133200000,6.092199951171875,0.18715631029307842,-0.006955006769672036,-0.0008651106630451977
1690821335143240000,6.102239990234375,0.18655892892181872,-0.013394593096803874,-0.002281544199073687
1690821335153281000,6.112281005859375,0.18386486753225326,-0.009641231912653892,0.0038924591275863347
1690821335163320800,6.12232080078125,0.18176935655772686,-0.00418811760591343,0.003157669446477666
1690821335173361000,6.13236083984375,0.1822159312814474,-0.004373885968979448,-0.002560388539917767
1690821335183401000,6.14240087890625,0.18730302528738973,-0.005439725102204829,0.004040580627694725
1690821335193441800,6.15244189453125,0.19179098435640335,-0.0006911058030091225,0.00005590403885580599
1690821335203481900,6.16248193359375,0.19523206472098825,-0.005595865511987358,0.00015843283156864344
1690821335213536800,6.172536865234375,0.18834698138237,-0.004607658192235976,0.005418134324904531
1690821335223576800,6.182576904296875,0.1883458123385906,-0.004049713782221079,0.003828947171010077
1690821335233617000,6.192616943359375,0.18550328238904476,-0.00807635721610859,0.0060530255618039515
1690821335243657700,6.20265771484375,0.19253508072197437,-0.003885864990018308,0.003736428315658122
1690821335253697500,6.212697509765625,0.19388065011203287,-0.002403060820046812,0.010547670099930836
1690821335263737600,6.222737548828125,0.1760731907427311,-0.007815587388072162,0.003961295713251456
1690821335273778700,6.23277880859375,0.17547288676202297,-0.013537727894540875,0.0015232823108322917
1690821335283818800,6.24281884765625,0.19162965631484985,-0.009456194201949984,-0.000437322838185355
1690821335293858800,6.25285888671875,0.19342530755996704,-0.010053721703682095,0.004805354455113411
1690821335303899000,6.26289892578125,0.18684300656020641,-0.011929141920432448,0.011337697099614888
1690821335313939700,6.272939697265625,0.19178280104994772,-0.01051701010018587,0.005311742207827046
1690821335323979500,6.2829794921875,0.19717033930718897,-0.005706139219738542,0.003967551924102008
1690821335334019600,6.29301953125,0.18489947127699852,0.00038788507273420687,0.0009509075166657567
1690821335344060700,6.303060791015625,0.18489888675510882,-0.004537424233928323,-0.0006154467509128153
1690821335354100700,6.313100830078125,0.19252865098118782,-0.011081603446695953,0.00042180560864508147
1690821335364140800,6.323140869140625,0.19043197096288203,-0.008833276530634612,0.00009438201887533068
1690821335374180900,6.333180908203125,0.18848434402644634,-0.004890037063881755,0.0005758271265774965
1690821335384251600,6.343251708984375,0.19297522570490835,-0.008126699163857847,0.004291614513006061
1690821335394291700,6.353291748046875,0.19222937577366828,-0.00031228081956505776,-0.001192315057106316
1690821335404332500,6.36333251953125,0.187291334849596,-0.00899319806639105,-0.002814335901523009
1690821335414372600,6.37337255859375,0.1865419777870178,-0.01130273538408801,0.008533928257878869
1690821335424412700,6.38341259765625,0.18833879807591436,-0.004718918280676007,0.003219491769466549
1690821335434453800,6.393453857421875,0.17816461006402967,-0.004394526898209006,0.0069144555635750286
1690821335444493800,6.403493896484375,0.1890875706166029,-0.0033400311429053545,0.00410548082375899
1690821335454534000,6.413533935546875,0.19342939921319482,-0.007601049588248133,-0.0002902699171565473
1690821335464573700,6.42357373046875,0.19073416877985,-0.005924421612918377,0.0031066059795208274
1690821335474614500,6.433614501953125,0.17891045999526978,-0.009200283212121576,0.00459036913071759
1690821335484654600,6.443654541015625,0.18714111272394657,-0.010104173249285668,-0.00027283472516573964
1690821335494694700,6.453694580078125,0.19148177227675914,-0.00811139199687168,0.0022876360131427642
1690821335504735700,6.46373583984375,0.18429566016495227,-0.0027010756522417067,0.0037013752685859796
1690821335514775800,6.47377587890625,0.1832481969386339,0.0016979995569214223,0.008569803288858384
1690821335524816000,6.48381591796875,0.19207623103857038,-0.007192834113538265,0.0019255338356364516
1690821335534855700,6.493855712890625,0.18130349261164663,-0.005809563061594963,0.0026774390483275054
1690821335544926700,6.5039267578125,0.1917792939186096,-0.0028153679479844865,0.008868904966441915
1690821335554967600,6.513967529296875,0.1890875706166029,-0.003697941202484071,0.008876914742961525
1690821335565007600,6.524007568359375,0.18624328710138796,-0.015739530521444976,0.005277830805070698
1690821335575047700,6.534047607421875,0.19148060323297977,-0.007240965837892145,-0.00030692879101261493
1690821335585087700,6.544087646484375,0.18309972837865351,0.0003457081651315093,0.012454691031342372
1690821335595128800,6.55412890625,0.18639292470514773,0.006334500251151621,0.015213278157636522
1690821335605169000,6.5641689453125,0.1913315501511097,-0.006541329668555408,0.003029165962291881
1690821335615208700,6.574208740234375,0.18549626812636852,0.0000012969079427421093,0.005620223635109141
1690821335625249500,6.58424951171875,0.1762199057370424,0.003907090441137552,-0.0016423877790104596
1690821335635289600,6.59428955078125,0.18400339922010897,-0.007711505959089845,0.0006522624968085438
1690821335645329700,6.60432958984375,0.1855015288233757,-0.007933660809788853,0.005240759330848232
1690821335655369700,6.61436962890625,0.19014204810559748,-0.009220741478260606,-0.0006381335067562759
1690821335665410800,6.624410888671875,0.1904430768787861,-0.006758077691774815,0.002492794063268229
1690821335675451000,6.634450927734375,0.18670213678479194,-0.007718556754384189,-0.00024653124012984334
1690821335685490700,6.64449072265625,0.19014204810559748,-0.011979155074618756,0.001745820754021406
1690821335695530800,6.65453076171875,0.17727321418225764,-0.0075895418135449285,0.0018034783585462717
1690821335705571600,6.664571533203125,0.18235913914442062,-0.002038520090281963,0.001689989780401811
1690821335715642600,6.674642578125,0.19088848255872726,-0.0028715551146306097,0.005843529263278469
1690821335725682700,6.6846826171875,0.18310674264132976,-0.001826904899906367,-0.003836436357721686
1690821335735722800,6.69472265625,0.18295710503756998,-0.004912924749124795,0.005514763099793344
1690821335745762800,6.7047626953125,0.1902893476217985,-0.005494871089234948,0.0013220058513805269
1690821335755804000,6.714803955078125,0.19328151517510414,-0.004030296695698052,0.002680142462067306
1690821335765843700,6.72484375,0.18654840752780436,-0.002519088415149599,0.013602491093287244
1690821335775883800,6.7348837890625,0.19283494045138358,-0.0008210523256100714,0.00321112579992041
1690821335785924600,6.744924560546875,0.19268413380384444,-0.010140121345501393,0.0051958790095057335
1690821335795964700,6.754964599609375,0.18475041819512844,-0.005433130964636802,-0.0002514174778014421
1690821335806004700,6.765004638671875,0.19283260236382482,-0.0012026720543392001,0.0028042620320804417
1690821335816044800,6.775044921875,0.19013912549614906,-0.007850896163471042,0.005538006978062913
1690821335826086000,6.7850859375,0.18340835593640803,-0.008865717495512217,0.007299189697997644
1690821335836125700,6.795125732421875,0.1944815386146307,-0.0055846317319199435,0.007010143623547628
1690821335846165800,6.805165771484375,0.19328502230644226,0.0020375154432840646,0.00650579256429337
1690821335856206600,6.81520654296875,0.18984452646374703,-0.0007381415488198399,0.006641885699890554
1690821335866246700,6.82524658203125,0.2036094324439764,-0.005148377472814172,0.0006978826036676764
1690821335876286700,6.83528662109375,0.18894436275362966,-0.005937116697710007,-0.0009726078918203711
1690821335886357800,6.845357666015625,0.1834101095020771,-0.000913205854780972,0.008715011312672868
1690821335896397800,6.855397705078125,0.1899924105018377,-0.00335343861375004,0.008909118245821445
1690821335906437600,6.865437744140625,0.1873001026779413,-0.003944061450660228,0.0002951104890555143
1690821335916478700,6.875478759765625,0.1856540890365839,0.0003403926691971719,-0.003806561809265986
1690821335926518800,6.885518798828125,0.1856535045146942,0.0010349873372353612,-0.002191454762825742
1690821335936558800,6.895558837890625,0.18580489568412303,-0.004984437349066138,-0.00019688341212458909
1690821335946599700,6.905599609375,0.18850246420502662,-0.007348061207868159,0.006791148844314739
1690821335956639700,6.9156396484375,0.188054135915637,-0.008479019732866435,0.005454164619510993
1690821335966679800,6.9256796875,0.1913438251107931,-0.0038066622739657756,0.00037504385747015476
1690821335976719600,6.9357197265625,0.19702888500988483,-0.008635434137284756,0.004904540513269603
1690821335986760700,6.9457607421875,0.1871522186398506,-0.007297098205611109,0.0031569661935791373
1690821335996800800,6.95580078125,0.1795189472824335,-0.007069993185158819,0.0019788166591431944
1690821336006840800,6.9658408203125,0.18131576757133006,-0.005682173822261393,0.0018008754095062613
1690821336016881700,6.975881591796875,0.18295885860323904,-0.007083418922312557,0.011217979710083455
1690821336026921700,6.985921630859375,0.1902899321436882,-0.007589231286291033,0.011537375257024541
1690821336036961800,6.9959619140625,0.18041326577365396,-0.008251932978723198,0.003093554701702669
1690821336047032600,7.006032470703125,0.18400456826388834,-0.006012081630062311,0.0027859043914824724
1690821336057072600,7.01607275390625,0.18834405877292154,-0.007493296631146222,0.005540363331930712
1690821336067113700,7.02611376953125,0.19268296476006508,-0.011886508355103433,0.006371042002411559
1690821336077153800,7.03615380859375,0.19268413380384444,-0.01247132250573486,0.0022652871840167788
1690821336087193600,7.046193603515625,0.19343115277886389,-0.0054415517331101,0.003869224382471293
1690821336097233700,7.056233642578125,0.19403028771579264,-0.0033294732162728905,0.00011121442266739904
1690821336107274800,7.066274658203125,0.18490180936455725,-0.005491784083005041,0.00661404784489423
1690821336117314800,7.076314697265625,0.1905892073512077,-0.004847293900698423,0.0055650137159973375
1690821336127354600,7.086354736328125,0.19148469488620756,-0.008660276317596435,0.006659613152826205
1690821336137395700,7.096395751953125,0.17712065396904944,-0.005154222691711038,0.00039062501909211273
1690821336147435800,7.106435791015625,0.18161095112562178,-0.006126410458423197,0.004136405684985221
1690821336157475600,7.1164755859375,0.19238368955254553,0.0005277867337688803,0.011294150218833237
1690821336167515600,7.126515625,0.1898398502886295,-0.004083926579076797,0.004324813529709354
1690821336177556700,7.136556640625,0.1964244893759489,-0.0010550254782661795,0.0025414555105846373
1690821336187596800,7.1465966796875,0.19911796624362468,-0.01181621959786862,0.000029774083755910393
1690821336197636600,7.15663671875,0.18654606944024563,-0.009031630380637944,0.002651537422090769
1690821336207678200,7.16667822265625,0.18924071535170078,-0.011363872720487415,0.005931362810358404
1690821336217749200,7.176749267578125,0.19208382982313632,-0.011397519261762499,0.012041653251042589
1690821336227790300,7.186790283203125,0.18385142352879047,-0.008166939842700957,0.005062480154493823
1690821336237830400,7.196830322265625,0.18505027792453765,-0.00824005987783894,0.006429348060907796
1690821336247870500,7.206870361328125,0.18744331054091454,-0.00540786865921691,0.0030600451577454803
1690821336257910300,7.21691015625,0.19971476309299468,-0.004594780444353818,0.007370136042358353
1690821336267951400,7.226951416015625,0.19777005876600742,-0.0022411299902945756,0.0002311692742165178
1690821336277991200,7.2369912109375,0.19418167888522148,-0.002338197156600654,0.0038557529795449227
1690821336288031200,7.24703125,0.18924539152681827,-0.010914722447190434,0.0010304481594357639
1690821336298072300,7.257072265625,0.18146540517508983,-0.008581438927724956,0.002828830217756331
1690821336308112400,7.2671123046875,0.19014672428071497,-0.002523508861940354,-0.00009067395813763141
1690821336318152400,7.27715234375,0.19044716853201388,-0.00621217077942565,0.006357260072231292
1690821336328192300,7.287192138671875,0.18700608816742895,-0.0042034247728995975,0.007004544999822974
1690821336338233300,7.2972333984375,0.1811708061426878,-0.002780789824947715,0.0013798187195323407
1690821336348273200,7.307273193359375,0.18326456355154513,-0.013335848646890372,0.011101157530536875
1690821336358313200,7.317313232421875,0.18595804041922093,-0.010048552338220178,0.00971521046431735
1690821336368354300,7.327354248046875,0.18850538681447504,-0.008179470530711113,-0.008103446152433753
1690821336378394400,7.337394287109375,0.17743395770192144,-0.008994787235278636,0.0008879161498975009
1690821336388465400,7.34746533203125,0.18461773172616958,-0.0033619507137686013,0.003612144348863512
1690821336398505500,7.35750537109375,0.18147768013477325,0.004964253077562898,0.004641423464519903
1690821336408545300,7.367545166015625,0.1926993313729763,-0.011349150075390934,0.003663527476228773
1690821336418585300,7.37758544921875,0.18506781358122826,-0.00494468986056745,0.0016578593427781015
1690821336428626200,7.387626220703125,0.1763900016069412,-0.0049385706470347936,0.0008206322005018591
1690821336438666200,7.397666259765625,0.18207564602792262,-0.010006594626326113,0.004636226699594408
1690821336448706300,7.407706298828125,0.1775894405245781,-0.005446757631190121,0.001710411513922736
1690821336458747400,7.417747314453125,0.1918061819255352,-0.0032038375426083803,0.008276281968690454
1690821336468787500,7.427787353515625,0.28310908561646936,0.0003250672359019518,0.010707545969914644
1690821336478827300,7.4378271484375,0.11395604952573776,-0.2905528440174647,-0.9833526462618261
1690821336488867300,7.447867431640625,0.025956863555312154,-0.1668901691926643,0.477004896765016
1690821336498908200,7.457908203125,0.2432926235347986,0.13606685037845745,0.4970355486091226
1690821336508948200,7.4679482421875,-0.00625321517586708,0.0272050552518107,0.305393142410554
1690821336518988300,7.47798828125,0.24541268442869185,0.03633380759768188,0.44813196309991177
1690821336529029400,7.488029296875,0.00502455016374588,-0.06475410212446003,0.08865889198817312
1690821336539069400,7.4980693359375,0.35236849980354307,0.1625466235630214,-0.03504648946719244
1690821336549140500,7.508140380859375,0.274657483613491,-0.01813484642645344,-0.294591908541508
1690821336559180300,7.51818017578125,0.2974532527893782,-0.0277151053994894,-0.29373852484887464
1690821336569220400,7.528220458984375,0.30736557499468325,0.033711258808057754,-0.30306886418145146
1690821336579261200,7.53826123046875,0.29806349364221096,-0.003470288192760199,-0.26315449468325824
1690821336589301200,7.54830126953125,0.27684476452469825,0.06523753825984895,-0.14595809326311573
1690821336599341300,7.55834130859375,0.2216775885760784,0.04926635440699756,-0.008538047310570255
1690821336609381400,7.56838134765625,0.18639818540215491,0.0904464329920709,0.10870802933704107
1690821336619422500,7.57842236328125,0.1391115335702896,0.060089836640469727,0.22125717120692132
1690821336629462300,7.588462158203125,0.1191694002598524,0.06010254999157041,0.2789894666695036
1690821336639502300,7.59850244140625,0.12222294261157512,0.061486953554674977,0.27297126582590864
1690821336649543200,7.608543212890625,0.12942249872684478,0.02095786795793101,0.2260426519177854
1690821336659583200,7.618583251953125,0.15544775134325026,0.0007449731484055519,0.11512165010585448
1690821336669623300,7.628623291015625,0.18535539835095405,-0.020862974482402204,-0.008325820198841392
1690821336679663400,7.638663330078125,0.19971476309299468,-0.059893382486607874,-0.0935527467106469
1690821336689704400,7.648704345703125,0.2214332584261894,-0.06617805224666372,-0.17014323443816973
1690821336699744300,7.658744140625,0.22373101397454737,-0.0830429700688459,-0.1829386743317358
1690821336709784300,7.668784423828125,0.2140782194882631,-0.08395687004337087,-0.16189192251395434
1690821336719855400,7.67885546875,0.19544716877639293,-0.06776700193854049,-0.09905859585162252
1690821336729895400,7.6888955078125,0.16676818678081035,-0.052534799884725356,-0.005117196883261204
1690821336739936300,7.698936279296875,0.14463468090593815,-0.037257151253987104,0.07929636741904542
1690821336749976300,7.708976318359375,0.1327805769830942,-0.01548761985329911,0.1437647662036121
1690821336760016400,7.719016357421875,0.1186380698621273,-0.005985102291591465,0.1742100272193551
1690821336770056200,7.72905615234375,0.13588614178299904,-0.002021441091317683,0.1753326380411163
1690821336780097300,7.73909716796875,0.16254150899648664,0.012897804289497434,0.12252783470912836
1690821336790137300,7.749137451171875,0.18725041831731795,0.0160337094287388,0.05049011491513811
1690821336800177400,7.759177490234375,0.21152795048356055,0.02192094083642587,-0.011936457577208057
1690821336810218200,7.76921826171875,0.22820202190876004,0.014631843274179846,-0.05285494435033761
1690821336820258300,7.77925830078125,0.23564123199880121,0.021395400858670473,-0.08751082706474698
1690821336830298400,7.78929833984375,0.23429800069630144,0.02145951560344547,-0.1003205968777649
1690821336840338200,7.799338134765625,0.23808336445391176,0.019870401514787226,-0.08487514479891396
1690821336850379300,7.809379150390625,0.2221393608689308,0.02690039148312062,-0.047888124856352805
1690821336860419300,7.81941943359375,0.20965397330522537,0.031594905974902214,-0.0171918116889894
1690821336870459400,7.82945947265625,0.195674547791481,0.027465149226412175,0.037386969912424683
1690821336880530400,7.839530517578125,0.18273147958815097,0.02844425992425531,0.07790416414197533
1690821336890570500,7.849570556640625,0.16363631849586963,0.021592074208240955,0.10165305105792358
1690821336900611300,7.859611328125,0.16068097582161425,0.014317041703965513,0.10625512889274395
1690821336910651400,7.8696513671875,0.1648918715149164,0.0048039844819344575,0.08951989273168146
1690821336920691200,7.879691162109375,0.17268354830443858,-0.014002733324095606,0.0470724336924497
1690821336930731300,7.889731201171875,0.18226327755451202,-0.02713019991731271,0.012995976567501202
1690821336940772400,7.8997724609375,0.18286708866655826,-0.03695349213229492,-0.015071942591341212
1690821336950812400,7.9098125,0.1936445032685995,-0.038942072133626784,-0.04073042598827742
1690821336960852500,7.9198525390625,0.2113128464281559,-0.039445948268845676,-0.04636402056161314
1690821336970893300,7.929893310546875,0.19770400779247282,-0.04368793322015554,-0.039135548879113045
1690821336980933400,7.939933349609375,0.18588731327056884,-0.03934804085232317,-0.01378235030537471
1690821336990973200,7.94997314453125,0.18274024741649628,-0.025023418630100786,0.01945889810444787
1690821337001013200,7.96001318359375,0.17000117735266684,-0.01837640009736642,0.041337926894752304
1690821337011054300,7.970054443359375,0.16891981185674668,-0.012423154248762875,0.0556464016997721
1690821337021094400,7.980094482421875,0.17335984013080596,-0.007001841586083173,0.06294553659884258
1690821337031134500,7.990134521484375,0.16747019757032394,0.00032113997945562003,0.05874337220126763
1690821337041175300,8.00017529296875,0.17549042241871357,-0.000691946053225547,0.04238085094327107
1690821337051245600,8.01024560546875,0.1910001262396574,0.010012878236640245,0.022360510430624706
1690821337061286400,8.020286376953125,0.19739304214715955,0.013366590845026075,0.0031699900719337165
1690821337071326200,8.030326171875,0.2000619690954685,0.014770429760962723,-0.007025003265962004
1690821337081366300,8.0403662109375,0.20604221254885197,0.007388941207528114,-0.021766480927076188
1690821337091407400,8.050407470703124,0.20679916839599607,0.008275533050019294,-0.026135434992611405
1690821337101447400,8.060447509765625,0.20996786155998706,0.009903901436831801,-0.008890742338914424
1690821337111487500,8.070487548828124,0.19833529143333434,0.01368972185216844,0.0028916389214340595
1690821337121527600,8.080527587890625,0.19718027617931363,0.011528324300888924,0.015947830376727506
1690821337131568400,8.090568359375,0.19153730185627937,0.006038056321535259,0.026144202820956707
1690821337141608200,8.100608154296875,0.17556114956736563,0.005360357989370823,0.03668494085660204
1690821337151648300,8.110648193359374,0.17693185339868067,-0.0014677892639301717,0.04500213022441603
1690821337161688300,8.120688232421875,0.1765033988535404,0.0029935740591026843,0.039019420819310466
1690821337171729400,8.1307294921875,0.17861176930963993,-0.01761131574269384,0.03804222808391787
1690821337181769500,8.14076953125,0.18520283813774585,-0.025263675393071023,0.020183431253023444
1690821337191809500,8.1508095703125,0.18385551518201826,-0.019036051316186783,0.008757142554502934
1690821337201850400,8.160850341796875,0.18774317027032375,-0.01997198045942932,-0.0056831236703321335
1690821337211868200,8.1708681640625,0.18355097927749156,-0.01849763359054923,-0.01338511288240552
1690821337221939200,8.180939208984375,0.18698972155451773,-0.022715086888801306,-0.008220131334662437
1690821337231979300,8.190979248046874,0.18234861775040626,-0.0263561285385862,0.0014380243133287876
1690821337242019300,8.201019287109375,0.1766524519354105,-0.009610197453573346,0.016299374627601355
1690821337252060400,8.211060302734374,0.17439327483177183,-0.007711195431835949,0.03001097038486041
1690821337262100200,8.221100341796875,0.18634148677885531,-0.006455423217080533,0.028221675815293563
1690821337272140300,8.231140380859374,0.1822767215579748,-0.002219685343466699,0.030144013046845792
1690821337282180400,8.241180419921875,0.17656769626140592,0.0023265615177340804,0.03822707399837672
1690821337292221200,8.25122119140625,0.17878537231087682,-0.004298464378900826,0.028431016850192097
1690821337302261200,8.26126123046875,0.19028467144668101,0.005208619760069996,0.018991645918879658
1690821337312301300,8.27130126953125,0.1995487588763237,0.008328158286400138,0.014214220650307833
1690821337322342400,8.28134228515625,0.20313187806010244,0.0005369016219861806,-0.00026911753127351404
1690821337332382500,8.291382568359374,0.20911796673238275,0.005144797276239842,0.0013589768609032033
1690821337342422300,8.30142236328125,0.19865210229754446,0.008587978266365825,-0.0011817753967829049
1690821337352462300,8.31146240234375,0.1923854431182146,0.007206953970436006,-0.0018038802173454313
1690821337362503200,8.321503173828125,0.18567279373705387,-0.0003945522755384445,0.010024806136451661
1690821337372543200,8.331543212890624,0.1949737060457468,-0.0014993534459732472,0.019729897065553812
1690821337382614300,8.3416142578125,0.1927513538211584,-0.003277231572382152,0.025011782991234213
1690821337392654300,8.351654296875,0.18828326849639415,-0.0022877638773061335,0.014949868847941979
1690821337402694100,8.361694091796876,0.17842238421738146,-0.002531527771614492,0.022355057937372476
1690821337412735200,8.3717353515625,0.17649170841574668,-0.008383322539739311,0.023524932833807542
1690821337422775300,8.381775390625,0.1791921995460987,-0.008863050614390522,0.02627924564378336
1690821337432815400,8.3918154296875,0.17769874611794947,-0.008533508132770658,0.02224019938604906
1690821337442855400,8.40185546875,0.18368658835589885,-0.012402001862879842,0.007827469622110948
1690821337452896300,8.411896240234375,0.18413024047017096,-0.017007468098029492,0.0047561541516799475
1690821337462936300,8.421936279296874,0.19669161587953565,-0.015087459820881485,0.004080108920484781
1690821337472976400,8.431976318359375,0.18366613008975982,-0.008480243575572966,0.009002395152999087
1690821337483017500,8.442017578125,0.17602642899155616,-0.014714735784661023,0.010993879497470334
1690821337493057300,8.452057373046875,0.18125497729480267,-0.016284268390014768,0.017371150311268867
1690821337503097300,8.462097412109374,0.188425307315588,-0.00901939195357263,0.016469114304473623
1690821337513137400,8.472137451171875,0.17689327495396137,-0.004702222874201834,0.019720681712636724
1690821337523178200,8.48217822265625,0.18286884223222732,0.006219623433519154,0.019464350597700103
1690821337533218300,8.49221826171875,0.19003858773112295,0.00925641557984054,0.02317203687606379
1690821337543258400,8.50225830078125,0.19122224455773829,0.007666114181093871,0.0232205247934442
1690821337553329200,8.5123291015625,0.18717267690598963,0.0029306648907251654,0.01469546482861042
1690821337563369200,8.522369140625,0.1947995185226202,0.006995357046369463,0.005840232194494456
1690821337573410300,8.532410400390624,0.18971359356045722,0.007210296704992652,0.0019272874013055116
1690821337583450400,8.542450439453125,0.1897182697355747,0.0064342708311974995,0.0019286847739480434
1690821337593490400,8.552490478515624,0.18733283590376376,-0.0030367556137032804,0.010689763718051835
1690821337603531300,8.56253125,0.19138240355551242,-0.00038788507273420687,0.02030569679266773
1690821337613571300,8.5725712890625,0.19363748900592326,0.0008695311098359525,0.007534085299260914
1690821337623611400,8.582611328125,0.18990648578405378,-0.004439845610968768,0.0071235134706832464
1690821337633651200,8.592651123046876,0.19290917473137378,0.004534318961389363,0.013571484033670275
1690821337643692300,8.6026923828125,0.18738076669871806,0.005616068049799651,0.020275255988631398
1690821337653732400,8.612732421875,0.18304595236480234,-0.0029212212089449164,0.017396421749843283
1690821337663772400,8.6227724609375,0.18469664218127727,-0.004178637391515076,0.022677741419943047
1690821337673812500,8.6328125,0.19188100072741507,-0.00915865429379046,0.011015388076379895
1690821337683853300,8.642853271484375,0.1956225253432989,-0.008499459732696413,0.002245002447813749
1690821337693893400,8.652893310546874,0.18050678927600383,-0.00851732418294996,0.00839301281669177
1690821337703933200,8.66293310546875,0.18304653688669204,-0.009703428694978356,0.011588219528272747
1690821337714004200,8.673004150390625,0.18034896836578845,-0.0021009360683150588,0.0037044714079704135
1690821337724044300,8.683044189453126,0.18243512699007988,0.0027512532032094895,0.0016110153932124376
1690821337734085400,8.69308544921875,0.19425123699009417,-0.007883812052384018,0.003884860343020409
1690821337744125400,8.70312548828125,0.18780805220007896,0.004305478641577065,0.018883637233451007
1690821337754165500,8.71316552734375,0.19109189617633818,0.002410568273067474,0.01944960055314004
1690821337764206300,8.723206298828124,0.18824352100789546,-0.00009010770255699753,0.017197492511104792
1690821337774246400,8.733246337890625,0.18943711470663546,0.0033510639935731886,0.0202003275888972
1690821337784286200,8.7432861328125,0.19556874932944773,0.0006743555976077913,0.01606657051872462
1690821337794326300,8.753326171875,0.18554244535565376,-0.0032239852814935147,0.017716657547000796
1690821337804367400,8.763367431640624,0.19556816480755804,-0.004192282324377447,0.005217013129079714
1690821337814407400,8.773407470703125,0.19871347709596157,-0.0038742841500788924,0.012874094620347023
1690821337824447500,8.783447509765624,0.1918313163667917,0.0014350377717986702,0.006771375564765185
1690821337834488300,8.79348828125,0.1868961980521679,0.0035045375222340224,0.014246241490077227
1690821337844528400,8.8035283203125,0.18615327073037624,-0.006960851988568902,0.008564213798288256
1690821337854568200,8.813568115234375,0.18556173457801342,-0.00025375556536018845,0.011803570178849622
1690821337864608300,8.823608154296876,0.19155425299108028,-0.009119071202073246,0.014257082544500007
1690821337874649300,8.8336494140625,0.1798883651167154,-0.008561455585621297,0.018729579182900486
1690821337884719400,8.84371923828125,0.18138707924187183,-0.013041176549252121,0.017473514707200228
1690821337894760400,8.853760498046874,0.1813888328075409,-0.010869915191084146,0.02061339276866056
1690821337904800500,8.863800537109375,0.18363573495149613,-0.004510298764985055,0.018013786463206633
1690821337914840300,8.87384033203125,0.1836363194733858,-0.00939162279944867,0.016090645514056087
1690821337924881200,8.883881103515625,0.17899872280061244,-0.002430149756371975,0.014480132444342597
1690821337934921200,8.893921142578124,0.1930640730321407,-0.010254778967425226,0.012092515788599848
1690821337944961300,8.903961181640625,0.1929120973408222,-0.00958741936618462,0.012851544861821457
1690821337955001300,8.91400146484375,0.18961480936110017,-0.004300217944569885,0.00776916356361471
1690821337965042400,8.92404248046875,0.18482289890944956,0.00003395706852898002,0.013322322445036843
1690821337975082500,8.93408251953125,0.1782341681689024,-0.006223368026874959,0.007926774411275983
1690821337985122600,8.94412255859375,0.18421674970984458,-0.0054920215450227254,0.012960348131693899
1690821337995163400,8.954163330078124,0.19064765954017637,0.0029779015659354624,0.01077927776556462
1690821338005203200,8.964203125,0.18974808035194873,-0.0016291355717927215,0.012355523239495231
1690821338015243300,8.9742431640625,0.1846609863460064,-0.002765921049378812,0.015634398779692128
1690821338025283300,8.984283447265625,0.1918459294140339,-0.0009447517705149948,0.005754983330145478
1690821338035324400,8.994324462890624,0.19304419928789138,-0.002300258032698184,0.003140225121332332
1690821338045364500,9.004364501953125,0.1912479635208845,-0.0027296441596001385,0.01066283004535362
1690821338055435500,9.014435546875,0.18825696501135825,-0.0027421748476102945,0.020639029533416033
1690821338065475300,9.024475341796874,0.19050503619909284,-0.0025897242322564123,0.013757772986544296
1690821338075515400,9.034515380859375,0.19275369190871713,-0.001188661795295775,0.010170443418528885
1690821338085556200,9.04455615234375,0.18632278207838535,0.003733414374664426,0.01371902101188898
1690821338095596300,9.05459619140625,0.18468027556836605,0.004186674567498267,0.012372191246505826
1690821338105636400,9.06463623046875,0.18109481829702853,0.0051621502698399125,0.018890578430891036
1690821338115677400,9.074677490234375,0.18035306001901624,-0.0002019340465776622,0.0067543696310371154
1690821338125717500,9.084717529296874,0.17825871808826924,-0.004217069705761969,0.011086142624495551
1690821338135757600,9.094757568359375,0.18454525101184843,-0.007735544421803206,0.010752024432457983
1690821338145797400,9.10479736328125,0.18753741856515407,-0.005688493965193629,0.01788785852859728
1690821338155838200,9.114838134765625,0.17915595918893812,-0.004434822375979274,0.015652436759881674
1690821338165878300,9.124878173828124,0.17571195621490476,0.0011426854954101145,0.014595255857147275
1690821338175918300,9.13491845703125,0.1867828008055687,-0.007299162298534065,0.016775431174132972
1690821338185958400,9.14495849609375,0.18767653477489948,-0.0029584479467943308,0.011439248644793405
1690821338195999500,9.15499951171875,0.17734803298413754,-0.008463895228970795,0.00849072843696922
1690821338206039600,9.16503955078125,0.18003917176425455,-0.008730053618177771,0.012224298075260594
1690821338216119000,9.175119140625,0.17614567145705223,-0.004551050900481641,0.005315970858372748
1690821338226159000,9.1851591796875,0.1806307079166174,0.0015680530343204736,0.0017471085288096218
1690821338236199200,9.19519921875,0.184816469168663,0.001080506979394704,0.013423134204698726
1690821338246240300,9.205240234375,0.19379297182857988,-0.004563764251582324,0.015758436151314528
1690821338256280000,9.215280029296874,0.19199965867102145,0.0059494647226296365,0.011335267680510878
1690821338266320000,9.22531982421875,0.19274609312415122,0.003935403220169246,0.012529482433758675
1690821338276361000,9.23536083984375,0.1794271773457527,-0.0010167758271098137,0.012737499161250889
1690821338286401000,9.245401123046875,0.1738900014847517,-0.007901676502637565,0.008614108221465721
1690821338296441000,9.255441162109374,0.1861632076025009,-0.002147168096527457,0.007606182421091944
1690821338306481200,9.265481201171875,0.1917056441605091,0.004062719394266605,0.0044047834307421
1690821338316522200,9.275522216796874,0.19170681320428848,-0.003946143809892237,0.0068120363687165075
1690821338326562000,9.28556201171875,0.1945505121976137,0.0014402436698786913,0.006638049774989485
1690821338336601900,9.295601806640626,0.1822808132112026,-0.0007498502529226243,0.005925197931053117
1690821338346643000,9.305642822265625,0.19874562579989433,0.0012351312855258584,0.011726924746064469
1690821338356683000,9.31568310546875,0.18977029218375682,-0.0025411175838671624,0.01781548741213046
1690821338366723000,9.32572314453125,0.18782675690054892,-0.009685929570905864,0.013700909966463223
1690821338376763100,9.33576318359375,0.18693126936554907,0.00036201997911557555,0.005358549624774605
1690821338386834200,9.345834228515624,0.18588380613923072,-0.004989624980837107,0.007042091398080811
1690821338396874200,9.355874267578125,0.1810965718626976,-0.004309752957895398,0.01846402358189225
1690821338406915000,9.3659150390625,0.19186872576773165,0.00038781200749799606,0.008430961073748766
1690821338416955000,9.375954833984375,0.18827391614615915,0.0038821569292806085,0.010177174553414806
1690821338426995000,9.385994873046876,0.18378128090202808,0.0038987244715914127,0.008124068815354258
1690821338437036000,9.3960361328125,0.18901508990228175,0.005660181186161935,0.009894905279623344
1690821338447076000,9.406076171875,0.18317571622431278,-0.0039280236313119525,0.015537852203194051
1690821338457116200,9.4161162109375,0.18197803087234496,-0.002942044801265001,0.01492304477309808
1690821338467156200,9.42615625,0.19858663584589958,-0.003466616664640605,0.009928159095253795
1690821338477197000,9.436197021484375,0.18871289208531378,-0.0004649506306275725,0.014702716553304344
1690821338487236900,9.44623681640625,0.19305179807245731,-0.001718877948168665,0.01243308198773302
1690821338497277000,9.45627685546875,0.18960721057653426,-0.006898417744226754,0.010527915086690336
1690821338507318000,9.466318115234374,0.18137772689163684,-0.003210322082322091,0.00862936058952473
1690821338517358000,9.476358154296875,0.18332126217484473,0.002548351042252034,0.012043306352011859
1690821338527398100,9.486398193359374,0.1852700581550598,-0.00022560718310996888,0.015523376153269782
1690821338537438200,9.496438232421875,0.18990882387161254,-0.005474924279749393,0.009509349161293357
1690821338547509200,9.50650927734375,0.18317513170242308,-0.016955153388902543,0.00896865728017874
1690821338557550000,9.516550048828124,0.19799042351841925,-0.008140965151228011,0.0025981815333478153
1690821338567590000,9.52658984375,0.19050971237421035,-0.0026808365818113086,0.010105488423537463
1690821338577630000,9.5366298828125,0.18168343183994293,0.003255732126627117,0.013395698208501563
1690821338587670000,9.546669921875,0.17689795112907886,0.0027494083059951663,0.006856277369242161
1690821338597711000,9.556711181640624,0.18288462432324884,-0.005735164384823292,0.004330065093562006
1690821338607751200,9.566751220703125,0.18258827172517775,-0.006331961234193295,0.014074465119745581
1690821338617791200,9.576791259765624,0.1857318304479122,-0.0022462628231383857,0.01360560549898073
1690821338627832000,9.58683203125,0.18917641794383525,0.0005470394235104322,0.0042799697409849615
1690821338637871900,9.596871826171874,0.18363865756094455,0.00018996961414813993,0.007284631449682637
1690821338647912000,9.606911865234375,0.18468378269970415,-0.004056454050261527,0.00868325533438474
1690821338657952000,9.616951904296876,0.1902192049950361,-0.00992461543129757,0.0003352598363533616
1690821338667993000,9.6269931640625,0.18064006026685236,-0.011304105357266963,0.007635700776521116
1690821338678033200,9.637033203125,0.17899346210360526,-0.002953296847641468,0.011995202027121558
1690821338688073200,9.6470732421875,0.1860235068708658,-0.006594137568026781,0.008963679710961878
1690821338698113300,9.65711328125,0.18272738793492316,0.004773607609979808,0.007535774932848289
1690821338708154000,9.667154052734375,0.19215221888422965,-0.0053720301608555015,0.008537316658208146
1690821338718225000,9.677224853515625,0.19873451988399027,0.0036427586828358467,0.015526106966473162
1690821338728265000,9.687264892578124,0.1881114190608263,0.0020169658455997702,0.005914265545085072
1690821338738305000,9.697304931640625,0.18347382238805293,-0.00912930033514276,0.010285849959123879
1690821338748345000,9.707344970703126,0.19020751455724239,-0.0030055384915322063,0.012229832766903564
1690821338758386200,9.71738623046875,0.19290157594680785,-0.004192008329741656,0.015166242411825804
1690821338768426200,9.72742626953125,0.18287527197301387,-0.0037664398614317175,0.0159509813150391
1690821338778466000,9.737466064453125,0.18796470406651497,0.0006646744538098573,0.010993422839744017
1690821338788507000,9.7475068359375,0.19514906261265277,-0.0004281440178863704,0.009424739617761224
1690821338798547000,9.757546875,0.19155834464430807,-0.00354739028327167,0.0064166438429616385
1690821338808587000,9.7675869140625,0.1836281361669302,-0.0029103527550585566,0.013457264803163706
1690821338818627000,9.777626953125,0.19021335977613923,-0.006873064107261598,0.009318548430083319
1690821338828668200,9.787668212890624,0.1935053870588541,-0.0032948220279999077,0.007321319331414997
1690821338838708200,9.797708251953125,0.18661971919834613,-0.004590688791126013,0.013630712540773674
1690821338848748000,9.807748046875,0.1873702453047037,0.0019332878838293254,0.006571542143728583
1690821338858788900,9.817788818359375,0.18677052584588527,0.005786401381716132,0.0070690159376244985
1690821338868829000,9.827828857421874,0.18811726427972317,-0.00652499958826229,0.005945957591291517
1690821338878900000,9.83789990234375,0.18661971919834613,-0.007561229034513234,0.014260489211138337
1690821338888940000,9.84793994140625,0.19200491936802863,0.00045053851278498765,0.013399415402393788
1690821338898980000,9.85797998046875,0.19394845465123653,-0.003330660526361316,0.015687562872190027
1690821338909020200,9.868020263671875,0.18736323104202746,-0.0060926725856028496,0.012821323253493755
1690821338919061200,9.878061279296874,0.19155366846919059,0.003233776023145765,0.004509522446850315
1690821338929101000,9.88810107421875,0.1954442461669445,-0.0008095993498340249,0.004182345452252775
1690821338939141000,9.89814111328125,0.19140578443109987,-0.009480963317025453,0.012590418840758502
1690821338949182000,9.908181884765625,0.1809352438211441,0.00010899506611749529,0.015114521357743068
1690821338959222000,9.918221923828124,0.18377660472691057,0.003994439931027591,0.005952222935296595
1690821338969262000,9.928261962890625,0.1969423757702112,0.00020421733520925044,0.012474464310891926
1690821338979302100,9.93830224609375,0.18407412636876105,-0.005979165741149336,0.011174332364602014
1690821338989343200,9.94834326171875,0.18512100507318974,-0.001669522381108254,0.0072808046579360955
1690821338999383000,9.958383056640624,0.19095687161982058,0.0006268083951435983,0.017950082710385323
1690821339009423000,9.968423095703125,0.18452654631137846,0.00651878904318437,0.018662569228140635
1690821339019464000,9.9784638671875,0.19111060087680815,-0.0027880598159506914,0.013814270680444314
1690821339029504000,9.98850390625,0.1902116062104702,-0.008836783661972731,0.013049779980815947
1690821339039544000,9.9985439453125,0.1821329291731119,-0.00504656106615439,0.004925866429088637
1690821339049615000,10.008614990234374,0.18378186542391775,-0.0013761106587946415,0.008430084290914236
1690821339059655200,10.0186552734375,0.1863286272972822,0.0009543963816948235,0.008808534815022721
1690821339069696300,10.0286962890625,0.18587912996411324,-0.0018043094756081699,0.0032241405451204626
1690821339079736000,10.038736083984375,0.19276129069328307,-0.0009199095902033149,0.014047357917111366
1690821339089776000,10.048776123046874,0.18168927705883978,0.004071706418320537,0.013905757489334791
1690821339099816200,10.058816162109375,0.1881242785423994,-0.003526420560479164,0.017785329735884443
1690821339109857000,10.06885693359375,0.18902093512117862,0.0016432554286904633,0.006538891116296872
1690821339119897000,10.07889697265625,0.1746563096821308,0.004496124109160155,0.01552070013899356
1690821339129937200,10.088937255859374,0.18393384111523628,-0.0077472165932878844,0.017956284122308715
1690821339139977000,10.09897705078125,0.19336276371777056,0.0008481047293171286,0.01671939013795927
1690821339150018000,10.10901806640625,0.19575521181225775,-0.0012377251014113425,0.01731036003474146
1690821339160058000,10.11905810546875,0.19096739301383495,-0.005552026370260864,0.014172217272641136
1690821339170098200,10.12909814453125,0.19096797753572464,0.004826086715888232,0.014941420680005103
1690821339180139000,10.139138916015625,0.18767419668734073,-0.0033227877471596,0.00973129394943826
1690821339190179000,10.149178955078124,0.18408230967521666,-0.0011020246914587913,0.011074689648719504
1690821339200219100,10.15921923828125,0.20128946506381035,-0.0011937946281395852,0.01476277617746964
1690821339210270500,10.1692705078125,0.19036533546745776,0.005456657970696687,0.018427600561641156
1690821339220310500,10.179310546875,0.18452654631137846,-0.0015370368415489792,0.012775639214552938
1690821339230351400,10.189351318359375,0.1909603787511587,-0.006037983256299048,0.008285068063344806
1690821339240391200,10.19939111328125,0.17734569489657878,-0.008861936369538307,0.01446327264108695
1690821339250431200,10.20943115234375,0.18752222099602223,-0.008486782914213835,0.010746252278797329
1690821339260471300,10.21947119140625,0.18811843332350253,-0.005406498686037957,0.01364306969884783
1690821339270512400,10.229512451171875,0.17704466612339018,-0.0024739158328622576,0.018245668123476205
1690821339280552400,10.239552490234376,0.1849783817321062,-0.0021041874713264405,0.017252620231825857
1690821339290592500,10.249592529296875,0.18272914150059222,0.0010380195445381104,0.016286442080792038
1690821339300633300,10.25963330078125,0.18751637577712535,-0.0022734248246997595,0.005570858934894203
1690821339310673200,10.269673095703125,0.1951473090469837,0.0023163323846645653,0.004028835390973836
1690821339320713200,10.279713134765625,0.19274960025548935,-0.0037992826851084827,0.01188288249275647
1690821339330753300,10.289753173828124,0.1875099460363388,0.005525375825352966,0.010978417066857218
1690821339340794400,10.29979443359375,0.184669169652462,0.005256240027770399,0.016987713084788993
1690821339350834400,10.30983447265625,0.18556465718746185,0.0021605573010630903,0.006217385810660198
1690821339360874500,10.31987451171875,0.18167524853348732,0.002493387718312442,0.0051487975979223844
1690821339370915300,10.329915283203125,0.194393275809288,-0.002356828791834414,0.005903442756971344
1690821339380985300,10.3399853515625,0.18242343655228613,-0.005462868515774607,0.013806196971843019
1690821339391026200,10.350026123046876,0.1887082159101963,-0.0023971608022227884,0.006340007543331012
1690821339401066200,10.360066162109375,0.1954442461669445,-0.006415146005619317,0.007555182886216789
1690821339411106300,10.370106201171875,0.19634382535517214,-0.00127476917617023,0.012896909240353851
1690821339421146400,10.380146484375,0.18527122719883918,-0.0010670812422409652,0.006181903505325317
1690821339431187500,10.3901875,0.18796528858840464,-0.0029981041037477553,0.0064680361034814265
1690821339441227500,10.4002275390625,0.18212766847610473,-0.010407722773123532,0.009195141246123239
1690821339451267300,10.410267333984375,0.19379998609125612,-0.001695040414854884,0.013843122315593063
1690821339461308200,10.42030810546875,0.19724048193395136,-0.002144318552315235,0.01046104212924838
1690821339471348200,10.43034814453125,0.2006815622985363,-0.0029246370087377726,0.007917476859968155
1690821339481388300,10.44038818359375,0.18990765482783317,-0.002891648054588586,0.012914298766572027
1690821339491428400,10.450428466796875,0.18287468745112417,0.0005798639808781445,0.017588738584704697
1690821339501469400,10.460469482421875,0.1894616646260023,-0.008088321648538113,0.01979311676118523
1690821339511509500,10.470509521484376,0.1810831278592348,-0.003013009411934763,0.01401667051790282
1690821339521549300,10.48054931640625,0.18632102851271629,-0.006714622142538428,0.0071495246947743
1690821339531590100,10.490590087890626,0.18706921653151512,-0.0017589724965393543,0.004766136689577251
1690821339541660400,10.500660400390625,0.1900637221723795,-0.002365687951724976,0.014196703259926289
1690821339551701200,10.510701171875,0.19021452881991863,-0.0057540700146928424,0.008825842142850161
1690821339561741300,10.5207412109375,0.18797171832919118,-0.004071030564885586,0.008768330668797716
1690821339571781400,10.530781494140625,0.19126199204623698,-0.0005974544364959002,0.008389167758636176
1690821339581822500,10.540822509765626,0.19230828622877597,-0.002683795723877847,0.011711654111696406
1690821339591862500,10.550862548828125,0.1860235068708658,-0.0016708375553600489,0.00924865239849314
1690821339601902300,10.56090234375,0.1929033295124769,0.0009050225483253597,0.007070468109194189
1690821339611942400,10.5709423828125,0.1863163523375988,0.00509935069931671,0.00959726490676403
1690821339621983200,10.580983154296876,0.19259996265172957,-0.0012270941095426679,0.007964859665650874
1690821339632023300,10.591023193359375,0.17583938198685645,-0.0003514072535559535,0.013860566640738398
1690821339642063400,10.6010634765625,0.17838322125077247,-0.010248148297239095,0.008144737144047395
1690821339652103400,10.611103515625,0.18197803087234496,-0.0027366218896582722,0.00792818091707304
1690821339662144500,10.62114453125,0.19065642736852167,-0.011317604159656911,0.01478063149456866
1690821339672184300,10.631184326171875,0.19095394901037216,-0.002853526267595589,0.008063296805135905
1690821339682224400,10.641224365234375,0.19544249260127544,0.004282335228007287,0.010860033117886633
1690821339692265200,10.65126513671875,0.18436697183549403,0.0047755803713575,0.008747607541177422
1690821339702305300,10.66130517578125,0.18735855486690997,-0.00014622180396690963,0.009647415058268233
1690821339712376300,10.671376220703126,0.19049743741452693,-0.001467277807276696,0.014314228692371398
1690821339722416400,10.68141650390625,0.18825345788002013,-0.003067625676002353,0.012272502864850683
1690821339732456400,10.69145654296875,0.18047347152829168,-0.002998049304820597,0.006438800875842571
1690821339742497500,10.70149755859375,0.1831698710054159,-0.0005359335076063871,0.010697499499935656
1690821339752537300,10.711537353515626,0.18691139562129974,-0.007847206369042396,0.01442157979067415
1690821339762577400,10.721577392578125,0.1828729338854551,-0.0044544951908290385,0.015512133240047842
1690821339772617200,10.7316171875,0.19499416431188582,-0.00304249123474583,0.013152327039837836
1690821339782658300,10.741658203125,0.18676292706131933,-0.003514437861740589,0.015011736836703494
1690821339792698400,10.751698486328126,0.1843681408792734,-0.005061027982924134,0.009570175970438867
1690821339802738400,10.761738525390625,0.19319442141354082,-0.0044235155306756495,0.007353175774402916
1690821339812779500,10.771779541015626,0.18361819929480552,0.0017614201819524168,0.006488969293655827
1690821339822819300,10.7818193359375,0.19349369662106036,0.0002762961907312274,0.006829645090643316
1690821339832859400,10.791859375,0.19349311209917067,-0.0024803273073397574,0.01038418663390912
1690821339842899200,10.801899169921874,0.192895730727911,0.004086410797107964,0.009500088142603636
1690821339852940300,10.811940185546876,0.18436872540116309,0.008468553137779236,0.007595597094995901
1690821339862980400,10.82198046875,0.1887082159101963,-0.00984353128541261,0.011119780032616109
1690821339873051400,10.832051513671875,0.19304945998489856,-0.009199406429287045,0.012983071420155465
1690821339883091500,10.842091552734376,0.19005378530025482,-0.001193922492302954,0.0073961746659129855
1690821339893131300,10.85213134765625,0.17628420314490795,-0.0021775997674092647,0.015557680281670764
1690821339903172400,10.86217236328125,0.18900339946448802,0.0006179857678711414,0.015350850864266977
1690821339913212400,10.87221240234375,0.19020108481645584,0.001978679661825299,0.009633843190642073
1690821339923252200,10.882252197265625,0.18975158748328685,-0.0032724823320284483,0.012334526117239147
1690821339933292300,10.892292236328124,0.19244681791663168,-0.0042406697770580645,0.014439663436636328
1690821339943333400,10.90233349609375,0.19125088613033295,-0.002712473829090595,0.012450106187770142
1690821339953373400,10.91237353515625,0.18766075268387794,-0.0013291845108382404,0.0061573992517311125
1690821339963413200,10.922413330078125,0.19992869810461997,0.004925053578335791,0.010001206065155565
1690821339973454300,10.932454345703125,0.1976835495263338,0.003997033746913075,0.012697112351935356
1690821339983494400,10.942494384765626,0.1933446435391903,-0.0016998079215176402,0.006031663113366812
1690821339993534200,10.9525341796875,0.19364625683426856,-0.004336239106021821,0.004607183268200606
1690821340003574300,10.96257421875,0.1887076313883066,-0.001511774536129087,0.010760426934622227
1690821340013615400,10.972615478515625,0.19603928945064544,0.005625073340162635,0.012397407886153086
1690821340023655400,10.982655517578126,0.1955880385518074,0.006180752727854996,0.01220597696728073
1690821340033726500,10.9927265625,0.1876578300744295,-0.0015797800047323107,0.014727558733616024
1690821340043766300,11.002766357421875,0.18660978232622147,0.00003720847154036164,0.016521922203944994
1690821340053806300,11.012806396484375,0.18391630545854568,0.0003628054304048419,0.0134091239456553
1690821340063847400,11.022847412109375,0.18226970729529857,-0.0031523448173888025,0.010363582237297669
1690821340073887200,11.03288720703125,0.18795652076005934,-0.00399544457802549,0.009339700815966353
1690821340083927300,11.04292724609375,0.1867594199299812,-0.0016090791644528507,0.010077230443432927
1690821340093968400,11.052968505859376,0.17763035705685615,-0.001210563099849969,0.014878785506263375
1690821340104008400,11.063008544921875,0.18196926304399966,-0.0022310652540065345,0.016322892500506715
1690821340114048300,11.07304833984375,0.1833183395653963,-0.00007401508428156376,0.008743461089022457
1690821340124088300,11.08308837890625,0.19169862989783287,0.0036284196302294727,0.0046207916684448715
1690821340134129400,11.09312939453125,0.1840671121060848,0.0033131979349069296,0.012375369584280997
1690821340144169200,11.103169189453125,0.19229484222531318,0.0005803206386044621,0.010543450582539662
1690821340154209300,11.113209228515625,0.19079671262204645,-0.0033738603472709652,0.006078269600914791
1690821340164249300,11.123249267578124,0.18511106820106504,-0.006820639800280332,0.0012189747351687402
1690821340174290400,11.13329052734375,0.17613515006303787,-0.004498206468392163,0.009416930770641192
1690821340184330200,11.143330322265625,0.18765666103065012,-0.0022452764424495397,0.013366298584081232
1690821340194370300,11.153370361328125,0.1813712971508503,0.0034340478355996307,0.008893993741925805
1690821340204441300,11.16344140625,0.18256781345903872,0.0011767704281024634,0.010707326774206011
1690821340214466000,11.173466064453125,0.18810732740759847,-0.0017844174650497734,0.007722758005466312
1690821340224507100,11.183507080078124,0.19244915600419044,0.001256758595444262,0.009430137312086298
1690821340234547200,11.193547119140625,0.19364684135615826,-0.0026590083424933254,0.0036364659393671897
1690821340244587300,11.203587158203124,0.18481822273433207,-0.010436035552155226,0.002432981034275144
1690821340254628000,11.213628173828125,0.18571721740067004,-0.0035064737509936093,0.0038013193785678594
1690821340264668200,11.223668212890624,0.19469664267003536,-0.0035759953232482075,0.010102282686298713
1690821340274708200,11.233708251953125,0.18586802404820918,-0.0030916093397885557,0.008812325074151158
1690821340284748300,11.243748291015624,0.19319675950109957,-0.010263656393624842,0.002551958638289943
1690821340294789400,11.253789306640625,0.19723580575883387,-0.012852723038755356,0.00887812945251353
1690821340304829200,11.2638291015625,0.18736030843257903,-0.0023610117766074833,0.013062949989642946
1690821340314869200,11.273869140625,0.18690964205563068,-0.004092749206349253,0.007805303456075489
1690821340324910000,11.28391015625,0.18675883540809154,-0.0075891947536729275,0.004822077261051163
1690821340334950100,11.2939501953125,0.18496201511919497,-0.0022184067018330097,0.0023240042344667014
1690821340344990200,11.303990234375,0.183466223603487,-0.007824446547962724,0.004640610613767057
1690821340355030300,11.3140302734375,0.1885562402188778,-0.007451211055088788,0.014332732463441787
1690821340365101000,11.32410107421875,0.18721125535070895,-0.0023225977286696433,0.010091733892820774
1690821340375141000,11.33414111328125,0.17808336152136325,-0.0008404694121330976,0.015288681481406092
1690821340385182200,11.34418212890625,0.18990414769649505,-0.005032167214620858,0.016670984418969602
1690821340395222300,11.35422216796875,0.19214812723100183,-0.004836261050030589,0.002176668185647577
1690821340405262300,11.364262451171875,0.1878068831562996,0.001652699110470712,0.010668985791504382
1690821340415303200,11.37430322265625,0.18406477401852606,-0.009157119923830032,0.013542239672876894
1690821340425343200,11.38434326171875,0.18421441162228583,0.0009039813687093556,0.004480944806337356
1690821340435383300,11.39438330078125,0.19034838433265686,-0.0032996078009717164,0.006626286271959543
1690821340445423000,11.404423095703125,0.1833177550435066,-0.0005311660009436309,0.014691647170018404
1690821340455464200,11.414464111328124,0.18481471560299395,-0.010343900289293379,0.014267887066304682
1690821340465504300,11.424504150390625,0.19169979894161224,-0.003565218200907111,0.007666927031846717
1690821340475544300,11.43454443359375,0.19244681791663168,-0.00833984872419387,0.008489440662181004
1690821340485585200,11.444585205078125,0.18601356999874114,0.00004986702371388673,0.00889139992604032
1690821340495625200,11.454625244140624,0.18945640392899513,-0.0002053498463705182,0.017096918213460592
1690821340505665300,11.464665283203125,0.187662506249547,0.001829809243045747,0.017098397784493864
1690821340515705000,11.474705078125,0.19290157594680785,0.00026601225873455406,0.011725454308185725
1690821340525746200,11.48474609375,0.1885638390034437,-0.00444485057964921,0.0042618860950227825
1690821340535817200,11.494817138671875,0.19036065929234028,0.0019473712081089615,0.004791965250577778
1690821340545857300,11.504857177734374,0.18766542885899543,-0.00046957200681790705,0.008781034886743873
1690821340555897300,11.5148974609375,0.19171090485751627,-0.0038831615762785075,0.005538810695661232
1690821340565937400,11.5249375,0.18722353031039238,-0.010388689279090613,0.0076020999010186635
1690821340575978200,11.534978271484375,0.17884323997795581,0.0039437691897153855,0.008517150653013958
1690821340586018300,11.545018310546874,0.1843815848827362,-0.004866181264258921,0.013639133309246971
1690821340596058000,11.55505810546875,0.1894698479324579,-0.00010543313585221766,0.00949624308454804
1690821340606099200,11.56509912109375,0.1816881080150604,0.002864011128991842,0.009383978349110112
1690821340616139300,11.57513916015625,0.18258476459383963,-0.0009312164355069399,0.016118821295769883
1690821340626179300,11.585179443359374,0.19260873048007487,0.005157510627340525,-0.0034289698016829787
1690821340636219100,11.59521923828125,0.18138474115431308,-0.005476878774818033,0.002313144913734868
1690821340646260200,11.60526025390625,0.18452713083326816,-0.006951335241552442,0.0015787936240434645
1690821340656300300,11.61530029296875,0.1902162823855877,-0.0037388760010711847,0.005834706636006012
1690821340666340000,11.625340087890624,0.18812486306428908,0.006542370848171413,0.013374098298046738
1690821340676380200,11.635380126953125,0.19231763857901096,0.0012786416336894035,0.008876823411416261
1690821340686421200,11.645421142578124,0.17810265074372292,-0.0017002097803167997,0.008535261698439716
1690821340696492300,11.6554921875,0.19007307452261446,0.005030523246806115,0.01187589562954381
1690821340706532400,11.665532470703125,0.1965074914842844,0.0022243797848932444,0.01718466956214979
1690821340716572200,11.675572265625,0.18034604575634003,-0.0028954474468715487,0.013599860744783653
1690821340726612200,11.6856123046875,0.18603052113354204,-0.009953092607110739,0.009951275109359994
1690821340736653300,11.6956533203125,0.18782617237865923,0.004098539626318961,0.013038920660084113
1690821340746693000,11.705693115234375,0.19306348851025104,-0.0003793181737884879,0.00691608126508072
1690821340756733200,11.715733154296874,0.19635551579296587,-0.002784497885685414,0.012739663718873634
1690821340766774300,11.725774169921875,0.1801940700650215,0.006443769311904907,0.011966405190899967
1690821340776814300,11.735814453125,0.18767478120923042,0.0014013546979054809,0.0073463715742807835
1690821340786854100,11.745854248046875,0.1909650549262762,-0.0014624007027596235,0.01521896811290644
1690821340796894200,11.755894287109374,0.18797288737297058,0.0005172653397545219,0.015665241442527622
1690821340806935300,11.765935302734375,0.19051731115877626,0.0012423647439107298,0.009442147410288452
1690821340816975000,11.77597509765625,0.19440964242219924,-0.01246606180872768,0.02063961405530572
1690821340827015200,11.78601513671875,0.18752631264925002,-0.00844327256605029,0.015686740888282657
1690821340837056300,11.79605615234375,0.1890250267744064,0.0009526793486438691,0.010028349800407886
1690821340847096300,11.806096435546875,0.18348785091340541,0.007441036720946431,0.017472199532948433
1690821340857136000,11.81613623046875,0.19665362195670605,0.002289206915721297,0.011272541175223886
1690821340867207200,11.826207275390624,0.197552616623044,0.009064710666332394,0.009154398243781179
1690821340877247000,11.8362470703125,0.1866290715485811,0.0007522431394085288,0.018241759133338926
1690821340887287000,11.846287109375,0.18976912313997743,0.0054994924654252824,0.01146127781351097
1690821340897328000,11.856328125,0.1843815848827362,0.004356770437397062,0.010728086434444412
1690821340907368200,11.8663681640625,0.18333879783153534,-0.003561619738023728,0.010955520248459652
1690821340917408300,11.876408203125,0.1873795976549387,-0.005814038307312875,0.012566754837380721
1690821340927449300,11.886449462890624,0.1864817720323801,-0.0014953531242907047,0.016106199276214466
1690821340937489200,11.8964892578125,0.18423662345409392,-0.003919529797602445,0.01055993592645973
1690821340947529200,11.906529296875,0.1906692868500948,-0.00574608763763681,0.007042748985206708
1690821340957569000,11.916569091796875,0.17839783429801462,0.005850662256963551,0.013591156848520039
1690821340967610000,11.926610107421874,0.18363339686393737,-0.001864277768228203,0.008956482785195112
1690821340977650200,11.936650146484375,0.18902093512117862,-0.004730042462889105,0.009198940638406202
1690821340987690200,11.946690185546874,0.18453122248649595,-0.0027867081090807914,0.010428034908790141
1690821340997731300,11.9567314453125,0.18931904128491878,-0.001904244452435523,0.020617858881223947
1690821341007771100,11.966771240234374,0.18153963945508003,-0.005048223300278186,0.013428449700633062
1690821341017811200,11.976811279296875,0.18648060298860072,-0.001437339326739311,0.00878935519051738
1690821341027882000,11.986882080078125,0.188425307315588,-0.0005812156877480447,0.007680453233700245
1690821341037922000,11.996922119140624,0.18214286604523658,0.005020458510518073,0.0013365093007683753
1690821341047963100,12.006963134765625,0.18244155673086643,-0.0005310746693983673,0.013634959457628429
1690821341058003200,12.017003173828124,0.19261574474275112,0.00003609422668814659,0.017573595814500003
1690821341068043300,12.027043212890625,0.18917115724682806,0.004030223630461842,0.010838469740049914
1690821341078083300,12.037083251953124,0.19620295557975767,0.005200509518850594,0.01342204735931009
1690821341088124200,12.047124267578125,0.19126900630891322,0.0018626885993406176,0.014324896216858177
1690821341098164200,12.057164306640624,0.1932172177672386,-0.0006172916481271386,0.012719945238251238
1690821341108204000,12.0672041015625,0.18379004873037338,0.005639576789550483,0.010406645060889423
1690821341118245000,12.0772451171875,0.18408757037222384,-0.000708586660772562,0.009105152274575083
1690821341128285200,12.08728515625,0.19082009349763393,0.0016380677969194948,0.008833212598552928
1690821341138325200,12.0973251953125,0.18393559468090534,-0.002293956156075001,0.011243552542757242
1690821341148365300,12.107365234375,0.18273615576326846,-0.002493332919385284,0.01912012200360186
1690821341158406100,12.11740625,0.18722177674472332,-0.0021243169439025223,0.008771107147773727
1690821341168446200,12.1274462890625,0.18751929838657377,-0.0032513116798363623,0.009949749872554092
1690821341178486000,12.137486083984374,0.18542437193393707,-0.006350866864062846,0.012109074197756127
1690821341188557000,12.14755712890625,0.18721943865716456,-0.0052394167571328575,0.01128134553618729
1690821341198597000,12.15759716796875,0.18183482300937176,0.0001660407492890954,0.010367116768099366
1690821341208638200,12.16763818359375,0.18512860385775565,0.006222345113568007,0.007355258133634924
1690821341218696700,12.17769677734375,0.1801946545869112,0.0076620955931022755,0.015292499139998108
1690821341228736500,12.187736572265624,0.18752865073680877,0.003368051660992205,0.009854938595416024
1690821341238776600,12.197776611328125,0.1941109517365694,-0.001053564173541963,0.010601044254982843
1690821341248817700,12.207817626953124,0.26445290046334263,0.004696742981486022,0.021282533335033802
1690821341258857700,12.217857666015625,0.09291033888757229,-0.2509824108524248,-0.5147122577382252
