time,seconds_elapsed,z,y,x
1690821329158188500,0.1171884765625,-0.0016636766958981752,-0.019938554614782333,-0.07407129555940628
1690821329168229600,0.127229736328125,-0.0024919197894632816,-0.01631585694849491,-0.04283295199275017
1690821329178269700,0.137269775390625,-0.0019382486352697015,-0.012947756797075272,-0.013978400267660618
1690821329188309800,0.147309814453125,-0.005873601883649826,-0.006268282420933247,0.013698501512408257
1690821329198350600,0.1573505859375,-0.0057479003444314,0.007160441018640995,0.03971598669886589
1690821329208395300,0.167395263671875,-0.006706106010824442,0.016645023599267006,0.055091213434934616
1690821329218435300,0.177435302734375,-0.007454187609255314,0.019452527165412903,0.06298349052667618
1690821329228475400,0.187475341796875,-0.00555215822532773,0.02287415601313114,0.06532814353704453
1690821329238516200,0.19751611328125,-0.006669354159384966,0.017236243933439255,0.051728975027799606
1690821329248587300,0.207587158203125,-0.004261590540409088,0.010663829743862152,0.032044753432273865
1690821329258627000,0.217626953125,-0.0036826191935688257,0.001412806916050613,0.007674963679164648
1690821329268667100,0.227667236328125,-0.0041675809770822525,-0.0052168662659823895,-0.02148105762898922
1690821329278707200,0.237707275390625,-0.005568669643253088,-0.012622051872313023,-0.046309974044561386
1690821329288748300,0.247748291015625,-0.004029628820717335,-0.018031731247901917,-0.06789063662290573
1690821329298788400,0.257788330078125,-0.0064925202168524265,-0.018694059923291206,-0.0800386443734169
1690821329308828400,0.267828369140625,-0.0054754591546952724,-0.01443806104362011,-0.08601024746894836
1690821329318869200,0.277869140625,-0.0035127094015479088,-0.009328520856797695,-0.08016887307167053
1690821329328909000,0.287908935546875,-0.004150004126131535,-0.008042213506996632,-0.06889916956424713
1690821329338949000,0.29794921875,-0.0030945930629968643,-0.0034384073223918676,-0.053467217832803726
1690821329348989200,0.3079892578125,-0.003951598424464464,0.0004165183927398175,-0.03405357524752617
1690821329359030300,0.3180302734375,-0.002796052722260356,0.0020008329302072525,-0.014949388802051544
1690821329369070300,0.3280703125,-0.004018443636596203,0.0010311759542673826,0.0014524880098178983
1690821329379110400,0.3381103515625,-0.005213404074311256,0.0024868599139153957,0.016682839021086693
1690821329389150200,0.348150146484375,-0.006844590418040752,0.004396612755954266,0.024629445746541023
1690821329399191000,0.35819091796875,-0.005245628301054239,0.005540440324693918,0.02587367594242096
1690821329409231000,0.368231201171875,-0.0044176517985761166,0.0036064526066184044,0.02449069544672966
1690821329419302100,0.37830224609375,-0.006186256650835276,0.005628058221191168,0.01648842915892601
1690821329429342200,0.38834228515625,-0.004295945167541504,0.003585147438570857,0.0008524778531864285
1690821329439382300,0.39838232421875,-0.004408863373100758,0.004418184049427509,-0.013857225887477398
1690821329449423400,0.40842333984375,-0.003272492438554764,-0.0016317188274115324,-0.02978372760117054
1690821329459463400,0.41846337890625,-0.004589159041643143,-0.003142263740301132,-0.041314151138067245
1690821329469503200,0.428503173828125,-0.004760933108627796,-0.007224357221275568,-0.04975317418575287
1690821329479544000,0.4385439453125,-0.00381417921744287,-0.009885121136903763,-0.05413460731506348
1690821329489584000,0.448584228515625,-0.006149771623313427,-0.009704292751848698,-0.05319158360362053
1690821329499624200,0.458624267578125,-0.0034442662727087736,-0.009111739695072174,-0.0486690029501915
1690821329509664300,0.468664306640625,-0.004513525404036045,-0.005341502372175455,-0.040943704545497894
1690821329519705300,0.478705322265625,-0.005705556366592646,-0.004714061506092548,-0.029805298894643784
1690821329529745400,0.488745361328125,-0.003964648116379976,-0.000660463934764266,-0.01890178583562374
1690821329539785200,0.49878515625,-0.004482366610318422,-0.0005262406193651259,-0.008756207302212715
1690821329549826000,0.508825927734375,-0.0038810246624052525,0.004930043593049049,0.0002985403698403388
1690821329559866000,0.5188662109375,-0.0044346959330141544,0.003213636577129364,0.000618918624240905
1690821329569906200,0.52890625,-0.005764145869761705,0.004513259045779705,0.005682386923581362
1690821329579946200,0.5389462890625,-0.004877845756709576,0.0018037590198218822,0.004667988512665033
1690821329590017300,0.549017333984375,-0.004057325888425112,0.002082591876387596,-0.0015518239233642817
1690821329600057300,0.559057373046875,-0.005799565929919481,-0.00005246427463134751,-0.007029946427792311
1690821329610098400,0.569098388671875,-0.004068511072546244,-0.0036751623265445232,-0.016095079481601715
1690821329620138200,0.57913818359375,-0.005087170284241438,-0.00466505903750658,-0.02429948002099991
1690821329630178300,0.58917822265625,-0.005525526590645313,-0.0025214808993041515,-0.032578449696302414
1690821329640219100,0.59921923828125,-0.005557484459131956,-0.003103115363046527,-0.038182273507118225
1690821329650259200,0.60925927734375,-0.005007275380194187,-0.004503138829022646,-0.03903315216302872
1690821329660299300,0.61929931640625,-0.00321816373616457,-0.004776645917445421,-0.03816203400492668
1690821329670339300,0.62933935546875,-0.0038016624748706818,-0.0029952572658658028,-0.03570686653256416
1690821329680380400,0.63938037109375,-0.004224572330713272,-0.004072239622473717,-0.032175514847040176
1690821329690420200,0.649420166015625,-0.004749747924506664,-0.0017212009988725185,-0.023249927908182144
1690821329700460300,0.659460205078125,-0.003519367426633835,-0.0035145736765116453,-0.017228787764906883
1690821329710501000,0.669501220703125,-0.00475480780005455,-0.0014615427935495973,-0.011510448530316353
1690821329720541200,0.679541259765625,-0.005663744639605284,-0.0001656486128922552,-0.009816145524382591
1690821329730581200,0.689581298828125,-0.005575061310082674,-0.0005520732956938446,-0.006257096771150827
1690821329740621300,0.699621337890625,-0.005730856209993362,0.0013755226973444223,-0.00635030772536993
1690821329750662400,0.709662353515625,-0.005019792355597019,0.0007329019135795534,-0.008688562549650669
1690821329760702200,0.7197021484375,-0.004788363818079233,-0.00011398329661460593,-0.009905095212161541
1690821329770773200,0.729773193359375,-0.004095409065485001,-0.0003246393462177366,-0.016863934695720673
1690821329780813300,0.739813232421875,-0.0037760960403829813,-0.0011880361707881093,-0.019421635195612907
1690821329790853400,0.749853271484375,-0.0054791877046227455,-0.002360359765589237,-0.02449016273021698
1690821329800894200,0.759894287109375,-0.005036303773522377,-0.0033878071699291468,-0.027335749939084053
1690821329810934300,0.769934326171875,-0.004936168901622295,-0.004782238509505987,-0.030594393610954285
1690821329820974300,0.779974365234375,-0.004010987002402544,-0.004637096077203751,-0.02959970384836197
1690821329831015400,0.790015380859375,-0.005615807604044676,-0.004793690051883459,-0.028840435668826103
1690821329841055200,0.80005517578125,-0.004114584065973759,-0.002793123247101903,-0.027537351474165916
1690821329851095300,0.81009521484375,-0.004823783412575722,-0.002091913018375635,-0.02352636493742466
1690821329861135400,0.82013525390625,-0.0054512242786586285,-0.0011414308100938797,-0.020187560468912125
1690821329871176200,0.83017626953125,-0.004841094370931387,-0.0023816649336367846,-0.01853773184120655
1690821329881216300,0.84021630859375,-0.004036819562315941,-0.0002966761530842632,-0.014223144389688969
1690821329891256300,0.85025634765625,-0.005018194206058979,0.00024314661277458072,-0.01318051666021347
1690821329901296000,0.860296142578125,-0.0035712989047169685,-0.00012064119800925255,-0.012455337680876255
1690821329911337200,0.870337158203125,-0.005045358557254076,0.001427987008355558,-0.011993279680609703
1690821329921377300,0.880377197265625,-0.004228833597153425,0.0014381069922819734,-0.013736318796873093
1690821329931417300,0.890417236328125,-0.004899151157587767,-0.0013337110867723823,-0.017654627561569214
1690821329941488400,0.90048828125,-0.00446958327665925,-0.003480485174804926,-0.020328441634774208
1690821329951528200,0.910528076171875,-0.005621666554361582,-0.002886600326746702,-0.02215084247291088
1690821329961569300,0.9205693359375,-0.0028519791085273027,-0.0017536915838718414,-0.023968182504177094
1690821329971609300,0.930609375,-0.005589175969362259,-0.002671150490641594,-0.027247600257396698
1690821329981649200,0.940649169921875,-0.004283694550395012,-0.0038163098506629467,-0.02779940702021122
1690821329991690200,0.950690185546875,-0.005567871034145355,-0.002365685999393463,-0.026916569098830223
1690821330001730300,0.960730224609375,-0.0049026133492589,-0.0029414615128189325,-0.024229438975453377
1690821330011770400,0.970770263671875,-0.005546565633267164,-0.0024586303625255823,-0.023681361228227615
1690821330021810200,0.98081005859375,-0.004571315832436085,-0.0029225528705865145,-0.02213433012366295
1690821330031851300,0.990851318359375,-0.005396363325417042,-0.00032650353386998177,-0.01949540339410305
1690821330041891300,1.000891357421875,-0.003837615018710494,-0.0010761833982542157,-0.01697525568306446
1690821330051931100,1.01093115234375,-0.006380667444318533,0.00017789915727917105,-0.014669223688542843
1690821330061972200,1.02097216796875,-0.004794488660991192,-0.0021869877818971872,-0.01576937548816204
1690821330072012300,1.03101220703125,-0.004722583573311567,0.00020133497309871018,-0.016814133152365685
1690821330082052400,1.04105224609375,-0.004898352082818747,-0.0004828310920856893,-0.015736352652311325
1690821330092092200,1.051092041015625,-0.004811533261090517,-0.004265584982931614,-0.01854066178202629
1690821330102133200,1.06113330078125,-0.0031672974582761526,-0.0014809839194640517,-0.01967197097837925
1690821330112203300,1.071203369140625,-0.0032285500783473253,-0.0011741877533495426,-0.020611003041267395
1690821330122244400,1.081244384765625,-0.003454386256635189,-0.0011353056179359555,-0.022417690604925156
1690821330132284200,1.0912841796875,-0.0038282941095530987,-0.002383795566856861,-0.02245124615728855
1690821330142324200,1.10132421875,-0.004270112607628107,-0.0032626385800540447,-0.024940770119428635
1690821330152365300,1.111365234375,-0.006711964961141348,-0.0017712684348225594,-0.02478071302175522
1690821330162405400,1.1214052734375,-0.004889563657343388,-0.001041562296450138,-0.023139407858252525
1690821330172445200,1.131445068359375,-0.004933239426463842,-0.0016876452136784792,-0.02274632453918457
1690821330182485200,1.1414853515625,-0.003477822057902813,-0.003994475118815899,-0.020607540383934975
1690821330192526300,1.1515263671875,-0.005490106530487537,-0.0026402578223496675,-0.020133230835199356
1690821330202553600,1.1615537109375,-0.006446980405598879,-0.0022748722694814205,-0.019212044775485992
1690821330212593700,1.17159375,-0.004861600697040558,0.0001930791768245399,-0.01666766032576561
1690821330222634500,1.181634521484375,-0.005032575689256191,-0.002397910226136446,-0.015736885368824005
1690821330232674300,1.19167431640625,-0.004496214911341667,-0.0008239820599555969,-0.018255436792969704
1690821330242714400,1.20171435546875,-0.0049252500757575035,-0.0025624935515224934,-0.016575248911976814
1690821330252754400,1.21175439453125,-0.004490355961024761,-0.0014612764352932572,-0.019096728414297104
1690821330262795500,1.22179541015625,-0.004352137912064791,-0.00122558674775064,-0.01920112408697605
1690821330272835600,1.231835693359375,-0.005711681675165892,0.00035899411886930466,-0.01997929997742176
1690821330282906600,1.24190673828125,-0.005291168577969074,-0.0010567422723397613,-0.01967569999396801
1690821330292946700,1.25194677734375,-0.004758536349982023,-0.00344559783115983,-0.02088956907391548
1690821330302986500,1.261986572265625,-0.0045585329644382,-0.0033712955191731453,-0.021449897438287735
1690821330313027300,1.27202734375,-0.006385195069015026,-0.0026200178544968367,-0.02293168194591999
1690821330323067400,1.2820673828125,-0.003108707955107093,-0.002426672261208296,-0.02076120488345623
1690821330333107500,1.292107421875,-0.0036693033762276173,-0.002942793071269989,-0.02004215121269226
1690821330343147500,1.3021474609375,-0.004869856406003237,-0.002909237053245306,-0.02081180550158024
1690821330353188600,1.312188720703125,-0.00517691858112812,-0.0029233519453555346,-0.019627762958407402
1690821330363228700,1.322228759765625,-0.005557484459131956,-0.0032860743813216686,-0.018678613007068634
1690821330373268500,1.3322685546875,-0.00421232171356678,0.0003049319493584335,-0.01865996979176998
1690821330383309300,1.342309326171875,-0.0064986455254256725,-0.0013757890556007624,-0.01793559081852436
1690821330393349400,1.352349365234375,-0.004631237126886845,-0.0011582087026908994,-0.020832577720284462
1690821330403389400,1.362389404296875,-0.004728176165372133,-0.0019049590919166803,-0.01901869848370552
1690821330413429500,1.372429443359375,-0.004020840395241976,-0.0008048072922974825,-0.020652014762163162
1690821330423470600,1.382470703125,-0.005624063778668642,-0.003090598387643695,-0.01944746822118759
1690821330433510700,1.3925107421875,-0.005312473513185978,-0.0018362496048212051,-0.022975090891122818
1690821330443550500,1.402550537109375,-0.003734018187969923,-0.0028735508676618338,-0.019057314842939377
1690821330453621500,1.41262158203125,-0.005597432143986225,-0.002549710450693965,-0.021131649613380432
1690821330463661300,1.422661376953125,-0.004201402887701988,-0.0017888452857732773,-0.020315924659371376
1690821330473702400,1.432702392578125,-0.004894091282039881,-0.0013289173366501927,-0.020482372492551804
1690821330483742500,1.442742431640625,-0.00433109886944294,-0.0005957491230219603,-0.02160196378827095
1690821330493782500,1.452782470703125,-0.006185724399983883,-0.002176867797970772,-0.018820293247699738
1690821330503823600,1.46282373046875,-0.004972388036549091,-0.001621066126972437,-0.020186761394143105
1690821330513863700,1.47286376953125,-0.0068272799253463745,-0.0054182009771466255,-0.02081260457634926
1690821330523903500,1.482903564453125,-0.005465871654450893,-0.003338538808748126,-0.02009381726384163
1690821330533943300,1.492943359375,-0.005102084018290043,0.0002372876479057595,-0.019388878718018532
1690821330543984400,1.502984375,-0.0044203149154782295,-0.002852511825039983,-0.021926604211330414
1690821330554024400,1.5130244140625,-0.005781190004199743,-0.0033449302427470684,-0.018486864864826202
1690821330564064500,1.523064453125,-0.006203567609190941,-0.004758802708238363,-0.018803780898451805
1690821330574105600,1.533105712890625,-0.004639759194105864,-0.0007155913626775146,-0.01823519729077816
1690821330584145700,1.543145751953125,-0.005056011490523815,-0.0006255765329115093,-0.021570539101958275
1690821330594185500,1.553185546875,-0.005634449888020754,-0.0028913940768688917,-0.021037107333540916
1690821330604225300,1.563225341796875,-0.005316202063113451,-0.0022234732750803232,-0.020773189142346382
1690821330614266400,1.573266357421875,-0.004519384354352951,-0.0034767568577080965,-0.02123498171567917
1690821330624306400,1.583306396484375,-0.0037923413328826427,-0.0016492956783622503,-0.02046692557632923
1690821330634377500,1.59337744140625,-0.005547364708036184,-0.0008202536264434457,-0.02244538813829422
1690821330644417500,1.60341748046875,-0.005394765175879002,0.0014088122406974435,-0.02147812768816948
1690821330654457600,1.61345751953125,-0.005083974450826645,-0.0018530274974182248,-0.02208213321864605
1690821330664498700,1.623498779296875,-0.005152684170752764,-0.0024655545130372047,-0.0202791728079319
1690821330674538500,1.63353857421875,-0.004791026934981346,-0.0011001517996191978,-0.01991778239607811
1690821330684578300,1.643578369140625,-0.005338306538760662,-0.002150236163288355,-0.02129197306931019
1690821330694618400,1.653618408203125,-0.0037265613209456205,-0.001782187377102673,-0.019648004323244095
1690821330704659500,1.663659423828125,-0.00504136411473155,-0.001734783174470067,-0.019886888563632965
1690821330714699500,1.673699462890625,-0.004222441930323839,-0.0005885586142539978,-0.01877927966415882
1690821330724739600,1.683739501953125,-0.005348426289856434,-0.0011792477453127503,-0.020065320655703545
1690821330734780700,1.69378076171875,-0.005255482159554958,-0.002931075170636177,-0.020709006115794182
1690821330744820500,1.703820556640625,-0.004011519718915224,-0.0014594122767448425,-0.020714333280920982
1690821330754860300,1.7138603515625,-0.004860801622271538,-0.0020327907986938953,-0.01936890371143818
1690821330764900400,1.723900390625,-0.005958823021501303,-0.0012863067677244544,-0.020855480805039406
1690821330774941400,1.73394140625,-0.0037763623986393213,-0.0005813680472783744,-0.02009115368127823
1690821330784981500,1.7439814453125,-0.004493285436183214,-0.00126739835832268,-0.02099183388054371
1690821330795021600,1.754021484375,-0.005774798337370157,-0.0016761935548856854,-0.020471986383199692
1690821330805092600,1.764092529296875,-0.005759884603321552,-0.006611830089241266,-0.022708507254719734
1690821330815132400,1.77413232421875,-0.0038932752795517445,-0.0022357236593961716,-0.020861605182290077
1690821330825173500,1.784173583984375,-0.004559065215289593,-0.0012652678415179253,-0.018742527812719345
1690821330835213300,1.79421337890625,-0.00603472301736474,-0.003829892026260495,-0.020600616931915283
1690821330845253400,1.80425341796875,-0.004429635591804981,-0.0018820558907464147,-0.019273562356829643
1690821330855293400,1.81429345703125,-0.0038272286765277386,-0.002626675646752119,-0.01871536485850811
1690821330865334500,1.82433447265625,-0.005608084611594677,-0.0027688886038959026,-0.01895105466246605
1690821330875374600,1.83437451171875,-0.005561479367315769,-0.0011994877131655812,-0.020017916336655617
1690821330885414400,1.844414306640625,-0.004483165219426155,-0.00133877107873559,-0.019085543230175972
1690821330895455500,1.85445556640625,-0.0051569449715316296,-0.0016463662032037973,-0.01871163584291935
1690821330905495300,1.864495361328125,-0.005615008994936943,-0.0005858954391442239,-0.01986478455364704
1690821330915535400,1.874535400390625,-0.005459214095026255,-0.004435494542121887,-0.02298414520919323
1690821330925575400,1.884575439453125,-0.0049252500757575035,-0.002317482838407159,-0.020865866914391518
1690821330935616500,1.894616455078125,-0.005626194179058075,-0.002776611829176545,-0.022374814376235008
1690821330945656600,1.904656494140625,-0.006620884872972965,-0.0011741877533495426,-0.022130336612462997
1690821330955696400,1.9146962890625,-0.004417917691171169,-0.0038253646343946457,-0.02136228047311306
1690821330965737200,1.9247373046875,-0.004543885588645935,-0.003885019337758422,-0.021193435415625572
1690821330975807500,1.934807373046875,-0.004157194402068853,-0.002516687149181962,-0.02183925174176693
1690821330985848300,1.944848388671875,-0.005468534771353006,-0.0012996225850656629,-0.020790232345461845
1690821330995888400,1.954888427734375,-0.005652026738971472,-0.003555053612217307,-0.020289026200771332
1690821331005928400,1.964928466796875,-0.005311408545821905,-0.0005518069956451654,-0.01997184380888939
1690821331015969500,1.974969482421875,-0.0048975530080497265,-0.0021758025977760553,-0.018756110221147537
1690821331026009600,1.985009521484375,-0.00500967213883996,-0.002799781272187829,-0.020295418798923492
1690821331036049400,1.99504931640625,-0.004861067980527878,-0.004065048880875111,-0.01980752684175968
1690821331046089500,2.00508935546875,-0.005079713650047779,-0.0008199872681871057,-0.019087407737970352
1690821331056130300,2.01513037109375,-0.004899683874100447,-0.0033659692853689194,-0.02075188420712948
1690821331066170400,2.02517041015625,-0.0054637412540614605,-0.0008948221220634878,-0.021199295297265053
1690821331076210400,2.03521044921875,-0.004964132327586412,-0.002537726191803813,-0.021854432299733162
1690821331086251500,2.04525146484375,-0.004493285436183214,-0.004929244983941317,-0.02245470881462097
1690821331096291600,2.05529150390625,-0.0041673146188259125,-0.0017981663113459945,-0.02118171751499176
1690821331106331400,2.065331298828125,-0.003908189013600349,-0.0037641117814928293,-0.021203555166721344
1690821331116371500,2.075371337890625,-0.003132676472887397,-0.0018604843644425273,-0.022790532559156418
1690821331126412300,2.085412353515625,-0.003242664970457554,-0.0014865765115246177,-0.0214200709015131
1690821331136452400,2.095452392578125,-0.004619785584509373,-0.0034501252230256796,-0.018801650032401085
1690821331146523400,2.1055234375,-0.004478371702134609,-0.002603772561997175,-0.0229916013777256
1690821331156563500,2.1155634765625,-0.005763080436736345,-0.0019680759869515896,-0.020063456147909164
1690821331166603500,2.125603515625,-0.004780640359967947,-0.003623496973887086,-0.019097527489066124
1690821331176644600,2.13564453125,-0.004856806714087725,-0.00177952426020056,-0.01931271143257618
1690821331186684400,2.145684326171875,-0.003757187630981207,-0.0013110742438584566,-0.019699135795235634
1690821331196724500,2.155724365234375,-0.0049409628845751286,-0.0021664814557880163,-0.018915101885795593
1690821331206754600,2.165754638671875,-0.005732720717787743,-0.001847434788942337,-0.020847491919994354
1690821331216795400,2.17579541015625,-0.005960420705378056,-0.0013108078856021166,-0.021860025823116302
1690821331226835500,2.18583544921875,-0.003948136232793331,-0.001948368619196117,-0.021863486617803574
1690821331236875500,2.19587548828125,-0.005318598821759224,-0.0027166905347257853,-0.02052578143775463
1690821331246916600,2.20591650390625,-0.005534847732633352,-0.001282045734114945,-0.02069169655442238
1690821331256956700,2.215956787109375,-0.005336442030966282,-0.0014849785948172212,-0.02178252674639225
1690821331266996500,2.22599658203125,-0.004483431577682495,0.0003515372518450022,-0.021645907312631607
1690821331277036500,2.23603662109375,-0.005243231542408466,-0.0037358824629336596,-0.02045467495918274
1690821331287077400,2.246077392578125,-0.0027385284192860126,-0.003492735791951418,-0.01901710033416748
1690821331297117400,2.256117431640625,-0.0054669370874762535,-0.0011382350930944085,-0.02070021815598011
1690821331307157500,2.266157470703125,-0.004099137615412474,-0.0023758059833198786,-0.020482905209064484
1690821331317228500,2.276228515625,-0.004454935900866985,-0.001826395862735808,-0.022788936272263527
1690821331327268600,2.2862685546875,-0.00640783179551363,-0.0035089810844510794,-0.019775036722421646
1690821331337309700,2.296309814453125,-0.006447779480367899,-0.002261023735627532,-0.020861605182290077
1690821331347349500,2.306349609375,-0.005756688769906759,-0.0032314795535057783,-0.02070421352982521
1690821331357389600,2.3163896484375,-0.003795803524553776,-0.0010333064710721374,-0.02190609835088253
1690821331367429400,2.326429443359375,-0.004910869058221579,-0.0026852653827518225,-0.020170249044895172
1690821331377470500,2.336470458984375,-0.003931891173124313,-0.0013632721966132522,-0.01878407411277294
1690821331387510500,2.346510498046875,-0.004261590540409088,-0.0011978897964581847,-0.02070101723074913
1690821331397550600,2.356550537109375,-0.005464806687086821,-0.0012522183824330568,-0.020927120000123978
1690821331407591700,2.366591796875,-0.005292233545333147,-0.0008282430935651064,-0.020487431436777115
1690821331417631500,2.376631591796875,-0.004002731293439865,-0.0031973912846297026,-0.019686086103320122
1690821331427671600,2.386671630859375,-0.0041044638492167,-0.002722283359616995,-0.020546287298202515
1690821331437711400,2.39671142578125,-0.0049068741500377655,-0.0032812808640301228,-0.02315725013613701
1690821331447752400,2.40675244140625,-0.00446878420189023,-0.0024256070610135794,-0.02147573046386242
1690821331457792500,2.41679248046875,-0.005682653281837702,-0.001534779672510922,-0.019094333052635193
1690821331467832600,2.42683251953125,-0.005622998345643282,-0.002005626680329442,-0.018194183707237244
1690821331477873700,2.436873779296875,-0.005477855913341045,-0.0026471822056919336,-0.019718311727046967
1690821331487943400,2.446943359375,-0.004288754425942898,-0.0012402341235429049,-0.019633889198303223
1690821331497984500,2.456984619140625,-0.003698065411299467,-0.0018082864116877317,-0.01950312778353691
1690821331508024600,2.467024658203125,-0.004225105047225952,-0.00036272252327762544,-0.01841522566974163
1690821331518064400,2.477064453125,-0.0052293832413852215,-0.00279019377194345,-0.01996864750981331
1690821331528105500,2.48710546875,-0.005179582163691521,-0.004791293293237686,-0.018261028453707695
1690821331538145500,2.4971455078125,-0.004462392535060644,-0.0031284152064472437,-0.021319137886166573
1690821331548185600,2.507185546875,-0.0030503845773637295,-0.0007773766992613673,-0.02063337340950966
1690821331558225400,2.517225341796875,-0.0048916940577328205,-0.0012482235906645656,-0.020552413538098335
1690821331568266500,2.5272666015625,-0.004328968469053507,-0.002272475278005004,-0.020590228959918022
1690821331578306600,2.537306640625,-0.00560994865372777,-0.002119077369570732,-0.020257068797945976
1690821331588346400,2.547346435546875,-0.004025368019938469,-0.002484462922438979,-0.020441891625523567
1690821331598387500,2.557387451171875,-0.005375856999307871,-0.002231196267530322,-0.020895428955554962
1690821331608427500,2.567427490234375,-0.004062652122229338,-0.0018945727497339249,-0.020009927451610565
1690821331618467600,2.577467529296875,-0.005191300064325333,-0.002894589677453041,-0.021090105175971985
1690821331628507600,2.587507568359375,-0.004985703621059656,-0.0027225494850426912,-0.01876756176352501
1690821331638548700,2.597548828125,-0.003489273600280285,-0.001258609932847321,-0.0205119326710701
1690821331648588500,2.607588623046875,-0.005328186322003603,-0.0025624935515224934,-0.019396867603063583
1690821331658659600,2.61765966796875,-0.005770537536591291,-0.0009211873984895647,-0.01782240718603134
1690821331668699400,2.627699462890625,-0.005130313336849213,-0.002323608146980405,-0.018816297873854637
1690821331678739500,2.637739501953125,-0.005259476602077484,-0.0018338527297601104,-0.020412065088748932
1690821331688780500,2.647780517578125,-0.004431233741343021,-0.002326537622138858,-0.021150026470422745
1690821331698820600,2.657820556640625,-0.004508731886744499,0.00004900216299574822,-0.021705828607082367
1690821331708860400,2.6678603515625,-0.005648031830787659,-0.003097256412729621,-0.022406771779060364
1690821331718900500,2.677900390625,-0.003632818115875125,-0.0024956483393907547,-0.02076892741024494
1690821331728941600,2.687941650390625,-0.004351871553808451,-0.0013707289472222328,-0.018083129078149796
1690821331738981400,2.6979814453125,-0.004736431874334812,-0.0014410364674404263,-0.01919233612716198
1690821331749021400,2.708021484375,-0.006620085798203945,-0.0014229270163923502,-0.020685037598013878
1690821331759062500,2.7180625,-0.005390238016843796,-0.0034557178150862455,-0.020238425582647324
1690821331769102600,2.7281025390625,-0.0057249972596764565,-0.0021920478902757168,-0.01986212097108364
1690821331779142700,2.738142578125,-0.004957207944244146,-0.002365419641137123,-0.017946509644389153
1690821331789182500,2.748182373046875,-0.005789712071418762,-0.003313771216198802,-0.020067185163497925
1690821331799223300,2.758223388671875,-0.004448544234037399,-0.002238120650872588,-0.01900458335876465
1690821331809263400,2.768263427734375,-0.0037140443455427885,-0.001841842196881771,-0.02027091756463051
1690821331819303400,2.778303466796875,-0.004771319217979908,-0.003593669505789876,-0.020060259848833084
1690821331829374500,2.78837451171875,-0.006822485942393541,-0.0021960425656288862,-0.019543873146176338
1690821331839414500,2.79841455078125,-0.004013916477560997,-0.000014647385796706658,-0.01991991139948368
1690821331849455600,2.80845556640625,-0.0049375006929039955,-0.0011374361347407103,-0.019584087654948235
1690821331859495400,2.818495361328125,-0.004689826630055904,-0.00148125016130507,-0.01938381791114807
1690821331869535500,2.828535400390625,-0.00430127140134573,-0.001121989800594747,-0.02093910425901413
1690821331879575600,2.838575439453125,-0.005446164403110743,-0.0017334514996036887,-0.021918082609772682
1690821331889616400,2.848616455078125,-0.006178800016641617,-0.0049095372669398785,-0.021624602377414703
1690821331899656400,2.858656494140625,-0.0064986455254256725,-0.0038392129354178905,-0.01908128336071968
1690821331909696500,2.868696533203125,-0.005425658077001572,-0.001088966615498066,-0.020440559834241867
1690821331919737600,2.878737548828125,-0.0046546729281544685,-0.000300404557492584,-0.019693810492753983
1690821331929777400,2.88877734375,-0.0051593417301774025,-0.0007155913626775146,-0.019228821620345116
1690821331939817500,2.8988173828125,-0.004385427106171846,-0.0009046758059412241,-0.020849354565143585
1690821331949857500,2.908857421875,-0.005342567339539528,-0.0026847326662391424,-0.019626164808869362
1690821331959898400,2.9188984375,-0.003913781605660915,-0.0007792409160174429,-0.02051379717886448
1690821331969938400,2.9289384765625,-0.005249889567494392,-0.0013291836949065328,-0.019242936745285988
1690821331979978500,2.938978515625,-0.004776379559189081,-0.00245143985375762,-0.02039262279868126
1690821331990019600,2.94901953125,-0.005011270288378,-0.002947586588561535,-0.02088051475584507
1690821332000089300,2.95908935546875,-0.00555109279230237,-0.0010101370280608535,-0.02095215395092964
1690821332010130400,2.96913037109375,-0.00566880451515317,-0.00177925790194422,-0.01950445957481861
1690821332020170500,2.97917041015625,-0.004877313040196896,-0.0011643340112641454,-0.020289825275540352
1690821332030210600,2.98921044921875,-0.005397428758442402,-0.0032509206794202328,-0.022412898018956184
1690821332040251400,2.99925146484375,-0.004739361349493265,-0.002692455891519785,-0.01944187469780445
1690821332050291500,3.00929150390625,-0.003923901356756687,-0.0018354506464675069,-0.01914333365857601
1690821332060331500,3.01933154296875,-0.0036706349346786737,-0.0005222458858042955,-0.020132698118686676
1690821332070371300,3.029371337890625,-0.005407282151281834,-0.0019142802339047194,-0.0207513514906168
1690821332080412400,3.039412353515625,-0.0067870658822357655,-0.00253479671664536,-0.02069409377872944
1690821332090452500,3.049452392578125,-0.004431233741343021,-0.0016306535108014941,-0.019098859280347824
1690821332100492500,3.059492431640625,-0.004000067710876465,-0.0025481125339865685,-0.021768145263195038
1690821332110533400,3.069533447265625,-0.005311142187565565,-0.00205276464112103,-0.019404323771595955
1690821332120573400,3.079573486328125,-0.003982490859925747,-0.0008546083699911833,-0.021808626130223274
1690821332130613500,3.089613525390625,-0.005359079223126173,-0.003713778220117092,-0.021372400224208832
1690821332140653600,3.099653564453125,-0.005394499283283949,-0.0012386362068355083,-0.020049873739480972
1690821332150694700,3.109694580078125,-0.005094094667583704,-0.002543585142120719,-0.020414993166923523
1690821332160734500,3.119734375,-0.004970257636159658,-0.0010628675809130073,-0.019628029316663742
1690821332170805500,3.129805419921875,-0.004868524614721537,-0.002368615474551916,-0.019949207082390785
1690821332180845600,3.139845458984375,-0.004853344522416592,-0.001038632821291685,-0.02053030952811241
1690821332190885600,3.1498857421875,-0.0037968687247484922,-0.0013486248208209872,-0.019150525331497192
1690821332200926500,3.159926513671875,-0.004604871850460768,-0.002094576135277748,-0.021529527381062508
1690821332210954800,3.169954833984375,-0.003352387109771371,-0.0008426241693086922,-0.020413927733898163
1690821332220994800,3.179994873046875,-0.0052235242910683155,0.00032144354190677404,-0.020596887916326523
1690821332231034600,3.19003466796875,-0.006597715429961681,-0.0010495517635717988,-0.020727116614580154
1690821332241075500,3.200075439453125,-0.004941229242831469,-0.001767273643054068,-0.019270367920398712
1690821332251115500,3.210115478515625,-0.004848817363381386,-0.0011044129496440291,-0.02052737958729267
1690821332261155600,3.220155517578125,-0.004765726625919342,-0.0025457157753407955,-0.021758025512099266
1690821332271196700,3.23019677734375,-0.00572925852611661,-0.003088467987254262,-0.017915351316332817
1690821332281236700,3.24023681640625,-0.0038312235847115517,-0.0024341291282325983,-0.018375279381871223
1690821332291276800,3.25027685546875,-0.006409695837646723,-0.004349741153419018,-0.0191409382969141
1690821332301316900,3.26031689453125,-0.004010720644146204,0.00009134642459684983,-0.02220091037452221
1690821332311357700,3.270357666015625,-0.004985969979315996,-0.0035627768374979496,-0.020921526476740837
1690821332321397500,3.2803974609375,-0.0046821036376059055,-0.0012578109744936228,-0.02057398483157158
1690821332331437600,3.2904375,-0.003934021573513746,-0.0008082693675532937,-0.0198658499866724
1690821332341508600,3.300508544921875,-0.0057103498838841915,-0.000746750389225781,-0.019465576857328415
1690821332351548700,3.310548583984375,-0.0039265644736588,-0.0015824503498151898,-0.020969197154045105
1690821332361589800,3.32058984375,-0.005137237720191479,-0.0008990831556729972,-0.01781388372182846
1690821332371629800,3.3306298828125,-0.005058408249169588,-0.0025992451701313257,-0.0207500196993351
1690821332381669600,3.340669677734375,-0.005658684764057398,-0.0024804682470858097,-0.019470371305942535
1690821332391709400,3.35070947265625,-0.004960670135915279,-0.0029177593532949686,-0.02142779342830181
1690821332401750500,3.36075048828125,-0.005973736755549908,-0.001796834752894938,-0.020117785781621933
1690821332411790600,3.37079052734375,-0.003909253980964422,-0.00043995422311127186,-0.02106347307562828
1690821332421830700,3.38083056640625,-0.004388356581330299,-0.0015134743880480528,-0.020178237929940224
1690821332431871700,3.390871826171875,-0.004679706413298845,-0.003448527306318283,-0.02105441875755787
1690821332441911800,3.400911865234375,-0.003707652911543846,-0.0021204089280217886,-0.01889672502875328
1690821332451951600,3.41095166015625,-0.00449941074475646,-0.002639458980411291,-0.02022670768201351
1690821332461991400,3.420991455078125,-0.005513542331755161,-0.0011576761025935411,-0.019828831776976585
1690821332472032500,3.431032470703125,-0.003954261541366577,-0.0036647759843617678,-0.020501280203461647
1690821332482072600,3.441072509765625,-0.005366003140807152,-0.0010966897243633866,-0.019098060205578804
1690821332492112600,3.451112548828125,-0.0054517569951713085,-0.002511893631890416,-0.018748920410871506
1690821332502153700,3.46115380859375,-0.004670917987823486,-0.0019078885670751333,-0.01834198832511902
1690821332512223700,3.4712236328125,-0.003977164626121521,-0.0008226504432968795,-0.019421635195612907
1690821332522264800,3.481264892578125,-0.004908472299575806,-0.0038514635525643826,-0.0193108469247818
1690821332532304600,3.4913046875,-0.004279966000467539,-0.0022335932590067387,-0.018756376579403877
1690821332542344400,3.501344482421875,-0.004633900243788958,-0.0012863067677244544,-0.020858144387602806
1690821332552385500,3.511385498046875,-0.006150304339826107,-0.0007749798824079335,-0.01937183365225792
1690821332562425600,3.521425537109375,-0.005806223955005407,-0.002838397165760398,-0.021212877705693245
1690821332572465700,3.531465576171875,-0.005711948033422232,-0.0036128442734479904,-0.020954284816980362
1690821332582505700,3.541505615234375,-0.00538357999175787,-0.0018993664998561144,-0.0210120752453804
1690821332592546800,3.551546875,-0.006776413414627314,-0.001838912721723318,-0.020379839465022087
1690821332602586600,3.561586669921875,-0.004840561654418707,-0.0009808422764763236,-0.020679712295532227
1690821332612626400,3.57162646484375,-0.005083441734313965,-0.0012250541476532817,-0.021322865039110184
1690821332622667500,3.58166748046875,-0.004195011220872402,-0.0032735576387494802,-0.022643793374300003
1690821332632707600,3.59170751953125,-0.003662378992885351,-0.00247594085521996,-0.021092502400279045
1690821332642747600,3.60174755859375,-0.0027140274178236723,-0.0035153725184500217,-0.02171754650771618
1690821332652787700,3.61178759765625,-0.006773750297725201,-0.004039216320961714,-0.01991565153002739
1690821332662828800,3.621828857421875,-0.0055215316824615,-0.0026559706311672926,-0.020480507984757423
1690821332672868600,3.63186865234375,-0.004939098376780748,-0.001109739183448255,-0.02076227031648159
1690821332682939600,3.641939697265625,-0.0046448190696537495,-0.0019465044606477022,-0.02058543637394905
1690821332692979500,3.6519794921875,-0.004428037907928228,-0.003129746997728944,-0.020894363522529602
1690821332703019500,3.66201953125,-0.00518757151439786,-0.0010314423125237226,-0.020542824640870094
1690821332713060600,3.672060546875,-0.0037771612405776978,0.00012250541476532817,-0.020733773708343506
1690821332723100700,3.6821005859375,-0.004748416133224964,-0.0013432984706014395,-0.019335880875587463
1690821332733140700,3.692140625,-0.0051476238295435905,-0.00008255799184553325,-0.019059179350733757
1690821332743180500,3.7021806640625,-0.004258926957845688,-0.0038570561446249485,-0.01884026639163494
1690821332753221600,3.7122216796875,-0.005879993550479412,-0.002737463219091296,-0.019961724057793617
1690821332763261400,3.722261474609375,-0.005992378573864698,-0.0046996804885566235,-0.021156417205929756
1690821332773301500,3.732301513671875,-0.0049153962172567844,-0.0008764463127590716,-0.021515678614377975
1690821332783342600,3.742342529296875,-0.0052200620993971825,-0.0021465078461915255,-0.018872490152716637
1690821332793382700,3.752382568359375,-0.004781173076480627,-0.0028823392931371927,-0.020565463230013847
1690821332803422700,3.762422607421875,-0.0038104509003460407,-0.00452897185459733,-0.02130848355591297
1690821332813462800,3.772462890625,-0.005599562544375658,-0.0020727382507175207,-0.019420037046074867
1690821332823503600,3.782503662109375,-0.0057409764267504215,-0.002466619713231921,-0.01943175494670868
1690821332833543400,3.79254345703125,-0.005155613645911217,-0.002519350266084075,-0.01962376944720745
1690821332843583500,3.80258349609375,-0.005203816574066877,-0.0014825817197561264,-0.018760371953248978
1690821332853654500,3.812654541015625,-0.005347094964236021,-0.002766491612419486,-0.021019531413912773
1690821332863694600,3.822694580078125,-0.003943609073758125,-0.001970472978428006,-0.020862137898802757
1690821332873735700,3.832735595703125,-0.004098871257156134,-0.0026381274219602346,-0.020741498097777367
1690821332883775700,3.842775634765625,-0.004250671248883009,0.0007054713787510991,-0.019571837037801743
1690821332893815600,3.852815673828125,-0.005273591727018356,-0.0011238539591431618,-0.021746573969721794
1690821332903855600,3.862855712890625,-0.003948136232793331,-0.0028815402183681726,-0.021265340968966484
1690821332913896400,3.872896484375,-0.0026706180069595575,-0.002148372121155262,-0.020447218790650368
1690821332923936500,3.8829365234375,-0.0048797097988426685,-0.0022655511274933815,-0.019224826246500015
1690821332933976600,3.8929765625,-0.006339654792100191,-0.0024794030468910933,-0.01967676542699337
1690821332944017700,3.903017578125,-0.00390286254696548,-0.002769687445834279,-0.019810989499092102
1690821332954057700,3.9130576171875,-0.004126834217458963,-0.0007869640830904245,-0.018856512382626534
1690821332964097800,3.923097900390625,-0.003900199430063367,-0.0029414615128189325,-0.019450662657618523
1690821332974137600,3.9331376953125,-0.005787048954516649,-0.0027198863681405783,-0.019633622840046883
1690821332984178400,3.943178466796875,-0.0054368432611227036,-0.0030897995457053185,-0.01973668672144413
1690821332994218500,3.953218505859375,-0.004306597635149956,-0.002177933230996132,-0.02087705209851265
1690821333004258600,3.963258544921875,-0.0041313618421554565,-0.0010311759542673826,-0.019813118502497673
1690821333014299600,3.973299560546875,-0.0034490597900003195,0.056953031569719315,-0.025366077199578285
1690821333024369700,3.98336962890625,0.07121159881353378,-0.059905409812927246,-0.2347850799560547
1690821333034410800,3.99341064453125,0.008806274272501469,-0.008527441881597042,-0.07121772319078445
1690821333044450600,4.003450439453125,0.004640558268874884,0.005814213305711746,-0.0341355986893177
1690821333054490600,4.01349072265625,-0.014458035118877888,-0.0347241573035717,-0.022010227665305138
1690821333064531500,4.023531494140625,-0.023788953199982643,-0.04212428256869316,-0.022829148918390274
1690821333074571500,4.033571533203125,-0.028358403593301773,-0.07617892324924469,0.0013755226973444223
1690821333084611600,4.043611572265625,-0.019458653405308723,-0.08315693587064743,-0.008865929208695889
1690821333094651600,4.053651611328125,-0.023744210600852966,-0.07846152037382126,-0.04231949523091316
1690821333104692700,4.063692626953125,-0.007706655655056238,-0.15193946659564972,-0.05913709104061127
1690821333114732800,4.07373291015625,0.005290635861456394,-0.021396368741989136,-0.08098353445529938
1690821333124772600,4.083772705078125,0.008405735716223717,0.00152359448838979,-0.0796881690621376
1690821333134813400,4.0938134765625,0.008874185383319855,0.012883574701845646,-0.07736136764287949
1690821333144853500,4.103853515625,0.004704740364104509,0.021026987582445145,-0.05801856145262718
1690821333154893600,4.1138935546875,0.00005459480235003866,0.026461968198418617,-0.038474153727293015
1690821333164933600,4.12393359375,-0.004640291910618544,0.023435018956661224,-0.018848255276679993
1690821333174974700,4.133974609375,-0.009033975191414356,0.012012987397611141,-0.002627741079777479
1690821333185044500,4.14404443359375,-0.010610832832753658,0.0010815097484737635,0.01455603912472725
1690821333195085600,4.15408544921875,-0.010426275432109833,-0.010542389005422592,0.030255639925599098
1690821333205122000,4.1641220703125,-0.00878896377980709,-0.017047161236405373,0.03605334088206291
1690821333215162000,4.174162109375,-0.003916711080819368,-0.01555206160992384,0.03995966538786888
1690821333225203000,4.184202880859375,-0.001961418194696307,-0.012720588594675064,0.0390283577144146
1690821333235243000,4.194242919921875,-0.0020852552261203527,-0.004512193612754345,0.026499250903725624
1690821333245282800,4.20428271484375,-0.003484213724732399,0.008055263198912144,0.012253204360604286
1690821333255323000,4.214322998046875,-0.004985171370208263,0.015186143107712269,-0.005151352379471064
1690821333265364000,4.224364013671875,-0.005391569808125496,0.015672169625759125,-0.02419641613960266
1690821333275404000,4.234404052734375,-0.007220095954835415,0.012615926563739777,-0.04094184190034866
1690821333285444000,4.244444091796875,-0.005988916382193565,0.004102333448827267,-0.051919125020504
1690821333295485000,4.25448486328125,-0.004336158744990826,-0.00640916358679533,-0.05980607494711876
1690821333305525000,4.26452490234375,-0.003293797606602311,-0.01501197274774313,-0.062000252306461334
1690821333315565000,4.27456494140625,-0.002397377509623766,-0.022337263450026512,-0.060980264097452164
1690821333325604900,4.28460498046875,-0.004274373408406973,-0.020920727401971817,-0.056652627885341644
1690821333335646000,4.29464599609375,-0.0026405241806060076,-0.015528359450399876,-0.04996170103549957
1690821333345686000,4.30468603515625,-0.0027414578944444656,-0.00649598240852356,-0.04207128658890724
1690821333355757000,4.314757080078125,-0.0060445768758654594,-0.0016431703697890043,-0.03220454230904579
1690821333365797000,4.324797119140625,-0.0039012646302580833,0.005075452383607626,-0.021822208538651466
1690821333375837200,4.334837158203125,-0.005569735076278448,0.01059192419052124,-0.01056209672242403
1690821333385878000,4.3448779296875,-0.005054946057498455,0.011214304715394974,-0.002228266792371869
1690821333395917800,4.354917724609375,-0.003855458227917552,0.007096258923411369,0.004352404270321131
1690821333405958000,4.3649580078125,-0.004451473709195852,0.0018482337472960353,0.00953784491866827
1690821333415998000,4.374998046875,-0.004193946253508329,-0.00008681904728291556,0.012594621628522873
1690821333426039000,4.3850390625,-0.005242698825895786,-0.0049068741500377655,0.007423827890306711
1690821333436079000,4.3950791015625,-0.0049470881931483746,-0.008612129837274551,0.003974501509219408
1690821333446119200,4.405119140625,-0.00541500560939312,-0.006628607865422964,-0.005019525997340679
1690821333456160000,4.415159912109375,-0.004000600427389145,-0.005243231542408466,-0.015103052370250225
1690821333466200000,4.425199951171875,-0.0063063655979931355,-0.0020245350897312164,-0.022417424246668816
1690821333476240000,4.435239990234375,-0.004581702407449484,-0.0018317222129553556,-0.03369750827550888
1690821333486280000,4.445280029296875,-0.005026184022426605,0.0020940436515957117,-0.03985020890831947
1690821333496321000,4.455321044921875,-0.0029984530992805958,0.0016788567882031202,-0.042756784707307816
1690821333506361000,4.465361083984375,-0.005316468421369791,-0.0022953785955905914,-0.04482526332139969
1690821333516401200,4.475401123046875,-0.005568669643253088,-0.005048554390668869,-0.04325719177722931
1690821333526472200,4.48547216796875,-0.0054541537538170815,-0.007018494885414839,-0.038488537073135376
1690821333536512000,4.495511962890625,-0.003754258155822754,-0.008770322427153587,-0.03455371409654617
1690821333546552800,4.505552734375,-0.004178766161203384,-0.010294449515640736,-0.027959195896983147
1690821333556593000,4.515593017578125,-0.005877596326172352,-0.006705573294311762,-0.021321533247828484
1690821333566633000,4.525633056640625,-0.005683451890945435,-0.003376355627551675,-0.01660054735839367
1690821333576674000,4.535674072265625,-0.004176901653409004,0.001243962557055056,-0.00929310079663992
1690821333586714000,4.545714111328125,-0.004618453793227673,0.0023968450259417295,-0.007931426167488098
1690821333596754200,4.555754150390625,-0.005585714243352413,0.00321896281093359,-0.003519367426633835
1690821333606794200,4.565794189453125,-0.0038812910206615925,0.0031787490006536245,-0.002207760466262698
1690821333616835000,4.5758349609375,-0.005578257143497467,0.0022149509750306606,-0.005233111325651407
1690821333626875000,4.585875,-0.004303934518247843,0.000018109494703821838,-0.0067812069319188595
1690821333636915000,4.5959150390625,-0.005564142484217882,-0.001761148450896144,-0.011937086470425129
1690821333646956000,4.6059560546875,-0.004674912896007299,-0.002453836612403393,-0.01537735853344202
1690821333656996000,4.61599609375,-0.004328169394284487,-0.004747084807604551,-0.019600866362452507
1690821333667036200,4.6260361328125,-0.0034493261482566595,-0.0029521139804273844,-0.02466646395623684
1690821333677076200,4.636076171875,-0.0065287393517792225,-0.003751062322407961,-0.03008546493947506
1690821333687117000,4.646116943359375,-0.005043494515120983,-0.003154514357447624,-0.0313643142580986
1690821333697187000,4.65618701171875,-0.0044322991743683815,-0.002514823107048869,-0.0344218909740448
1690821333707228000,4.666227783203125,-0.00475374236702919,-0.0036450685001909733,-0.03268897160887718
1690821333717268000,4.67626806640625,-0.005346029531210661,-0.000687361869495362,-0.03075205348432064
1690821333727308000,4.68630810546875,-0.0031649006996303797,-0.0004721784498542547,-0.027703266590833664
1690821333737349000,4.69634912109375,-0.00541447289288044,-0.0033361418172717094,-0.025016136467456818
1690821333747389200,4.70638916015625,-0.00481339730322361,-0.002020274056121707,-0.0209465604275465
1690821333757429000,4.716428955078125,-0.00555242458358407,-0.003070891136303544,-0.018501779064536095
1690821333767469000,4.726468994140625,-0.005512743256986141,-0.0026045716367661953,-0.014121411368250847
1690821333777510000,4.736510009765625,-0.002630936913192272,-0.002272208919748664,-0.012261725962162018
1690821333787550000,4.746550048828125,-0.005394499283283949,-0.0013275857781991363,-0.010921623557806015
1690821333797590000,4.756590087890625,-0.004709267523139715,-0.0004207794554531574,-0.011023090220987797
1690821333807631000,4.766631103515625,-0.005604356061667204,0.0007699198904447258,-0.01031708624213934
1690821333817671200,4.776671142578125,-0.003884486621245742,0.00023142869758885354,-0.01369157712906599
1690821333827711200,4.786711181640625,-0.004477572627365589,-0.0005049353349022567,-0.015020227991044521
1690821333837750800,4.796750732421875,-0.00535508431494236,-0.002683667466044426,-0.017969146370887756
1690821333847791900,4.8067919921875,-0.0037201696541160345,-0.0019124159589409828,-0.0193683709949255
1690821333857832000,4.81683203125,-0.005501025356352329,-0.003070624778047204,-0.024512000381946564
1690821333867903000,4.826903076171875,-0.005806223955005407,-0.0035806200467050076,-0.025305090472102165
1690821333877943000,4.836943115234375,-0.004055728204548359,-0.0013315805699676275,-0.029160015285015106
1690821333887983000,4.846983154296875,-0.005510346498340368,-0.0049673281610012054,-0.027881698682904243
1690821333898024200,4.857024169921875,-0.00512871565297246,-0.0028370653744786978,-0.028536569327116013
1690821333908064000,4.86706396484375,-0.003984355367720127,-0.00245117349550128,-0.0261828675866127
1690821333918103800,4.877103759765625,-0.004867193289101124,-0.001967010786756873,-0.024950889870524406
1690821333928144000,4.887143798828125,-0.004442418925464153,-0.0011411645682528615,-0.023749804124236107
1690821333938185000,4.89718505859375,-0.0038511971943080425,-0.0010628675809130073,-0.01992257498204708
1690821333948225000,4.90722509765625,-0.003733485471457243,-0.0014966964954510331,-0.020720990374684334
1690821333958265000,4.91726513671875,-0.005402754992246628,-0.0021145499777048826,-0.016597086563706398
1690821333968306200,4.92730615234375,-0.004033357370644808,-0.0013334447285160422,-0.013909157365560532
1690821333978346000,4.937345947265625,-0.005387308541685343,-0.001767273643054068,-0.014752314426004887
1690821333988385800,4.9473857421875,-0.005322061013430357,-0.0023550332989543676,-0.014348845928907394
1690821333998425900,4.95742578125,-0.005744970869272947,-0.0031004520133137703,-0.015485215932130814
1690821334008467000,4.967467041015625,-0.004911401774734259,-0.0010839065071195364,-0.01437973789870739
1690821334018507000,4.977507080078125,-0.004967061802744865,0.000595216522924602,-0.014882809482514858
1690821334028578000,4.987578125,-0.005234176758676767,-0.0027712853625416756,-0.018692994490265846
1690821334038618000,4.9976181640625,-0.005568137392401695,-0.0009347695158794522,-0.020799821242690086
1690821334048658000,5.007657958984375,-0.004427771549671888,-0.0009592706337571144,-0.021883727982640266
1690821334058699000,5.017698974609375,-0.0038392129354178905,-0.0038397456519305706,-0.02600204013288021
1690821334068738800,5.02773876953125,-0.004605138208717108,-0.002531068166717887,-0.02339959889650345
1690821334078779000,5.03777880859375,-0.004452006425708532,-0.003680754918605089,-0.02551494725048542
1690821334088820000,5.047820068359375,-0.00541314110159874,-0.002915362361818552,-0.025415876880288124
1690821334098860000,5.057860107421875,-0.006193713750690222,-0.0031246868893504143,-0.02327975630760193
1690821334108900000,5.067900146484375,-0.0051899682730436325,-0.002823483431711793,-0.023020097985863686
1690821334118940200,5.077940185546875,-0.003172357566654682,-0.003885818412527442,-0.02261529676616192
1690821334128981000,5.08798095703125,-0.006756706163287163,-0.0015733955660834908,-0.020596621558070183
1690821334139020800,5.098020751953125,-0.005151086021214724,-0.0018913770327344537,-0.018877284601330757
1690821334149060900,5.108060791015625,-0.004334827419370413,-0.000601075473241508,-0.01824105530977249
1690821334159102000,5.11810205078125,-0.004025900736451149,-0.003379285102710128,-0.019574766978621483
1690821334169142000,5.12814208984375,-0.0065537733025848866,-0.002370745874941349,-0.017540911212563515
1690821334179182000,5.13818212890625,-0.005531385540962219,-0.0025300029665231705,-0.018489528447389603
1690821334189222100,5.14822216796875,-0.005111671518534422,-0.00159443449229002,-0.017609620466828346
1690821334199293000,5.15829296875,-0.003954527899622917,-0.0027395938523113728,-0.019214440137147903
1690821334209341000,5.1683408203125,-0.004776911810040474,-0.0007454187725670636,-0.018073542043566704
1690821334219381800,5.1783818359375,-0.006594785954803228,-0.0024290692526847124,-0.01943601667881012
1690821334229421800,5.188421875,-0.0057159424759447575,-0.0022176143247634172,-0.02015160769224167
1690821334239462000,5.1984619140625,-0.0038482677191495895,-0.0021025657188147306,-0.021384118124842644
1690821334249503000,5.2085029296875,-0.004803543444722891,-0.003771568648517132,-0.023387081921100616
1690821334259543000,5.21854296875,-0.004715925548225641,-0.0034016557037830353,-0.023567643016576767
1690821334269583000,5.2285830078125,-0.0059782639145851135,-0.002712429501116276,-0.022183598950505257
1690821334279623000,5.238622802734375,-0.004465322010219097,-0.002424275502562523,-0.022219818085432053
1690821334289663700,5.248663818359375,-0.004718588665127754,-0.0038751657120883465,-0.02149330824613571
1690821334299703800,5.258703857421875,-0.004363056737929583,-0.0010229201288893819,-0.02159610576927662
1690821334309743900,5.268743896484375,-0.004038151353597641,-0.002157160546630621,-0.020322315394878387
1690821334319785000,5.278784912109375,-0.004198207054287195,-0.0017920411191880703,-0.018802715465426445
1690821334329825000,5.288824951171875,-0.004759068600833416,-0.002793655963614583,-0.02100195363163948
1690821334339865000,5.298864990234375,-0.005647233221679926,0.0002079928817693144,-0.014484400860965252
1690821334349905000,5.30890478515625,-0.005710882600396872,-0.0014154701493680477,-0.018022943288087845
1690821334359945700,5.31894580078125,-0.006584932096302509,-0.0027382622938603163,-0.01866023615002632
1690821334370015700,5.329015625,-0.003893807763233781,-0.0008439557277597487,-0.019533753395080566
1690821334380056800,5.339056884765625,-0.0037204360123723745,-0.0014682007022202015,-0.02069063112139702
1690821334390097000,5.349096923828125,-0.004543086513876915,-0.0016117451013997197,-0.01973775215446949
1690821334400137000,5.359136962890625,-0.005694104824215174,-0.0008604673203080893,-0.018516693264245987
1690821334410178000,5.369177978515625,-0.004289553500711918,-0.0008383630774915218,-0.021633390337228775
1690821334420218000,5.379218017578125,-0.005588111001998186,-0.0033816818613559008,-0.022009694948792458
1690821334430258000,5.3892578125,-0.005085306242108345,-0.003716441337019205,-0.02353701740503311
1690821334440297700,5.399297607421875,-0.004308462142944336,-0.0029577065724879503,-0.02093217894434929
1690821334450338800,5.4093388671875,-0.005388906225562096,-0.004744155332446098,-0.021951371803879738
1690821334460379000,5.41937890625,-0.00561128044500947,-0.0018570221727713943,-0.019943347200751305
1690821334470419000,5.4294189453125,-0.004744687583297491,-0.0028842033352702856,-0.020172113552689552
1690821334480460000,5.4394599609375,-0.005661081522703171,-0.003081543603911996,-0.01913401298224926
1690821334490500000,5.4495,-0.004832572303712368,-0.0023209447972476482,-0.021558022126555443
1690821334500540000,5.459539794921875,-0.004884503781795502,-0.000015446334145963192,-0.020675983279943466
1690821334510579700,5.469579833984375,-0.005754292011260986,-0.003876497270539403,-0.019205918535590172
1690821334520620800,5.479620849609375,-0.005382781382650137,-0.0009084042394533753,-0.01998143084347248
1690821334530660900,5.489660888671875,-0.0054696002043783665,-0.0014466290595009923,-0.020597686991095543
1690821334540732000,5.49973193359375,-0.0041673146188259125,-0.003242398612201214,-0.019273295998573303
1690821334550772000,5.50977197265625,-0.004217914305627346,0.0002412823960185051,-0.01895691268146038
1690821334560811800,5.519811767578125,-0.00495161535218358,-0.000592287047766149,-0.017838917672634125
1690821334570853000,5.52985302734375,-0.0057401773519814014,-0.0013683321885764599,-0.019522301852703094
1690821334580893000,5.539892822265625,-0.005318598821759224,-0.0017052220646291971,-0.01889832317829132
1690821334590932700,5.5499326171875,-0.0038341530598700047,-0.0054847802966833115,-0.020804880186915398
1690821334600973800,5.559973876953125,-0.004791559185832739,-0.0011145329335704446,-0.020547885447740555
1690821334611014000,5.570013916015625,-0.0037505298387259245,-0.000850879936479032,-0.02100514993071556
1690821334621054000,5.580053955078125,-0.005283977836370468,-0.0022980417124927044,-0.021441908553242683
1690821334631094000,5.590093994140625,-0.004391286056488752,-0.0018050905782729387,-0.021383052691817284
1690821334641135000,5.600135009765625,-0.004667189903557301,-0.002222407842054963,-0.02275458164513111
1690821334651174700,5.610174560546875,-0.003787281457334757,-0.001961418194696307,-0.01985573023557663
1690821334661214700,5.620214599609375,-0.005130579695105553,-0.0010125337867066264,-0.020618991926312447
1690821334671254800,5.6302548828125,-0.005050684791058302,-0.001041562296450138,-0.019769709557294846
1690821334681296000,5.6402958984375,-0.004549744538962841,-0.0015398397808894515,-0.02046053297817707
1690821334691336000,5.6503359375,-0.0051742554642260075,-0.004679706413298845,-0.021091436967253685
1690821334701376000,5.6603759765625,-0.004829110112041235,-0.00130920996889472,-0.019403791055083275
1690821334711446800,5.67044677734375,-0.0062280683778226376,-0.0011102718999609351,-0.019340675324201584
1690821334721486800,5.68048681640625,-0.002600310370326042,-0.0014176006661728024,-0.020563598722219467
1690821334731527700,5.690527587890625,-0.0052054147236049175,-0.0015614113071933389,-0.018875686451792717
1690821334741567700,5.700567626953125,-0.006714095361530781,-0.0021518340799957514,-0.01968448795378208
1690821334751607800,5.71060791015625,-0.005110339727252722,-0.002242914168164134,-0.0208128709346056
1690821334761649000,5.72064892578125,-0.0054640076123178005,-0.0009859022684395313,-0.019512981176376343
1690821334771689000,5.73068896484375,-0.004795554094016552,-0.0016434367280453444,-0.018094049766659737
1690821334781729000,5.74072900390625,-0.006187588442116976,-0.00347409350797534,-0.02110874652862549
1690821334791768800,5.750768798828125,-0.004983040504157543,-0.001814944320358336,-0.019931895658373833
1690821334801809700,5.7608095703125,-0.0067697553895413876,-0.0027273432351648808,-0.022306637838482857
1690821334811849700,5.770849609375,-0.003935619257390499,-0.0023190807551145554,-0.02027331292629242
1690821334821889800,5.780889892578125,-0.005502090789377689,-0.0014245248166844249,-0.02075561136007309
1690821334831931000,5.790930908203125,-0.00464668357744813,0.0003579288604669273,-0.020845094695687294
1690821334841971000,5.800970947265625,-0.005271993577480316,-0.0011411645682528615,-0.01889858953654766
1690821334852011000,5.811010986328125,-0.005224056541919708,-0.0006761765689589083,-0.020743627101182938
1690821334862050800,5.82105078125,-0.006661631166934967,-0.002201369032263756,-0.02112792246043682
1690821334872121900,5.831121826171875,-0.005079180933535099,-0.002129463478922844,-0.01835344173014164
1690821334882162000,5.841161865234375,-0.005130046978592873,-0.0036695697344839573,-0.02033856138586998
1690821334892202800,5.85120263671875,-0.004734035115689039,-0.001541171339340508,-0.018615495413541794
1690821334902242800,5.861242919921875,-0.005549228750169277,-0.0018911106744781137,-0.019656525924801826
1690821334912283000,5.871282958984375,-0.004889297299087048,-0.0019283948931843042,-0.019873838871717453
1690821334922324000,5.881323974609375,-0.00555056007578969,-0.0014628743520006537,-0.018924156203866005
1690821334932364000,5.891364013671875,-0.005113801918923855,-0.0012804478174075484,-0.020293554291129112
1690821334942403800,5.90140380859375,-0.004972121678292751,-0.0027566379867494106,-0.01998196355998516
1690821334952444000,5.91144384765625,-0.005131645128130913,-0.002115615177899599,-0.02002697065472603
1690821334962484700,5.921484619140625,-0.005044559482485056,-0.001487375469878316,-0.02052658051252365
1690821334972524800,5.93152490234375,-0.004882107023149729,-0.0030213561840355396,-0.02107199653983116
1690821334982564900,5.94156494140625,-0.005071723833680153,-0.0021547635551542044,-0.02185096964240074
1690821334992606000,5.95160595703125,-0.004619519226253033,-0.0026841999497264624,-0.02004827745258808
1690821335002646000,5.96164599609375,-0.005948969163000584,-0.002621083054691553,-0.021216338500380516
1690821335012685800,5.971685791015625,-0.0038693067617714405,-0.0031017838045954704,-0.021880265325307846
1690821335022726000,5.981725830078125,-0.005527390632778406,-0.002712695859372616,-0.019939886406064034
1690821335032766700,5.9917666015625,-0.004534564446657896,-0.002567820018157363,-0.018441058695316315
1690821335042837800,6.001837646484375,-0.0041276332922279835,-0.00152332813013345,-0.020191287621855736
1690821335052877800,6.0118779296875,-0.005545766558498144,-0.0007627293234691024,-0.01961764320731163
1690821335062918000,6.02191796875,-0.005344165489077568,-0.0016903083305805922,-0.019479425624012947
1690821335072958000,6.0319580078125,-0.0041404166258871555,-0.002989664673805237,-0.01943175494670868
1690821335082999000,6.0419990234375,-0.007449660450220108,-0.0030804784037172794,-0.021216604858636856
1690821335093038800,6.052038818359375,-0.004834969062358141,-0.004071174189448357,-0.02142033725976944
1690821335103079000,6.062078857421875,-0.005600627511739731,-0.0037529265973716974,-0.020053602755069733
1690821335113119700,6.07211962890625,-0.0038016624748706818,-0.00006231796578504145,-0.020544689148664474
1690821335123159800,6.082159912109375,-0.0032839439809322357,-0.002100701443850994,-0.018081266433000565
1690821335133200000,6.092199951171875,-0.004518851637840271,-0.0010716560063883662,-0.02099210023880005
1690821335143240000,6.102239990234375,-0.005113535560667515,-0.001535046030767262,-0.02004028670489788
1690821335153281000,6.112281005859375,-0.005155347287654877,-0.003424558788537979,-0.01780482940375805
1690821335163320800,6.12232080078125,-0.004339887294918299,-0.004323641769587994,-0.01895265281200409
1690821335173361000,6.13236083984375,-0.004948419518768787,-0.0036610474344342947,-0.02034521847963333
1690821335183401000,6.14240087890625,-0.005108742043375969,-0.0026117621455341578,-0.02027011848986149
1690821335193441800,6.15244189453125,-0.004794755019247532,-0.0017321199411526322,-0.020428841933608055
1690821335203481900,6.16248193359375,-0.00509888818487525,-0.004575843457132578,-0.02063763327896595
1690821335213536800,6.172536865234375,-0.0038578552193939686,-0.002831472782418132,-0.020609138533473015
1690821335223576800,6.182576904296875,-0.004193147178739309,-0.002612827345728874,-0.020827516913414
1690821335233617000,6.192616943359375,-0.006219279952347279,-0.0009643306257203221,-0.01996731571853161
1690821335243657700,6.20265771484375,-0.004562793765217066,-0.002959570847451687,-0.018787803128361702
1690821335253697500,6.212697509765625,-0.005672266706824303,-0.0008905610884539783,-0.02016465738415718
1690821335263737600,6.222737548828125,-0.004822185728698969,-0.002635996788740158,-0.02129809744656086
1690821335273778700,6.23277880859375,-0.005469067487865686,-0.0032783513888716698,-0.02045653946697712
1690821335283818800,6.24281884765625,-0.003916444722563028,-0.003605653764680028,-0.019283948466181755
1690821335293858800,6.25285888671875,-0.005961752496659756,-0.002210689941421151,-0.018934542313218117
1690821335303899000,6.26289892578125,-0.003200586885213852,-0.0023486416321247816,-0.021386781707406044
1690821335313939700,6.272939697265625,-0.003569700988009572,-0.0013845774810761213,-0.01901710033416748
1690821335323979500,6.2829794921875,-0.005105279851704836,-0.0010468886466696858,-0.02010580152273178
1690821335334019600,6.29301953125,-0.005367601290345192,-0.002275937469676137,-0.020723920315504074
1690821335344060700,6.303060791015625,-0.0027457191608846188,-0.002329733222723007,-0.022276010364294052
1690821335354100700,6.313100830078125,-0.004715392831712961,-0.001178182428702712,-0.021577464416623116
1690821335364140800,6.323140869140625,-0.0035167040769010782,-0.0035175031516700983,-0.020783575251698494
1690821335374180900,6.333180908203125,-0.00529702752828598,-0.002576342085376382,-0.019886089488863945
1690821335384251600,6.343251708984375,-0.004539890680462122,-0.002537459833547473,-0.01870710775256157
1690821335394291700,6.353291748046875,-0.0036762275267392397,-0.004824582487344742,-0.019832028076052666
1690821335404332500,6.36333251953125,-0.0049649314023554325,-0.0024144218768924475,-0.020772922784090042
1690821335414372600,6.37337255859375,-0.004628840368241072,-0.003154514357447624,-0.020058929920196533
1690821335424412700,6.38341259765625,-0.004500475712120533,0.0009811085183173418,-0.019664514809846878
1690821335434453800,6.393453857421875,-0.00444002216681838,-0.002257827902212739,-0.02117266319692135
1690821335444493800,6.403493896484375,-0.00632074661552906,-0.002700445242226124,-0.01888953521847725
1690821335454534000,6.413533935546875,-0.006371346767991781,-0.002037584548816085,-0.02190157026052475
1690821335464573700,6.42357373046875,-0.004811000544577837,-0.0022687469609081745,-0.0217130184173584
1690821335474614500,6.433614501953125,-0.006061887368559837,-0.0019137475173920393,-0.020775320008397102
1690821335484654600,6.443654541015625,-0.005497563164681196,-0.0007542071980424225,-0.020077038556337357
1690821335494694700,6.453694580078125,-0.00580782163888216,-0.001958222361281514,-0.021089306101202965
1690821335504735700,6.46373583984375,-0.005539641249924898,-0.0027089675422757864,-0.020366789773106575
1690821335514775800,6.47377587890625,-0.006376939360052347,-0.002436259761452675,-0.020560136064887047
1690821335524816000,6.48381591796875,-0.005037369206547737,-0.0010570086305961013,-0.019420836120843887
1690821335534855700,6.493855712890625,-0.005200887098908424,-0.0017949705943465233,-0.019754795357584953
1690821335544926700,6.5039267578125,-0.005627259146422148,-0.0006388923502527177,-0.01979421079158783
1690821335554967600,6.513967529296875,-0.004787564743310213,-0.0019291938515380025,-0.021079985424876213
1690821335565007600,6.524007568359375,-0.005745503585785627,-0.002412557601928711,-0.020299678668379784
1690821335575047700,6.534047607421875,-0.004054662771522999,-0.0025276062078773975,-0.021137243136763573
1690821335585087700,6.544087646484375,-0.005303951445966959,-0.0016535567119717598,-0.021857362240552902
1690821335595128800,6.55412890625,-0.0046722497791051865,-0.0015254586469382048,-0.020810473710298538
1690821335605169000,6.5641689453125,-0.004355600103735924,-0.00003062635369133204,-0.020387563854455948
1690821335615208700,6.574208740234375,-0.006827812176197767,-0.0023523701820522547,-0.021405156701803207
1690821335625249500,6.58424951171875,-0.0026988473255187273,-0.0023222763556987047,-0.020074907690286636
1690821335635289600,6.59428955078125,-0.003769704606384039,-0.0003448793722782284,-0.020175043493509293
1690821335645329700,6.60432958984375,-0.005417402368038893,-0.0006985471700318158,-0.020447751507163048
1690821335655369700,6.61436962890625,-0.004205131437629461,-0.0007611314067617059,-0.02022590860724449
1690821335665410800,6.624410888671875,-0.00475374236702919,-0.003994741477072239,-0.019327891990542412
1690821335675451000,6.634450927734375,-0.004781705792993307,-0.002621349412947893,-0.019643742591142654
1690821335685490700,6.64449072265625,-0.006788664031773806,-0.0020777983590960503,-0.020711669698357582
1690821335695530800,6.65453076171875,-0.0046791741624474525,-0.003556119045242667,-0.020004600286483765
1690821335705571600,6.664571533203125,-0.004643221385776997,-0.0027654264122247696,-0.019122561439871788
1690821335715642600,6.674642578125,-0.004238953348249197,-0.0038248319178819656,-0.0193121787160635
1690821335725682700,6.6846826171875,-0.0052296495996415615,-0.0010570086305961013,-0.020329240709543228
1690821335735722800,6.69472265625,-0.00395665830001235,-0.0036048549227416515,-0.019477827474474907
1690821335745762800,6.7047626953125,-0.004552141297608614,-0.0012122709304094315,-0.02033483237028122
1690821335755804000,6.714803955078125,-0.0043707797303795815,-0.0031380027066916227,-0.020129237323999405
1690821335765843700,6.72484375,-0.004744421225041151,-0.00242214510217309,-0.019242404028773308
1690821335775883800,6.7348837890625,-0.004584099166095257,-0.0030429279431700706,-0.02009434998035431
1690821335785924600,6.744924560546875,-0.00432976707816124,-0.003710848744958639,-0.020837903022766113
1690821335795964700,6.754964599609375,-0.005432582460343838,-0.0015243934467434883,-0.017797639593482018
1690821335806004700,6.765004638671875,-0.0034852789249271154,-0.001811748486943543,-0.020264258608222008
1690821335816044800,6.775044921875,-0.005113801918923855,-0.0006199838826432824,-0.019946543499827385
1690821335826086000,6.7850859375,-0.004741758108139038,0.00013182646944187582,-0.020667728036642075
1690821335836125700,6.795125732421875,-0.0043958136811852455,-0.0026610305067151785,-0.02183925174176693
1690821335846165800,6.805165771484375,-0.005622465629130602,-0.0013941648649051785,-0.01810630038380623
1690821335856206600,6.81520654296875,-0.005312473513185978,-0.003862382611259818,-0.020062657073140144
1690821335866246700,6.82524658203125,-0.0033816818613559008,-0.002825880190357566,-0.022792130708694458
1690821335876286700,6.83528662109375,-0.005486910697072744,-0.0023073628544807434,-0.0183465164154768
1690821335886357800,6.845357666015625,-0.006473345682024956,-0.0015630092239007354,-0.01942775957286358
1690821335896397800,6.855397705078125,-0.00535561703145504,-0.0038011297583580017,-0.02190050482749939
1690821335906437600,6.865437744140625,-0.003897536313161254,-0.0010759170399978757,-0.02075907401740551
1690821335916478700,6.875478759765625,-0.006400375161319971,-0.0010940266074612737,-0.021196631714701653
1690821335926518800,6.885518798828125,-0.003753991797566414,-0.004427505191415548,-0.021105552092194557
1690821335936558800,6.895558837890625,-0.0060270000249147415,-0.001148088718764484,-0.01666686125099659
1690821335946599700,6.905599609375,-0.0038722362369298935,-0.0024762072134763002,-0.018671954050660133
1690821335956639700,6.9156396484375,-0.006420615129172802,-0.002029062481597066,-0.020018981769680977
1690821335966679800,6.9256796875,-0.0057226005010306835,-0.0032170985359698534,-0.021634988486766815
1690821335976719600,6.9357197265625,-0.004176901653409004,-0.0028367992490530014,-0.0206309761852026
1690821335986760700,6.9457607421875,-0.003940413240343332,-0.0046325684525072575,-0.02136680670082569
1690821335996800800,6.95580078125,-0.004788363818079233,-0.0005025385180488229,-0.019748670980334282
1690821336006840800,6.9658408203125,-0.003739078063517809,-0.0030032468494027853,-0.020012591034173965
1690821336016881700,6.975881591796875,-0.004135356284677982,-0.003737214021384716,-0.021678663790225983
1690821336026921700,6.985921630859375,-0.006776413414627314,-0.00304718897677958,-0.020373715087771416
1690821336036961800,6.9959619140625,-0.005029379855841398,-0.002005626680329442,-0.0217156819999218
1690821336047032600,7.006032470703125,-0.004947886802256107,-0.003777693957090378,-0.020718861371278763
1690821336057072600,7.01607275390625,-0.0041089910082519054,-0.00290444353595376,-0.02039928175508976
1690821336067113700,7.02611376953125,-0.0067846691235899925,0.0009970874525606632,-0.01919766329228878
1690821336077153800,7.03615380859375,-0.005361475981771946,-0.003309244057163596,-0.02069276198744774
1690821336087193600,7.046193603515625,-0.005082110408693552,-0.0019955066964030266,-0.02003948763012886
1690821336097233700,7.056233642578125,-0.0043473439291119576,-0.0007827030494809151,-0.020669059827923775
1690821336107274800,7.066274658203125,-0.005278651602566242,-0.0011819108622148633,-0.020870395004749298
1690821336117314800,7.076314697265625,-0.004739894066005945,-0.0011638014111667871,-0.019301526248455048
1690821336127354600,7.086354736328125,-0.005422195885330439,-0.0027180220931768417,-0.019026154652237892
1690821336137395700,7.096395751953125,-0.005213137716054916,-0.002426672261208296,-0.020352676510810852
1690821336147435800,7.106435791015625,-0.00509942090138793,-0.001208009896799922,-0.021940186619758606
1690821336157475600,7.1164755859375,-0.0057321880012750626,-0.0023001721128821373,-0.019285280257463455
1690821336167515600,7.126515625,-0.004069310147315264,-0.0038213697262108326,-0.02009062096476555
1690821336177556700,7.136556640625,-0.003912716172635555,-0.0013571468880400062,-0.020671457052230835
1690821336187596800,7.1465966796875,-0.0052147358655929565,-0.00287408335134387,-0.0201561339199543
1690821336197636600,7.15663671875,-0.003930293023586273,-0.0023124227300286293,-0.019833093509078026
1690821336207678200,7.16667822265625,-0.005503688473254442,-0.0013006879016757011,-0.019844811409711838
1690821336217749200,7.176749267578125,-0.00481446273624897,-0.004789428785443306,-0.021525265648961067
1690821336227790300,7.186790283203125,-0.0045585329644382,-0.0020034960471093655,-0.019884757697582245
1690821336237830400,7.196830322265625,-0.005382248666137457,-0.003236539661884308,-0.01968049444258213
1690821336247870500,7.206870361328125,-0.0049646650440990925,-0.0033899378031492233,-0.020715398713946342
1690821336257910300,7.21691015625,-0.003337473375722766,-0.0007632619817741215,-0.021203022450208664
1690821336267951400,7.226951416015625,-0.00430153775960207,-0.002400573343038559,-0.020433370023965836
1690821336277991200,7.2369912109375,-0.006202768534421921,0.0002969424531329423,-0.020003002136945724
1690821336288031200,7.24703125,-0.002749181119725108,-0.003507116809487343,-0.01865144819021225
1690821336298072300,7.257072265625,-0.005653358530253172,-0.0035782232880592346,-0.020427510142326355
1690821336308112400,7.2671123046875,-0.00375985074788332,0.00017710021347738802,-0.019295666366815567
1690821336318152400,7.27715234375,-0.005155347287654877,-0.0031161648221313953,-0.019406188279390335
1690821336328192300,7.287192138671875,-0.004151069093495607,-0.0021310613956302404,-0.019710320979356766
1690821336338233300,7.2972333984375,-0.005151086021214724,-0.002526274649426341,-0.020487165078520775
1690821336348273200,7.307273193359375,-0.004525509662926197,-0.003626160090789199,-0.022180669009685516
1690821336358313200,7.317313232421875,-0.005361475981771946,-0.0014644722687080503,-0.018137192353606224
1690821336368354300,7.327354248046875,-0.0037939392495900393,-0.001972337020561099,-0.018980348482728004
1690821336378394400,7.337394287109375,-0.005081311333924532,-0.0033361418172717094,-0.020506074652075768
1690821336388465400,7.34746533203125,-0.004479703027755022,-0.0032687638886272907,-0.018787803128361702
1690821336398505500,7.35750537109375,-0.006081594619899988,-0.002258360618725419,-0.018255436792969704
1690821336408545300,7.367545166015625,-0.0054541537538170815,-0.001674595638178289,-0.020793162286281586
1690821336418585300,7.37758544921875,-0.005597698036581278,-0.001425057533197105,-0.019767578691244125
1690821336428626200,7.387626220703125,-0.003893541404977441,-0.0027257453184574842,-0.020970795303583145
1690821336438666200,7.397666259765625,-0.004779309034347534,-0.0022098910994827747,-0.01938275247812271
1690821336448706300,7.407706298828125,-0.005519667640328407,-0.0008697884040884674,-0.019541211426258087
1690821336458747400,7.417747314453125,-0.005542038008570671,-0.003287672298029065,-0.019893547520041466
1690821336468787500,7.427787353515625,-0.006442985497415066,0.10195086896419525,-0.03785976395010948
1690821336478827300,7.4378271484375,0.044984783977270126,0.1796874701976776,-0.036602750420570374
1690821336488867300,7.447867431640625,0.00028309403569437563,-0.019421368837356567,-0.05615594610571861
1690821336498908200,7.457908203125,-0.005900765769183636,-0.07828228920698166,-0.0620465911924839
1690821336508948200,7.4679482421875,-0.011084076017141342,-0.13423557579517365,-0.05013933405280113
1690821336518988300,7.47798828125,-0.01751108281314373,-0.1846792995929718,-0.05146026238799095
1690821336529029400,7.488029296875,-0.01630813255906105,-0.14924807846546173,-0.02623240277171135
1690821336539069400,7.4980693359375,-0.014246846549212933,-0.11804275214672089,-0.026085130870342255
1690821336549140500,7.508140380859375,-0.010700315237045288,-0.046482279896736145,-0.040824130177497864
1690821336559180300,7.51818017578125,-0.0031531827989965677,0.01919606514275074,-0.03550899028778076
1690821336569220400,7.528220458984375,0.004762264434248209,0.07437223196029663,-0.04048910364508629
1690821336579261200,7.53826123046875,0.01010696217417717,0.11075154691934586,-0.028191957622766495
1690821336589301200,7.54830126953125,0.007641674485057592,0.13064615428447723,-0.02033110335469246
1690821336599341300,7.55834130859375,0.0024104269687086344,0.11900734901428223,-0.004991828929632902
1690821336609381400,7.56838134765625,-0.000979244359768927,0.0843026265501976,0.008038751780986786
1690821336619422500,7.57842236328125,-0.007632353343069553,0.03675774857401848,0.018259696662425995
1690821336629462300,7.588462158203125,-0.009782589972019196,-0.020540961995720863,0.02816266193985939
1690821336639502300,7.59850244140625,-0.012293151579797268,-0.06464344263076782,0.03526797518134117
1690821336649543200,7.608543212890625,-0.011372496373951435,-0.09330837428569794,0.03743632137775421
1690821336659583200,7.618583251953125,-0.007801996544003487,-0.09686289727687836,0.0361018106341362
1690821336669623300,7.628623291015625,-0.005504487548023462,-0.07884208112955093,0.028856948018074036
1690821336679663400,7.638663330078125,-0.0041643851436674595,-0.04555949568748474,0.015178952366113663
1690821336689704400,7.648704345703125,-0.0017305220244452357,-0.0055063520558178425,-0.00013422331539914012
1690821336699744300,7.658744140625,-0.0013558153295889497,0.03381575271487236,-0.01618908904492855
1690821336709784300,7.668784423828125,-0.002883138135075569,0.06350227445363998,-0.03178562596440315
1690821336719855400,7.67885546875,-0.004273840691894293,0.07387502491474152,-0.04113731533288956
1690821336729895400,7.6888955078125,-0.0036818201187998056,0.06482932716608047,-0.048163801431655884
1690821336739936300,7.698936279296875,-0.005269330460578203,0.04264573007822037,-0.051301270723342896
1690821336749976300,7.708976318359375,-0.005584915168583393,0.008810536004602909,-0.05439480021595955
1690821336760016400,7.719016357421875,-0.004358263220638037,-0.023720242083072662,-0.05313192680478096
1690821336770056200,7.72905615234375,-0.004775846842676401,-0.047031957656145096,-0.05136838182806969
1690821336780097300,7.73909716796875,-0.00504056503996253,-0.06168493628501892,-0.04584098979830742
1690821336790137300,7.749137451171875,-0.0031372036319226027,-0.05911045894026756,-0.04079962894320488
1690821336800177400,7.759177490234375,-0.0038338867016136646,-0.0469997338950634,-0.03772740438580513
1690821336810218200,7.76921826171875,-0.004855741746723652,-0.02815627120435238,-0.0341678224503994
1690821336820258300,7.77925830078125,-0.005710882600396872,-0.001734250457957387,-0.031242873519659042
1690821336830298400,7.78929833984375,-0.003740143496543169,0.019507387652993202,-0.023260848596692085
1690821336840338200,7.799338134765625,-0.005366535857319832,0.031322501599788666,-0.019152389839291573
1690821336850379300,7.809379150390625,-0.006160956807434559,0.0415881909430027,-0.012871856801211834
1690821336860419300,7.81941943359375,-0.006591590121388435,0.04068458080291748,-0.006311958190053701
1690821336870459400,7.82945947265625,-0.0046296389773488045,0.03224875032901764,-0.001133707701228559
1690821336880530400,7.839530517578125,-0.0038458709605038166,0.012773052789270878,0.002895122393965721
1690821336890570500,7.849570556640625,-0.0027627632953226566,-0.007564176339656115,0.007879761047661304
1690821336900611300,7.859611328125,-0.005136705003678799,-0.023985493928194046,0.006444050930440426
1690821336910651400,7.8696513671875,-0.004234426189213991,-0.030161896720528603,0.006203034892678261
1690821336920691200,7.879691162109375,-0.006795854307711124,-0.03224768489599228,0.003835484618321061
1690821336930731300,7.889731201171875,-0.004877845756709576,-0.02509150467813015,-0.0015446334145963192
1690821336940772400,7.8997724609375,-0.004464257042855024,-0.014376542530953884,-0.009973271749913692
1690821336950812400,7.9098125,-0.0046384274028241634,0.0001651159836910665,-0.01594194769859314
1690821336960852500,7.9198525390625,-0.004233627114444971,0.009520800784230232,-0.026618294417858124
1690821336970893300,7.929893310546875,-0.0036605149507522583,0.019903134554624557,-0.030976291745901108
1690821336980933400,7.939933349609375,-0.005055478774011135,0.02215244062244892,-0.03411269560456276
1690821336990973200,7.94997314453125,-0.003913515247404575,0.016749951988458633,-0.037580665200948715
1690821337001013200,7.96001318359375,-0.0026666230987757444,0.0073292856104671955,-0.040640901774168015
1690821337011054300,7.970054443359375,-0.003910053055733442,0.00010572749306447804,-0.04140869155526161
1690821337021094400,7.980094482421875,-0.00484322477132082,-0.012327772565186024,-0.037880003452301025
1690821337031134500,7.990134521484375,-0.005962285213172436,-0.019723370671272278,-0.03689702972769737
1690821337041175300,8.00017529296875,-0.005512476898729801,-0.023091470822691917,-0.034022681415081024
1690821337051245600,8.01024560546875,-0.004815527703613043,-0.02100754715502262,-0.030883613973855972
1690821337061286400,8.020286376953125,-0.0041587925516068935,-0.016713999211788177,-0.027669178321957588
1690821337071326200,8.030326171875,-0.003763579297810793,-0.007419300265610218,-0.02274313010275364
1690821337081366300,8.0403662109375,-0.0038013961166143417,0.00037736992817372084,-0.022783875465393066
1690821337091407400,8.050407470703124,-0.005163336638361216,0.005179049447178841,-0.01859392412006855
1690821337101447400,8.060447509765625,-0.00446931691840291,0.011856925673782825,-0.014219682663679123
1690821337111487500,8.070487548828124,-0.005658152047544718,0.01318184845149517,-0.01341380923986435
1690821337121527600,8.080527587890625,-0.005541239399462938,0.010823619551956654,-0.0070770843885838985
1690821337131568400,8.090568359375,-0.005083175376057625,0.007466438226401806,-0.004977980628609657
1690821337141608200,8.100608154296875,-0.005109008401632309,-0.002528671408072114,-0.008206530474126339
1690821337151648300,8.110648193359374,-0.00678253872320056,-0.0057015614584088326,-0.005469067487865686
1690821337161688300,8.120688232421875,-0.006908239796757698,-0.011100854724645615,-0.007388407830148935
1690821337171729400,8.1307294921875,-0.005393167492002249,-0.010569287464022636,-0.008655539713799953
1690821337181769500,8.14076953125,-0.005274123977869749,-0.009403355419635773,-0.011245730333030224
1690821337191809500,8.1508095703125,-0.003817108692601323,-0.009088835678994656,-0.017000287771224976
1690821337201850400,8.160850341796875,-0.004481034819036722,-0.002681004349142313,-0.02057957649230957
1690821337211868200,8.1708681640625,-0.003734284546226263,-0.00019201391842216253,-0.02328375168144703
1690821337221939200,8.180939208984375,-0.0031212246976792812,0.00421418622136116,-0.02509070560336113
1690821337231979300,8.190979248046874,-0.004656270612031221,0.005003280472010374,-0.02742975950241089
1690821337242019300,8.201019287109375,-0.005376123357564211,0.005063734482973814,-0.03099946118891239
1690821337252060400,8.211060302734374,-0.004501274786889553,0.001136637176387012,-0.032346487045288086
1690821337262100200,8.221100341796875,-0.005642172880470753,-0.0018663433147594333,-0.0327233262360096
1690821337272140300,8.231140380859374,-0.004512193612754345,-0.003173955250531435,-0.03133315593004227
1690821337282180400,8.241180419921875,-0.005600095260888338,-0.007631287910044193,-0.02949264459311962
1690821337292221200,8.25122119140625,-0.004151069093495607,-0.008290420286357403,-0.028088625520467758
1690821337302261200,8.26126123046875,-0.005061071366071701,-0.00830666534602642,-0.025892850011587143
1690821337312301300,8.27130126953125,-0.004652009811252356,-0.005416869651526213,-0.023662984371185303
1690821337322342400,8.28134228515625,-0.004832572303712368,-0.006305832881480455,-0.020053336396813393
1690821337332382500,8.291382568359374,-0.004357996862381697,-0.0028961875941604376,-0.01835770159959793
1690821337342422300,8.30142236328125,-0.005169728305190802,0.0014679343439638615,-0.015578960068523884
1690821337352462300,8.31146240234375,-0.005714344792068005,0.004640025552362204,-0.016175774857401848
1690821337362503200,8.321503173828125,-0.006178800016641617,0.004633900243788958,-0.01398559007793665
1690821337372543200,8.331543212890624,-0.00446878420189023,0.004232828039675951,-0.011426558718085289
1690821337382614300,8.3416142578125,-0.002799514913931489,0.00033449303009547293,-0.011659585870802402
1690821337392654300,8.351654296875,-0.0040796962566673756,-0.0015717976493760943,-0.011449728161096573
1690821337402694100,8.361694091796876,-0.00561181316152215,-0.0007747135823592544,-0.01389743946492672
1690821337412735200,8.3717353515625,-0.004756671842187643,-0.005906092468649149,-0.013201821595430374
1690821337422775300,8.381775390625,-0.005658418405801058,-0.005799299571663141,-0.01630573719739914
1690821337432815400,8.3918154296875,-0.005340703297406435,-0.003418699838221073,-0.01871589757502079
1690821337442855400,8.40185546875,-0.003771835006773472,-0.004637895151972771,-0.019146529957652092
1690821337452896300,8.411896240234375,-0.00373082235455513,-0.0030000510159879923,-0.02287122793495655
1690821337462936300,8.421936279296874,-0.006081328261643648,-0.002329200739040971,-0.023479226976633072
1690821337472976400,8.431976318359375,-0.006090383045375347,-0.0006681871018372476,-0.025672873482108116
1690821337483017500,8.442017578125,-0.004829908721148968,-0.00005725796290789731,-0.028266524896025658
1690821337493057300,8.452057373046875,-0.004918059334158897,-0.0014271880500018597,-0.025351695716381073
1690821337503097300,8.462097412109374,-0.0033601103350520134,-0.000030892668291926384,-0.02636263146996498
1690821337513137400,8.472137451171875,-0.004507400095462799,-0.0020719394087791443,-0.025260083377361298
1690821337523178200,8.48217822265625,-0.004970257636159658,-0.0028605014085769653,-0.024106401950120926
1690821337533218300,8.49221826171875,-0.0049612028524279594,-0.00600462919101119,-0.024477379396557808
1690821337543258400,8.50225830078125,-0.005063468124717474,-0.005242965184152126,-0.023919714614748955
1690821337553329200,8.5123291015625,-0.005556153133511543,-0.005868807900696993,-0.02088823728263378
1690821337563369200,8.522369140625,-0.005717806983739138,-0.00421365350484848,-0.020083695650100708
1690821337573410300,8.532410400390624,-0.003230680711567402,-0.0026168220210820436,-0.01901363767683506
1690821337583450400,8.542450439453125,-0.005064533557742834,0.00024447820032946765,-0.0181766077876091
1690821337593490400,8.552490478515624,-0.005026184022426605,0.00022317290131468326,-0.019162243232131004
1690821337603531300,8.56253125,-0.0057228668592870235,0.0012681973166763783,-0.017190437763929367
1690821337613571300,8.5725712890625,-0.004245345015078783,-0.0018482337472960353,-0.014639129862189293
1690821337623611400,8.582611328125,-0.006420348770916462,-0.0004900216590613127,-0.015856994315981865
1690821337633651200,8.592651123046876,-0.004581968765705824,-0.002129996195435524,-0.01672917976975441
1690821337643692300,8.6026923828125,-0.004357197787612677,-0.0012905678013339639,-0.017049556598067284
1690821337653732400,8.612732421875,-0.0052235242910683155,-0.0037143107037991285,-0.017079118639230728
1690821337663772400,8.6227724609375,-0.004037884995341301,-0.0012578109744936228,-0.01709483005106449
1690821337673812500,8.6328125,-0.004747883416712284,-0.0030711572617292404,-0.0204570721834898
1690821337683853300,8.642853271484375,-0.005363073665648699,-0.004853078629821539,-0.02106480486690998
1690821337693893400,8.652893310546874,-0.0067934575490653515,-0.0036906085442751646,-0.020898357033729553
1690821337703933200,8.66293310546875,-0.006051234435290098,-0.0033694314770400524,-0.02292555570602417
1690821337714004200,8.673004150390625,-0.005345230456441641,-0.0021140172611922026,-0.02215270698070526
1690821337724044300,8.683044189453126,-0.005958290304988623,-0.001555552356876433,-0.024635305628180504
1690821337734085400,8.69308544921875,-0.0067628310061991215,-0.0014378406340256333,-0.02376551739871502
1690821337744125400,8.70312548828125,-0.003790477057918906,-0.0025840650778263807,-0.024458471685647964
1690821337754165500,8.71316552734375,-0.00549250328913331,-0.002246909076347947,-0.023492276668548584
1690821337764206300,8.723206298828124,-0.005609150044620037,-0.002118278294801712,-0.02255990356206894
1690821337774246400,8.733246337890625,-0.005585980135947466,-0.0043651871383190155,-0.020506341010332108
1690821337784286200,8.7432861328125,-0.0070403325371444225,-0.002523078816011548,-0.021034445613622665
1690821337794326300,8.753326171875,-0.004974252078682184,-0.0014839133946225047,-0.02129676565527916
1690821337804367400,8.763367431640624,-0.0043683829717338085,-0.0010080065112560987,-0.019406720995903015
1690821337814407400,8.773407470703125,-0.003996605984866619,-0.0013853764394298196,-0.018576348200440407
1690821337824447500,8.783447509765624,-0.005823534447699785,-0.0033004553988575935,-0.01955958642065525
1690821337834488300,8.79348828125,-0.005213137716054916,-0.001076982356607914,-0.019364111125469208
1690821337844528400,8.8035283203125,-0.005819273181259632,-0.0009590042755007744,-0.0179987084120512
1690821337854568200,8.813568115234375,-0.00509915454313159,-0.002808836055919528,-0.017344368621706963
1690821337864608300,8.823608154296876,-0.0038927425630390644,-0.0015837819082662463,-0.01750868558883667
1690821337874649300,8.8336494140625,-0.005626194179058075,-0.0015049523208290339,-0.01836169697344303
1690821337884719400,8.84371923828125,-0.004038417246192694,-0.0032346753869205713,-0.018986741080880165
1690821337894760400,8.853760498046874,-0.004800081718713045,-0.0017587515758350492,-0.020486099645495415
1690821337904800500,8.863800537109375,-0.004144677426666021,-0.0027486486360430717,-0.019596338272094727
1690821337914840300,8.87384033203125,-0.0043444144539535046,-0.0020445086993277073,-0.019657591357827187
1690821337924881200,8.883881103515625,-0.004278101958334446,-0.003491936717182398,-0.02016385830938816
1690821337934921200,8.893921142578124,-0.00401657959446311,-0.001315335277467966,-0.02099023573100567
1690821337944961300,8.903961181640625,-0.004363589454442263,-0.0022863238118588924,-0.02129570208489895
1690821337955001300,8.91400146484375,-0.0038104509003460407,-0.0019710054621100426,-0.023003052920103073
1690821337965042400,8.92404248046875,-0.0057652113027870655,-0.003593935864046216,-0.022417157888412476
1690821337975082500,8.93408251953125,-0.004245877731591463,-0.0036674391012638807,-0.021085044369101524
1690821337985122600,8.94412255859375,-0.0043830303475260735,-0.001752093667164445,-0.02279958873987198
1690821337995163400,8.954163330078124,-0.004860002547502518,-0.0021499700378626585,-0.022671224549412727
1690821338005203200,8.964203125,-0.005476790945976973,-0.001041295938193798,-0.020666396245360374
1690821338015243300,8.9742431640625,-0.004977714270353317,0.00012676646292675287,-0.021410750225186348
1690821338025283300,8.984283447265625,-0.005543902516365051,-0.0021781993564218283,-0.02040220983326435
1690821338035324400,8.994324462890624,-0.004221642855554819,-0.0034011229872703552,-0.021322065964341164
1690821338045364500,9.004364501953125,-0.003561711637303233,-0.002460494404658675,-0.020555607974529266
1690821338055435500,9.014435546875,-0.002460494404658675,-0.0025563682429492474,-0.019351327791810036
1690821338065475300,9.024475341796874,-0.005574528593569994,-0.002751844236627221,-0.018213357776403427
1690821338075515400,9.034515380859375,-0.0026783409994095564,-0.0033534523099660873,-0.020054668188095093
1690821338085556200,9.04455615234375,-0.006666691042482853,-0.0027254789602011442,-0.018560634925961494
1690821338095596300,9.05459619140625,-0.005596899427473545,-0.0023467775899916887,-0.01852281764149666
1690821338105636400,9.06463623046875,-0.0040975394658744335,0.0002822950773406774,-0.01769377663731575
1690821338115677400,9.074677490234375,-0.005502090789377689,-0.0025510420091450214,-0.019577164202928543
1690821338125717500,9.084717529296874,-0.005062669049948454,-0.002242914168164134,-0.018558504059910774
1690821338135757600,9.094757568359375,-0.003954261541366577,-0.0014423680258914828,-0.02100754715502262
1690821338145797400,9.10479736328125,-0.004963333252817392,-0.0038717035204172134,-0.020730312913656235
1690821338155838200,9.114838134765625,-0.004354801028966904,-0.001945705502294004,-0.02015986293554306
1690821338165878300,9.124878173828124,-0.0054754591546952724,-0.0031941954512149096,-0.02178385853767395
1690821338175918300,9.13491845703125,-0.004852545913308859,-0.0026501116808503866,-0.02075774222612381
1690821338185958400,9.14495849609375,-0.005517270881682634,-0.0031348068732768297,-0.021089572459459305
1690821338195999500,9.15499951171875,-0.0031872710678726435,-0.002957440447062254,-0.0231708325445652
1690821338206039600,9.16503955078125,-0.004174771253019571,-0.0003374225052539259,-0.02117745764553547
1690821338216119000,9.175119140625,-0.0052139367908239365,-0.003436276689171791,-0.02207867056131363
1690821338226159000,9.1851591796875,-0.0057345847599208355,-0.003489007242023945,-0.021638981997966766
1690821338236199200,9.19519921875,-0.005681321490556002,-0.0009086705395020545,-0.021090904250741005
1690821338246240300,9.205240234375,-0.004264785908162594,-0.0019805929623544216,-0.021032048389315605
1690821338256280000,9.215280029296874,-0.003932689782232046,0.0006793724023737013,-0.020604077726602554
1690821338266320000,9.22531982421875,-0.004453870467841625,-0.004794488660991192,-0.02112685702741146
1690821338276361000,9.23536083984375,-0.005608084611594677,-0.001788046327419579,-0.019334815442562103
1690821338286401000,9.245401123046875,-0.004490622319281101,-0.0029973878990858793,-0.020557206124067307
1690821338296441000,9.255441162109374,-0.005381449591368437,0.00016058860637713224,-0.018457304686307907
1690821338306481200,9.265481201171875,-0.0054517569951713085,-0.0020900487434118986,-0.017835190519690514
1690821338316522200,9.275522216796874,-0.005919674411416054,-0.002956375014036894,-0.019360382109880447
1690821338326562000,9.28556201171875,-0.00493217445909977,-0.0033135050907731056,-0.02142379991710186
1690821338336601900,9.295601806640626,-0.005548163317143917,-0.0015451660146936774,-0.017798172309994698
1690821338346643000,9.305642822265625,-0.005618737079203129,-0.001936384360305965,-0.018259696662425995
1690821338356683000,9.31568310546875,-0.0036940707359462976,-0.0013800500892102718,-0.01895717903971672
1690821338366723000,9.32572314453125,-0.0031377363484352827,-0.0008591357618570328,-0.01918967254459858
1690821338376763100,9.33576318359375,-0.004785966593772173,-0.0010996191995218396,-0.020601680502295494
1690821338386834200,9.345834228515624,-0.004811000544577837,-0.003853327827528119,-0.019889818504452705
1690821338396874200,9.355874267578125,-0.005292233545333147,-0.0020570256747305393,-0.020924190059304237
1690821338406915000,9.3659150390625,-0.00443975580856204,-0.004299407359212637,-0.020678114145994186
1690821338416955000,9.375954833984375,-0.005525526590645313,-0.004032292403280735,-0.022425148636102676
1690821338426995000,9.385994873046876,-0.002856240142136812,-0.0023438481148332357,-0.0205132644623518
1690821338437036000,9.3960361328125,-0.005331914871931076,-0.0026783409994095564,-0.02201608568429947
1690821338447076000,9.406076171875,-0.006052832584828138,-0.001059139147400856,-0.021920744329690933
1690821338457116200,9.4161162109375,-0.005919674411416054,-0.003487143199890852,-0.020311662927269936
1690821338467156200,9.42615625,-0.0038136467337608337,-0.0010572749888524413,-0.020073309540748596
1690821338477197000,9.436197021484375,-0.005357214715331793,-0.0019204054260626435,-0.02064802125096321
1690821338487236900,9.44623681640625,-0.003710049670189619,-0.004566255956888199,-0.021622737869620323
1690821338497277000,9.45627685546875,-0.005136971361935139,-0.0020607539918273687,-0.019591543823480606
1690821338507318000,9.466318115234374,-0.004191549029201269,-0.00141041015740484,-0.019542010501027107
1690821338517358000,9.476358154296875,-0.003808586625382304,-0.0021608888637274504,-0.020364660769701004
1690821338527398100,9.486398193359374,-0.003768639173358679,-0.0017752632265910506,-0.019566243514418602
1690821338537438200,9.496438232421875,-0.005766276270151138,-0.0034764904994517565,-0.020367588847875595
1690821338547509200,9.50650927734375,-0.004763596225529909,-0.0024983114562928677,-0.019033879041671753
1690821338557550000,9.516550048828124,-0.0035486621782183647,-0.001784850494004786,-0.019360382109880447
1690821338567590000,9.52658984375,-0.005918608978390694,-0.0009302421822212636,-0.019692212343215942
1690821338577630000,9.5366298828125,-0.0054458980448544025,-0.0009925601771101356,-0.017854897305369377
1690821338587670000,9.546669921875,-0.0032626385800540447,-0.0020160130225121975,-0.02075694315135479
1690821338597711000,9.556711181640624,-0.0057036918587982655,-0.002257827902212739,-0.016696421429514885
1690821338607751200,9.566751220703125,-0.005509813781827688,-0.0025451830588281155,-0.01925891637802124
1690821338617791200,9.576791259765624,-0.005760950036346912,-0.002794188680127263,-0.01902429200708866
1690821338627832000,9.58683203125,-0.006144179031252861,-0.0017715347930788994,-0.02069356106221676
1690821338637871900,9.596871826171874,-0.005774265620857477,-0.002531867241486907,-0.02165496163070202
1690821338647912000,9.606911865234375,-0.005665076430886984,-0.0012330436147749424,-0.020769460126757622
1690821338657952000,9.616951904296876,-0.0037880802992731333,-0.0036783581599593163,-0.020852284505963326
1690821338667993000,9.6269931640625,-0.004789428785443306,-0.0038573225028812885,-0.019280754029750824
1690821338678033200,9.637033203125,-0.004318315535783768,-0.0032506543211638927,-0.02155136503279209
1690821338688073200,9.6470732421875,-0.004457332659512758,-0.0032048479188233614,-0.021890385076403618
1690821338698113300,9.65711328125,-0.0051718587055802345,-0.0027270768769085407,-0.02261796034872532
1690821338708154000,9.667154052734375,-0.004489024169743061,0.000040480048483004794,-0.02088850364089012
1690821338718225000,9.677224853515625,-0.00407543545588851,-0.003498594742268324,-0.020839501172304153
1690821338728265000,9.687264892578124,-0.004700745455920696,-0.0013017531018704176,-0.020050140097737312
1690821338738305000,9.697304931640625,-0.004893292207270861,-0.0018461032304912806,-0.01925997994840145
1690821338748345000,9.707344970703126,-0.0037436054553836584,-0.001838646363466978,-0.021920211613178253
1690821338758386200,9.71738623046875,-0.0043532028794288635,-0.0034818167332559824,-0.018849320709705353
1690821338768426200,9.72742626953125,-0.004199538845568895,-0.002335592173039913,-0.01980459690093994
1690821338778466000,9.737466064453125,-0.004546282347291708,-0.0012650014832615852,-0.019045330584049225
1690821338788507000,9.7475068359375,-0.00675297761335969,-0.0011917646043002605,-0.019889818504452705
1690821338798547000,9.757546875,-0.0038866172544658184,-0.0037792918737977743,-0.020146813243627548
1690821338808587000,9.7675869140625,-0.002724946476519108,-0.0011715245200321078,-0.020853349938988686
1690821338818627000,9.777626953125,-0.00598545465618372,-0.0036309538409113884,-0.019218169152736664
1690821338828668200,9.787668212890624,-0.005052549298852682,-0.0011020160745829344,-0.021766548976302147
1690821338838708200,9.797708251953125,-0.005638711154460907,-0.003031742526218295,-0.020067717880010605
1690821338848748000,9.807748046875,-0.005666940473020077,-0.0014343785587698221,-0.01894679293036461
1690821338858788900,9.817788818359375,-0.004837632179260254,-0.0017832526937127113,-0.021749237552285194
1690821338868829000,9.827828857421874,-0.005182511638849974,-0.0018442390719428658,-0.020246949046850204
1690821338878900000,9.83789990234375,-0.006176669616252184,-0.005902896635234356,-0.02026958577334881
1690821338888940000,9.84793994140625,-0.0048855687491595745,-0.003072488820180297,-0.021092768758535385
1690821338898980000,9.85797998046875,-0.0025094966404139996,-0.0023225427139550447,-0.021270401775836945
1690821338909020200,9.868020263671875,-0.004746285732835531,-0.002175003755837679,-0.01932709291577339
1690821338919061200,9.878061279296874,-0.0046333675272762775,-0.0038597192615270615,-0.02003788948059082
1690821338929101000,9.88810107421875,-0.0032490564044564962,-0.0010641991393640637,-0.018847191706299782
1690821338939141000,9.89814111328125,-0.004520183429121971,-0.0009235842735506594,-0.01986078917980194
1690821338949182000,9.908181884765625,-0.005395564250648022,-0.003495132550597191,-0.01884639263153076
1690821338959222000,9.918221923828124,-0.004705006722360849,-0.0035297537688165903,-0.019467441365122795
1690821338969262000,9.928261962890625,-0.0062677497044205666,-0.002119077369570732,-0.020241355523467064
1690821338979302100,9.93830224609375,-0.0038490667939186096,-0.001579787116497755,-0.02177507057785988
1690821338989343200,9.94834326171875,-0.00424374733120203,-0.004216050263494253,-0.02088930271565914
1690821338999383000,9.958383056640624,-0.0062640211544930935,-0.0009933591354638338,-0.019944678992033005
1690821339009423000,9.968423095703125,-0.004656270612031221,-0.0010341054294258356,-0.020413661375641823
1690821339019464000,9.9784638671875,-0.004744953941553831,-0.002148372121155262,-0.021376928314566612
1690821339029504000,9.98850390625,-0.0068206219002604485,-0.0023971113841980696,-0.020077571272850037
1690821339039544000,9.9985439453125,-0.003969441633671522,-0.003352387109771371,-0.020261595025658607
1690821339049615000,10.008614990234374,-0.005617938470095396,0.0002777676854748279,-0.018928684294223785
1690821339059655200,10.0186552734375,-0.0052176653407514095,-0.0026016421616077423,-0.020447485148906708
1690821339069696300,10.0286962890625,-0.00484162662178278,-0.0011209244839847088,-0.02081499993801117
1690821339079736000,10.038736083984375,-0.004260258749127388,-0.003876497270539403,-0.020475447177886963
1690821339089776000,10.048776123046874,-0.005299690645188093,-0.00264771468937397,-0.01986531727015972
1690821339099816200,10.058816162109375,-0.003084739437326789,-0.001514273346401751,-0.019409917294979095
1690821339109857000,10.06885693359375,-0.004803277086466551,-0.0020530307665467262,-0.02159690484404564
1690821339119897000,10.07889697265625,-0.006007825024425983,-0.0029648973140865564,-0.01896277256309986
1690821339129937200,10.088937255859374,-0.0026466494891792536,-0.0017299894243478775,-0.02058197371661663
1690821339139977000,10.09897705078125,-0.0034522556234151125,-0.001537975505925715,-0.019948940724134445
1690821339150018000,10.10901806640625,-0.004344148561358452,-0.0034751589410007,-0.02124376967549324
1690821339160058000,10.11905810546875,-0.006042179651558399,-0.002326271263882518,-0.019117502495646477
1690821339170098200,10.12909814453125,-0.005541771650314331,-0.00418462511152029,-0.02069728821516037
1690821339180139000,10.139138916015625,-0.0026354643050581217,-0.0018671422731131315,-0.01998063176870346
1690821339190179000,10.149178955078124,-0.005140699911862612,-0.0017757958266884089,-0.020267721265554428
1690821339200219100,10.15921923828125,-0.004673315212130547,-0.001415736391209066,-0.022103438153862953
1690821339210270500,10.1692705078125,-0.004738828632980585,-0.0031619712244719267,-0.0208128709346056
1690821339220310500,10.179310546875,-0.005030444823205471,-0.003275688039138913,-0.02160595916211605
1690821339230351400,10.189351318359375,-0.004964132327586412,-0.0015819176333025098,-0.02131034806370735
1690821339240391200,10.19939111328125,-0.005191033706068993,-0.0018485001055523753,-0.01853666640818119
1690821339250431200,10.20943115234375,-0.004965197294950485,-0.0035577169619500637,-0.020136693492531776
1690821339260471300,10.21947119140625,-0.006234460044652224,-0.003082609036937356,-0.02046825736761093
1690821339270512400,10.229512451171875,-0.004458131734281778,-0.0022956449538469315,-0.019687151536345482
1690821339280552400,10.239552490234376,-0.004838164895772934,-0.0019654128700494766,-0.022532738745212555
1690821339290592500,10.249592529296875,-0.005618470720946789,-0.0027209515683352947,-0.020545754581689835
1690821339300633300,10.25963330078125,-0.0038509308360517025,-0.0014439659425988793,-0.021381454542279243
1690821339310673200,10.269673095703125,-0.00464588450267911,-0.00452897185459733,-0.021517809480428696
1690821339320713200,10.279713134765625,-0.004223773255944252,-0.0025957829784601927,-0.021807827055454254
1690821339330753300,10.289753173828124,-0.004497013986110687,-0.0012053466634824872,-0.02178865298628807
1690821339340794400,10.29979443359375,-0.005396629683673382,-0.001645567244850099,-0.019948940724134445
1690821339350834400,10.30983447265625,-0.00675164582207799,-0.0035606464371085167,-0.021433386951684952
1690821339360874500,10.31987451171875,-0.005909288302063942,-0.002073803450912237,-0.019599534571170807
1690821339370915300,10.329915283203125,-0.006825681775808334,-0.0028578380588442087,-0.02033882774412632
1690821339380985300,10.3399853515625,-0.005021922755986452,-0.0015254586469382048,-0.020671457052230835
1690821339391026200,10.350026123046876,-0.003599262097850442,-0.00213665422052145,-0.021689049899578094
1690821339401066200,10.360066162109375,-0.0054853130131959915,-0.0023877902422100306,-0.01805783063173294
1690821339411106300,10.370106201171875,-0.004670652095228434,-0.0008884305134415627,-0.01943361945450306
1690821339421146400,10.380146484375,-0.003930026665329933,-0.003013632958754897,-0.0198043305426836
1690821339431187500,10.3901875,-0.0043295007199049,-0.0028122980147600174,-0.02099423110485077
1690821339441227500,10.4002275390625,-0.004584898240864277,-0.0024951156228780746,-0.019057314842939377
1690821339451267300,10.410267333984375,-0.0041305627673864365,-0.0014346449170261621,-0.021519938483834267
1690821339461308200,10.42030810546875,-0.003953462466597557,-0.0020008329302072525,-0.020384101197123528
1690821339471348200,10.43034814453125,-0.004822452086955309,-0.0019166769925504923,-0.01986558362841606
1690821339481388300,10.44038818359375,-0.005230714567005634,-0.002287655370309949,-0.02076706290245056
1690821339491428400,10.450428466796875,-0.0054339137859642506,-0.0022746059112250805,-0.020770525559782982
1690821339501469400,10.460469482421875,-0.004043477587401867,0.0007574030314572155,-0.020650682970881462
1690821339511509500,10.470509521484376,-0.004539357963949442,-0.0033784860279411077,-0.020187826827168465
1690821339521549300,10.48054931640625,-0.003007774008437991,-0.0016639430541545153,-0.02123551443219185
1690821339531590100,10.490590087890626,-0.004535363521426916,-0.0024831313639879227,-0.01925785094499588
1690821339541660400,10.500660400390625,-0.004172640852630138,-0.0014655375853180885,-0.020686635747551918
1690821339551701200,10.510701171875,-0.005356415640562773,-0.0029177593532949686,-0.019453326240181923
1690821339561741300,10.5207412109375,-0.00440912926569581,-0.0006319681415334344,-0.020288759842514992
1690821339571781400,10.530781494140625,-0.007682154420763254,-0.0022599585354328156,-0.021827001124620438
1690821339581822500,10.540822509765626,-0.00544376764446497,-0.000287088769255206,-0.021372400224208832
1690821339591862500,10.550862548828125,-0.0038093857001513243,-0.0038136467337608337,-0.020022444427013397
1690821339601902300,10.56090234375,-0.005124720744788647,-0.0020570256747305393,-0.02286323718726635
1690821339611942400,10.5709423828125,-0.005685050040483475,-0.0009661948424763978,-0.018921226263046265
1690821339621983200,10.580983154296876,-0.005679457448422909,-0.0037856835406273603,-0.021047761663794518
1690821339632023300,10.591023193359375,-0.004181429278105497,-0.003269829088822007,-0.020066652446985245
1690821339642063400,10.6010634765625,-0.0040975394658744335,0.00005619269722956233,-0.02101154252886772
1690821339652103400,10.611103515625,-0.00501020485535264,-0.0024471788201481104,-0.021016335114836693
1690821339662144500,10.62114453125,-0.0054419031366705894,-0.0018165421206504107,-0.020020846277475357
1690821339672184300,10.631184326171875,-0.005817142780870199,-0.00250576832331717,-0.020063988864421844
1690821339682224400,10.641224365234375,-0.0032170985359698534,-0.0008426241693086922,-0.021519141271710396
1690821339692265200,10.65126513671875,-0.005130046978592873,-0.0022743395529687405,-0.02129250578582287
1690821339702305300,10.66130517578125,-0.004418983124196529,-0.00395745737478137,-0.02111274190247059
1690821339712376300,10.671376220703126,-0.004594485275447369,-0.001844505313783884,-0.020806744694709778
1690821339722416400,10.68141650390625,-0.003828826593235135,-0.00239151855930686,-0.020832311362028122
1690821339732456400,10.69145654296875,-0.0037848844658583403,-0.002808569697663188,-0.019888486713171005
1690821339742497500,10.70149755859375,-0.005634982604533434,-0.002344646956771612,-0.01991458609700203
1690821339752537300,10.711537353515626,-0.0054357778280973434,-0.0022511701099574566,-0.019838951528072357
1690821339762577400,10.721577392578125,-0.0030836742371320724,-0.0013664679136127234,-0.01889060065150261
1690821339772617200,10.7316171875,-0.004962800536304712,-0.001856223214417696,-0.020794227719306946
1690821339782658300,10.741658203125,-0.004338289611041546,-0.0008013451588340104,-0.020417656749486923
1690821339792698400,10.751698486328126,-0.004841094370931387,-0.002642388455569744,-0.021202223375439644
1690821339802738400,10.761738525390625,-0.003704989794641733,-0.0017097494564950466,-0.02178119495511055
1690821339812779500,10.771779541015626,-0.004787831101566553,-0.0038394792936742306,-0.019573168829083443
1690821339822819300,10.7818193359375,-0.004012318328022957,-0.0019467707024887204,-0.019571037963032722
1690821339832859400,10.791859375,-0.0056922403164207935,-0.001418665866367519,-0.020507937297225
1690821339842899200,10.801899169921874,-0.006825681775808334,-0.0009446232579648495,-0.021704763174057007
1690821339852940300,10.811940185546876,-0.00484429020434618,-0.0014173343079164624,-0.02189650945365429
1690821339862980400,10.82198046875,-0.005540706682950258,-0.0017070862231776118,-0.02003176510334015
1690821339873051400,10.832051513671875,-0.003721767570823431,-0.0012117383303120732,-0.018821625038981438
1690821339883091500,10.842091552734376,-0.004355866461992264,-0.0024085629265755415,-0.021929534152150154
1690821339893131300,10.85213134765625,-0.005425125360488892,-0.0029971215408295393,-0.02184564433991909
1690821339903172400,10.86217236328125,-0.005143096670508385,-0.0021907163318246603,-0.019806994125247
1690821339913212400,10.87221240234375,-0.00549356872215867,-0.0016969662392511964,-0.019833626225590706
1690821339923252200,10.882252197265625,-0.004317782819271088,-0.0031459920573979616,-0.018864501267671585
1690821339933292300,10.892292236328124,-0.004945756401866674,-0.0029356025625020266,-0.020499682053923607
1690821339943333400,10.90233349609375,-0.006196110509335995,-0.0016998957144096494,-0.019897807389497757
1690821339953373400,10.91237353515625,-0.004032558295875788,-0.002763562137261033,-0.020358001813292503
1690821339963413200,10.922413330078125,-0.005419000051915646,-0.003966245800256729,-0.02166854403913021
1690821339973454300,10.932454345703125,-0.0051960935816168785,-0.00041571943438611925,-0.020077571272850037
1690821339983494400,10.942494384765626,-0.004511395003646612,-0.0010524812387302518,-0.018795792013406754
1690821339993534200,10.9525341796875,-0.003838147735223174,-0.0012271846644580364,-0.02070527896285057
1690821340003574300,10.96257421875,-0.004742024466395378,-0.0023672839161008596,-0.020538564771413803
1690821340013615400,10.972615478515625,-0.004026965703815222,-0.0023342606145888567,-0.019036807119846344
1690821340023655400,10.982655517578126,-0.004388356581330299,-0.0026407905388623476,-0.01985253393650055
1690821340033726500,10.9927265625,-0.003838680451735854,-0.0029952572658658028,-0.020975856110453606
1690821340043766300,11.002766357421875,-0.0046757119707763195,-0.0011552792275324464,-0.019949739798903465
1690821340053806300,11.012806396484375,-0.005410477984696627,-0.0018053569365292788,-0.021615812554955482
1690821340063847400,11.022847412109375,-0.005390504375100136,-0.0007635282818228006,-0.0195476021617651
1690821340073887200,11.03288720703125,-0.0037758296821266413,-0.0018849853659048676,-0.020258666947484016
1690821340083927300,11.04292724609375,-0.004196875728666782,-0.0021313277538865805,-0.021460816264152527
1690821340093968400,11.052968505859376,-0.0057316552847623825,-0.003713245503604412,-0.01997717097401619
1690821340104008400,11.063008544921875,-0.006767891347408295,-0.0031915323343127966,-0.02184031717479229
1690821340114048300,11.07304833984375,-0.0057407100684940815,-0.0010724549647420645,-0.019210712984204292
1690821340124088300,11.08308837890625,-0.0035808864049613476,-0.002522812457755208,-0.02021419070661068
1690821340134129400,11.09312939453125,-0.004883971065282822,-0.0028301412239670753,-0.020230170339345932
1690821340144169200,11.103169189453125,-0.004349208436906338,-0.004262655507773161,-0.02178199402987957
1690821340154209300,11.113209228515625,-0.0054972972720861435,-0.0009584716754034162,-0.01906716823577881
1690821340164249300,11.123249267578124,-0.0054664043709635735,-0.0006916229031048715,-0.018627213314175606
1690821340174290400,11.13329052734375,-0.005349225364625454,-0.0037952708080410957,-0.021756960079073906
1690821340184330200,11.143330322265625,-0.0038125813007354736,-0.0018759306985884905,-0.019694609567523003
1690821340194370300,11.153370361328125,-0.004027764778584242,-0.001999767730012536,-0.020713001489639282
1690821340204441300,11.16344140625,-0.004291151650249958,-0.0006559365428984165,-0.02112765610218048
1690821340214466000,11.173466064453125,-0.0036253612488508224,-0.001555818715132773,-0.019266638904809952
1690821340224507100,11.183507080078124,-0.003932689782232046,-0.0026075011119246483,-0.019331619143486023
1690821340234547200,11.193547119140625,-0.005284510552883148,-0.0023124227300286293,-0.02285578101873398
1690821340244587300,11.203587158203124,-0.005629656370729208,-0.0026343988720327616,-0.020543357357382774
1690821340254628000,11.213628173828125,-0.006552441511303186,-0.0033449302427470684,-0.021143633872270584
1690821340264668200,11.223668212890624,-0.0027438548859208822,-0.00285011506639421,-0.0177592895925045
1690821340274708200,11.233708251953125,-0.004467719234526157,-0.0012463594321161509,-0.021597970277071
1690821340284748300,11.243748291015624,-0.004039749037474394,-0.002275671111419797,-0.02172979712486267
1690821340294789400,11.253789306640625,-0.004516987595707178,-0.0037955371662974358,-0.02111114375293255
1690821340304829200,11.2638291015625,-0.0043625240214169025,-0.0018261295044794679,-0.02052045427262783
1690821340314869200,11.273869140625,-0.0065231467597186565,-0.001618136651813984,-0.021695442497730255
1690821340324910000,11.28391015625,-0.005452556069940329,-0.00318886898458004,-0.021766016259789467
1690821340334950100,11.2939501953125,-0.005377987399697304,-0.003822701284661889,-0.019342804327607155
1690821340344990200,11.303990234375,-0.002877012826502323,-0.002773682354018092,-0.01884079910814762
1690821340355030300,11.3140302734375,-0.005381449591368437,0.00000852211542223813,-0.019541477784514427
1690821340365101000,11.32410107421875,-0.004671450704336166,-0.002801911672577262,-0.019057048484683037
1690821340375141000,11.33414111328125,-0.004382231738418341,-0.003817641409114003,-0.01937928982079029
1690821340385182200,11.34418212890625,-0.0029909962322562933,-0.000031691615731688216,-0.021917283535003662
1690821340395222300,11.35422216796875,-0.004234159830957651,-0.0006527407676912844,-0.020649617537856102
1690821340405262300,11.364262451171875,-0.005456284619867802,-0.0014599448768422008,-0.01937263272702694
1690821340415303200,11.37430322265625,-0.004738828632980585,-0.003184075467288494,-0.019526297226548195
1690821340425343200,11.38434326171875,-0.003943609073758125,-0.002290318487212062,-0.020386764779686928
1690821340435383300,11.39438330078125,-0.004547347314655781,-0.002600044244900346,-0.020253339782357216
1690821340445423000,11.404423095703125,-0.005768673028796911,0.00014620754518546164,-0.019577164202928543
1690821340455464200,11.414464111328124,-0.005484247580170631,-0.0033928672783076763,-0.02045600675046444
1690821340465504300,11.424504150390625,-0.005115665961056948,-0.0009017463307827711,-0.019839484244585037
1690821340475544300,11.43454443359375,-0.005216599907726049,-0.00313560594804585,-0.020434968173503876
1690821340485585200,11.444585205078125,-0.005336442030966282,-0.002359294332563877,-0.018087923526763916
1690821340495625200,11.454625244140624,-0.005027515348047018,-0.0025132251903414726,-0.019305521622300148
1690821340505665300,11.464665283203125,-0.006298375781625509,-0.0024567660875618458,-0.020616061985492706
1690821340515705000,11.474705078125,-0.005176119972020388,-0.0032290827948600054,-0.01882508583366871
1690821340525746200,11.48474609375,-0.005012867972254753,-0.0010157296201214194,-0.018749186769127846
1690821340535817200,11.494817138671875,-0.00564004248008132,-0.003683684393763542,-0.020590761676430702
1690821340545857300,11.504857177734374,-0.005562012083828449,0.00008681904728291556,-0.019965186715126038
1690821340555897300,11.5148974609375,-0.005789179354906082,-0.0006892260862514377,-0.017732124775648117
1690821340565937400,11.5249375,-0.005287972744554281,-0.0021108214277774096,-0.020424582064151764
1690821340575978200,11.534978271484375,-0.005053082015365362,-0.0012207929976284504,-0.020622454583644867
1690821340586018300,11.545018310546874,-0.004789428785443306,-0.001068193931132555,-0.01878061145544052
1690821340596058000,11.55505810546875,-0.0036525253672152758,-0.0006993460701778531,-0.0206323079764843
1690821340606099200,11.56509912109375,-0.00435986090451479,-0.0018431737553328276,-0.02076466754078865
1690821340616139300,11.57513916015625,-0.0043838294222950935,-0.003373958868905902,-0.022047512233257294
1690821340626179300,11.585179443359374,-0.0057652113027870655,-0.0030269487760961056,-0.02051512897014618
1690821340636219100,11.59521923828125,-0.005464540328830481,-0.0028431906830519438,-0.021462947130203247
1690821340646260200,11.60526025390625,-0.006557767745107412,-0.001865277998149395,-0.01786581613123417
1690821340656300300,11.61530029296875,-0.0054128747433424,-0.0004117247008252889,-0.019626164808869362
1690821340666340000,11.625340087890624,-0.004700745455920696,-0.0015662050573155284,-0.019091403111815453
1690821340676380200,11.635380126953125,-0.003805390791967511,0.0003126551164314151,-0.018506838008761406
1690821340686421200,11.645421142578124,-0.00526586826890707,-0.0024778051301836967,-0.021134313195943832
1690821340696492300,11.6554921875,-0.003683684393763542,-0.002014681464061141,-0.020318055525422096
1690821340706532400,11.665532470703125,-0.004720719531178474,-0.004091946873813868,-0.02117559313774109
1690821340716572200,11.675572265625,-0.005680788774043322,-0.001915878034196794,-0.019691945984959602
1690821340726612200,11.6856123046875,-0.005441104527562857,-0.0007313040550798178,-0.02106347307562828
1690821340736653300,11.6956533203125,-0.0037739656399935484,-0.0011566109023988247,-0.019994214177131653
1690821340746693000,11.705693115234375,-0.00404534162953496,-0.0024615598376840353,-0.020473049953579903
1690821340756733200,11.715733154296874,-0.005627525504678488,-0.0008934905636124313,-0.021097827702760696
1690821340766774300,11.725774169921875,-0.005536711774766445,-0.0025063008069992065,-0.018508702516555786
1690821340776814300,11.735814453125,-0.0054826498962938786,-0.003847468877211213,-0.02014787867665291
1690821340786854100,11.745854248046875,-0.004984905011951923,-0.003745736088603735,-0.020200077444314957
1690821340796894200,11.755894287109374,-0.0049156625755131245,-0.001290834159590304,-0.020961474627256393
1690821340806935300,11.765935302734375,-0.003890611929818988,-0.0022836606949567795,-0.01895238645374775
1690821340816975000,11.77597509765625,-0.005074653308838606,-0.003638144349679351,-0.02051912248134613
1690821340827015200,11.78601513671875,-0.005769472103565931,-0.0029728866647928953,-0.0191409382969141
