time,seconds_elapsed,z,y,x
1690821329238516200,0.19751611328125,-0.0016836929135024548,0.019638683646917343,0.07182229310274124
1690821329248587300,0.207587158203125,0.0007239752449095249,0.01306711696088314,0.05213801562786102
1690821329258627000,0.217626953125,0.0013029465917497873,0.003816093783825636,0.027768228203058243
1690821329268667100,0.227667236328125,0.0008178418502211571,-0.002812308492138982,-0.0013878755271434784
1690821329278707200,0.237707275390625,-0.0005832468159496784,-0.010217494331300259,-0.026216791942715645
1690821329288748300,0.247748291015625,0.0009560324251651764,-0.015629291534423828,-0.047797322273254395
1690821329298788400,0.257788330078125,-0.0015068589709699154,-0.016291620209813118,-0.059945330023765564
1690821329308828400,0.267828369140625,-0.0004906048998236656,-0.012028399854898453,-0.06591743230819702
1690821329318869200,0.277869140625,0.001472144853323698,-0.006918859668076038,-0.06007605418562889
1690821329328909000,0.287908935546875,0.0008355616591870785,-0.005638926289975643,-0.04880590736865997
1690821329338949000,0.29794921875,0.0018909727223217487,-0.0010351203382015228,-0.03337395191192627
1690821329348989200,0.3079892578125,0.0010332558304071426,0.002826179377734661,-0.013960756361484528
1690821329359030300,0.3180302734375,0.002188801532611251,0.004410494118928909,0.005143430083990097
1690821329369070300,0.3280703125,0.0009663170203566551,0.003441690467298031,0.02154524065554142
1690821329379110400,0.3381103515625,-0.00022864341735839844,0.004897374659776688,0.03677558898925781
1690821329389150200,0.348150146484375,-0.0018593580462038517,0.0068028694950044155,0.04472251236438751
1690821329399191000,0.35819091796875,-0.00026039592921733856,0.007946697063744068,0.0459667444229126
1690821329409231000,0.368231201171875,0.0005673910491168499,0.006014410872012377,0.04458364099264145
1690821329419302100,0.37830224609375,-0.0012012138031423092,0.00803601648658514,0.0365813747048378
1690821329429342200,0.38834228515625,0.0006892401725053787,0.005991828162223101,0.020945517346262932
1690821329439382300,0.39838232421875,0.000576321966946125,0.006824865005910397,0.006235812790691853
1690821329449423400,0.40842333984375,0.0017124563455581665,0.0007770892698317766,-0.009690845385193825
1690821329459463400,0.41846337890625,0.0003957897424697876,-0.0007334556430578232,-0.02122126892209053
1690821329469503200,0.428503173828125,0.00022401567548513412,-0.004815549124032259,-0.029660291969776154
1690821329479544000,0.4385439453125,0.0011707695666700602,-0.007476313039660454,-0.03404172509908676
1690821329489584000,0.448584228515625,-0.0011651995591819286,-0.007292069029062986,-0.0330989733338356
1690821329499624200,0.458624267578125,0.0015403057914227247,-0.006699515972286463,-0.02857639081776142
1690821329509664300,0.468664306640625,0.00047109369188547134,-0.0029297075234353542,-0.020851057022809982
1690821329519705300,0.478705322265625,-0.0007209372706711292,-0.0023022666573524475,-0.009712651371955872
1690821329529745400,0.488745361328125,0.0010197833180427551,0.001753042684867978,0.0011907164007425308
1690821329539785200,0.49878515625,0.0005020648241043091,0.0018872660584747791,0.011336294934153557
1690821329549826000,0.508825927734375,0.0011031730100512505,0.007345692254602909,0.02039085328578949
1690821329559866000,0.5188662109375,0.0005495017394423485,0.005629285238683224,0.020711230114102364
1690821329569906200,0.52890625,-0.0007798545993864536,0.006928049959242344,0.025774775072932243
1690821329579946200,0.5389462890625,0.00010644551366567612,0.004218550398945808,0.024760376662015915
1690821329590017300,0.549017333984375,0.0009268256835639477,0.004498668946325779,0.01854044944047928
1690821329600057300,0.559057373046875,-0.0008154143579304218,0.0023636131081730127,0.013062326237559319
1690821329610098400,0.569098388671875,0.0009155473671853542,-0.0012582256458699703,0.0039971135556697845
1690821329620138200,0.57913818359375,-0.00010311184450984001,-0.0022481223568320274,-0.004207286983728409
1690821329630178300,0.58917822265625,-0.0005415612831711769,-0.00010368437506258488,-0.01248633861541748
1690821329640219100,0.59921923828125,-0.0005735191516578197,-0.0006853188388049603,-0.01809016242623329
1690821329650259200,0.60925927734375,-0.000023030675947666168,-0.0020879176445305347,-0.018940800800919533
1690821329660299300,0.61929931640625,0.0017660809680819511,-0.00236142473295331,-0.018069682642817497
1690821329670339300,0.62933935546875,0.0011826753616333008,-0.0005808938294649124,-0.01561443880200386
1690821329680380400,0.63938037109375,0.0007597655057907104,-0.0016578761860728264,-0.012083087116479874
1690821329690420200,0.649420166015625,0.0002345433458685875,0.000693590147420764,-0.0031575392931699753
1690821329700460300,0.659460205078125,0.001464923843741417,-0.0010997825302183628,0.0028636008501052856
1690821329710501000,0.669501220703125,0.00022934377193450928,0.0009545345092192292,0.008581824600696564
1690821329720541200,0.679541259765625,-0.0006795930676162243,0.0022504287771880627,0.010276127606630325
1690821329730581200,0.689581298828125,-0.0005907700397074223,0.001862717792391777,0.013835292309522629
1690821329740621300,0.699621337890625,-0.0007465649396181107,0.003790313843637705,0.013742080889642239
1690821329750662400,0.709662353515625,-0.00003596581518650055,0.0031519888434559107,0.011403421871364117
1690821329760702200,0.7197021484375,0.00019546272233128548,0.0023051034659147263,0.010186889208853245
1690821329770773200,0.729773193359375,0.000883761327713728,0.0020940180402249098,0.0032280907034873962
1690821329780813300,0.739813232421875,0.0012030743528157473,0.0012306211283430457,0.0006703902035951614
1690821329790853400,0.749853271484375,-0.0005032629705965519,0.00005486141890287399,-0.004397811368107796
1690821329800894200,0.759894287109375,-0.000060379039496183395,-0.0009725859854370356,-0.007243398576974869
1690821329810934300,0.769934326171875,0.00003673834726214409,-0.002367875073105097,-0.010501965880393982
1690821329820974300,0.779974365234375,0.0009619202464818954,-0.0022227326408028603,-0.009507276117801666
1690821329831015400,0.790015380859375,-0.0006462405435740948,-0.0023793266154825687,-0.0087480079382658
1690821329841055200,0.80005517578125,0.0008549829944968224,-0.0003787598107010126,-0.007444923743605614
1690821329851095300,0.81009521484375,0.00014122575521469116,0.00032717385329306126,-0.003434380516409874
1690821329861135400,0.82013525390625,-0.00048621511086821556,0.0012776560615748167,-0.00009557604789733887
1690821329871176200,0.83017626953125,0.00012025656178593636,0.00003742193803191185,0.0015542525798082352
1690821329881216300,0.84021630859375,0.0009245313704013824,0.0021224108058959246,0.005868840031325817
1690821329891256300,0.85025634765625,-0.00006036832928657532,0.002658795565366745,0.00691179558634758
1690821329901296000,0.860296142578125,0.0013865269720554352,0.002295007696375251,0.007636974565684795
1690821329911337200,0.870337158203125,-0.00009247008711099625,0.0038462146185338497,0.008098788559436798
1690821329921377300,0.880377197265625,0.0007240548729896545,0.003856334835290909,0.0063557494431734085
1690821329931417300,0.890417236328125,0.00004929304122924805,0.0010832255939021707,0.0024375654757022858
1690821329941488400,0.90048828125,0.00047886092215776443,-0.001063548494130373,-0.00023624859750270844
1690821329951528200,0.910528076171875,-0.0006778868846595287,-0.00046449480578303337,-0.0020591672509908676
1690821329961569300,0.9205693359375,0.0020918005611747503,0.0006684139370918274,-0.00387650728225708
1690821329971609300,0.930609375,-0.0006491006352007389,-0.0002507695462554693,-0.007155746221542358
1690821329981649200,0.940649169921875,0.0006563807837665081,-0.001395928906276822,-0.00770755298435688
1690821329991690200,0.950690185546875,-0.0006317342631518841,0.00005426257848739624,-0.006824670359492302
1690821330001730300,0.960730224609375,0.00003352342173457146,-0.0005215129349380732,-0.004137540236115456
1690821330011770400,0.970770263671875,-0.0006144959479570389,-0.0000382494181394577,-0.0035895071923732758
1690821330021810200,0.98081005859375,0.0003607538528740406,-0.0005021719262003899,-0.002042476087808609
1690821330031851300,0.990851318359375,-0.0004686419852077961,0.002093877410516143,0.0005964506417512894
1690821330041891300,1.000891357421875,0.0010901063214987516,0.001344197546131909,0.003116598352789879
1690821330051931100,1.01093115234375,-0.001457303762435913,0.0025969860143959522,0.005422760732471943
1690821330061972200,1.02097216796875,0.000128875020891428,0.00023209908977150917,0.004322608932852745
1690821330072012300,1.03101220703125,0.00019582128152251244,0.0026256018318235874,0.0032773055136203766
1690821330082052400,1.04105224609375,0.000020052772015333176,0.0019414357375353575,0.004355086013674736
1690821330092092200,1.051092041015625,0.00010286271572113037,-0.0018417499959468842,0.0015508253127336502
1690821330102133200,1.06113330078125,0.0017470985185354948,0.000942851067520678,0.00041951611638069153
1690821330112203300,1.071203369140625,0.001682076370343566,0.0012479177676141262,-0.0005193278193473816
1690821330122244400,1.081244384765625,0.0014562401920557022,0.0012867999030277133,-0.002326015383005142
1690821330132284200,1.0912841796875,0.0010776459239423275,0.00004133791662752628,-0.002359902486205101
1690821330142324200,1.10132421875,0.0006358274258673191,-0.0008375050965696573,-0.004849426448345184
1690821330152365300,1.111365234375,-0.0018102522008121014,0.0006517015863209963,-0.004689130932092667
1690821330162405400,1.1214052734375,0.000012149102985858917,0.0013814077246934175,-0.0030478257685899734
1690821330172445200,1.131445068359375,-0.00003579212352633476,0.0007348931394517422,-0.0026546958833932877
1690821330182485200,1.1414853515625,0.0014196252450346947,-0.0015719367656856775,-0.000515911728143692
1690821330192526300,1.1515263671875,-0.0005969381891191006,-0.00021987687796354294,-0.00004137679934501648
1690821330202553600,1.1615537109375,-0.001553812064230442,0.0001455086749047041,0.0008798092603683472
1690821330212593700,1.17159375,0.000027258414775133133,0.00261302781291306,0.0034242384135723114
1690821330222634500,1.181634521484375,-0.00014371657744050026,0.000022038351744413376,0.004355013370513916
1690821330232674300,1.19167431640625,0.00038824789226055145,0.001597259659320116,0.0018363278359174728
1690821330242714400,1.20171435546875,-0.00004078727215528488,-0.0001412518322467804,0.0035165157169103622
1690821330252754400,1.21175439453125,0.0003896239213645458,0.0009616935858502984,0.000994853675365448
1690821330262795500,1.22179541015625,0.0005278419703245163,0.0011973832733929157,0.0008904580026865005
1690821330272835600,1.231835693359375,-0.0008359439671039581,0.002784127602353692,0.00011204369366168976
1690821330282906600,1.24190673828125,-0.00041543086990714073,0.0013683912111446261,0.00041564367711544037
1690821330292946700,1.25194677734375,0.00011386163532733917,-0.0010234923101961613,-0.0007978938519954681
1690821330302986500,1.261986572265625,0.0003138650208711624,-0.0009491899982094765,-0.0013582222163677216
1690821330313027300,1.27202734375,-0.001516191754490137,-0.00019704783335328102,-0.0028400998562574387
1690821330323067400,1.2820673828125,0.0017602953594177961,-0.000003702240064740181,-0.0006696227937936783
1690821330333107500,1.292107421875,0.0011959420517086983,-0.0005189580842852592,0.00004933588206768036
1690821330343147500,1.3021474609375,-0.000004610978066921234,-0.00048540206626057625,-0.0007203184068202972
1690821330353188600,1.312188720703125,-0.0003156512975692749,-0.0005054082721471786,0.0004636291414499283
1690821330363228700,1.322228759765625,-0.0006962171755731106,-0.0008681307081133127,0.0014127790927886963
1690821330373268500,1.3322685546875,0.0006451541557908058,0.0027183277998119593,0.001431373879313469
1690821330383309300,1.342309326171875,-0.0016411696560680866,0.0010376067366451025,0.0021557528525590897
1690821330393349400,1.352349365234375,0.0002229250967502594,0.0012525921920314431,-0.0007414333522319794
1690821330403389400,1.362389404296875,0.00012598605826497078,0.0005058418028056622,0.001072445884346962
1690821330413429500,1.372429443359375,0.0008304333314299583,0.0016006305813789368,-0.0005607698112726212
1690821330423470600,1.382470703125,-0.0007727900519967079,-0.0006851605139672756,0.0006437767297029495
1690821330433510700,1.3925107421875,-0.0004633837379515171,0.0005604343023151159,-0.0028834156692028046
1690821330443550500,1.402550537109375,0.0011150715872645378,-0.0004768669605255127,0.0010343603789806366
1690821330453621500,1.41262158203125,-0.0007510087452828884,-0.00015657208859920502,-0.0010401159524917603
1690821330463661300,1.422661376953125,0.0006450205110013485,0.0006042930763214827,-0.00022439099848270416
1690821330473702400,1.432702392578125,-0.000050469301640987396,0.0010605481220409274,-0.0003909338265657425
1690821330483742500,1.442742431640625,0.0005125231109559536,0.0017937163356691599,-0.0015105251222848892
1690821330493782500,1.452782470703125,-0.0013449126854538918,0.00020962674170732498,0.0012710019946098328
1690821330503823600,1.46282373046875,-0.0001315763220191002,0.0007654284127056599,-0.00009546615183353424
1690821330513863700,1.47286376953125,-0.0019887532107532024,-0.0030362324323505163,-0.0007212124764919281
1690821330523903500,1.482903564453125,-0.0006273449398577213,-0.0009565702639520168,-0.000002425163984298706
1690821330533943300,1.492943359375,-0.0002656443975865841,0.002617608057335019,0.0007024649530649185
1690821330543984400,1.502984375,0.00041612470522522926,-0.00047219148837029934,-0.0018352605402469635
1690821330554024400,1.5130244140625,-0.0009465930052101612,-0.0009672434534877539,0.0016045738011598587
1690821330564064500,1.523064453125,-0.0013689706102013588,-0.0023811159189790487,0.001287657767534256
1690821330574105600,1.533105712890625,0.00019341520965099335,0.0016625461867079139,0.0018560979515314102
1690821330584145700,1.543145751953125,-0.00022283708676695824,0.0017525609582662582,-0.0014792438596487045
1690821330594185500,1.553185546875,-0.0008022752590477467,-0.0005142530426383018,-0.0009458623826503754
1690821330604225300,1.563225341796875,-0.0004840274341404438,0.00015366775915026665,-0.0006819441914558411
1690821330614266400,1.573266357421875,0.00031169597059488297,-0.0010983524844050407,-0.0011440962553024292
1690821330624306400,1.583306396484375,0.0010387389920651913,0.0007291086949408054,-0.00037604011595249176
1690821330634377500,1.59337744140625,-0.0007168212905526161,0.0015529905213043094,-0.002354143187403679
1690821330644417500,1.60341748046875,-0.0005642217583954334,0.0037820562720298767,-0.0013868827372789383
1690821330654457600,1.61345751953125,-0.00025407643988728523,0.0005178373539820313,-0.0019909366965293884
1690821330664498700,1.623498779296875,-0.0003227861598134041,-0.00009468966163694859,-0.00018797628581523895
1690821330674538500,1.63353857421875,0.00003831973299384117,0.0012686937116086483,0.00017331168055534363
1690821330684578300,1.643578369140625,-0.0005089598707854748,0.00021860934793949127,-0.001200878992676735
1690821330694618400,1.653618408203125,0.0011017296928912401,0.0005798895144835114,0.00044650956988334656
1690821330704659500,1.663659423828125,-0.00021307310089468956,0.0006272937171161175,0.00020762532949447632
1690821330714699500,1.673699462890625,0.0006055827252566814,0.0017703238409012556,0.0013201236724853516
1690821330724739600,1.683739501953125,-0.0005204016342759132,0.001179634709842503,0.00003408268094062805
1690821330734780700,1.69378076171875,-0.00042637623846530914,-0.0005765263922512531,-0.0006066188216209412
1690821330744820500,1.703820556640625,0.0008175862021744251,0.0008951365016400814,-0.0006119459867477417
1690821330754860300,1.7138603515625,-0.00003002304583787918,0.00031249108724296093,0.0007327254861593246
1690821330764900400,1.723900390625,-0.0011280444450676441,0.0010589751182124019,-0.0007538516074419022
1690821330774941400,1.73394140625,0.0010566834826022387,0.0017537442035973072,0.0000070855021476745605
1690821330784981500,1.7439814453125,0.0003397604450583458,0.0010677139507606626,-0.0008935946971178055
1690821330795021600,1.754021484375,-0.0009396676905453205,0.0006540113827213645,-0.00037801824510097504
1690821330805092600,1.764092529296875,-0.0009247539564967155,-0.004281625151634216,-0.0026145391166210175
1690821330815132400,1.77413232421875,0.0009439862333238125,0.0000893324613571167,-0.0007689632475376129
1690821330825173500,1.784173583984375,0.0002781962975859642,0.001059788279235363,0.0013501141220331192
1690821330835213300,1.79421337890625,-0.001195557415485382,-0.0015106031205505133,-0.0005064811557531357
1690821330845253400,1.80425341796875,0.00040953001007437706,0.00043723301496356726,0.0008205734193325043
1690821330855293400,1.81429345703125,0.0010130563750863075,-0.0003089853562414646,0.0013820864260196686
1690821330865334500,1.82433447265625,-0.0007677995599806309,-0.0004511983133852482,0.0011463966220617294
1690821330875374600,1.83437451171875,-0.000719534233212471,0.0011157445842400193,0.00008329935371875763
1690821330885414400,1.844414306640625,0.0003587799146771431,0.0009764612186700106,0.0010156724601984024
1690821330895455500,1.85445556640625,-0.00031319400295615196,0.0006630574353039265,0.0013933423906564713
1690821330905495300,1.864495361328125,-0.0007712580263614655,0.001723528141155839,0.0002401936799287796
1690821330915535400,1.874535400390625,-0.0006136954762041569,-0.0021298665087670088,-0.0028769150376319885
1690821330925575400,1.884575439453125,-0.00007973145693540573,-0.000011854805052280426,-0.0007586367428302765
1690821330935616500,1.894616455078125,-0.0007779058068990707,-0.0004779370501637459,-0.002265332266688347
1690821330945656600,1.904656494140625,-0.001772596500813961,0.0011244870256632566,-0.002020854502916336
1690821330955696400,1.9146962890625,0.00043311668559908867,-0.0015270013827830553,-0.0012508872896432877
1690821330965737200,1.9247373046875,0.0003071487881243229,-0.0015866560861468315,-0.0010820422321557999
1690821330975807500,1.934807373046875,0.0006969468668103218,-0.00022402219474315643,-0.001724008470773697
1690821330985848300,1.944848388671875,-0.0006143935024738312,0.0009930423693731427,-0.0006749890744686127
1690821330995888400,1.954888427734375,-0.0007953527383506298,-0.001267038518562913,-0.00016848742961883545
1690821331005928400,1.964928466796875,-0.00045473454520106316,0.0017362080980092287,0.0001486949622631073
1690821331015969500,1.974969482421875,-0.00003860844299197197,0.00010977871716022491,0.001370064914226532
1690821331026009600,1.985009521484375,-0.00015072757378220558,-0.0005141999572515488,-0.00016924366354942322
1690821331036049400,1.99504931640625,2.9616057872772217e-7,-0.0017858585342764854,0.00032510608434677124
1690821331046089500,2.00508935546875,-0.00021834950894117355,0.0014592030784115195,0.0010452251881361008
1690821331056130300,2.01513037109375,-0.000036121346056461334,-0.0010886534582823515,-0.0006135497242212296
1690821331066170400,2.02517041015625,-0.0006001787260174751,0.0013824936468154192,-0.001060960814356804
1690821331076210400,2.03521044921875,-0.00009726127609610558,-0.00026914174668490887,-0.0017094183713197708
1690821331086251500,2.04525146484375,0.00037358561530709267,-0.0026606605388224125,-0.0023096948862075806
1690821331096291600,2.05529150390625,0.0007027462124824524,0.00046550773549824953,-0.0010301191359758377
1690821331106331400,2.065331298828125,0.0009618718177080154,-0.0015004377346485853,-0.0010519567877054214
1690821331116371500,2.075371337890625,0.0017405266407877207,0.00039659638423472643,-0.0026317276060581207
1690821331126412300,2.085412353515625,0.0016305381432175636,0.000770504237152636,-0.0012612659484148026
1690821331136452400,2.095452392578125,0.00025496212765574455,-0.0011925124563276768,0.0013638678938150406
1690821331146523400,2.1055234375,0.00039637601003050804,-0.0003461597952991724,-0.0028260834515094757
1690821331156563500,2.1155634765625,-0.0008862223476171494,0.0002822314854711294,0.00011002831161022186
1690821331166603500,2.125603515625,0.00009621772915124893,-0.001373189501464367,0.0010759569704532623
1690821331176644600,2.13564453125,0.000021366868168115616,0.0004657894605770707,0.000868404284119606
1690821331186684400,2.145684326171875,0.0011209859512746334,0.0009342394769191742,0.00048197992146015167
1690821331196724500,2.155724365234375,-0.00006269430741667747,0.00008050329051911831,0.001271996647119522
1690821331206754600,2.165754638671875,-0.0008544521406292915,0.0003995499573647976,-0.0006603933870792389
1690821331216795400,2.17579541015625,-0.0010810582898557186,0.0009279276710003614,-0.0016661304980516434
1690821331226835500,2.18583544921875,0.0009312261827290058,0.0002903669374063611,-0.0016695912927389145
1690821331236875500,2.19587548828125,-0.0004389793612062931,-0.0004778183065354824,-0.00032584182918071747
1690821331246916600,2.20591650390625,-0.0006552282720804214,0.0009568264940753579,-0.000491756945848465
1690821331256956700,2.215956787109375,-0.0004561208188533783,0.000751080340705812,-0.0015764348208904266
1690821331266996500,2.22599658203125,0.0003968896344304085,0.0025875961873680353,-0.0014398153871297836
1690821331277036500,2.23603662109375,-0.0003626658581197262,-0.001500611426308751,-0.00024252571165561676
1690821331287077400,2.246077392578125,0.0021420372650027275,-0.0012574647553265095,0.001195048913359642
1690821331297117400,2.256117431640625,-0.0005867229774594307,0.0010948138078674674,-0.00048263557255268097
1690821331307157500,2.266157470703125,0.0007810764946043491,-0.00014275708235800266,-0.00026532262563705444
1690821331317228500,2.276228515625,0.00042472686618566513,0.00040217104833573103,-0.0025657471269369125
1690821331327268600,2.2862685546875,-0.0015281690284609795,-0.0012804141733795404,0.00044815242290496826
1690821331337309700,2.296309814453125,-0.0015686359256505966,-0.00003479747101664543,-0.0006332248449325562
1690821331347349500,2.306349609375,-0.0008775452151894569,-0.0010052532888948917,-0.0004758331924676895
1690821331357389600,2.3163896484375,0.0010834340937435627,0.001190503709949553,-0.0016726050525903702
1690821331367429400,2.326429443359375,-0.00003163143992424011,-0.0004614552017301321,0.00006324425339698792
1690821331377470500,2.336470458984375,0.0009468123316764832,0.0008634965633973479,0.0014536045491695404
1690821331387510500,2.346510498046875,0.0006171129643917084,0.0010288789635524154,-0.00046333856880664825
1690821331397550600,2.356550537109375,-0.0005865036509931087,0.0009754812344908714,-0.0006852727383375168
1690821331407591700,2.366591796875,-0.0004139305092394352,0.0013994565233588219,-0.000245584174990654
1690821331417631500,2.376631591796875,0.0008747600950300694,-0.0009677717462182045,0.000558760017156601
1690821331427671600,2.386671630859375,0.0007730275392532349,-0.0004926638212054968,-0.00030144117772579193
1690821331437711400,2.39671142578125,-0.000029626768082380295,-0.001056693959981203,-0.002908257767558098
1690821331447752400,2.40675244140625,0.00040846318006515503,-0.0002010201569646597,-0.0012267380952835083
1690821331457792500,2.41679248046875,-0.0008062147535383701,0.0006901653250679374,0.001158781349658966
1690821331467832600,2.42683251953125,-0.0007465598173439503,0.0002193183172494173,0.0020589306950569153
1690821331477873700,2.436873779296875,-0.000602085143327713,-0.00042333384044468403,0.000538976863026619
1690821331487943400,2.446943359375,0.0005870163440704346,0.0009836142417043447,0.0006233993917703629
1690821331497984500,2.456984619140625,0.001177491620182991,0.00040967855602502823,0.0007589831948280334
1690821331508024600,2.467024658203125,0.000650451984256506,0.001855242415331304,0.001846885308623314
1690821331518064400,2.477064453125,-0.00035529350861907005,-0.0005694939754903316,0.00029673054814338684
1690821331528105500,2.48710546875,-0.00030549243092536926,-0.002570593496784568,0.0020043496042490005
1690821331538145500,2.4971455078125,0.00041133444756269455,-0.0009151292033493519,-0.001050073653459549
1690821331548185600,2.507185546875,0.0018233424052596092,0.0014359093038365245,-0.0003643091768026352
1690821331558225400,2.517225341796875,-0.00002024928107857704,0.0009677113266661763,-0.00028159841895103455
1690821331568266500,2.5272666015625,0.0005424763076007366,-0.00005654036067426205,-0.00031941384077072144
1690821331578306600,2.537306640625,-0.0007410123944282532,0.00009866524487733841,0.000015130266547203064
1690821331588346400,2.547346435546875,0.0008435682393610477,-0.0002667203079909086,-0.00016969256103038788
1690821331598387500,2.557387451171875,-0.0005098278634250164,-0.000011452939361333847,-0.0006220955401659012
1690821331608427500,2.567427490234375,0.0008033770136535168,0.00032517057843506336,0.0002634059637784958
1690821331618467600,2.577467529296875,-0.00032785069197416306,-0.0006793818902224302,-0.0008147861808538437
1690821331628507600,2.587507568359375,-0.00012225424870848656,-0.0005073416978120804,0.001507757231593132
1690821331638548700,2.597548828125,0.001371021382510662,0.0009569682879373431,-0.00023571401834487915
1690821331648588500,2.607588623046875,-0.000467891339212656,-0.0003469153307378292,0.0008793510496616364
1690821331658659600,2.61765966796875,-0.0009127422235906124,0.0012896228581666946,0.002455359324812889
1690821331668699400,2.627699462890625,-0.00027251802384853363,-0.00011279783211648464,0.0014614686369895935
1690821331678739500,2.637739501953125,-0.0004050196148455143,0.00038048706483095884,-0.00013437680900096893
1690821331688780500,2.647780517578125,0.00042322324588894844,-0.00011219782754778862,-0.0008723381906747818
1690821331698820600,2.657820556640625,0.00034266943112015724,0.0022637404035776854,-0.001428423449397087
1690821331708860400,2.6678603515625,-0.0007966305129230022,-0.0008825182449072599,-0.002129366621375084
1690821331718900500,2.677900390625,0.0012153519783169031,-0.0002747622784227133,-0.0004924573004245758
1690821331728941600,2.687941650390625,0.0004962985403835773,0.0008501571137458086,0.0021933410316705704
1690821331738981400,2.6979814453125,0.00011044228449463844,0.00077110028360039,0.00108436681330204
1690821331749021400,2.708021484375,-0.0017732116393744946,0.0007892097346484661,-0.0004083346575498581
1690821331759062500,2.7180625,-0.0005445140413939953,-0.0012477783020585775,0.00003701820969581604
1690821331769102600,2.7281025390625,-0.000879273284226656,0.000015891622751951218,0.0004133228212594986
1690821331779142700,2.738142578125,-0.00011298758909106255,-0.00015475437976419926,0.0023267846554517746
1690821331789182500,2.748182373046875,-0.0009454917162656784,-0.0011031059548258781,0.00020610913634300232
1690821331799223300,2.758223388671875,0.0003949590027332306,-0.0000261073000729084,0.0012668650597333908
1690821331809263400,2.768263427734375,0.0011294588912278414,0.00037017115391790867,5.308538675308228e-7
1690821331819303400,2.778303466796875,0.00007180264219641685,-0.001386257354170084,0.00021001696586608887
1690821331829374500,2.78837451171875,-0.0019793640822172165,0.000011369585990905762,0.0007264036685228348
1690821331839414500,2.79841455078125,0.0008288244716823101,0.002193908905610442,0.0003479123115539551
1690821331849455600,2.80845556640625,-0.0000947597436606884,0.0010711201466619968,0.0006837360560894012
1690821331859495400,2.818495361328125,0.00015274574980139732,0.000726708211004734,0.0008813552558422089
1690821331869535500,2.828535400390625,0.0005413009785115719,0.001085968571715057,-0.0006739310920238495
1690821331879575600,2.838575439453125,-0.0006040618754923344,0.0004768545040860772,-0.0016561448574066162
1690821331889616400,2.848616455078125,-0.0013366974890232086,-0.0026992312632501125,-0.0013626646250486374
1690821331899656400,2.858656494140625,-0.001656008418649435,-0.0016283050645142794,0.0011782888323068619
1690821331909696500,2.868696533203125,-0.0005830209702253342,0.0011219412554055452,-0.0001809876412153244
1690821331919737600,2.878737548828125,0.0001894175074994564,0.0019070287235081196,0.0005640797317028046
1690821331929777400,2.88877734375,-0.00031525129452347755,0.00149184197653085,0.0010290686041116714
1690821331939817500,2.8988173828125,0.0004597418010234833,0.0013007787056267262,-0.0005934927612543106
1690821331949857500,2.908857421875,-0.0004973984323441982,-0.00047927815467119217,0.0006296969950199127
1690821331959898400,2.9188984375,0.0009318264201283455,0.0014286725781857967,-0.0002608001232147217
1690821331969938400,2.9289384765625,-0.00040428154170513153,0.000878729741089046,0.0010100603103637695
1690821331979978500,2.938978515625,0.00007001496851444244,-0.00024451175704598427,-0.00014237873256206512
1690821331990019600,2.94901953125,-0.00016487576067447662,-0.0007406584918498993,-0.0006302706897258759
1690821332000089300,2.95908935546875,-0.0007036090828478336,0.0011948099127039313,-0.0007044970989227295
1690821332010130400,2.96913037109375,-0.0008213208056986332,0.00042568903882056475,0.0007431972771883011
1690821332020170500,2.97917041015625,-0.000028931070119142532,0.0010419829050078988,-0.00004535168409347534
1690821332030210600,2.98921044921875,-0.0005490467883646488,-0.0010446037631481886,-0.002168424427509308
1690821332040251400,2.99925146484375,0.00011077104136347771,-0.000489761820062995,0.000800497829914093
1690821332050291500,3.00929150390625,0.0009262310341000557,0.0003672434249892831,0.0010990388691425323
1690821332060331500,3.01933154296875,0.0011809312272816896,0.001679382985457778,0.00010683014988899231
1690821332070371300,3.029371337890625,-0.0005557159893214703,0.00028734863735735416,-0.0005118232220411301
1690821332080412400,3.039412353515625,-0.0019345865584909916,-0.0003299426753073931,-0.0004574581980705261
1690821332090452500,3.049452392578125,0.00042124558240175247,0.0005742005305364728,0.0011377763003110886
1690821332100492500,3.059492431640625,0.0008540898561477661,-0.00034733465872704983,-0.0015334021300077438
1690821332110533400,3.069533447265625,-0.00045698462054133415,0.00014801323413848877,0.0008304193615913391
1690821332120573400,3.079573486328125,0.0008730324916541576,0.0013477262109518051,-0.0015761908143758774
1690821332130613500,3.089613525390625,-0.0005035558715462685,-0.0015114436391741037,-0.001139964908361435
1690821332140653600,3.099653564453125,-0.000537338200956583,0.0009633840527385473,0.00018128752708435059
1690821332150694700,3.109694580078125,-0.00023693358525633812,-0.0003415648825466633,-0.00018383190035820007
1690821332160734500,3.119734375,-0.00011139875277876854,0.0011431003222241998,0.0006015263497829437
1690821332170805500,3.129805419921875,-0.000009665731340646744,-0.0001626475714147091,0.0002803485840559006
1690821332180845600,3.139845458984375,0.00000838330015540123,0.0011622747406363487,-0.0003012288361787796
1690821332190885600,3.1498857421875,0.0010648590978235006,0.0008522827411070466,0.0010785553604364395
1690821332200926500,3.159926513671875,0.0002593160606920719,0.00010500242933630943,-0.0013017579913139343
1690821332210954800,3.169954833984375,0.0015118008013814688,0.0013569544535130262,-0.00018615834414958954
1690821332220994800,3.179994873046875,-0.0003575454466044903,0.002524163108319044,-0.0003710184246301651
1690821332231034600,3.19003466796875,-0.0017317365854978561,0.001153167919255793,-0.0005012471228837967
1690821332241075500,3.200075439453125,-0.00007258867844939232,0.00043248001020401716,0.0009547881782054901
1690821332251115500,3.210115478515625,0.00001982320100069046,0.0010953407036140561,-0.00030222348868846893
1690821332261155600,3.220155517578125,0.00010481523349881172,-0.0003424228634685278,-0.0015341006219387054
1690821332271196700,3.23019677734375,-0.0008587166666984558,-0.0008851750753819942,0.0023085735738277435
1690821332281236700,3.24023681640625,0.001042259857058525,-0.00023638224229216576,0.0018485356122255325
1690821332291276800,3.25027685546875,-0.001536212395876646,-0.0021519942674785852,0.0010828766971826553
1690821332301316900,3.26031689453125,0.0008656913414597511,0.0022883887868374586,-0.0019782502204179764
1690821332311357700,3.270357666015625,-0.00010955799371004105,-0.0013657344970852137,-0.0006988663226366043
1690821332321397500,3.2803974609375,0.00019705994054675102,0.000940064899623394,-0.0003530997782945633
1690821332331437600,3.2904375,0.0009451420046389103,0.001389606506563723,0.00035503506660461426
1690821332341508600,3.300508544921875,-0.000828778836876154,0.0014540661359205842,0.000753520056605339
1690821332351548700,3.310548583984375,0.0009550065733492374,0.0006183661753311753,-0.000750100240111351
1690821332361589800,3.32058984375,-0.0002529560588300228,0.0012955698184669018,0.002404790371656418
1690821332371629800,3.3306298828125,-0.00017412658780813217,-0.0004045921377837658,-0.0005313456058502197
1690821332381669600,3.340669677734375,-0.0007731085643172264,-0.0002814347390085459,0.0007467549294233322
1690821332391709400,3.35070947265625,-0.00007509393617510796,-0.0007187258452177048,-0.0012106671929359436
1690821332401750500,3.36075048828125,-0.0010870122350752354,0.0004051945870742202,0.0000983159989118576
1690821332411790600,3.37079052734375,0.00097747053951025,0.0017620751168578863,-0.00084737129509449
1690821332421830700,3.38083056640625,0.0005001779645681381,0.0006842492148280144,0.000038100406527519226
1690821332431871700,3.390871826171875,0.0002088281325995922,-0.001250803703442216,-0.000838080421090126
1690821332441911800,3.400911865234375,0.0011814069002866745,0.00008105509914457798,0.0013191606849431992
1690821332451951600,3.41095166015625,0.00038964906707406044,-0.00043799495324492455,-0.00001082196831703186
1690821332461991400,3.420991455078125,-0.0006231269799172878,0.0010374393314123154,0.00038831867277622223
1690821332472032500,3.431032470703125,0.0009361538104712963,-0.0014696605503559113,-0.0002841297537088394
1690821332482072600,3.441072509765625,-0.0004748268984258175,0.001097143511287868,0.0011197030544281006
1690821332492112600,3.451112548828125,-0.0005605807527899742,-0.0003180603962391615,0.0014688428491353989
1690821332502153700,3.46115380859375,0.00022028153762221336,0.00028954376466572285,0.001875065267086029
1690821332512223700,3.4712236328125,0.0009140348993241787,0.0013747818302363157,0.0007954183965921402
1690821332522264800,3.481264892578125,-0.00001712469384074211,-0.0016553860623389482,0.0009057335555553436
1690821332532304600,3.4913046875,0.0006113816052675247,-0.00003751576878130436,0.0014602039009332657
1690821332542344400,3.501344482421875,0.0002569034695625305,0.0009126184741035104,-0.0006427764892578125
1690821332552385500,3.511385498046875,-0.001259500626474619,0.0014239454176276922,0.0008435342460870743
1690821332562425600,3.521425537109375,-0.0009150244295597076,-0.0006452186498790979,-0.0009977277368307114
1690821332572465700,3.531465576171875,-0.000820748507976532,-0.0014196657575666904,-0.0007391348481178284
1690821332582505700,3.541505615234375,-0.0004928912967443466,0.0002984791062772274,-0.0007981173694133759
1690821332592546800,3.551546875,-0.0018857247196137905,0.0003589328844100237,-0.00016588158905506134
1690821332602586600,3.561586669921875,0.00005029933527112007,0.0012189081171527505,-0.00046661682426929474
1690821332612626400,3.57162646484375,-0.00019258074462413788,0.0009746962459757924,-0.001109769567847252
1690821332622667500,3.58166748046875,0.0006962800398468971,-0.0010746796615421772,-0.0024308059364557266
1690821332632707600,3.59170751953125,0.0012289122678339481,-0.00027706287801265717,-0.0008795149624347687
1690821332642747600,3.60174755859375,0.0021775432396680117,-0.0013197327498346567,-0.0015045497566461563
1690821332652787700,3.61178759765625,-0.0018821796402335167,-0.0018435765523463488,0.00029734522104263306
1690821332662828800,3.621828857421875,-0.0006294990889728069,-0.00046009616926312447,-0.0002677924931049347
1690821332672868600,3.63186865234375,-0.00004706578329205513,0.001086135278455913,-0.0005495548248291016
1690821332682939600,3.641939697265625,0.0002476256340742111,0.00025041261687874794,-0.0003730766475200653
1690821332692979500,3.6519794921875,0.0004644067957997322,-0.0009328299202024937,-0.0006820037961006165
1690821332703019500,3.66201953125,-0.000295017845928669,0.001169856172055006,-0.00033084675669670105
1690821332713060600,3.672060546875,0.0011153924278914928,0.0023238039575517178,-0.0005217958241701126
1690821332723100700,3.6821005859375,0.00014468003064393997,0.0008545825257897377,0.0008771326392889023
1690821332733140700,3.692140625,-0.00025452766567468643,0.0021153229754418135,0.0011538341641426086
1690821332743180500,3.7021806640625,0.000634348951280117,-0.0016612648032605648,0.0013730823993682861
1690821332753221600,3.7122216796875,-0.0009867176413536072,-0.0005416718777269125,0.00025162473320961
1690821332763261400,3.722261474609375,-0.0010990649461746216,-0.0025035704020410776,-0.0009432807564735413
1690821332773301500,3.732301513671875,-0.00002208258956670761,0.0013196638319641352,-0.0013025421649217606
1690821332783342600,3.742342529296875,-0.0003260844387114048,0.00004391651600599289,0.0013414397835731506
1690821332793382700,3.752382568359375,0.0001128045842051506,-0.0006919149309396744,-0.00035153329372406006
1690821332803422700,3.762422607421875,0.0010838229209184647,-0.0023383419029414654,-0.0010941121727228165
1690821332813462800,3.772462890625,-0.0007052887231111526,0.000117891700938344,0.0007943343371152878
1690821332823503600,3.782503662109375,-0.00084671750664711,-0.00026720110327005386,0.0007818005979061127
1690821332833543400,3.79254345703125,-0.0002613547258079052,-0.00031993165612220764,0.000589786097407341
1690821332843583500,3.80258349609375,-0.00030839256942272186,0.0007129078730940819,0.0014539267867803574
1690821332853654500,3.812654541015625,-0.00045167095959186554,-0.0005710020195692778,-0.0008052326738834381
1690821332863694600,3.822694580078125,0.0009529441595077515,0.00022246595472097397,-0.0006472151726484299
1690821332873735700,3.832735595703125,0.0007976819761097431,-0.0004451884888112545,-0.0005265753716230392
1690821332883775700,3.842775634765625,0.0006462773308157921,0.0028998302295804024,0.0006437711417675018
1690821332893815600,3.852815673828125,-0.0003766431473195553,0.0010705050081014633,-0.0015309657901525497
1690821332903855600,3.862855712890625,0.0009494079276919365,-0.0006916446145623922,-0.001047629863023758
1690821332913896400,3.872896484375,0.00222692615352571,0.00004152348265051842,-0.0002295076847076416
1690821332923936500,3.8829365234375,0.00001766858622431755,-0.00007882830686867237,0.0009948313236236572
1690821332933976600,3.8929765625,-0.001442276407033205,-0.0002926802262663841,0.0005428921431303024
1690821332944017700,3.903017578125,0.0009938396979123354,-0.0005776737816631794,0.0004095137119293213
1690821332954057700,3.9130576171875,0.0007698680274188519,0.0014050495810806751,0.0013639908283948898
1690821332964097800,3.923097900390625,0.0009969070088118315,-0.0007534059695899487,0.0007714331150054932
1690821332974137600,3.9331376953125,-0.0008899425156414509,-0.0005318308249115944,0.0005884729325771332
1690821332984178400,3.943178466796875,-0.0005398113280534744,-0.0008991672657430172,0.00048574618995189667
1690821332994218500,3.953218505859375,0.0005904342979192734,0.000012699048966169357,-0.0006546191871166229
1690821333004258600,3.963258544921875,0.000765693373978138,0.001160124782472849,0.0004096534103155136
1690821333014299600,3.973299560546875,0.001447995426133275,0.05914433300495148,-0.005143305286765099
1690821333024369700,3.98336962890625,0.07610934972763062,-0.05772067978978157,-0.21456094086170197
1690821333034410800,3.99341064453125,0.013704027980566025,-0.006342710927128792,-0.05099359154701233
1690821333044450600,4.003450439453125,0.009538311511278152,0.007998944260179996,-0.013911465182900429
1690821333054490600,4.01349072265625,-0.009560281410813332,-0.032539427280426025,-0.0017860941588878632
1690821333064531500,4.023531494140625,-0.018891828134655952,-0.03993342071771622,-0.002605842426419258
1690821333074571500,4.033571533203125,-0.023461278527975082,-0.07398806512355804,0.021598828956484795
1690821333084611600,4.043611572265625,-0.014561662450432777,-0.08096475899219513,0.011357191018760204
1690821333094651600,4.053651611328125,-0.01884721964597702,-0.07626934349536896,-0.02209637500345707
1690821333104692700,4.063692626953125,-0.00280930707231164,-0.14975079894065857,-0.038913480937480927
1690821333114732800,4.07373291015625,0.010187984444200993,-0.019207701086997986,-0.06075992435216904
1690821333124772600,4.083772705078125,0.013302638195455074,0.0037166522815823555,-0.05946517735719681
1690821333134813400,4.0938134765625,0.013771087862551212,0.015076632611453533,-0.05713837593793869
1690821333144853500,4.103853515625,0.00960177555680275,0.023218726739287376,-0.037795379757881165
1690821333154893600,4.1138935546875,0.004951630253344774,0.02865370735526085,-0.018250972032546997
1690821333164933600,4.12393359375,0.0002572811208665371,0.025621498003602028,0.0013756509870290756
1690821333174974700,4.133974609375,-0.0041364021599292755,0.01419946737587452,0.017596164718270302
1690821333185044500,4.14404443359375,-0.005713930353522301,0.0032745676580816507,0.03477902710437775
1690821333195085600,4.15408544921875,-0.005529372952878475,-0.008349331095814705,0.050478629767894745
1690821333205122000,4.1641220703125,-0.0038913008756935596,-0.014861555770039558,0.05627736076712608
1690821333215162000,4.174162109375,0.0009809518232941628,-0.0133664570748806,0.06018368527293205
1690821333225203000,4.184202880859375,0.0029359750915318727,-0.010532358661293983,0.05925203114748001
1690821333235243000,4.194242919921875,0.002812138060107827,-0.0023239634465426207,0.04672292247414589
1690821333245282800,4.20428271484375,0.0014128666371107101,0.010246563702821732,0.03247644752264023
1690821333255323000,4.214322998046875,-0.00008809100836515427,0.017377443611621857,0.015071893110871315
1690821333265364000,4.224364013671875,-0.000494041945785284,0.017859086394309998,-0.003972567617893219
1690821333275404000,4.234404052734375,-0.002322568092495203,0.014802842400968075,-0.02071799337863922
1690821333285444000,4.244444091796875,-0.001091791782528162,0.006293193902820349,-0.03169582039117813
1690821333295485000,4.25448486328125,0.0005609658546745777,-0.004218303132802248,-0.039582766592502594
1690821333305525000,4.26452490234375,0.0016033269930630922,-0.01282111182808876,-0.04177694767713547
1690821333315565000,4.27456494140625,0.0024997470900416374,-0.020146403461694717,-0.040756955742836
1690821333325604900,4.28460498046875,0.0006228853017091751,-0.01873118244111538,-0.036429136991500854
1690821333335646000,4.29464599609375,0.0022567345295101404,-0.013338815420866013,-0.029738210141658783
1690821333345686000,4.30468603515625,0.0021563409827649593,-0.004311686381697655,-0.02184709720313549
1690821333355757000,4.314757080078125,-0.0011467779986560345,0.0005411254242062569,-0.01198035292327404
1690821333365797000,4.324797119140625,0.0009961733594536781,0.007263243198394775,-0.0015984773635864258
1690821333375837200,4.334837158203125,-0.0006722970865666866,0.012779715470969677,0.00966163445264101
1690821333385878000,4.3448779296875,-0.00015737302601337433,0.013400783762335777,0.017995638772845268
1690821333395917800,4.354917724609375,0.0010421148035675287,0.009282737970352173,0.024576310068368912
1690821333405958000,4.3649580078125,0.00044569559395313263,0.004038656130433083,0.029761213809251785
1690821333415998000,4.374998046875,0.0007032230496406555,0.0021036032121628523,0.032817989587783813
1690821333426039000,4.3850390625,-0.00034539494663476944,-0.0027177694719284773,0.02764737792313099
1690821333436079000,4.3950791015625,-0.00004978431388735771,-0.006423025391995907,0.024198051542043686
1690821333446119200,4.405119140625,-0.0005180141888558865,-0.0044364300556480885,0.015203594230115414
1690821333456160000,4.415159912109375,0.0008963909931480885,-0.0030510537326335907,0.005120067857205868
1690821333466200000,4.425199951171875,-0.001409017015248537,0.00016413233242928982,-0.002193814143538475
1690821333476240000,4.435239990234375,0.0003156461752951145,0.0003569452092051506,-0.01347389817237854
1690821333486280000,4.445280029296875,-0.0001287907361984253,0.004282273817807436,-0.019626537337899208
1690821333496321000,4.455321044921875,0.0018989401869475842,0.0038670869544148445,-0.02253311313688755
1690821333506361000,4.465361083984375,-0.00041952216997742653,-0.00010275957174599171,-0.02460220828652382
1690821333516401200,4.475401123046875,-0.0006717233918607235,-0.0028559353668242693,-0.02303413674235344
1690821333526472200,4.48547216796875,-0.0005574296228587627,-0.004823674447834492,-0.018265804275870323
1690821333536512000,4.495511962890625,0.0011424659751355648,-0.00657550198957324,-0.01433098129928112
1690821333546552800,4.505552734375,0.000718582421541214,-0.008105781860649586,-0.007735585793852806
1690821333556593000,4.515593017578125,-0.0009802477434277534,-0.004516906104981899,-0.001097923144698143
1690821333566633000,4.525633056640625,-0.0007866383530199528,-0.0011824166867882013,0.00362231582403183
1690821333576674000,4.535674072265625,0.0007199118845164776,0.0034379013814032078,0.01092976238578558
1690821333586714000,4.545714111328125,0.0002784924581646919,0.004589464049786329,0.012291628867387772
1690821333596754200,4.555754150390625,-0.0006887679919600487,0.005411582067608833,0.016703687608242035
1690821333606794200,4.565794189453125,0.0010158782824873924,0.005369171500205994,0.018015608191490173
1690821333616835000,4.5758349609375,-0.0006810878403484821,0.004405373241752386,0.01499025709927082
1690821333626875000,4.585875,0.0005934140644967556,0.0022067769896239042,0.013442402705550194
1690821333636915000,4.5959150390625,-0.0006667939014732838,0.00042751897126436234,0.008286523632705212
1690821333646956000,4.6059560546875,0.00022221170365810394,-0.00026297615841031075,0.0048459479585289955
1690821333656996000,4.61599609375,0.0005689552053809166,-0.0025562243536114693,0.0006224401295185089
1690821333667036200,4.6260361328125,0.0014478431548923254,-0.0007616917137056589,-0.004443095996975899
1690821333677076200,4.636076171875,-0.0016315700486302376,-0.0015606400556862354,-0.009862096980214119
1690821333687117000,4.646116943359375,-0.00014650309458374977,-0.0009623365476727486,-0.01114119403064251
1690821333697187000,4.65618701171875,0.00046469224616885185,-0.0003226452972739935,-0.014198770746588707
1690821333707228000,4.666227783203125,0.0001438753679394722,-0.0014590250793844461,-0.012465009465813637
1690821333717268000,4.67626806640625,-0.00044841179624199867,0.0014986814931035042,-0.010528091341257095
1690821333727308000,4.68630810546875,0.0017323580104857683,0.0017173660453408957,-0.007479775696992874
1690821333737349000,4.69634912109375,-0.0005172141827642918,-0.001146597322076559,-0.004792645573616028
1690821333747389200,4.70638916015625,0.00008337199687957764,0.0001741042360663414,-0.0007237643003463745
1690821333757429000,4.716428955078125,-0.0006556552834808826,-0.0008765128441154957,0.001721017062664032
1690821333767469000,4.726468994140625,-0.0006154393777251244,-0.0004154669586569071,0.006102139130234718
1690821333777510000,4.736510009765625,0.0022663669660687447,-0.00008310424163937569,0.007961824536323547
1690821333787550000,4.746550048828125,-0.0004975078627467155,0.0008645920315757394,0.009301496669650078
1690821333797590000,4.756590087890625,0.00018772389739751816,0.0017713983543217182,0.009200030006468296
1690821333807631000,4.766631103515625,-0.0007086717523634434,0.002965180203318596,0.009905579499900341
1690821333817671200,4.776671142578125,0.0010111976880580187,0.002426689025014639,0.00653108861297369
1690821333827711200,4.786711181640625,0.00041742436587810516,0.001685046823695302,0.005203203298151493
1690821333837750800,4.796750732421875,-0.0004600873216986656,-0.0004936852492392063,0.002254284918308258
1690821333847791900,4.8067919921875,0.0011738806497305632,0.00027800630778074265,0.0008549969643354416
1690821333857832000,4.81683203125,-0.0006069750525057316,-0.0008802025113254786,-0.004288632422685623
1690821333867903000,4.826903076171875,-0.000912833958864212,-0.0013910755515098572,-0.005081599578261375
1690821333877943000,4.836943115234375,0.0008376617915928364,0.0008579639252275229,-0.008936524391174316
1690821333887983000,4.846983154296875,-0.0006182920187711716,-0.00277515035122633,-0.007658578455448151
1690821333898024200,4.857024169921875,-0.0002366611734032631,-0.0006448875647038221,-0.00831344909965992
1690821333908064000,4.86706396484375,0.0009061926975846291,-0.0002545879688113928,-0.005960403010249138
1690821333918103800,4.877103759765625,0.000023354776203632355,0.00022957473993301392,-0.004728425294160843
1690821333928144000,4.887143798828125,0.0004478432238101959,0.0010505745885893703,-0.0035266224294900894
1690821333938185000,4.89718505859375,0.0010390649549663067,0.0011288715759292245,0.00030060671269893646
1690821333948225000,4.90722509765625,0.0011564502492547035,0.0006928479997441173,-0.000497499480843544
1690821333958265000,4.91726513671875,-0.0005128192715346813,0.00007499451749026775,0.003626404330134392
1690821333968306200,4.92730615234375,0.0008561545982956886,0.000854785437695682,0.006314514204859734
1690821333978346000,4.937345947265625,-0.0004977965727448463,0.0004209565231576562,0.005471357144415379
1690821333988385800,4.9473857421875,-0.0004331739619374275,-0.0001663658767938614,0.005874764174222946
1690821333998425900,4.95742578125,-0.0008560838177800179,-0.000911784591153264,0.004738394170999527
1690821334008467000,4.967467041015625,-0.000023013446480035782,0.0011060757096856833,0.005843693390488625
1690821334018507000,4.977507080078125,-0.00007867347449064255,0.0027851988561451435,0.005340621806681156
1690821334028578000,4.987578125,-0.00034617818892002106,-0.0005795462056994438,0.0015301872044801712
1690821334038618000,4.9976181640625,-0.000680138822644949,0.0012569696409627795,-0.0005766395479440689
1690821334048658000,5.007657958984375,0.00045999977737665176,0.0012337872758507729,-0.0016607381403446198
1690821334058699000,5.017698974609375,0.0010485583916306496,-0.0016466877423226833,-0.005779050290584564
1690821334068738800,5.02773876953125,0.0002826862037181854,-0.0003393290098756552,-0.003176417201757431
1690821334078779000,5.03777880859375,0.00043581798672676086,-0.0014890157617628574,-0.005291765555739403
1690821334088820000,5.047820068359375,-0.0005253627896308899,-0.0007240616250783205,-0.005192631855607033
1690821334098860000,5.057860107421875,-0.001305935438722372,-0.0009333861526101828,-0.0030565112829208374
1690821334108900000,5.067900146484375,-0.0003020004369318485,-0.0006313056219369173,-0.0027969777584075928
1690821334118940200,5.077940185546875,0.0017156102694571018,-0.0016936406027525663,-0.002392176538705826
1690821334128981000,5.08798095703125,-0.0018683234229683876,0.0006157091120257974,-0.0003730710595846176
1690821334139020800,5.098020751953125,-0.0002627032808959484,0.00029772764537483454,0.001346265897154808
1690821334149060900,5.108060791015625,0.0005539036355912685,0.001586715574376285,0.001982675865292549
1690821334159102000,5.11810205078125,0.0008628303185105324,-0.0011914940550923347,0.0006489641964435577
1690821334169142000,5.12814208984375,-0.0016657221131026745,-0.00017592543736100197,0.002681821584701538
1690821334179182000,5.13818212890625,-0.0006433343514800072,-0.0003351825289428234,0.0017332043498754501
1690821334189222100,5.14822216796875,-0.00022299448028206825,0.0005955477245151997,0.002613810822367668
1690821334199293000,5.15829296875,0.0009341491386294365,-0.0005496116355061531,0.001008991152048111
1690821334209341000,5.1683408203125,0.00011107791215181351,0.0014511668123304844,0.0021489225327968597
1690821334219381800,5.1783818359375,-0.001706796232610941,-0.00023248372599482536,0.0007864478975534439
1690821334229421800,5.188421875,-0.0008279005996882915,-0.00002056756056845188,0.00007085688412189484
1690821334239462000,5.1984619140625,0.0010397741571068764,0.00009448104538023472,-0.0011616535484790802
1690821334249503000,5.2085029296875,0.00008512288331985474,-0.001581190386787057,-0.0031635314226150513
1690821334259543000,5.21854296875,0.00017274077981710434,-0.0012112774420529604,-0.0033440925180912018
1690821334269583000,5.2285830078125,-0.001090222503989935,-0.0005165401380509138,-0.0019607357680797577
1690821334279623000,5.238622802734375,0.00042271940037608147,-0.0002283861394971609,-0.0019969549030065536
1690821334289663700,5.248663818359375,0.00016881152987480164,-0.0016761883161962032,-0.0012708436697721481
1690821334299703800,5.258703857421875,0.0005243434570729733,0.0011760572670027614,-0.0013736411929130554
1690821334309743900,5.268743896484375,0.0008491505868732929,0.000038478756323456764,-0.00009932555258274078
1690821334319785000,5.278784912109375,0.0006890948861837387,0.0004035981837660074,0.0014202743768692017
1690821334329825000,5.288824951171875,0.000127316452562809,-0.0005946853198111057,-0.0007794220000505447
1690821334339865000,5.298864990234375,-0.0007608481682837009,0.002406963612884283,0.005738130770623684
1690821334349905000,5.30890478515625,-0.0008249413222074509,0.0007815221324563026,0.002199852839112282
1690821334359945700,5.31894580078125,-0.0016989908181130886,-0.0005412700120359659,0.0015625599771738052
1690821334370015700,5.329015625,0.0009917181450873613,0.0013517711777240038,0.0006891731172800064
1690821334380056800,5.339056884765625,0.0011650898959487677,0.0007275261450558901,-0.0004677046090364456
1690821334390097000,5.349096923828125,0.00034245336428284645,0.000579940271563828,0.00048567913472652435
1690821334400137000,5.359136962890625,-0.0008085649460554123,0.0013312180526554585,0.0017067380249500275
1690821334410178000,5.369177978515625,0.0005962536670267582,0.0013484642840921879,-0.0014093704521656036
1690821334420218000,5.379218017578125,-0.00070230383425951,-0.001194854499772191,-0.0017856750637292862
1690821334430258000,5.3892578125,-0.0002001025713980198,-0.001523057697340846,-0.0033138971775770187
1690821334440297700,5.399297607421875,0.0005767415277659893,-0.0007643229328095913,-0.0007090587168931961
1690821334450338800,5.4093388671875,-0.0005040406249463558,-0.00254710391163826,-0.0017287731170654297
1690821334460379000,5.41937890625,-0.0007264148443937302,0.0003400292480364442,0.00027925148606300354
1690821334470419000,5.4294189453125,0.00014036986976861954,-0.000688877422362566,0.000050749629735946655
1690821334480460000,5.4394599609375,-0.0007760240696370602,-0.0008862176910042763,0.001088850200176239
1690821334490500000,5.4495,0.00005251029506325722,-0.000123622827231884,-0.0013354234397411346
1690821334500540000,5.459539794921875,5.788169801235199e-7,0.0021818755194544792,-0.000453384593129158
1690821334510579700,5.469579833984375,-0.0008690268732607365,-0.0016788297798484564,0.001016613095998764
1690821334520620800,5.479620849609375,-0.0004975162446498871,0.0012892632512375712,0.00024110078811645508
1690821334530660900,5.489660888671875,-0.0005838209763169289,0.0007485180394724011,-0.00037482380867004395
1690821334540732000,5.49973193359375,0.0007184646092355251,-0.0010472515132278204,0.0009495671838521957
1690821334550772000,5.50977197265625,0.0006681680679321289,0.002436778275296092,0.001265883445739746
1690821334560811800,5.519811767578125,-0.00006553297862410545,0.001603208831511438,0.002383878454566002
1690821334570853000,5.52985302734375,-0.0008536973036825657,0.0008260603062808514,0.0007006246596574783
1690821334580893000,5.539892822265625,-0.0004321187734603882,0.0004891704302281141,0.001324603334069252
1690821334590932700,5.5499326171875,0.001052351202815771,-0.0032880299258977175,-0.0005823485553264618
1690821334600973800,5.559973876953125,0.00009494507685303688,0.0010822174372151494,-0.00032535381615161896
1690821334611014000,5.570013916015625,0.0011366319376975298,0.0013404929777607322,-0.0007819049060344696
1690821334621054000,5.580053955078125,-0.00039681605994701385,-0.00010666879825294018,-0.001218663528561592
1690821334631094000,5.590093994140625,0.0004956498742103577,0.00038999435491859913,-0.0011603869497776031
1690821334641135000,5.600135009765625,0.00021974602714180946,-0.000027322908863425255,-0.0025319159030914307
1690821334651174700,5.610174560546875,0.0011005220003426075,0.00022581801749765873,0.00036806054413318634
1690821334661214700,5.620214599609375,-0.00024277623742818832,0.0011747024254873395,-0.0003952011466026306
1690821334671254800,5.6302548828125,-0.00016362639144062996,0.0011546092573553324,0.00045275501906871796
1690821334681296000,5.6402958984375,0.00033731386065483093,0.000656331772916019,-0.00023806840181350708
1690821334691336000,5.6503359375,-0.00028643105179071426,-0.002489452948793769,-0.0008681919425725937
1690821334701376000,5.6603759765625,0.00005871430039405823,0.0008810434956103563,0.0008194539695978165
1690821334711446800,5.67044677734375,-0.0013397708535194397,0.0010749323992058635,0.0008807461708784103
1690821334721486800,5.68048681640625,0.0022879871539771557,0.0007676036329939961,-0.00034217722713947296
1690821334731527700,5.690527587890625,-0.0003177211619913578,0.0006250104634091258,0.0013412069529294968
1690821334741567700,5.700567626953125,-0.001826401799917221,0.000034587690606713295,0.0005324054509401321
1690821334751607800,5.71060791015625,-0.00022240914404392242,-0.000059338053688406944,-0.0005998630076646805
1690821334761649000,5.72064892578125,-0.0005760770291090012,0.0011976738460361958,0.0007000267505645752
1690821334771689000,5.73068896484375,0.00009363889694213867,0.0005321416538208723,0.0021158400923013687
1690821334781729000,5.74072900390625,-0.0012983954511582851,-0.0012985151261091232,-0.0008988566696643829
1690821334791768800,5.750768798828125,-0.00009271688759326935,0.00035770132672041655,0.00027547404170036316
1690821334801809700,5.7608095703125,-0.0018794317729771137,-0.0005546975880861282,-0.002099268138408661
1690821334811849700,5.770849609375,0.0009567178785800934,-0.00014833942987024784,-0.00006685592234134674
1690821334821889800,5.780889892578125,-0.0006097536534070969,0.0007462165085598826,-0.0005491543561220169
1690821334831931000,5.790930908203125,0.0002485089935362339,0.002516986569389701,-0.0006371065974235535
1690821334841971000,5.800970947265625,-0.0003768010064959526,0.0010178930824622512,0.0013093985617160797
1690821334852011000,5.811010986328125,-0.00032674940302968025,0.001481871586292982,-0.0005364492535591125
1690821334862050800,5.82105078125,-0.001764324028044939,-0.00004332093521952629,-0.0009207446128129959
1690821334872121900,5.831121826171875,-0.00017849402502179146,0.00002108863554894924,0.001852652058005333
1690821334882162000,5.841161865234375,-0.00022936007007956505,-0.0015190176200121641,-0.0001324675977230072
1690821334892202800,5.85120263671875,0.00017021596431732178,0.000603641732595861,0.0015883222222328186
1690821334902242800,5.861242919921875,-0.0006449776701629162,0.0002537023974582553,0.000547291710972786
1690821334912283000,5.871282958984375,0.00001836707815527916,0.00021639536134898663,0.0003260131925344467
1690821334922324000,5.881323974609375,-0.0006428956985473633,0.0006819159025326371,0.0012756958603858948
1690821334932364000,5.891364013671875,-0.0002018054947257042,0.0008596096886321902,-0.00009707920253276825
1690821334942403800,5.90140380859375,-0.00006012525409460068,-0.000616580480709672,0.00021451152861118317
1690821334952444000,5.91144384765625,-0.0002153795212507248,0.000019889092072844505,0.0001682918518781662
1690821334962484700,5.921484619140625,-0.00012829387560486794,0.0006481288000941277,-0.0003313180059194565
1690821334972524800,5.93152490234375,0.00003721658140420914,-0.0008838914800435305,-0.0008776858448982239
1690821334982564900,5.94156494140625,-0.00015240022912621498,-0.000017298851162195206,-0.001656658947467804
1690821334992606000,5.95160595703125,0.00030382396653294563,-0.0005524272564798594,0.00014703534543514252
1690821335002646000,5.96164599609375,-0.0010256259702146053,-0.0004893103614449501,-0.0010210257023572922
1690821335012685800,5.971685791015625,0.0010585971176624298,-0.000979778589680791,-0.0016821902245283127
1690821335022726000,5.981725830078125,-0.0005994867533445358,-0.0005906906444579363,0.0002581886947154999
1690821335032766700,5.9917666015625,0.00039664143696427345,-0.0004437470342963934,0.0017576590180397034
1690821335042837800,6.001837646484375,0.000803572591394186,0.0006007448537275195,0.000007430091500282288
1690821335052877800,6.0118779296875,-0.0006110253743827343,0.001359521527774632,0.0005818251520395279
1690821335062918000,6.02191796875,-0.0004094243049621582,0.0004319425206631422,0.0007200427353382111
1690821335072958000,6.0319580078125,0.0007976116612553596,-0.000868478324264288,0.0007680561393499374
1690821335082999000,6.0419990234375,-0.002511632163077593,-0.0009592920541763306,-0.0010167937725782394
1690821335093038800,6.052038818359375,0.00010708346962928772,-0.0019545401446521282,-0.0012190844863653183
1690821335103079000,6.062078857421875,-0.0006585749797523022,-0.001636292552575469,0.00014765001833438873
1690821335113119700,6.07211962890625,0.0011438243091106415,0.0020591765642166138,-0.0003433283418416977
1690821335123159800,6.082159912109375,0.0016615428030490875,0.00002079317346215248,0.0021200943738222122
1690821335133200000,6.092199951171875,0.0004307962954044342,0.0010426229564473033,-0.0007892940193414688
1690821335143240000,6.102239990234375,-0.0001638876274228096,0.0005792329320684075,0.00016251951456069946
1690821335153281000,6.112281005859375,-0.00020224042236804962,-0.0013102688826620579,0.002398325130343437
1690821335163320800,6.12232080078125,0.0006132195703685284,-0.0022093518637120724,0.0012505017220973969
1690821335173361000,6.13236083984375,0.000008568167686462402,-0.001551896333694458,-0.00014047883450984955
1690821335183401000,6.14240087890625,-0.00015175435692071915,-0.0005026110447943211,-0.00006537884473800659
1690821335193441800,6.15244189453125,0.00016507459804415703,0.0003811650676652789,-0.0002233106642961502
1690821335203481900,6.16248193359375,-0.00013905856758356094,-0.0024625584483146667,-0.0004321020096540451
1690821335213536800,6.172536865234375,0.0011047739535570145,-0.0007125812117010355,-0.00040277838706970215
1690821335223576800,6.182576904296875,0.0007694819942116737,-0.0004939357750117779,-0.0006211567670106888
1690821335233617000,6.192616943359375,-0.001253555528819561,0.001154363970272243,0.00024066120386123657
1690821335243657700,6.20265771484375,0.0004029306583106518,-0.0008408762514591217,0.0014201737940311432
1690821335253697500,6.212697509765625,-0.0007036896422505379,0.0012291064485907555,0.00004359334707260132
1690821335263737600,6.222737548828125,0.00014639133587479591,-0.0005163291934877634,-0.0010898467153310776
1690821335273778700,6.23277880859375,-0.0004978356882929802,-0.0011567939072847366,-0.0002482254058122635
1690821335283818800,6.24281884765625,0.0010547870770096779,-0.0014840962830930948,0.0009243655949831009
1690821335293858800,6.25285888671875,-0.0009884475730359554,-0.00008310610428452492,0.0012729223817586899
1690821335303899000,6.26289892578125,0.0017727180384099483,-0.00022105779498815536,-0.0011793170124292374
1690821335313939700,6.272939697265625,0.0014061031397432089,0.0007402305491268635,0.0011913757771253586
1690821335323979500,6.2829794921875,-0.00012947572395205498,0.001077919383533299,0.00010267458856105804
1690821335334019600,6.29301953125,-0.00038972729817032814,-0.0001451356802135706,-0.0005157589912414551
1690821335344060700,6.303060791015625,0.002232154831290245,-0.00019893143326044083,-0.002067849040031433
1690821335354100700,6.313100830078125,0.0002639070153236389,0.0009563991334289312,-0.0013685915619134903
1690821335364140800,6.323140869140625,0.0014625957701355219,-0.001382921589538455,-0.0005747023969888687
1690821335374180900,6.333180908203125,-0.00031672604382038116,-0.00044044526293873787,0.0003244727849960327
1690821335384251600,6.343251708984375,0.0004404108040034771,-0.00040156301110982895,0.0015034545212984085
1690821335394291700,6.353291748046875,0.0013039365876466036,-0.0026822274085134268,0.000378929078578949
1690821335404332500,6.36333251953125,0.000015232712030410767,-0.00027206679806113243,-0.0005619656294584274
1690821335414372600,6.37337255859375,0.00035084737464785576,-0.0010085003450512886,0.00015226006507873535
1690821335424412700,6.38341259765625,0.00047921203076839447,0.0031271225307136774,0.0005466751754283905
1690821335434453800,6.393453857421875,0.0005388297140598297,-0.00010926835238933563,-0.0009616166353225708
1690821335444493800,6.403493896484375,-0.0013418947346508503,-0.0005518856924027205,0.0013215113431215286
1690821335454534000,6.413533935546875,-0.0013933172449469566,0.00011499063111841679,-0.001690991222858429
1690821335464573700,6.42357373046875,0.0001670289784669876,-0.00011617178097367287,-0.0015024393796920776
1690821335474614500,6.433614501953125,-0.0010846289806067944,0.00023849308490753174,-0.0005644336342811584
1690821335484654600,6.443654541015625,-0.0005203047767281532,0.0013980334624648094,0.00013384781777858734
1690821335494694700,6.453694580078125,-0.0008321823552250862,0.0002012820914387703,-0.0008793901652097702
1690821335504735700,6.46373583984375,-0.0005640019662678242,-0.0005494630895555019,-0.00015687383711338043
1690821335514775800,6.47377587890625,-0.0014022951945662498,-0.0002756919711828232,-0.0003500841557979584
1690821335524816000,6.48381591796875,-0.00006272504106163979,0.0011035591596737504,0.0007892157882452011
1690821335534855700,6.493855712890625,-0.00022716959938406944,0.00036479788832366467,0.0004558190703392029
1690821335544926700,6.5039267578125,-0.0006535416468977928,0.0015208760742098093,0.0004164036363363266
1690821335554967600,6.513967529296875,0.00018461234867572784,0.00023666361812502146,-0.0008699279278516769
1690821335565007600,6.524007568359375,-0.0007733264937996864,-0.000246700132265687,-0.0000896211713552475
1690821335575047700,6.534047607421875,0.0009166705422103405,-0.00036046770401299,-0.0009270664304494858
1690821335585087700,6.544087646484375,-0.0003326181322336197,0.0005135817918926477,-0.0016471855342388153
1690821335595128800,6.55412890625,0.0002984474413096905,0.0006419690325856209,-0.000600060448050499
1690821335605169000,6.5641689453125,0.0006150971166789532,0.0021368013694882393,-0.00017715059220790863
1690821335615208700,6.574208740234375,-0.001858206931501627,-0.0001839867327362299,-0.0011949185281991959
1690821335625249500,6.58424951171875,0.002270757919177413,-0.00015389290638267994,0.00013533048331737518
1690821335635289600,6.59428955078125,0.0011983024887740612,0.0018219921039417386,0.00003532692790031433
1690821335645329700,6.60432958984375,-0.0004493952728807926,0.0014683243352919817,-0.00023738108575344086
1690821335655369700,6.61436962890625,0.0007607238367199898,0.0014105230802670121,-0.00001634657382965088
1690821335665410800,6.624410888671875,0.000212112907320261,-0.001823086990043521,0.0008816700428724289
1690821335675451000,6.634450927734375,0.00018230732530355453,-0.0004484353121370077,0.0005655959248542786
1690821335685490700,6.64449072265625,-0.001824650913476944,0.00009511574171483517,-0.0005023311823606491
1690821335695530800,6.65453076171875,0.00028314581140875816,-0.0013851271942257881,0.00020486488938331604
1690821335705571600,6.664571533203125,0.0003190985880792141,-0.0005944345612078905,0.0010869037359952927
1690821335715642600,6.674642578125,0.0007212101481854916,-0.0016538109630346298,0.000896817073225975
1690821335725682700,6.6846826171875,-0.00026948610320687294,0.0011140123242512345,-0.00012024492025375366
1690821335735722800,6.69472265625,0.0010015610605478287,-0.0014323708601295948,0.0007309000939130783
1690821335745762800,6.7047626953125,0.0004060780629515648,0.0009602131322026253,-0.00012610480189323425
1690821335755804000,6.714803955078125,0.0005857590585947037,-0.0009668548591434956,0.00007982179522514343
1690821335765843700,6.72484375,0.00021211756393313408,-0.0002509972546249628,0.0009666550904512405
1690821335775883800,6.7348837890625,0.00037055788561701775,-0.0008705221116542816,0.00011469796299934387
1690821335785924600,6.744924560546875,0.0006248899735510349,-0.0015384429134428501,-0.0006288550794124603
1690821335795964700,6.754964599609375,-0.00048032402992248535,0.0006533318664878607,0.0024109147489070892
1690821335806004700,6.765004638671875,0.001466979505494237,0.00036597682628780603,-0.000055704265832901
1690821335816044800,6.775044921875,-0.00016270391643047333,0.0015462037408724427,0.00026402994990348816
1690821335826086000,6.7850859375,0.00020933989435434341,0.0022980140056461096,-0.0004571545869112015
1690821335836125700,6.795125732421875,0.0005528368055820465,-0.0004939273931086063,-0.001628747209906578
1690821335846165800,6.805165771484375,-0.0006738151423633099,0.0007729382487013936,0.002104204148054123
1690821335856206600,6.81520654296875,-0.0003656107001006603,-0.001698867417871952,0.00014818832278251648
1690821335866246700,6.82524658203125,0.0015651809517294168,-0.0006623649969696999,-0.002581285312771797
1690821335876286700,6.83528662109375,-0.000542590394616127,-0.00014227349311113358,0.0018641669303178787
1690821335886357800,6.845357666015625,-0.0015290253795683384,0.0006020801374688745,0.0007829237729310989
1690821335896397800,6.855397705078125,-0.00041296985000371933,-0.0016384613700211048,-0.0016893371939659119
1690821335906437600,6.865437744140625,0.0010451108682900667,0.0010867513483390212,-0.0005479063838720322
1690821335916478700,6.875478759765625,-0.001458827406167984,0.0010632033227011561,-0.000984691083431244
1690821335926518800,6.885518798828125,0.0011875559575855732,-0.0022702752612531185,-0.0008936114609241486
1690821335936558800,6.895558837890625,-0.0010867929086089134,0.0010048298863694072,0.0035459641367197037
1690821335946599700,6.905599609375,0.0010679708793759346,-0.00032328860834240913,0.00154087133705616
1690821335956639700,6.9156396484375,-0.001482117921113968,0.0001254882663488388,0.00019309669733047485
1690821335966679800,6.9256796875,-0.0007841032929718494,-0.0010625477880239487,-0.0014229100197553635
1690821335976719600,6.9357197265625,0.0007608751766383648,-0.0006850052159279585,-0.00041899271309375763
1690821335986760700,6.9457607421875,0.0009973635897040367,-0.0024807744193822145,-0.0011548232287168503
1690821335996800800,6.95580078125,0.00014889799058437347,0.0016452377894893289,0.0004640743136405945
1690821336006840800,6.9658408203125,0.0011981837451457977,-0.0008554705418646336,0.00020015425980091095
1690821336016881700,6.975881591796875,0.0008006123825907707,-0.0015879019629210234,-0.001465972512960434
1690821336026921700,6.985921630859375,-0.0018404447473585606,-0.0008978769183158875,-0.000161023810505867
1690821336036961800,6.9959619140625,-0.00009348476305603981,0.00013829045929014683,-0.0015016812831163406
1690821336047032600,7.006032470703125,-0.000011991709470748901,-0.001633776817470789,-0.0005048606544733047
1690821336057072600,7.01607275390625,0.0008255178108811378,-0.0007539847865700722,-0.00018527917563915253
1690821336067113700,7.02611376953125,-0.0018501603044569492,0.003147546201944351,0.001016339287161827
1690821336077153800,7.03615380859375,-0.0004270472563803196,-0.0011620658915489912,-0.000477764755487442
1690821336087193600,7.046193603515625,-0.00014768168330192566,0.00015167146921157837,0.00017550960183143616
1690821336097233700,7.056233642578125,0.0005867192521691322,0.0013644015416502953,-0.00045369192957878113
1690821336107274800,7.066274658203125,-0.00034458842128515244,0.000965193728916347,-0.0006550271064043045
1690821336117314800,7.076314697265625,0.0001940615475177765,0.0009798682294785976,0.0009147543460130692
1690821336127354600,7.086354736328125,-0.0004882402718067169,-0.000574352452531457,0.0011901259422302246
1690821336137395700,7.096395751953125,-0.0002798321656882763,-0.00028000352904200554,-0.00013650581240653992
1690821336147435800,7.106435791015625,-0.00016611535102128983,0.0009386588353663683,-0.0017240159213542938
1690821336157475600,7.1164755859375,-0.0007993131875991821,-0.00015339325182139874,0.0009317081421613693
1690821336167515600,7.126515625,0.0008635646663606167,-0.001674590865150094,0.00012636743485927582
1690821336177556700,7.136556640625,0.0010193036869168282,0.0007905435049906373,-0.0004536472260951996
1690821336187596800,7.1465966796875,-0.0002827160060405731,-0.0007263929583132267,0.00006167590618133545
1690821336197636600,7.15663671875,0.001001142431050539,-0.0001674110535532236,0.000385800376534462
1690821336207678200,7.16667822265625,-0.00057225301861763,0.0008443237747997046,0.00037408247590065
1690821336217749200,7.176749267578125,0.0001159929670393467,-0.0026405537500977516,-0.001306481659412384
1690821336227790300,7.186790283203125,0.00037192273885011673,0.0001453789882361889,0.0003340262919664383
1690821336237830400,7.196830322265625,-0.0004521752707660198,-0.0010851083789020777,0.0005382709205150604
1690821336247870500,7.206870361328125,-0.00003459164872765541,-0.0012385065201669931,-0.0004966333508491516
1690821336257910300,7.21691015625,0.0015926023479551077,0.0013877707533538342,-0.0009836722165346146
1690821336267951400,7.226951416015625,0.0006285379640758038,-0.0002495406661182642,-0.0002140197902917862
1690821336277991200,7.2369912109375,-0.0012727766297757626,0.0024474102538079023,0.00021716393530368805
1690821336288031200,7.24703125,0.00218081078492105,-0.0013566489797085524,0.0015687178820371628
1690821336298072300,7.257072265625,-0.0007254122756421566,-0.0014170575886964798,-0.00020872615277767181
1690821336308112400,7.2671123046875,0.0011680955067276955,0.002338266000151634,0.0009231176227331161
1690821336318152400,7.27715234375,-0.0002283579669892788,-0.0009603770449757576,0.0008137393742799759
1690821336328192300,7.287192138671875,0.0007759202271699905,0.0000247263815253973,0.0005096066743135452
1690821336338233300,7.2972333984375,-0.00022565340623259544,-0.0003730878233909607,-0.0002667456865310669
1690821336348273200,7.307273193359375,0.0003999229520559311,-0.0014729732647538185,-0.0019602496176958084
1690821336358313200,7.317313232421875,-0.00043803872540593147,0.000690184417180717,0.002083510160446167
1690821336368354300,7.327354248046875,0.0011294980067759752,0.0001823196653276682,0.0012403540313243866
1690821336378394400,7.337394287109375,-0.00016055908054113388,-0.001175139332190156,-0.0002858266234397888
1690821336388465400,7.34746533203125,0.000441049225628376,-0.0011077614035457373,0.0014324449002742767
1690821336398505500,7.35750537109375,-0.00116310128942132,-0.00009554252028465271,0.0019646398723125458
1690821336408545300,7.367545166015625,-0.0005356604233384132,0.0004882224602624774,-0.0005730856209993362
1690821336418585300,7.37758544921875,-0.0006808196194469929,0.0007373084081336856,0.0004526842385530472
1690821336428626200,7.387626220703125,0.0010233370121568441,-0.0005633793771266937,-0.0007505323737859726
1690821336438666200,7.397666259765625,0.0001361258327960968,-0.00004957616329193115,0.0008380915969610214
1690821336448706300,7.407706298828125,-0.0006042327731847763,0.0012905264738947153,0.0006796326488256454
1690821336458747400,7.417747314453125,-0.0006288113072514534,-0.0011218716390430927,0.00032701343297958374
1690821336468787500,7.427787353515625,-0.001529758796095848,0.10411667078733444,-0.017639202997088432
1690821336478827300,7.4378271484375,0.04989822208881378,0.18184708058834076,-0.016381220892071724
1690821336488867300,7.447867431640625,0.0051965308375656605,-0.01726176030933857,-0.03593441843986511
1690821336498908200,7.457908203125,-0.000988685991615057,-0.0761173740029335,-0.04182588309049606
1690821336508948200,7.4679482421875,-0.0061719962395727634,-0.1320706605911255,-0.029918627813458443
1690821336518988300,7.47798828125,-0.012598296627402306,-0.18252144753932953,-0.03123847208917141
1690821336529029400,7.488029296875,-0.011395346373319626,-0.14709022641181946,-0.0060106124728918076
1690821336539069400,7.4980693359375,-0.009334810078144073,-0.11587739735841751,-0.005864497274160385
1690821336549140500,7.508140380859375,-0.005788279231637716,-0.04431692138314247,-0.020603496581315994
1690821336559180300,7.51818017578125,0.0017591605428606272,0.021358324214816093,-0.015287866815924644
1690821336569220400,7.528220458984375,0.009674607776105404,0.07653448730707169,-0.02026798017323017
1690821336579261200,7.53826123046875,0.015018779784440994,0.11291912198066711,-0.007971689105033875
1690821336589301200,7.54830126953125,0.012553492560982704,0.1328137367963791,-0.00011083483695983887
1690821336599341300,7.55834130859375,0.007322770543396473,0.12116960436105728,0.015229294076561928
1690821336609381400,7.56838134765625,0.00393309909850359,0.08646488189697266,0.028259875252842903
1690821336619422500,7.57842236328125,-0.0027203611098229885,0.03892355039715767,0.038480259478092194
1690821336629462300,7.588462158203125,-0.004870597738772631,-0.018375162035226822,0.04838322103023529
1690821336639502300,7.59850244140625,-0.007381246890872717,-0.0624767541885376,0.05548839271068573
1690821336649543200,7.608543212890625,-0.006460591685026884,-0.09114168584346771,0.05765673518180847
1690821336659583200,7.618583251953125,-0.002889785449951887,-0.09469931572675705,0.056322723627090454
1690821336669623300,7.628623291015625,-0.0005922764539718628,-0.07667849957942963,0.04907786101102829
1690821336679663400,7.638663330078125,0.0007479144260287285,-0.04339679703116417,0.03540000692009926
1690821336689704400,7.648704345703125,0.0031817774288356304,-0.0033436522353440523,0.020086830481886864
1690821336699744300,7.658744140625,0.003556177020072937,0.03598155453801155,0.004031471908092499
1690821336709784300,7.668784423828125,0.0020288540981709957,0.06566807627677917,-0.011565065011382103
1690821336719855400,7.67885546875,0.0006382828578352928,0.07603949308395386,-0.020916540175676346
1690821336729895400,7.6888955078125,0.00123030343092978,0.06699379533529282,-0.027943026274442673
1690821336739936300,7.698936279296875,-0.00035707512870430946,0.044808872044086456,-0.03108028508722782
1690821336749976300,7.708976318359375,-0.0006726598367094994,0.010973678901791573,-0.034173816442489624
1690821336760016400,7.719016357421875,0.0005541681312024593,-0.021558867767453194,-0.03291066735982895
1690821336770056200,7.72905615234375,0.00013658450916409492,-0.044870585203170776,-0.031147120520472527
1690821336780097300,7.73909716796875,-0.00012826547026634216,-0.05952223762869835,-0.025619935244321823
1690821336790137300,7.749137451171875,0.0017750959377735853,-0.05694776028394699,-0.020578574389219284
1690821336800177400,7.759177490234375,0.0010778876021504402,-0.044831711798906326,-0.01750720851123333
1690821336810218200,7.76921826171875,0.00005603255704045296,-0.025988250970840454,-0.013947626575827599
1690821336820258300,7.77925830078125,-0.0007986715063452721,0.00042933435179293156,-0.011021958664059639
1690821336830298400,7.78929833984375,0.0011720675975084305,0.021670972928404808,-0.003039933741092682
1690821336840338200,7.799338134765625,-0.0004542805254459381,0.033485643565654755,0.0010685957968235016
1690821336850379300,7.809379150390625,-0.0012487014755606651,0.04375133290886879,0.00734912883490324
1690821336860419300,7.81941943359375,-0.001679728738963604,0.04285171255469322,0.0139083843678236
1690821336870459400,7.82945947265625,0.0002822224050760269,0.03441588208079338,0.01908663474023342
1690821336880530400,7.839530517578125,0.0010661650449037552,0.014938410371541977,0.02311575599014759
1690821336890570500,7.849570556640625,0.002149272710084915,-0.005398818291723728,0.0281003937125206
1690821336900611300,7.859611328125,-0.00022519147023558617,-0.021814800798892975,0.026663795113563538
1690821336910651400,7.8696513671875,0.0006770873442292213,-0.02799120359122753,0.026422778144478798
1690821336920691200,7.879691162109375,-0.001883992925286293,-0.030080553144216537,0.024055827409029007
1690821336930731300,7.889731201171875,0.00003401562571525574,-0.022924372926354408,0.018675709143280983
1690821336940772400,7.8997724609375,0.0004476918838918209,-0.012210296466946602,0.010247218422591686
1690821336950812400,7.9098125,0.0002735215239226818,0.002331361873075366,0.004278542473912239
1690821336960852500,7.9198525390625,0.0006785839796066284,0.011684386059641838,-0.00639737956225872
1690821336970893300,7.929893310546875,0.0012516961432993412,0.022066719830036163,-0.010755376890301704
1690821336980933400,7.939933349609375,-0.00014405185356736183,0.024324025958776474,-0.013893106952309608
1690821336990973200,7.94997314453125,0.000997911673039198,0.018921537324786186,-0.017361076548695564
1690821337001013200,7.96001318359375,0.0022456322330981493,0.009492428973317146,-0.02041991613805294
1690821337011054300,7.970054443359375,0.0010022022761404514,0.0022688705939799547,-0.021187705919146538
1690821337021094400,7.980094482421875,0.00006898632273077965,-0.010164188221096992,-0.017659088596701622
1690821337031134500,7.990134521484375,-0.0010500741191208363,-0.017559785395860672,-0.01667611487209797
1690821337041175300,8.00017529296875,-0.0006007896736264229,-0.02092256024479866,-0.013802634552121162
1690821337051245600,8.01024560546875,0.00009615952149033546,-0.018838636577129364,-0.01066356711089611
1690821337061286400,8.020286376953125,0.0007530250586569309,-0.01454642228782177,-0.007448909804224968
1690821337071326200,8.030326171875,0.0011482383124530315,-0.00525172334164381,-0.002522861585021019
1690821337081366300,8.0403662109375,0.0011104652658104897,0.0025445017963647842,-0.002563532441854477
1690821337091407400,8.050407470703124,-0.0002514752559363842,0.007346181198954582,0.0016264189034700394
1690821337101447400,8.060447509765625,0.00044267531484365463,0.014022726565599442,0.006000878289341927
1690821337111487500,8.070487548828124,-0.0007461598142981529,0.015347649343311787,0.0068067517131567
1690821337121527600,8.080527587890625,-0.0006293780170381069,0.012990751303732395,0.013143258169293404
1690821337131568400,8.090568359375,-0.00017131399363279343,0.009633569978177547,0.015242362394928932
1690821337141608200,8.100608154296875,-0.00019714701920747757,-0.00036153942346572876,0.01201381254941225
1690821337151648300,8.110648193359374,-0.0018706773407757282,-0.0035344294738024473,0.01475127600133419
1690821337161688300,8.120688232421875,-0.001996769569814205,-0.008929716423153877,0.01283125951886177
1690821337171729400,8.1307294921875,-0.0004816972650587559,-0.008398149162530899,0.011564127169549465
1690821337181769500,8.14076953125,-0.0003622625954449177,-0.007236223667860031,0.008974612690508366
1690821337191809500,8.1508095703125,0.0010947526898235083,-0.006921703927218914,0.003220055252313614
1690821337201850400,8.160850341796875,0.0004308265633881092,-0.0005138723645359278,-0.00035923346877098083
1690821337211868200,8.1708681640625,0.0011775768361985683,0.0019751181825995445,-0.0030634086579084396
1690821337221939200,8.180939208984375,0.0017908550798892975,0.006379099562764168,-0.00486999936401844
1690821337231979300,8.190979248046874,0.00025580916553735733,0.007168193813413382,-0.007209053263068199
1690821337242019300,8.201019287109375,-0.00046399980783462524,0.0072282059118151665,-0.01077868603169918
1690821337252060400,8.211060302734374,0.0004108487628400326,0.003301108255982399,-0.012125711888074875
1690821337262100200,8.221100341796875,-0.0007318099960684776,0.00029768364038318396,-0.012502480298280716
1690821337272140300,8.231140380859374,0.00039816927164793015,-0.0010099282953888178,-0.011112309992313385
1690821337282180400,8.241180419921875,-0.0006921635940670967,-0.005464599002152681,-0.009272228926420212
1690821337292221200,8.25122119140625,0.000756862573325634,-0.006123731378465891,-0.007868209853768349
1690821337302261200,8.26126123046875,-0.00015508150681853294,-0.006140419282019138,-0.005672359839081764
1690821337312301300,8.27130126953125,0.00025398004800081253,-0.003250623820349574,-0.003442494198679924
1690821337322342400,8.28134228515625,0.00007191253826022148,-0.0041418056935071945,0.0001675095409154892
1690821337332382500,8.291382568359374,0.0005464879795908928,-0.0007321606390178204,0.001863144338130951
1690821337342422300,8.30142236328125,-0.0002670693211257458,0.0036346232518553734,0.004641455598175526
1690821337352462300,8.31146240234375,-0.0008116858080029488,0.0068067144602537155,0.004044640809297562
1690821337362503200,8.321503173828125,-0.0012780283577740192,0.0068045929074287415,0.006234153173863888
1690821337372543200,8.331543212890624,0.0004319874569773674,0.006403520703315735,0.008793184533715248
1690821337382614300,8.3416142578125,0.0020998346153646708,0.002504294738173485,0.008560310117900372
1690821337392654300,8.351654296875,0.0008196532726287842,0.0005980039713904262,0.008770167827606201
1690821337402694100,8.361694091796876,-0.0007138177752494812,0.0013946412364020944,0.006322532892227173
1690821337412735200,8.3717353515625,0.0001413235440850258,-0.0037367376498878,0.007018150761723518
1690821337422775300,8.381775390625,-0.0007618400268256664,-0.0036294979508966208,0.003914158791303635
1690821337432815400,8.3918154296875,-0.0004441249184310436,-0.0012488982174545527,0.001503998413681984
1690821337442855400,8.40185546875,0.001123438123613596,-0.0024667573161423206,0.0010731369256973267
1690821337452896300,8.411896240234375,0.0011644507758319378,-0.0008289131801575422,-0.002651561051607132
1690821337462936300,8.421936279296874,-0.001187625341117382,-0.00015627709217369556,-0.003259871155023575
1690821337472976400,8.431976318359375,-0.001196680124849081,0.0015047364868223667,-0.005453517660498619
1690821337483017500,8.442017578125,0.00006350595504045486,0.002105441875755787,-0.008045470342040062
1690821337493057300,8.452057373046875,-0.000024644657969474792,0.0007355117704719305,-0.005130641162395477
1690821337503097300,8.462097412109374,0.0015316037461161613,0.002138908952474594,-0.006142735481262207
1690821337513137400,8.472137451171875,0.00038431398570537567,0.00009786221198737621,-0.0050401873886585236
1690821337523178200,8.48217822265625,-0.00007916754111647606,-0.0006933694239705801,-0.0038860589265823364
1690821337533218300,8.49221826171875,-0.00007011275738477707,-0.003837497206404805,-0.0042570363730192184
1690821337543258400,8.50225830078125,-0.00017343368381261826,-0.0030736103653907776,-0.0036997422575950623
1690821337553329200,8.5123291015625,-0.0006661186926066875,-0.003699453081935644,-0.0006682649254798889
1690821337563369200,8.522369140625,-0.0008285748772323132,-0.002043407643213868,0.0001361258327960968
1690821337573410300,8.532410400390624,0.0016585513949394226,-0.00044657615944743156,0.0012061838060617447
1690821337583450400,8.542450439453125,-0.00017568329349160194,0.00241116713732481,0.002043807879090309
1690821337593490400,8.552490478515624,-0.00013733375817537308,0.002389861736446619,0.0010581724345684052
1690821337603531300,8.56253125,-0.0008347476832568645,0.0034362180158495903,0.003029758110642433
1690821337613571300,8.5725712890625,0.000642774160951376,0.00031978695187717676,0.005581066012382507
1690821337623611400,8.582611328125,-0.001533313188701868,0.0016837960574775934,0.0043622031807899475
1690821337633651200,8.592651123046876,0.00030506681650877,0.00004382152110338211,0.0034900177270174026
1690821337643692300,8.6026923828125,0.0005298280157148838,0.0008765641832724214,0.003170786425471306
1690821337653732400,8.612732421875,-0.0003364984877407551,-0.0015471787191927433,0.0031412243843078613
1690821337663772400,8.6227724609375,0.0008482309058308601,0.0009119906462728977,0.0031250659376382828
1690821337673812500,8.6328125,0.00013823248445987701,-0.0009013556409627199,-0.00023717619478702545
1690821337683853300,8.642853271484375,-0.0004772697575390339,-0.0026855014730244875,-0.0008445363491773605
1690821337693893400,8.652893310546874,-0.0019076536409556866,-0.0015230313874781132,-0.000678088515996933
1690821337703933200,8.66293310546875,-0.0011656899005174637,-0.0012022994924336672,-0.0027052126824855804
1690821337714004200,8.673004150390625,-0.00045968592166900635,0.00005311472341418266,-0.0019323639571666718
1690821337724044300,8.683044189453126,-0.0010732365772128105,0.0006138024618849158,-0.004415333271026611
1690821337734085400,8.69308544921875,-0.0018777772784233093,0.0007315141847357154,-0.0035455450415611267
1690821337744125400,8.70312548828125,0.0010948556009680033,-0.0004182644188404083,-0.004237910732626915
1690821337754165500,8.71316552734375,-0.0006071706302464008,-0.00008110841736197472,-0.0032717157155275345
1690821337764206300,8.723206298828124,-0.0007241955026984215,0.000049742404371500015,-0.002339707687497139
1690821337774246400,8.733246337890625,-0.0007010255940258503,-0.0021971664391458035,-0.0002861451357603073
1690821337784286200,8.7432861328125,-0.002155281137675047,-0.00035772076807916164,-0.0008138120174407959
1690821337794326300,8.753326171875,-0.00008920067921280861,0.0006814446533098817,-0.00107613205909729
1690821337804367400,8.763367431640624,0.0005158605054020882,0.0011653630062937737,0.000812554731965065
1690821337814407400,8.773407470703125,0.0008876374922692776,0.0007879930781200528,0.0016429275274276733
1690821337824447500,8.783447509765624,-0.0009382073767483234,-0.0011377555783838034,0.0006614681333303452
1690821337834488300,8.79348828125,-0.0003278106451034546,0.0010857174638658762,0.0008569434285163879
1690821337844528400,8.8035283203125,-0.0009348629973828793,0.001214365242049098,0.0022205673158168793
1690821337854568200,8.813568115234375,-0.00021474435925483704,-0.0006354665383696556,0.0028749071061611176
1690821337864608300,8.823608154296876,0.0009922776371240616,0.0005855729104951024,0.0027112867683172226
1690821337874649300,8.8336494140625,-0.000741173978894949,0.0006644024979323149,0.0018582753837108612
1690821337884719400,8.84371923828125,0.0008466341532766819,-0.001061751740053296,0.001232614740729332
1690821337894760400,8.853760498046874,0.00008496968075633049,0.0004141720710322261,-0.00026674382388591766
1690821337904800500,8.863800537109375,0.0007413900457322598,-0.0005810714792460203,0.0006239302456378937
1690821337914840300,8.87384033203125,0.0005416530184447765,0.00012306845746934414,0.0005626771599054337
1690821337924881200,8.883881103515625,0.0006085005588829517,-0.0013248047325760126,0.00005648471415042877
1690821337934921200,8.893921142578124,0.0008700229227542877,0.0008517967071384192,-0.0007698927074670792
1690821337944961300,8.903961181640625,0.0005228146910667419,-0.00011250609531998634,-0.0010765045881271362
1690821337955001300,8.91400146484375,0.0010759532451629639,0.00020281225442886353,-0.0027838554233312607
1690821337965042400,8.92404248046875,-0.0008782478980720043,-0.001423690002411604,-0.0021973364055156708
1690821337975082500,8.93408251953125,0.0006410856731235981,-0.0014971932396292686,-0.0008652228862047195
1690821337985122600,8.94412255859375,0.0005045286379754543,0.0004132643807679415,-0.0025789551436901093
1690821337995163400,8.954163330078124,0.000027556437999010086,0.000015388010069727898,-0.002450590953230858
1690821338005203200,8.964203125,-0.0005889642052352428,0.0011255727149546146,-0.0004456210881471634
1690821338015243300,8.9742431640625,-0.00008988752961158752,0.0022936351597309113,-0.001189975067973137
1690821338025283300,8.984283447265625,-0.0006558517925441265,-0.000011330703273415565,-0.00018143467605113983
1690821338035324400,8.994324462890624,0.0006664078682661057,-0.0012342543341219425,-0.0011012908071279526
1690821338045364500,9.004364501953125,0.001326096011325717,-0.0002887693699449301,-0.0003354120999574661
1690821338055435500,9.014435546875,0.002427313243970275,-0.00038464320823550224,0.0008688680827617645
1690821338065475300,9.024475341796874,-0.0006867987103760242,-0.0005789673887193203,0.002006838098168373
1690821338075515400,9.034515380859375,0.0022093888837844133,-0.0011805754620581865,0.00016552768647670746
1690821338085556200,9.04455615234375,-0.0017797080799937248,-0.0005488675087690353,0.0016591865569353104
1690821338095596300,9.05459619140625,-0.000709916464984417,-0.00017016613855957985,0.0016970038414001465
1690821338105636400,9.06463623046875,0.0007888665422797203,0.0024606522638350725,0.0025260448455810547
1690821338115677400,9.074677490234375,-0.0006156847812235355,-0.00037268479354679585,0.0006426572799682617
1690821338125717500,9.084717529296874,-0.00017682136967778206,-0.00006179860793054104,0.0016611628234386444
1690821338135757600,9.094757568359375,0.0009315861389040947,0.0007387475343421102,-0.0007878802716732025
1690821338145797400,9.10479736328125,-0.00007830141112208366,-0.0016867518424987793,-0.0005111154168844223
1690821338155838200,9.114838134765625,0.000530230812728405,0.00023924617562443018,0.000059334561228752136
1690821338165878300,9.124878173828124,-0.0005908473394811153,-0.0010120051447302103,-0.001564115285873413
1690821338175918300,9.13491845703125,0.00003206590190529823,-0.00046792137436568737,-0.0005379989743232727
1690821338185958400,9.14495849609375,-0.0006328457966446877,-0.0009564582724124193,-0.0008691567927598953
1690821338195999500,9.15499951171875,0.0016971540171653032,-0.0007790918461978436,-0.0029504168778657913
1690821338206039600,9.16503955078125,0.0007089031860232353,0.0018415112281218171,-0.0009570419788360596
1690821338216119000,9.175119140625,-0.00033026235178112984,-0.0012573429848998785,-0.0018582548946142197
1690821338226159000,9.1851591796875,-0.0008515063673257828,-0.0013100139331072569,-0.0014184210449457169
1690821338236199200,9.19519921875,-0.0007982430979609489,0.0012703228276222944,-0.0008703432977199554
1690821338246240300,9.205240234375,0.0006161951459944248,0.00020616943947970867,-0.0008042939007282257
1690821338256280000,9.215280029296874,0.0009482912719249725,0.0028661347460001707,-0.00037632323801517487
1690821338266320000,9.22531982421875,0.000425481703132391,-0.002609584014862776,-0.0008883588016033173
1690821338276361000,9.23536083984375,-0.0007287324406206608,0.00039685831870883703,0.0009036827832460403
1690821338286401000,9.245401123046875,0.0003868443891406059,-0.0008101658895611763,-0.0003092121332883835
1690821338296441000,9.255441162109374,-0.0005039828829467297,0.002347810659557581,0.001790689304471016
1690821338306481200,9.265481201171875,-0.0005762334913015366,0.00009450758807361126,0.0024212338030338287
1690821338316522200,9.275522216796874,-0.0010441509075462818,-0.000771818682551384,0.000896042212843895
1690821338326562000,9.28556201171875,-0.000058078672736883163,-0.0011356330942362547,-0.0011602602899074554
1690821338336601900,9.295601806640626,-0.0006740675307810307,0.0006327059818431735,0.002465367317199707
1690821338346643000,9.305642822265625,-0.0007470743730664253,0.00024197681341320276,0.0020063910633325577
1690821338356683000,9.31568310546875,0.0011775919701904058,0.0007983110845088959,0.001308908686041832
1690821338366723000,9.32572314453125,0.001731016905978322,0.0013181227259337902,0.0010762568563222885
1690821338376763100,9.33576318359375,0.00008278666064143181,0.0010776392882689834,-0.00033575110137462616
1690821338386834200,9.345834228515624,0.00005431659519672394,-0.0016766448970884085,0.00037488900125026703
1690821338396874200,9.355874267578125,-0.0004269164055585861,0.0001196572557091713,-0.000659482553601265
1690821338406915000,9.3659150390625,0.0004228660836815834,-0.0021304069086909294,-0.00041368603706359863
1690821338416955000,9.375954833984375,-0.0006629046984016895,-0.0018632919527590275,-0.0021607205271720886
1690821338426995000,9.385994873046876,0.002004176378250122,-0.0001809725072234869,-0.00024777092039585114
1690821338437036000,9.3960361328125,-0.00047149835154414177,-0.0005154653917998075,-0.0017505921423435211
1690821338447076000,9.406076171875,-0.0011948668397963047,0.001103413524106145,-0.001653626561164856
1690821338457116200,9.4161162109375,-0.0010617086663842201,-0.001324590528383851,-0.00004454515874385834
1690821338467156200,9.42615625,0.0010421723127365112,0.0011059072567149997,0.0001967940479516983
1690821338477197000,9.436197021484375,-0.0005013956688344479,0.00024277681950479746,-0.00037791766226291656
1690821338487236900,9.44623681640625,0.0011447914876043797,-0.0024135662242770195,-0.001346563920378685
1690821338497277000,9.45627685546875,-0.00028213020414114,0.00009193574078381062,0.0006846301257610321
1690821338507318000,9.466318115234374,0.0006605158559978008,0.0007518854690715671,0.0007367394864559174
1690821338517358000,9.476358154296875,0.0010434782598167658,0.0000014067627489566803,-0.00008591078221797943
1690821338527398100,9.486398193359374,0.001082161907106638,0.0003803469007834792,0.0007180031388998032
1690821338537438200,9.496438232421875,-0.0009154751896858215,-0.0013208803720772266,-0.00008334219455718994
1690821338547509200,9.50650927734375,0.00008587585762143135,-0.00034283497370779514,0.0012545567005872726
1690821338557550000,9.516550048828124,0.0013008099049329758,0.0003706259885802865,0.0009280536323785782
1690821338567590000,9.52658984375,-0.0010705934837460518,0.0012274491600692272,0.0005986150354146957
1690821338577630000,9.5366298828125,-0.0005978825502097607,0.0011651312233880162,0.002435930073261261
1690821338587670000,9.546669921875,0.0015844660811126232,0.00014130841009318829,-0.0004649423062801361
1690821338597711000,9.556711181640624,-0.0008565871976315975,-0.00010050646960735321,0.0035955794155597687
1690821338607751200,9.566751220703125,-0.0006633163429796696,-0.0003879633732140064,0.0010317713022232056
1690821338617791200,9.576791259765624,-0.0009144525974988937,-0.000636968994513154,0.0012663956731557846
1690821338627832000,9.58683203125,-0.001298184972256422,0.0003886397462338209,-0.0004059877246618271
1690821338637871900,9.596871826171874,-0.0009282715618610382,-0.0003716927021741867,-0.001367388293147087
1690821338647912000,9.606911865234375,-0.0008189082145690918,0.0009282613173127174,-0.0004849061369895935
1690821338657952000,9.616951904296876,0.0010580879170447588,-0.0015170532278716564,-0.0005677305161952972
1690821338667993000,9.6269931640625,0.00005816761404275894,-0.0017025244887918234,0.0010026674717664719
1690821338678033200,9.637033203125,0.0005292808637022972,-0.0010958563070744276,-0.0012679435312747955
1690821338688073200,9.6470732421875,0.0003912579268217087,-0.0010462666396051645,-0.00160926952958107
1690821338698113300,9.65711328125,-0.0003232681192457676,-0.0005684955976903439,-0.002336844801902771
1690821338708154000,9.667154052734375,0.00036076176911592484,0.002201165072619915,-0.0006079375743865967
1690821338718225000,9.677224853515625,0.0007743504829704762,-0.0013379096053540707,-0.0005589351058006287
1690821338728265000,9.687264892578124,0.00015045516192913055,0.0008551264181733131,0.00023176521062850952
1690821338738305000,9.697304931640625,-0.00004209158942103386,0.0003107762895524502,0.0010219253599643707
1690821338748345000,9.707344970703126,0.0011087434832006693,0.00031864061020314693,-0.0016379952430725098
1690821338758386200,9.71738623046875,0.0004991460591554642,-0.0013245297595858574,0.0014328956604003906
1690821338768426200,9.72742626953125,0.000653720460832119,-0.00017477991059422493,0.00047699175775051117
1690821338778466000,9.737466064453125,0.00030697695910930634,0.000895810779184103,0.0012362580746412277
1690821338788507000,9.7475068359375,-0.001898549497127533,0.0009687445126473904,0.00039114803075790405
1690821338798547000,9.757546875,0.0009678108617663383,-0.0016187827568501234,0.00013415329158306122
1690821338808587000,9.7675869140625,0.0021310015581548214,0.0009866313776001334,-0.0005736611783504486
1690821338818627000,9.777626953125,-0.0011295066215097904,-0.0014727979432791471,0.0010615196079015732
1690821338828668200,9.787668212890624,-0.00019568298012018204,0.0010622672270983458,-0.0014906395226716995
1690821338838708200,9.797708251953125,-0.0007818448357284069,-0.000867459224537015,0.00020819157361984253
1690821338848748000,9.807748046875,-0.0008089444600045681,0.0007347969803959131,0.001325095072388649
1690821338858788900,9.817788818359375,0.000020363833755254745,0.0003859228454530239,-0.0014773495495319366
1690821338868829000,9.827828857421874,-0.0003229551948606968,0.0003283695550635457,0.00002154335379600525
1690821338878900000,9.83789990234375,-0.001317113172262907,-0.0037302880082279444,-0.0000010933727025985718
1690821338888940000,9.84793994140625,-0.000023461878299713135,-0.0009035931434482336,-0.0008258111774921417
1690821338898980000,9.85797998046875,0.002352610230445862,-0.00015364703722298145,-0.0010034441947937012
1690821338909020200,9.868020263671875,0.0001167156733572483,0.0000013660173863172531,0.0009374320507049561
1690821338919061200,9.878061279296874,0.000229633878916502,-0.0016833494883030653,0.00022663548588752747
1690821338929101000,9.88810107421875,0.0016143762040883303,0.001119613298214972,0.0014154352247714996
1690821338939141000,9.89814111328125,0.0003432491794228554,0.0012602282222360373,0.0004018377512693405
1690821338949182000,9.908181884765625,-0.0005314107984304428,-0.0013110756408423185,0.001416277140378952
1690821338959222000,9.918221923828124,0.0001591467298567295,-0.001345696859061718,0.0007952284067869186
1690821338969262000,9.928261962890625,-0.0014037364162504673,0.00007588276639580727,0.0000199098140001297
1690821338979302100,9.93830224609375,0.0010149464942514896,0.0006151730194687843,-0.001513805240392685
1690821338989343200,9.94834326171875,0.0006209658458828926,-0.002020668936893344,-0.0006271656602621078
1690821338999383000,9.958383056640624,-0.0013993079774081707,0.0012020221911370754,0.00031745806336402893
1690821339009423000,9.968423095703125,0.0002087131142616272,0.0011676463764160872,-0.00015188194811344147
1690821339019464000,9.9784638671875,0.00012002978473901749,0.000053379684686660767,-0.001115148887038231
1690821339029504000,9.98850390625,-0.0019558463245630264,-0.00018607801757752895,0.00018292106688022614
1690821339039544000,9.9985439453125,0.0008953339420258999,-0.0011413537431508303,-0.0000011026859283447266
1690821339049615000,10.008614990234374,-0.0007532997988164425,0.0024935519322752953,0.0013307798653841019
1690821339059655200,10.0186552734375,-0.000353026669472456,-0.0003858578857034445,-0.0001880209892988205
1690821339069696300,10.0286962890625,0.0000225692056119442,0.0010997611097991467,-0.0005567390471696854
1690821339079736000,10.038736083984375,0.0006039370782673359,-0.0016558116767555475,-0.00021718628704547882
1690821339089776000,10.048776123046874,-0.0004360908642411232,-0.00042355852201581,0.0003919992595911026
1690821339099816200,10.058816162109375,0.001778860343620181,0.000709882820956409,0.0008473992347717285
1690821339109857000,10.06885693359375,0.00005925353616476059,0.00017363554798066616,-0.0013404320925474167
1690821339119897000,10.07889697265625,-0.001145294401794672,-0.000738230999559164,0.0012937001883983612
1690821339129937200,10.088937255859374,0.0022146592382341623,0.0005046331789344549,-0.0003276318311691284
1690821339139977000,10.09897705078125,0.0014090531039983034,0.0006966470973566175,0.00030540116131305695
1690821339150018000,10.10901806640625,0.0005159899592399597,-0.001237967750057578,-0.000990869477391243
1690821339160058000,10.11905810546875,-0.0011820411309599876,-0.0000890800729393959,0.0011353977024555206
1690821339170098200,10.12909814453125,-0.0006828946061432362,-0.0019391414243727922,-0.00044695474207401276
1690821339180139000,10.139138916015625,0.002223412739112973,0.0003783414140343666,0.0002697017043828964
1690821339190179000,10.149178955078124,-0.0002831555902957916,0.00047365459613502026,-0.000018635764718055725
1690821339200219100,10.15921923828125,0.00018422910943627357,0.0008337140316143632,-0.0018543526530265808
1690821339210270500,10.1692705078125,0.00011753290891647339,-0.0009140677284449339,-0.0005626250058412552
1690821339220310500,10.179310546875,-0.00017408328130841255,-0.0010277845431119204,-0.0013557132333517075
1690821339230351400,10.189351318359375,-0.00010959198698401451,0.0006684988038614392,-0.0010586418211460114
1690821339240391200,10.19939111328125,-0.0003364933654665947,0.0004019163316115737,0.0017150398343801498
1690821339250431200,10.20943115234375,-0.00011326512321829796,-0.001298787072300911,0.00011492893099784851
1690821339260471300,10.21947119140625,-0.0013825278729200363,-0.0008236791472882032,-0.00021663494408130646
1690821339270512400,10.229512451171875,0.000392355490475893,-0.00003511202521622181,0.0005653183907270432
1690821339280552400,10.239552490234376,0.000012322328984737396,0.000295120058581233,-0.00228026881814003
1690821339290592500,10.249592529296875,-0.0007694102823734283,-0.00045654503628611565,-0.0002927388995885849
1690821339300633300,10.25963330078125,0.000998129602521658,0.0008204405894502997,-0.0011284388601779938
1690821339310673200,10.269673095703125,0.00020128954201936722,-0.00225848238915205,-0.0012649744749069214
1690821339320713200,10.279713134765625,0.0006234007887542248,-0.0003252935130149126,-0.0015549920499324799
1690821339330753300,10.289753173828124,0.0003490336239337921,0.0010628694435581565,-0.001534435898065567
1690821339340794400,10.29979443359375,-0.0005505820736289024,0.0006226488621905446,0.00030527636408805847
1690821339350834400,10.30983447265625,-0.001907162368297577,-0.0012890805955976248,-0.0011786073446273804
1690821339360874500,10.31987451171875,-0.0010648048482835293,0.00019776239059865475,0.0006552450358867645
1690821339370915300,10.329915283203125,-0.0019826265051960945,-0.0005806698463857174,-0.00008372962474822998
1690821339380985300,10.3399853515625,-0.00017886748537421227,0.0007517095655202866,-0.00041635893285274506
1690821339391026200,10.350026123046876,0.0012432762887328863,0.00013893470168113708,-0.0014319531619548798
1690821339401066200,10.360066162109375,-0.0006427746266126633,-0.00011220132000744343,0.002199266105890274
1690821339411106300,10.370106201171875,0.00017127534374594688,0.0013905663508921862,0.0008241645991802216
1690821339421146400,10.380146484375,0.0009119007736444473,-0.0007346360944211483,0.00045345351099967957
1690821339431187500,10.3901875,0.0005119610577821732,-0.0005350257270038128,-0.0007348917424678802
1690821339441227500,10.4002275390625,0.00025656353682279587,-0.00021784333512187004,0.001202024519443512
1690821339451267300,10.410267333984375,0.0007092994637787342,0.0008491263724863529,-0.0012607499957084656
1690821339461308200,10.42030810546875,0.0008863997645676136,0.00028293835930526257,-0.00012491270899772644
1690821339471348200,10.43034814453125,0.000016481615602970123,0.00036379252560436726,0.0003947857767343521
1690821339481388300,10.44038818359375,-0.00039178086444735527,-0.000007185852155089378,-0.000506693497300148
1690821339491428400,10.450428466796875,-0.0005972529761493206,0.000012845499441027641,-0.0005109421908855438
1690821339501469400,10.460469482421875,0.000793183222413063,0.0030448543839156628,-0.00039109960198402405
1690821339511509500,10.470509521484376,0.00029615871608257294,-0.0010939007624983788,0.0000724252313375473
1690821339521549300,10.48054931640625,0.0018277426715940237,0.0006206422112882137,-0.0009752623736858368
1690821339531590100,10.490590087890626,0.0002985275350511074,-0.00019991653971374035,0.0010028872638940811
1690821339541660400,10.500660400390625,0.0006612502038478851,0.0008176772389560938,-0.0004258975386619568
1690821339551701200,10.510701171875,-0.0005247960798442364,-0.0006306585855782032,0.0008071567863225937
1690821339561741300,10.5207412109375,0.00042249029502272606,0.001655132626183331,-0.00002827681601047516
1690821339571781400,10.530781494140625,-0.0028524245135486126,0.00002543744631111622,-0.0015656128525733948
1690821339581822500,10.540822509765626,-0.0006140377372503281,0.0019983071833848953,-0.001111011952161789
1690821339591862500,10.550862548828125,0.0010199800599366426,-0.0015428252518177032,0.00024205632507801056
1690821339601902300,10.56090234375,-0.0002953549847006798,0.00021379580721259117,-0.002598736435174942
1690821339611942400,10.5709423828125,-0.0008578631095588207,0.0013075650203973055,0.0013439282774925232
1690821339621983200,10.580983154296876,-0.0008522705174982548,-0.001511923735961318,-0.0007826071232557297
1690821339632023300,10.591023193359375,0.0006442726589739323,-0.0009980681352317333,0.00020017847418785095
1690821339642063400,10.6010634765625,0.0007281624712049961,0.0023279536981135607,-0.0007447116076946259
1690821339652103400,10.611103515625,-0.0001863241195678711,-0.00017358991317451,-0.0007484648376703262
1690821339662144500,10.62114453125,-0.0006180224008858204,0.00045704678632318974,0.0002470239996910095
1690821339672184300,10.631184326171875,-0.0009946133941411972,-0.00023471075110137463,0.00020559877157211304
1690821339682224400,10.641224365234375,0.0016054308507591486,0.0014284334611147642,-0.0012495536357164383
1690821339692265200,10.65126513671875,-0.0003086780197918415,-0.00001055002212524414,-0.0010202601552009583
1690821339702305300,10.66130517578125,0.0004023858346045017,-0.0016936678439378738,-0.0008404962718486786
1690821339712376300,10.671376220703126,0.00022570975124835968,0.00041507394053041935,-0.0005319342017173767
1690821339722416400,10.68141650390625,0.0009913684334605932,-0.00013193930499255657,-0.0005575008690357208
1690821339732456400,10.69145654296875,0.0010333231184631586,-0.0005487492308020592,0.0003885868936777115
1690821339742497500,10.70149755859375,-0.000816775020211935,-0.00008482648991048336,0.0003624875098466873
1690821339752537300,10.711537353515626,-0.0006183362565934658,1.8277205526828766e-7,0.0004421193152666092
1690821339762577400,10.721577392578125,0.0017337673343718052,0.0008848849684000015,0.0013904701918363571
1690821339772617200,10.7316171875,-0.0001474977470934391,0.00039545423351228237,-0.0005108136683702469
1690821339782658300,10.741658203125,0.0004770131781697273,0.001450332347303629,-0.0001342426985502243
1690821339792698400,10.751698486328126,-0.00002744235098361969,-0.0003933166153728962,-0.0009159259498119354
1690821339802738400,10.761738525390625,0.001108662225306034,0.0005393223837018013,-0.0014948975294828415
1690821339812779500,10.771779541015626,0.00002404162660241127,-0.0015929981600493193,0.0007159318774938583
1690821339822819300,10.7818193359375,0.0007995544001460075,0.0002997104311361909,0.0007180627435445786
1690821339832859400,10.791859375,-0.0008821752853691578,0.0008227400248870254,-0.00021610595285892487
1690821339842899200,10.801899169921874,-0.0020156167447566986,0.0012967826332896948,-0.0014129318296909332
1690821339852940300,10.811940185546876,-0.00003578374162316322,0.0008192152017727494,-0.001601504161953926
1690821339862980400,10.82198046875,-0.0007322002202272415,0.0005294632865116,0.00026324018836021423
1690821339873051400,10.832051513671875,0.0010853838175535202,0.0010169715387746692,0.001477053388953209
1690821339883091500,10.842091552734376,0.0004512849263846874,-0.0001798530574887991,-0.0016308557242155075
1690821339893131300,10.85213134765625,-0.0006200778298079967,-0.0007695374079048634,-0.0015446245670318604
1690821339903172400,10.86217236328125,-0.00033804913982748985,0.00003686780110001564,0.0004940256476402283
1690821339913212400,10.87221240234375,-0.00069040572270751,0.0005301203345879912,0.00046923011541366577
1690821339923252200,10.882252197265625,0.0004853801801800728,-0.000918905483558774,0.0014383550733327866
1690821339933292300,10.892292236328124,-0.0001442008651793003,-0.0007106170523911715,-0.00019543059170246124
1690821339943333400,10.90233349609375,-0.0013945549726486206,0.0005250897957012057,0.00040644407272338867
1690821339953373400,10.91237353515625,0.0007681474089622498,-0.000546380877494812,-0.000051505863666534424
1690821339963413200,10.922413330078125,-0.0006182943470776081,-0.001749064540490508,-0.001362048089504242
1690821339973454300,10.932454345703125,-0.0003966991789638996,0.001798600540496409,0.00023069605231285095
1690821339983494400,10.942494384765626,0.00028799939900636673,0.0011618387652561069,0.001512475311756134
1690821339993534200,10.9525341796875,0.0009601244237273932,0.0009812156204134226,-0.0003949850797653198
1690821340003574300,10.96257421875,0.00005624769255518913,-0.00015888363122940063,-0.00022827088832855225
1690821340013615400,10.972615478515625,0.0007695783860981464,-0.00012728176079690456,0.0012751314789056778
1690821340023655400,10.982655517578126,0.00040818750858306885,-0.00043381168507039547,0.0004594046622514725
1690821340033726500,10.9927265625,0.0009561527986079454,-0.0007893142756074667,-0.0006622392684221268
1690821340043766300,11.002766357421875,0.00011912127956748009,0.0010506637627258897,0.0003638770431280136
1690821340053806300,11.012806396484375,-0.000616714358329773,0.00039303372614085674,-0.0012991633266210556
1690821340063847400,11.022847412109375,-0.0005967407487332821,0.0014348623808473349,0.0007690470665693283
1690821340073887200,11.03288720703125,0.0010171879548579454,0.00030559126753360033,0.00006083771586418152
1690821340083927300,11.04292724609375,0.0005961419083178043,0.00005924887955188751,-0.001141311600804329
1690821340093968400,11.052968505859376,-0.0009405286982655525,-0.0015199144836515188,0.00034339539706707
1690821340104008400,11.063008544921875,-0.0019767647609114647,-0.0009982013143599033,-0.0015197508037090302
1690821340114048300,11.07304833984375,-0.0009503248147666454,0.0011182050220668316,0.0011122915893793106
1690821340124088300,11.08308837890625,0.0012094988487660885,-0.00033215247094631195,0.00010881386697292328
1690821340134129400,11.09312939453125,-0.00009442539885640144,-0.0006377031095325947,0.00009434670209884644
1690821340144169200,11.103169189453125,0.0004403372295200825,-0.0020702173933386803,-0.0014574769884347916
1690821340154209300,11.113209228515625,-0.0007078372873365879,0.0012297529028728604,0.0012603141367435455
1690821340164249300,11.123249267578124,-0.0006769443862140179,0.0014966016169637442,0.0017002690583467484
1690821340174290400,11.13329052734375,-0.0005596792325377464,-0.0016101107466965914,-0.0014270152896642685
1690821340184330200,11.143330322265625,0.0009769648313522339,0.00030922936275601387,0.0006353352218866348
1690821340194370300,11.153370361328125,0.0007613026537001133,0.00018587103113532066,-0.00038164854049682617
1690821340204441300,11.16344140625,0.0004979157820343971,0.0015297022182494402,-0.0007963031530380249
1690821340214466000,11.173466064453125,0.0011634035035967827,0.0006256588967517018,0.0010664574801921844
1690821340224507100,11.183507080078124,0.000856074970215559,-0.00042602350004017353,0.0010014772415161133
1690821340234547200,11.193547119140625,-0.0004963958635926247,-0.00013624667190015316,-0.0025213193148374557
1690821340244587300,11.203587158203124,-0.0008415416814386845,-0.00045822281390428543,-0.00020889565348625183
1690821340254628000,11.213628173828125,-0.0017656250856816769,-0.0011646430939435959,-0.0008096881210803986
1690821340264668200,11.223668212890624,0.0020429615397006273,-0.0006698279175907373,0.002574656158685684
1690821340274708200,11.233708251953125,0.00031722569838166237,0.0009392807260155678,-0.0012653209269046783
1690821340284748300,11.243748291015624,0.0007451958954334259,-0.00009003095328807831,-0.00139714777469635
1690821340294789400,11.253789306640625,0.00026734545826911926,-0.0016171445604413748,-0.0007773730903863907
1690821340304829200,11.2638291015625,0.00042180903255939484,0.0003522631013765931,-0.00018668361008167267
1690821340314869200,11.273869140625,-0.0017399685457348824,0.0005585511680692434,-0.001361854374408722
1690821340324910000,11.28391015625,-0.0006693778559565544,-0.0010121811646968126,-0.0014324281364679337
1690821340334950100,11.2939501953125,-0.0005957852117717266,-0.0016458500176668167,0.0009904280304908752
1690821340344990200,11.303990234375,0.001905189361423254,-0.0005968310870230198,0.001492433249950409
1690821340355030300,11.3140302734375,-0.0006003114394843578,0.0021816433873027563,0.0007919557392597198
1690821340365101000,11.32410107421875,0.0001096874475479126,-0.0006287903524935246,0.0012763850390911102
1690821340375141000,11.33414111328125,0.00039749499410390854,-0.0016421049367636442,0.00095326267182827
1690821340385182200,11.34418212890625,0.001788730500265956,0.002143844962120056,-0.0015847310423851013
1690821340395222300,11.35422216796875,0.000544537790119648,0.0015189023688435555,-0.00031648576259613037
1690821340405262300,11.364262451171875,-0.0006775869987905025,0.0007116982014849782,0.0009604990482330322
1690821340415303200,11.37430322265625,0.00003906572237610817,-0.0010154678020626307,0.0008068140596151352
1690821340425343200,11.38434326171875,0.000834285281598568,-0.00012171082198619843,-0.00005365349352359772
1690821340435383300,11.39438330078125,0.00022897077724337578,-0.0004255189560353756,0.00007820501923561096
1690821340445423000,11.404423095703125,-0.0009923549368977547,0.0023207329213619232,0.0007543805986642838
1690821340455464200,11.414464111328124,-0.0007086275145411491,-0.0012237883638590574,-0.00012443028390407562
1690821340465504300,11.424504150390625,-0.00034004589542746544,0.0012673325836658478,0.0004920922219753265
1690821340475544300,11.43454443359375,-0.0004432140849530697,-0.000957476906478405,-0.00010624155402183533
1690821340485585200,11.444585205078125,-0.0005630562081933022,-0.0001811652909964323,0.0022408030927181244
1690821340495625200,11.454625244140624,-0.00025449180975556374,-0.00034401495940983295,0.00102287158370018
1690821340505665300,11.464665283203125,-0.001525352243334055,-0.0002875558566302061,-0.00028766877949237823
1690821340515705000,11.474705078125,-0.0004045623354613781,-0.0010539796203374863,0.0015001371502876282
1690821340525746200,11.48474609375,-0.00024131033569574356,0.0011593735544010997,0.0015760362148284912
1690821340535817200,11.494817138671875,-0.0008684443309903145,-0.0015165307559072971,-0.00026621855795383453
1690821340545857300,11.504857177734374,-0.0007904139347374439,0.0022539726924151182,0.0003593564033508301
1690821340555897300,11.5148974609375,-0.001018495298922062,0.001478897756896913,0.002590000629425049
1690821340565937400,11.5249375,-0.000517288688570261,0.00005730241537094116,-0.00010245665907859802
1690821340575978200,11.534978271484375,-0.00028313882648944855,0.0009455413091927767,-0.00030257366597652435
1690821340586018300,11.545018310546874,-0.00001948559656739235,0.001098140375688672,0.0015392694622278214
1690821340596058000,11.55505810546875,0.001116183353587985,0.0014708739472553134,-0.0003158487379550934
1690821340606099200,11.56509912109375,0.0004088478162884712,0.00032704626210033894,-0.0004482083022594452
1690821340616139300,11.57513916015625,0.00038480712100863457,-0.0012129838578402996,-0.0017319303005933762
1690821340626179300,11.585179443359374,-0.0009965747594833374,-0.0008659737650305033,-0.00019954703748226166
1690821340636219100,11.59521923828125,-0.000695571769028902,-0.0006926273927092552,-0.0011479463428258896
1690821340646260200,11.60526025390625,-0.0017887991853058338,0.00028528529219329357,0.0024491846561431885
1690821340656300300,11.61530029296875,-0.0006445613689720631,0.0017437487840652466,0.0006851796060800552
1690821340666340000,11.625340087890624,0.00006756791844964027,0.0005892683984711766,0.0012199413031339645
1690821340676380200,11.635380126953125,0.0009633724112063646,0.0024616816081106663,0.0018027368932962418
1690821340686421200,11.645421142578124,-0.0004971050657331944,-0.0003287787549197674,-0.0008247382938861847
1690821340696492300,11.6554921875,0.0010849772952497005,0.0001360713504254818,-0.000011797994375228882
1690821340706532400,11.665532470703125,0.000047942157834768295,-0.0019411940593272448,-0.0008693356066942215
1690821340716572200,11.675572265625,-0.0009125019423663616,0.00023593439254909754,0.0006109941750764847
1690821340726612200,11.6856123046875,-0.0006728176958858967,0.0014205083716660738,-0.0007605329155921936
1690821340736653300,11.6956533203125,0.0009943160694092512,0.0009950567036867142,0.00030572153627872467
1690821340746693000,11.705693115234375,0.0007229400798678398,-0.00030989223159849644,-0.00017311424016952515
1690821340756733200,11.715733154296874,-0.000858597457408905,0.0012508961372077465,-0.0007998570799827576
1690821340766774300,11.725774169921875,-0.0007677837274968624,-0.00036191404797136784,0.0017892681062221527
