time,seconds_elapsed,z,y,x
1690840276709087500,0.20708740234375,0.2580816118657589,0.07127869985392317,0.003527872732048854
1690840276719128300,0.21712841796875,0.26317981178760524,0.10174750614203512,0.008016809048596769
1690840276729168100,0.227168212890625,0.2817839744925499,0.10777396335732191,0.004304825621028431
1690840276739208200,0.237208251953125,0.2875602198064327,0.13394414086975157,-0.012597090610140003
1690840276749248300,0.247248291015625,0.27288345967829225,0.14221143581438808,-0.01771466651931405
1690840276759289300,0.257289306640625,0.2723153044015169,0.13507104427414013,-0.006377234281180426
1690840276769329400,0.267329345703125,0.27343291025459765,0.13875406190212816,-0.005440980910952202
1690840276779400400,0.277400390625,0.2666524563342333,0.13777860446609555,-0.005315797328436747
1690840276789440300,0.287440185546875,0.26520751822292804,0.046885779413394627,-0.0053084908048156645
1690840276799480300,0.297480224609375,0.24585399845540523,0.008082951353676617,0.005055315194767899
1690840276809521200,0.307521240234375,0.2395803250133991,-0.015531477261334657,0.0030064563735621047
1690840276819561200,0.317561279296875,0.23384908788502215,-0.050179925587959584,-0.002822409610124305
1690840276829601300,0.327601318359375,0.22416180660724638,-0.07612108011748642,0.0018776761059183626
1690840276839642400,0.337642333984375,0.21773615747392178,-0.1020666916264221,-0.002768898457754403
1690840276849682400,0.347682373046875,0.2126753669530153,-0.12314962900243699,-0.00996233992606867
1690840276859722200,0.35772216796875,0.19969605839252472,-0.1395510574987158,0.0010018431194592267
1690840276869762300,0.36776220703125,0.19983342103660107,-0.15177048760261386,0.008761645199684425
1690840276879803100,0.37780322265625,0.19207740008234978,-0.15286467604748905,0.0012170385064091533
1690840276889843200,0.38784326171875,0.20408114160895346,-0.15787103296741842,-0.00495847635732498
1690840276899883300,0.39788330078125,0.1987812816351652,-0.1381676768489182,-0.005995130495261401
1690840276909924400,0.40792431640625,0.20666648192703724,-0.12264164294768123,-0.00019239446667488664
1690840276919994400,0.417994384765625,0.22132161474525927,-0.11194105644151568,-0.000596933846687898
1690840276930035500,0.428035400390625,0.22074118450880048,-0.08333579726926982,-0.006813885832508094
1690840276940075300,0.4380751953125,0.22974457517564295,-0.06172737471442669,-0.0009240697420900687
1690840276950115300,0.448115234375,0.2341220596075058,-0.03860116800777614,-0.0028913009947165846
1690840276960155100,0.458155029296875,0.24373802921473978,-0.018278657077625392,-0.000890277070342563
1690840276970196200,0.4681962890625,0.23900398643016812,0.002465148004516959,-0.0038577622735407203
1690840276980236300,0.478236328125,0.24066870477199553,0.013514621013589202,-0.00048207529536448417
1690840276990276400,0.4882763671875,0.24785657044947146,0.02592752786297351,0.002411047763680108
1690840277000317400,0.4983173828125,0.24800971518456935,0.03309303557816893,-0.0008176958913216367
1690840277010357200,0.508357177734375,0.2526251000255346,0.027642295891605315,-0.00600377045944333
1690840277020397300,0.518397216796875,0.24240824191570282,0.025993396173417567,-0.008636415951396338
1690840277030437000,0.52843701171875,0.23621464797258376,0.022955782043188808,-0.0023750083359191194
1690840277040478200,0.538478271484375,0.22641163136065004,0.013143924537673591,-0.0016826101915445178
1690840277050518300,0.548518310546875,0.2246715096950531,0.0011592165051028131,-0.003489043125580065
1690840277060589300,0.55858935546875,0.22845453536510466,-0.013140819265134631,-0.00030741284820251166
1690840277070629400,0.56862939453125,0.21530454641282556,-0.018425116343609986,-0.004044380019977689
1690840277080669200,0.578669189453125,0.2060229233264923,-0.036660884127579625,-0.0032090023414930325
1690840277090710300,0.588710205078125,0.20062135654389857,-0.051925161820091305,0.001224098434858024
1690840277100750000,0.59875,0.20418635554909706,-0.05198529450949281,0.0036874883071286602
1690840277110790100,0.6087900390625,0.2105769333690405,-0.0642191184649244,0.0015358038656879216
1690840277120830200,0.618830322265625,0.20453882224857806,-0.05768518665153533,-0.0008170246044639498
1690840277130871300,0.628871337890625,0.1981973442673683,-0.06850300632920116,-0.0015314473509788513
1690840277140911400,0.638911376953125,0.20681904214024543,-0.05909081566575914,-0.004686915707215666
1690840277150951200,0.648951171875,0.21320085213184356,-0.05044051275290549,0.0007041022819001227
1690840277160992300,0.6589921875,0.2181014836549759,-0.05196911055967211,-0.0064951296063838525
1690840277171032000,0.669031982421875,0.21508768879175186,-0.03818944540172815,-0.00678859156104736
1690840277181072100,0.679072021484375,0.21970950337350367,-0.016658873856067655,-0.005506438229442574
1690840277191112200,0.6891123046875,0.22031623709499834,-0.005653934108465909,0.002055288561992347
1690840277201183200,0.699183349609375,0.22287352036237715,-0.006629062750935554,0.002627425894141197
1690840277211224300,0.709224365234375,0.21677286539971827,-0.00042012510821223256,-0.0011254512328188865
1690840277221264400,0.719264404296875,0.23671616775393484,0.01722414305601269,0.0017033607186283915
1690840277231304200,0.72930419921875,0.22793314183950422,0.015411540676094591,-0.00032022666400298476
1690840277241344300,0.73934423828125,0.2164718366265297,0.012549684971570968,-0.0015491611041827127
1690840277251385000,0.749385009765625,0.23403905749917028,0.011737126479670405,-0.0010357271227519958
1690840277261425200,0.759425048828125,0.2236158631622791,-0.0006740998692810536,-0.00459029606548138
1690840277271465200,0.76946533203125,0.21259002675712108,0.0027117797093465924,-0.005069019493134692
1690840277281506300,0.77950634765625,0.21219021378457545,-0.002689312149211764,0.0024996119631221516
1690840277291546400,0.78954638671875,0.21163550251126287,-0.009458988947235047,-0.005494651893526315
1690840277301586200,0.799586181640625,0.20926292816102504,-0.017155534799210725,0.002725383543013595
1690840277311626200,0.809626220703125,0.21122224553525445,-0.026315431202016768,0.0024153814455028623
1690840277321667000,0.8196669921875,0.20853169127702711,-0.030279037603363392,-0.00444475011494942
1690840277331710200,0.829710205078125,0.20478198335468767,-0.033693558754585684,-0.002894566097459756
1690840277341781000,0.839781005859375,0.19698913752138614,-0.03672456048093736,-0.0074530422525713215
1690840277351821000,0.849821044921875,0.20609598856270311,-0.030597236707061527,0.0014120861544739455
1690840277361860900,0.85986083984375,0.21893618091344832,-0.042170404796674846,0.00875000499424059
1690840277371902000,0.86990185546875,0.18463994355797766,-0.033213447087444364,0.007218964068638161
1690840277381942000,0.87994189453125,0.2042103209465742,-0.024049605161882936,-0.0090274565290194
1690840277391982000,0.889982177734375,0.19849720399677753,-0.027902517730370162,-0.022548877176153472
1690840277402022100,0.900022216796875,0.20475743343532085,-0.014311580077558755,-0.026522973005473613
1690840277412063200,0.910063232421875,0.20727906086742875,-0.009389394309744238,-0.01836462289460469
1690840277422103000,0.92010302734375,0.22342238641679285,-0.008900478281639515,-0.0039959514681017026
1690840277432142800,0.930142822265625,0.21307517992556094,0.002446224108338356,-0.0024356068162014704
1690840277442184000,0.940183837890625,0.2106722104370594,0.017004983879998326,0.011072634688951075
1690840277452224000,0.95022412109375,0.20753157432377337,0.021575652796402573,0.026119406306417656
1690840277462264000,0.96026416015625,0.20710078169107435,0.0088159783359617,0.037333805819926784
1690840277472304000,0.97030419921875,0.2132768399775028,-0.000042377837002277374,0.035340841904422264
1690840277482375000,0.980375,0.20330665010511875,-0.008202376482263208,0.02088017677895259
1690840277492416000,0.990416015625,0.20411270579099655,-0.012347732658684253,-0.00680198989873752
1690840277502456000,1.0004560546875,0.2071604029238224,-0.012458207295835017,-0.038174741022940724
1690840277512495900,1.010495849609375,0.22171499797701835,-0.008868658371269702,-0.046788305821712124
1690840277522536000,1.020535888671875,0.2082628112077713,-0.004350011903047561,-0.05925220763939432
1690840277532577000,1.030576904296875,0.2085626709371805,-0.01721132010705769,-0.0353954033695627
1690840277542617000,1.0406171875,0.19837270083427427,-0.012782799607701598,0.0022383352450095115
1690840277552657000,1.050656982421875,0.20134967081844807,-0.017452362321317194,0.032626865671412084
1690840277562698000,1.060697998046875,0.18218378257751464,-0.024073314831033348,0.05930804774616845
1690840277572738000,1.070738037109375,0.1827741496860981,-0.03349270242024213,0.059923252468486315
1690840277582777900,1.08077783203125,0.16750819149315357,-0.029403935269266365,0.030085127033037132
1690840277592818000,1.09081787109375,0.19024433943629263,-0.019332294316403566,-0.013359544616308994
1690840277602859000,1.10085888671875,0.19427052621245383,-0.02498531510941684,-0.05340304321977309
1690840277612899000,1.110899169921875,0.20383271980583667,-0.017073519071564076,-0.06444223686342593
1690840277622970000,1.12097021484375,0.22370646405518055,-0.017339549596607683,-0.06684641649490222
1690840277633010000,1.131010009765625,0.23025661635100841,-0.009322758814319968,-0.04728021295792423
1690840277643050000,1.141050048828125,0.20612872178852557,0.0012093392571434379,0.005210281994193792
1690840277653091000,1.151091064453125,0.1945803228139877,-0.0008658230490982532,0.0492530428342754
1690840277663131000,1.161130859375,0.17077216172516346,0.011257818530127405,0.07607762000167276
1690840277673171000,1.1711708984375,0.1806517507046461,0.003542385314591229,0.08366946793673559
1690840277683211000,1.1812109375,0.18052900110781192,-0.00847202373649925,0.05810911571860779
1690840277693252000,1.191252197265625,0.1846072103321552,-0.007706738452427089,0.0036573397640371694
1690840277703292000,1.2012919921875,0.21696984927654264,-0.0062523018604144455,-0.04939227320845239
1690840277713332000,1.21133203125,0.23765900156199932,-0.003207198543474078,-0.08688178104674443
1690840277723373000,1.221373046875,0.21687691029608247,-0.007712583671323954,-0.10087950940215959
1690840277733412900,1.231412841796875,0.22990122704207896,-0.0004989259654656052,-0.08951426670849323
1690840277743453000,1.241452880859375,0.20131109237372874,0.0026317002104595303,-0.04595497853641864
1690840277753493000,1.251492919921875,0.19875322458446024,-0.008615450795181095,0.012915202948870136
1690840277763564000,1.26156396484375,0.17226327706575392,-0.012213694482855498,0.07110307842553593
1690840277773603800,1.271603759765625,0.16613222696483135,-0.020911307136155664,0.10214703598679042
1690840277783645000,1.28164501953125,0.1737754351943731,-0.02538794109355658,0.095922982973326
1690840277793685000,1.29168505859375,0.17708558265566826,-0.020080482335202394,0.058234605261799875
1690840277803725000,1.30172509765625,0.17470774760842323,-0.02314388849381357,-0.005759540774254128
1690840277813766000,1.311765869140625,0.2170598656475544,-0.015118402948416768,-0.07370251576763112
1690840277823806000,1.321805908203125,0.22437983327209948,-0.017028255157731473,-0.10320014350260608
1690840277833846000,1.331845947265625,0.2239040324538946,-0.016772672961466013,-0.10432068109828978
1690840277843885800,1.3418857421875,0.2190764661669731,-0.022292313165776432,-0.07985917066726833
1690840277853927000,1.351927001953125,0.20361936931610106,-0.02008490278199315,-0.03296560067306273
1690840277863967000,1.361967041015625,0.18877075975239277,-0.0058074807023629545,0.037237747867195865
1690840277874007000,1.372007080078125,0.17244272528588772,-0.010536774246580899,0.08195826183836907
1690840277884048000,1.3820478515625,0.1731967585235834,-0.005418079525977373,0.09789319620090536
1690840277894088000,1.392087890625,0.17815642675757407,0.009892704189382493,0.08161543975006788
1690840277904159000,1.402158935546875,0.17564356715381144,-0.008215199431218206,0.028368820067867635
1690840277914199000,1.412198974609375,0.2075520325899124,-0.014930296497792005,-0.02942474516185466
1690840277924238800,1.42223876953125,0.2132692411929369,-0.009665873163565993,-0.07465464256042614
1690840277934280000,1.432280029296875,0.22854805886745452,-0.010855667470023036,-0.09216194993937388
1690840277944320000,1.442320068359375,0.22046938183009623,-0.0133802540441975,-0.07985411089966073
1690840277954360000,1.452360107421875,0.2029506762742996,-0.0006137114515528082,-0.04969646661968436
1690840277964400000,1.462400146484375,0.18602876756787298,-0.0030830241745337843,0.006488973860233091
1690840277974441000,1.47244091796875,0.1803290946215391,-0.007995784526877105,0.04504595109983347
1690840277984481000,1.48248095703125,0.17300211273431776,-0.01104154543094337,0.07708776972517371
1690840277994520800,1.492520751953125,0.1836404111266136,-0.016929909349791706,0.07282973325478379
1690840278004562000,1.50256201171875,0.18815292011499404,-0.016074973020888863,0.04947714304688852
1690840278014602000,1.51260205078125,0.19236498485207557,-0.02511014706548303,0.001566381667042151
1690840278024642000,1.52264208984375,0.19762100568413735,-0.017924254149384797,-0.03673626461846288
1690840278034682000,1.53268212890625,0.19492752881646155,-0.018134828160144386,-0.06420344597175717
1690840278044723000,1.542722900390625,0.21331600294411182,-0.011889978953823446,-0.06654665266361552
1690840278054793200,1.552793212890625,0.21194296102523802,-0.008003967833332718,-0.05503815187462605
1690840278064834000,1.562833984375,0.19380407774448394,-0.013543152988329529,-0.02402942545695696
1690840278074873900,1.572873779296875,0.18658815501630305,-0.014658566884323954,0.021626478801341727
1690840278084914000,1.582913818359375,0.18342472254931927,-0.010679287989810108,0.04443327169474214
1690840278094955000,1.592955078125,0.17025719794034957,-0.014211663367040455,0.05329469660762697
1690840278104995000,1.6029951171875,0.1758019725859165,-0.011230857457965612,0.04202760792565532
1690840278115035100,1.61303515625,0.1874929949015379,-0.00902337400894612,0.019078520484734327
1690840278125075200,1.6230751953125,0.20756781468093394,-0.01082242278754711,-0.008663596219266764
1690840278135116000,1.633115966796875,0.21102759974598884,-0.008759900767169893,-0.025239901791838926
1690840278145155800,1.64315576171875,0.19891338358223437,-0.0012047726798802613,-0.04670031244442798
1690840278155196000,1.65319580078125,0.20310674361884593,-0.005233443674072623,-0.04893846502634697
1690840278165237000,1.663237060546875,0.19771336014270782,-0.007407792038470506,-0.0339189239091007
1690840278175277000,1.673277099609375,0.1881277856737375,-0.00485942272990942,-0.011205567753082141
1690840278185317000,1.683317138671875,0.19096447040438652,-0.01702460189592093,0.013804968562559224
1690840278195388200,1.69338818359375,0.17480711632966994,-0.015687288877554238,0.03805403725272044
1690840278205428200,1.70342822265625,0.1742208408743143,-0.012483305204473435,0.041151437012478705
1690840278215469000,1.713468994140625,0.189501412114501,-0.012309483007527888,0.03240283852403518
1690840278225508900,1.7235087890625,0.19042086504697797,-0.018669702221825717,0.007074692193162627
1690840278235549000,1.733548828125,0.1844505584657192,-0.011526187142729759,-0.02012084174505435
1690840278245589000,1.743589111328125,0.19178981531262396,-0.0047899011576548215,-0.03915423987985123
1690840278255630000,1.753630126953125,0.21033961748182772,-0.006226911690831184,-0.05127444739297498
1690840278265670100,1.763670166015625,0.2026934866428375,-0.009167349056899548,-0.04305705600467045
1690840278275710200,1.773710205078125,0.18471300879418848,-0.003921922684088349,-0.016729331576661205
1690840278285750000,1.78375,0.18094751878082752,-0.007154584462381899,0.010156725420430302
1690840278295790800,1.793790771484375,0.186468912550807,-0.01797700724992901,0.0402085712383734
1690840278305831000,1.803830810546875,0.17374737814366817,-0.014919446310214697,0.05138283510431647
1690840278315871000,1.81387109375,0.18303718453645706,-0.013060045646503567,0.046501912928652016
1690840278325912000,1.823912109375,0.17572247760891913,-0.012009404082410037,0.03171271453513764
1690840278335977000,1.83397705078125,0.18995967727601526,-0.0117640875518322,0.010314610262727364
1690840278346017800,1.844017822265625,0.18877894305884838,-0.009773753984831273,-0.016004889759630894
1690840278356057900,1.854057861328125,0.1871352675050497,-0.0015052534637972712,-0.03395343810005579
1690840278366098000,1.864097900390625,0.19954583626687525,-0.0041932504387572405,-0.04499884228878654
1690840278376139000,1.874138916015625,0.1956365538686514,-0.0021245909385383126,-0.04501469744504429
1690840278386179000,1.884178955078125,0.1861936027407646,-0.0032578692847862836,-0.019708119058585726
1690840278396219000,1.894218994140625,0.1882762542337179,-0.005796922775730491,0.007120577161503024
1690840278406259000,1.904259033203125,0.1828910540640354,-0.017586911953799425,0.030200245879264547
1690840278416299800,1.9142998046875,0.18110650873482226,-0.021906017261929808,0.04774145096123684
1690840278426339800,1.92433984375,0.1811269670009613,-0.016544380630925296,0.0396769805457443
1690840278436380000,1.9343798828125,0.17097148368954657,-0.01533748905919492,0.019235062753316014
1690840278446421000,1.9444208984375,0.1799590922653675,-0.01276566580981016,-0.007793740882445126
1690840278456461000,1.9544609375,0.1872907503277063,-0.008602189454808831,-0.0375747841021046
1690840278466501000,1.964501220703125,0.18608488166928291,-0.008080832461826502,-0.04396201005433686
1690840278476572000,1.974572021484375,0.19309739077985286,-0.006864223213680088,-0.05027993819660041
1690840278486612000,1.984612060546875,0.18843933584094047,-0.011514606302790343,-0.040969591339281755
1690840278496651800,1.99465185546875,0.187819158115983,-0.005780300434492528,-0.00871019814023748
1690840278506692900,2.00469287109375,0.18196634043455123,-0.004610964394174516,0.011553723603626713
1690840278516733000,2.01473291015625,0.16819675827920436,-0.011669066212140023,0.03901410532337613
1690840278526773000,2.02477294921875,0.1795809066027403,-0.02513246849514544,0.05741558506307192
1690840278536814000,2.03481396484375,0.1944160721629858,-0.023640768632665274,0.04274394406804349
1690840278546854000,2.04485400390625,0.18111936821639538,-0.012175042972899973,0.02818620720969047
1690840278556894000,2.05489404296875,0.1895183632493019,-0.0013772431699559092,0.00126069498504512
1690840278566933800,2.064933837890625,0.18728081345558165,0.00192859344240278,-0.036497222565044646
1690840278576974800,2.074974853515625,0.19520576123595237,0.011260156617686153,-0.055893348498432895
1690840278587015000,2.085014892578125,0.18920389047265052,-0.0009543050501495599,-0.060816401915927416
1690840278597055000,2.095054931640625,0.20833353835642338,-0.0029040143458172675,-0.057455190987675445
1690840278607096000,2.105095947265625,0.2003846251785755,-0.01686966706253588,-0.02415608404392842
1690840278617165800,2.115165771484375,0.19663550177812575,-0.01586838106550276,0.012947461250657214
1690840278627207000,2.12520703125,0.17464228115677832,-0.010201770138554275,0.04920818077924195
1690840278637246700,2.135246826171875,0.1623831035643816,-0.019024653139337898,0.0662264442659216
1690840278647286800,2.145286865234375,0.15432020861804485,-0.01576934113781899,0.05725831670870538
1690840278657327900,2.155327880859375,0.17094576472640036,-0.013114698443189262,0.03720742122759111
1690840278667368000,2.165367919921875,0.17125556132793426,-0.017025003754720092,-0.0011254192667780444
1690840278677408000,2.175407958984375,0.18667232616841792,-0.009635697221010923,-0.03396154377469793
1690840278687447800,2.18544775390625,0.1981844847857952,-0.004355418730527162,-0.06909528226708062
1690840278697489000,2.195489013671875,0.2060971576064825,-0.0072447469638660545,-0.07370033294369932
1690840278707528700,2.20552880859375,0.19634733248651026,-0.00970419587995857,-0.05195772151597775
1690840278717568800,2.21556884765625,0.18750176272988317,-0.015996391359344123,-0.021974095795769245
1690840278727608800,2.22560888671875,0.19317630123496055,-0.010549962521716952,0.01502820848089177
1690840278737650000,2.23564990234375,0.1651969919413328,-0.015035620035789905,0.042886581108858804
1690840278747690000,2.24568994140625,0.18451777848303316,-0.016554025242105124,0.0512577154538827
1690840278757760800,2.2557607421875,0.1764607287555933,-0.01790748567767441,0.04886014822628349
1690840278767800800,2.26580078125,0.17528700880110262,-0.013819229983352124,0.025884204744477755
1690840278777841000,2.2758408203125,0.1881681176841259,0.0032158567739650605,-0.001105714485887438
1690840278787881700,2.2858818359375,0.19445231252014636,-0.0050209334345534444,-0.03430962656000629
1690840278797921800,2.295921875,0.2020703863084316,-0.0037074762158095837,-0.051934240175690496
1690840278807961900,2.3059619140625,0.19128011222481728,-0.007745536092855036,-0.048640961650805545
1690840278818003000,2.3160029296875,0.18542904810905456,-0.011539411950483917,-0.034319924191734755
1690840278828043000,2.32604296875,0.1911041711360216,-0.013144326396472752,-0.020437967703095635
1690840278838082800,2.336082763671875,0.181079036206007,-0.011844276648573576,0.0017859016026603057
1690840278848123000,2.346122802734375,0.16956629306674004,-0.020252441368624568,0.021093367438483984
1690840278858163700,2.356163818359375,0.17406944970488547,-0.014086246889084577,0.026089157298626375
1690840278868203800,2.366203857421875,0.17363631898462772,-0.015250906754285096,0.023857388791721314
1690840278878243800,2.376243896484375,0.17065350378155708,-0.009998831444978713,0.0077398324378533286
1690840278888285000,2.386284912109375,0.17424422174990176,-0.0047643648575991385,0.0030711236741859465
1690840278898354700,2.396354736328125,0.18216566239893436,-0.007793101561628281,-0.021977776457043362
1690840278908395800,2.406395751953125,0.1827513533324003,-0.012083601829782128,-0.0333017646917142
1690840278918435800,2.416435791015625,0.18857377587556837,-0.014827566775679587,-0.03283195065630134
1690840278928476000,2.426475830078125,0.19170739772617815,-0.009324439314752816,-0.028356814536242746
1690840278938516000,2.436515869140625,0.18347732951939105,-0.019868447019718585,-0.003703708789567463
1690840278948556800,2.446556884765625,0.1758504879027605,-0.01965495039951056,0.001568011935125105
1690840278958596900,2.456596923828125,0.17825696452260018,-0.015377857602201402,0.0040018286530394106
1690840278968637000,2.466636962890625,0.17527356479763984,-0.014671499431133269,0.011832289383257739
1690840278978678000,2.476677978515625,0.17842472230494022,-0.013581987161375582,0.010682142100599593
1690840278988717800,2.4867177734375,0.17453765173852442,-0.011448664927110075,0.004781832015630789
1690840278998758000,2.4967578125,0.18860124840438364,-0.006040010816603898,-0.005990810513170436
1690840279008798000,2.5067978515625,0.1857493661046028,-0.01021557946819812,-0.007635522680007852
1690840279018838800,2.5168388671875,0.18124971659779548,-0.007990633427724242,-0.015656286384514533
1690840279028878800,2.52687890625,0.18348668186962602,-0.013145093581452966,-0.016792747635114937
1690840279038950000,2.536949951171875,0.17675474326610563,-0.01682023843023926,-0.00821750555273611
1690840279048989700,2.54698974609375,0.18199556652903556,-0.012227430747263133,-0.008823426423477939
1690840279059029800,2.55702978515625,0.19202946928739548,-0.014021839883364737,-0.013887025389401241
1690840279069070800,2.56707080078125,0.1903945615619421,-0.012002864743769168,0.003318668694468215
1690840279079111000,2.57711083984375,0.18830548032820224,-0.0064021586598828435,0.004957097250991501
1690840279089151000,2.58715087890625,0.18112579795718192,-0.004963504158891737,0.0012694217141950503
1690840279099191800,2.59719189453125,0.17902970246076583,-0.007825031069852412,0.0043783794810064135
1690840279109231900,2.60723193359375,0.17168986109197137,-0.003919730727002024,0.00008105674642138182
1690840279119272000,2.61727197265625,0.16913725399971008,-0.007213511575385928,0.005560922062769532
1690840279129311700,2.627311767578125,0.18005378481149673,-0.0076158452985808246,-0.0030343672937946393
1690840279139352800,2.637352783203125,0.17870178568065165,-0.010071567887626589,-0.012503886768198571
1690840279149393000,2.647392822265625,0.18558686901926993,-0.014659297536686062,-0.01918176623007748
1690840279159433000,2.657432861328125,0.19471359380483627,-0.017649821122176945,-0.01802408866151236
1690840279169473800,2.667473876953125,0.1828957302391529,-0.013756065086647867,-0.012954247184470295
1690840279179544000,2.6775439453125,0.17167700161039828,-0.011809607193991541,-0.006794856905052438
1690840279189585000,2.6875849609375,0.17960954817533492,-0.017861125785298644,-0.00907869352591224
1690840279199624700,2.697624755859375,0.18454875814318655,-0.008070457198284565,0.006838960908260196
1690840279209664800,2.707664794921875,0.1776630902826786,0.0008375102700665593,0.0004422319087432697
1690840279219704800,2.717704833984375,0.17870587733387946,-0.014746756624430417,-0.0029977753101848065
1690840279229746000,2.727745849609375,0.17391455140411852,-0.015904183031246064,-0.000714746973500587
1690840279239786000,2.737785888671875,0.18483751195669174,-0.010714834227226674,-0.008790670364769175
1690840279249826000,2.747825927734375,0.18348843543529508,-0.01571417688447982,-0.011050537021574564
1690840279259867000,2.757866943359375,0.18364216469228267,-0.014519048815779386,-0.012848393923509865
1690840279269907000,2.767906982421875,0.1812520546853542,-0.016479571766406298,-0.012619791065715253
1690840279279946800,2.77794677734375,0.18080547996163368,-0.009950023867189883,-0.010437382692447863
1690840279289986800,2.78798681640625,0.18619477178454397,-0.007741334841772913,-0.0019846390451537443
1690840279300028000,2.79802783203125,0.18035890523791312,-0.004150032351538538,0.005152866418263875
1690840279310068000,2.80806787109375,0.18619301821887493,-0.006451806487888097,0.0021888198477448893
1690840279320139000,2.818138916015625,0.17855565520823,-0.005276040706783533,0.002812545803235844
1690840279330176500,2.828176513671875,0.1791530365794897,-0.011468027214705943,0.00471272600190714
1690840279340216600,2.838216552734375,0.18274024741649628,-0.013130991990864276,0.0027160357593558728
1690840279350257700,2.848257568359375,0.18498188886344433,-0.01743208671826869,-0.003861123274406418
1690840279360297700,2.858297607421875,0.1783954962104559,-0.01424490804951638,-0.013857210206449963
1690840279370337800,2.868337890625,0.17735095559358596,-0.015635485625080763,-0.012019692580983973
1690840279380377600,2.878377685546875,0.1773538782030344,-0.0077103551816195244,-0.007215502603072673
1690840279390418400,2.88841845703125,0.18543781593739986,-0.00564995205309242,-0.00882916204452049
1690840279400458500,2.89845849609375,0.18169862940907477,-0.0022762743689119813,0.0028131394582800564
1690840279410498600,2.90849853515625,0.18155191441476343,-0.007094707501307129,0.001965030162385665
1690840279420539600,2.91853955078125,0.1676326946556568,-0.003141512896120548,0.004500065065338276
1690840279430579700,2.928579833984375,0.17286942626535892,-0.006015424364618957,0.008321550449100323
1690840279440619800,2.938619873046875,0.17586159381866454,-0.006841134599037468,0.0023376720002153887
1690840279450659600,2.94865966796875,0.18528876285552978,-0.0073012629240751265,-0.0013022965039126574
1690840279460730600,2.958730712890625,0.1836445027798414,-0.010255180826224387,-0.008434034380246884
1690840279470771500,2.968771484375,0.1802075140684843,-0.009059066376835108,-0.014310013741557485
1690840279480811500,2.9788115234375,0.17691899391710758,-0.013104907701537011,-0.0037223404248012226
1690840279490851600,2.9888515625,0.1865033993422985,-0.01372340492606163,-0.00587997511641588
1690840279500891600,2.9988916015625,0.1745335600852966,-0.008131064811721444,-0.0006590073314262553
1690840279510932700,3.0089326171875,0.17498247289657592,-0.010805910044163465,-0.0005649815055774524
1690840279520972800,3.018972900390625,0.17947335457503794,-0.009266023658402263,-0.0029586717090802264
1690840279531012600,3.0290126953125,0.17633213393986225,-0.012099237790331244,-0.002886734417453408
1690840279541053400,3.039053466796875,0.1836626229584217,-0.018290457113273442,-0.00973152684487868
1690840279551093500,3.049093505859375,0.18111644560694692,-0.009707629946060479,-0.00035113325892016287
1690840279561133600,3.059133544921875,0.1821633243113756,-0.015556246376410126,-0.0030716990629211065
1690840279571173600,3.069173583984375,0.18096856156885624,-0.0175773038752377,-0.008458789795590563
1690840279581214700,3.079214599609375,0.1844125645428896,-0.014653598448261617,-0.007524522886471823
1690840279591254800,3.0892548828125,0.1794791997939348,-0.003117620563879609,-0.00825806132541038
1690840279601325600,3.09932568359375,0.18322481606304644,-0.009984401060827076,-0.009860249524773098
1690840279611365600,3.10936572265625,0.17499474785625935,-0.01131407876200974,-0.00269525783280842
1690840279621405700,3.11940576171875,0.17334639612734318,-0.003583411444723606,0.00832230850092601
1690840279631446500,3.129446533203125,0.18381985934674738,0.002170402841642499,0.010381378188892267
1690840279641486600,3.139486572265625,0.1748439412087202,-0.0052943435484543435,-0.005030148787470534
1690840279651526700,3.149526611328125,0.17095219446718693,-0.009691519061475992,-0.00038470216838177294
1690840279661566700,3.159566650390625,0.18172610193789004,-0.008077654124051332,0.005319706318574026
1690840279671607800,3.16960791015625,0.18112521343529223,-0.011912446513958275,-0.0045925839206902306
1690840279681647600,3.179647705078125,0.18606500792503355,-0.016029636041820047,-0.006324558812449686
1690840279691687700,3.189687744140625,0.1868131959438324,-0.018094861475937068,-0.007980965983658097
1690840279701728500,3.199728515625,0.18621347648501396,-0.014640154444798827,-0.0003398538130801171
1690840279711768600,3.2097685546875,0.19055238247215747,-0.003728226742893457,-0.0014359008549014105
1690840279721808600,3.21980859375,0.17753683355450628,0.004890110129117965,0.004710597976902499
1690840279731848700,3.2298486328125,0.17319500495791434,-0.0016439678147435188,0.012646382245118729
1690840279741919500,3.23991943359375,0.1763385636806488,-0.007464161868207156,0.003922329109464772
1690840279751960600,3.249960693359375,0.18202128549218177,-0.009825812965631484,-0.0012311857627704738
1690840279762000600,3.260000732421875,0.18007365855574606,-0.010625913834758102,-0.00891224178466946
1690840279772040700,3.270040771484375,0.1779769785374403,-0.007250372987054288,-0.011305694526154547
1690840279782080800,3.280080810546875,0.18949848950505255,-0.010940751937590538,-0.01612844764064066
1690840279792121600,3.29012158203125,0.18231354643702505,-0.02159143488742411,-0.009937730641197413
1690840279802161700,3.30016162109375,0.18246669117212294,-0.010832578855380415,-0.003573890131129883
1690840279812201700,3.31020166015625,0.18052023327946662,-0.011309804445691405,-0.00515766132439021
1690840279822242800,3.320242919921875,0.18231471548080444,-0.007425510358251631,-0.002171087828231975
1690840279832282600,3.33028271484375,0.17588439017236232,-0.010882263216003775,-0.0017739417368080467
1690840279842322700,3.34032275390625,0.17259470097720622,-0.01160984683819115,-0.0058482922033639625
1690840279852362800,3.35036279296875,0.17723171312808988,-0.007181655132398009,-0.0021825088379671797
1690840279862403600,3.360403564453125,0.1761860034674406,-0.007026574168540537,-0.0016312818631064145
1690840279872443600,3.370443603515625,0.17843465917706489,-0.00797583771739155,-0.008532311689527705
1690840279882514700,3.3805146484375,0.17648937032818793,-0.011856003618985414,-0.013212532794475554
1690840279892554500,3.390554443359375,0.18202888427674768,-0.012665018446929752,-0.010233238422474823
1690840279902594600,3.400594482421875,0.1797895809173584,-0.009653452073410153,-0.016548869576375
1690840279912635600,3.4106357421875,0.18862462927997112,-0.015737411629594862,-0.00914331516076345
1690840279922675700,3.42067578125,0.17889993860125541,-0.009090922819823027,-0.008958688442013226
1690840279932715800,3.4307158203125,0.17680618119239805,-0.007680106173828243,-0.008498459652275778
1690840279942755600,3.440755615234375,0.17830197270810602,-0.00036466859392821787,0.0018777035053819417
1690840279952796700,3.450796630859375,0.17426584905982018,-0.011663257525861262,-0.00001570445920806378
1690840279962836700,3.460836669921875,0.1765086595505476,-0.008444039751030504,-0.00304851455015596
1690840279972876500,3.47087646484375,0.17980302492082118,-0.000756700118817389,-0.00655700216172263
1690840279982917600,3.480917724609375,0.1733668543934822,-0.0063684390533715485,0.0009292299743974581
1690840279992957700,3.490957763671875,0.17336510082781315,-0.016603490407019854,-0.003933699886850081
1690840280002997800,3.500997802734375,0.16333587424457072,-0.015207031079940496,-0.006531068569445051
1690840280013037600,3.51103759765625,0.18278817821145057,-0.007724931696243584,-0.007485040259454399
1690840280023108600,3.521108642578125,0.17874562482237816,-0.012124810623005031,0.002708012283104472
1690840280033148400,3.5311484375,0.17350597060322762,-0.013215930327959358,-0.005479070731904357
1690840280043189500,3.541189453125,0.17739947091042996,-0.005949227260611951,-0.009989396896352991
1690840280053229600,3.5512294921875,0.17754326329529285,-0.008953998567163944,-0.002658405554294586
1690840280063269600,3.56126953125,0.18307634750306606,-0.012204561328329146,0.003979936481639743
1690840280073310700,3.571310791015625,0.17858838843405245,-0.008620200035534799,0.0012223814018070696
1690840280083350800,3.581350830078125,0.18652619569599627,-0.013083536119945347,-0.009848632152215576
1690840280093390600,3.591390625,0.18218904327452182,-0.013443638136610389,-0.008595650116167962
1690840280103430700,3.6014306640625,0.17979717970192433,-0.009176811004988848,-0.005055328894499689
1690840280113471700,3.6114716796875,0.18099954122900963,-0.01065316716786474,-0.006827343535702675
1690840280123511600,3.621511474609375,0.18354571858048438,-0.008318404077365994,-0.006152586079295724
1690840280133551600,3.631551513671875,0.1759118627011776,-0.007779913286492228,-0.009263429842516779
1690840280143592700,3.6415927734375,0.1717202562302351,-0.004089497803337872,-0.0029276144171133636
1690840280153632800,3.6516328125,0.1678255868792534,-0.010498341932334005,0.0025849886916344982
1690840280163703800,3.661703857421875,0.1714139667600393,-0.015381656994484363,-0.009038160586124286
1690840280173743600,3.67174365234375,0.16228198127746582,-0.014181158630922435,-0.009311036410485394
1690840280183783400,3.681783447265625,0.1790402238547802,-0.006279482128284871,-0.002180394512694329
1690840280193824500,3.691824462890625,0.1814355945587158,-0.009387275417894124,-0.0052907953179208555
1690840280203864600,3.701864501953125,0.16796704117655753,-0.0142200658692047,-0.0006798628897871821
1690840280213904600,3.711904541015625,0.16033143173158168,-0.007437712252698838,0.001553937743999995
1690840280223944700,3.72194482421875,0.18142974933981895,-0.005635192875377833,-0.004401719257398508
1690840280233985500,3.731985595703125,0.17439678196310995,-0.005036678992956877,-0.008076402881881222
1690840280244025600,3.742025634765625,0.16646774252951144,-0.008995097762532532,-0.011206997091765515
1690840280254065400,3.7520654296875,0.17036065831482408,-0.012379589101672172,-0.0062405292242299765
1690840280264106500,3.7621064453125,0.1872650313645601,-0.0071047174386680125,-0.001985862887860276
1690840280274146600,3.772146484375,0.16945757199525832,-0.0036884792543947693,-0.0037675267068203538
1690840280284186600,3.7821865234375,0.17379706250429153,-0.008620236568152905,-0.007644290508353151
1690840280294226700,3.792226806640625,0.18157704885601997,-0.0023761180141940712,-0.00348840380476322
1690840280304297700,3.802297607421875,0.1830734248936176,-0.007195610592514276,-0.006140379618271253
1690840280314337800,3.812337890625,0.18262509660422802,-0.006862798441573977,-0.009691825022152625
1690840280324378600,3.822378662109375,0.17679390623271465,-0.012108918934129178,-0.011776499508833513
1690840280334403000,3.832403076171875,0.17904139289855955,-0.013203216976858674,-0.008134759172727353
1690840280344443100,3.842443115234375,0.16931670221984385,-0.010040149836055935,-0.012803655166062525
1690840280354484000,3.85248388671875,0.1739542988926172,-0.009156644999794662,-0.010388177822437136
1690840280364524000,3.86252392578125,0.17784253850281237,-0.005635960060358047,-0.004801230835844762
1690840280374564000,3.872564208984375,0.17858721939027308,-0.007532879722863435,-0.0058243542053503915
1690840280384604200,3.882604248046875,0.1836702217429876,-0.009474186516366898,-0.0008159423256525769
1690840280394645200,3.892645263671875,0.18336977749168873,-0.011339359333738685,-0.00904444876301568
1690840280404685000,3.90268505859375,0.18202128549218177,-0.01276822309307754,-0.00947193062719889
1690840280414725000,3.91272509765625,0.18231997617781162,-0.011590119224414228,-0.005056114345788955
1690840280424766000,3.922765869140625,0.1770838290899992,-0.012326324544474482,-0.012563713496923446
1690840280434806000,3.932805908203125,0.1700514462351799,-0.008569456228986382,-0.0003197106407722458
1690840280444877000,3.942876953125,0.17259703906476498,-0.012279635858535766,0.001782727831462398
1690840280454917000,3.952917236328125,0.17259879263043404,-0.00864153508450836,-0.003632310354057699
1690840280464957200,3.962957275390625,0.16945757199525832,-0.0011488777741789817,-0.002131066345097497
1690840280474998300,3.972998291015625,0.1691618039190769,-0.0056924760205671185,-0.002921075078472495
1690840280485038000,3.9830380859375,0.17410393649637698,-0.012318981488235294,0.005659902624948881
1690840280495078100,3.993078125,0.17589958774149417,-0.007680654163099825,0.005968183122831396
1690840280505118200,4.0031181640625,0.1732107870489359,-0.017149579982459542,0.00428009760514833
1690840280515159000,4.013158935546875,0.17545476658344267,-0.011623473504744469,0.0011128383464179931
1690840280525199000,4.02319921875,0.18323942911028862,-0.012867847542650997,0.0005125480654416606
1690840280535239200,4.0332392578125,0.17725684756934643,-0.01231280747577548,0.0006183236945886165
1690840280545279000,4.043279052734375,0.17830489531755447,-0.010805106326565147,-0.005822011551214382
1690840280555320000,4.053320068359375,0.17426175740659236,-0.011040449452400207,0.000004781206394545733
1690840280565360000,4.063360107421875,0.16782617140114306,-0.01243055210392922,-0.003088403602549806
1690840280575400200,4.073400146484375,0.16842296825051306,-0.011125826180912554,-0.002878172085084952
1690840280585471200,4.08347119140625,0.173811091029644,-0.01079622890036553,-0.006124232201068662
1690840280595511300,4.09351123046875,0.1751572449415922,-0.015289594796858727,-0.0024438540547387674
1690840280605552000,4.10355224609375,0.17605623960793018,-0.015846571092493832,0.000981352887279354
1690840280615592200,4.11359228515625,0.17979659518003463,-0.012724457016587257,0.0016141297989059238
1690840280625632000,4.123632080078125,0.18324176719784735,-0.012612703737802803,-0.004892566947685554
1690840280635673000,4.133673095703125,0.1821937194496393,-0.0027348683239892123,-0.010142390934401191
1690840280645713200,4.143713134765625,0.16888006436824798,-0.006052176178433,-0.01658599128294736
1690840280655753200,4.153753173828125,0.17262451159358025,-0.012820245541259646,0.0006213513353141025
1690840280665793300,4.163793212890625,0.17337620674371718,-0.014655388546548784,0.001020018096966669
1690840280675834000,4.173834228515625,0.17726795348525046,-0.0074263871410861606,-0.000389725403371267
1690840280685874200,4.183874267578125,0.16529928327202795,-0.00616977467611432,-0.0022971938593545926
1690840280695914000,4.1939140625,0.1819119798988104,0.00019789719227701424,-0.007360299634933471
1690840280705955000,4.203955078125,0.1726385401189327,-0.005822130282223224,-0.00577246875448618
1690840280715995100,4.2139951171875,0.17188859853446484,-0.011095029183849692,-0.008988069800124503
1690840280726066200,4.224066162109375,0.17143968572318552,-0.00582622193545103,-0.005415321313310414
1690840280736106200,4.234106201171875,0.17024200037121773,-0.010049136860109865,-0.008937641087407246
1690840280746146300,4.244146240234375,0.1781722088485956,-0.011873539275676012,-0.008574337900080718
1690840280756186400,4.254186279296875,0.17922142564058302,-0.009567746551334858,-0.005071375847002491
1690840280766227200,4.264227294921875,0.17906828090548516,-0.008349274139665066,-0.0037407893969444556
1690840280776267000,4.27426708984375,0.17412790189385413,-0.008123612157627939,-0.007176216338877566
1690840280786307000,4.28430712890625,0.18370529305636882,-0.006930164589360356,-0.005397164602112025
1690840280796348200,4.29434814453125,0.18295652051568032,-0.0016943462951108813,0.002180992734315805
1690840280806388200,4.30438818359375,0.1762210747808218,-0.002065663825534284,-0.00299213102068752
1690840280816428300,4.31442822265625,0.1702344015866518,-0.013770751199126243,-0.0001148494181688875
1690840280826468400,4.32446826171875,0.17666881854832173,-0.013910086604580282,-0.0015748070020927115
1690840280836509200,4.33450927734375,0.17502338942885398,-0.009085698655433952,-0.0034645525717176494
1690840280846549000,4.344549072265625,0.16799042205214498,-0.009379311307147144,-0.007384648624900728
1690840280856589000,4.354589111328125,0.17622165930271147,-0.014284582472778857,-0.004761876072990708
1690840280866660000,4.36466015625,0.1694885516554117,-0.007557466174848378,0.006392756077297963
1690840280876700200,4.3747001953125,0.18011223700046539,-0.0075609367735683915,0.0002232234297785908
1690840280886741200,4.3847412109375,0.1837023704469204,-0.012398841791413723,-0.001327106718183495
1690840280896781300,4.39478125,0.18071137193739414,-0.009234788269922137,-0.007031218377617187
1690840280906821000,4.404821044921875,0.18370880018770694,-0.013003931545093654,-0.009042215706733987
1690840280916862200,4.4148623046875,0.17802374028861523,-0.013544431629963218,-0.0037074762158095837
1690840280926902000,4.424902099609375,0.18266659765839577,-0.008340835104882717,-0.000878006677236408
1690840280936942000,4.434942138671875,0.17623861043751238,-0.005024002174474298,-0.003943202934134751
1690840280946982100,4.444982177734375,0.17489245652556418,-0.008116232568770646,-0.006920022221258841
1690840280957023200,4.455023193359375,0.1754927605062723,-0.0032750396152958273,-0.00965761679187417
1690840280967063300,4.465063232421875,0.17429624419808387,-0.006092179395258426,0.002146277613961138
1690840280977103400,4.475103271484375,0.17878011161386967,-0.011616824568249284,0.00591956734128762
1690840280987143000,4.485142822265625,0.16576456269621848,-0.012138145028613507,0.0011568875506985932
1690840280997184000,4.49518408203125,0.1751923162549734,-0.006434197765961289,-0.00932995117350947
1690840281007255000,4.505255126953125,0.18222236102223396,-0.008760814082622527,-0.0008389898410998284
1690840281017295000,4.515295166015625,0.17309505171477793,-0.0182922106789425,-0.006928771783295087
1690840281027335200,4.525335205078125,0.1678594891488552,-0.005523987585864961,-0.0005302481189137325
1690840281037375200,4.535375244140625,0.1774357112675905,-0.0028278073044493792,-0.007152725865435786
1690840281047416300,4.545416259765625,0.17010288416147232,-0.012587934622727334,-0.00966052113501355
1690840281057456000,4.5554560546875,0.16905483641326427,-0.00826397047638893,-0.00998854751298204
1690840281067496000,4.565495849609375,0.18042729429900645,-0.006616166736744344,0.00022295400172006336
1690840281077537000,4.575537109375,0.173096805280447,-0.013582206357084214,0.0015958908893167973
1690840281087577000,4.5855771484375,0.1716062744617462,-0.009633322600834071,-0.0034716672990936785
1690840281097617200,4.5956171875,0.17205577179491519,-0.0022958193195983766,0.0007352463388349861
1690840281107657200,4.6056572265625,0.17774024717211723,-0.010715455281734466,0.003230862546851858
1690840281117698300,4.6156982421875,0.17040566650032996,-0.0070392144544050095,-0.0005183019527932629
1690840281127738000,4.625738037109375,0.17534429194629192,-0.007493534093163907,0.001676481844857335
1690840281137778000,4.63577783203125,0.177293087926507,-0.003481412374973297,-0.012368811979331075
1690840281147849000,4.645848876953125,0.17684417511522768,-0.012606127866543828,-0.007901717601832933
1690840281157889000,4.655888916015625,0.17969079671800137,-0.009796002349257468,-0.006285436945036053
1690840281167930000,4.66593017578125,0.17490823861658572,-0.012161781632527709,-0.0019529058997519314
1690840281177970200,4.67597021484375,0.17041735693812368,-0.008770458693802356,0.0010342384185642003
1690840281188010200,4.68601025390625,0.16861878308355807,-0.001211933073028922,-0.00967061327076517
1690840281198050000,4.696050048828125,0.17894845391809938,-0.007518412806093692,-0.0043434497315203765
1690840281208091100,4.706091064453125,0.16428338422775268,-0.006798062642291188,-0.008339127204986288
1690840281218131000,4.716130859375,0.1762520544409752,-0.007758943563699722,0.0007306249626446515
1690840281228171000,4.7261708984375,0.18418343196213244,-0.004447590526007116,-0.004372849355940706
1690840281238212000,4.736212158203125,0.1780512128174305,-0.0054328387036919595,-0.012896443449473008
1690840281248252200,4.746252197265625,0.174613055062294,-0.008297324756719172,-0.013756754639814607
1690840281258292200,4.756292236328125,0.1756628563761711,-0.009739632519520819,-0.007410545684560201
1690840281268332300,4.766332275390625,0.17281623477339744,-0.006078443130850791,-0.00351837881791871
1690840281278373000,4.776373046875,0.16249240915775298,-0.005141089215502143,-0.0012765136086847631
1690840281288444200,4.786444091796875,0.17670973508059978,-0.00974113035686314,-0.003927187947672791
1690840281298484000,4.79648388671875,0.17610943109989166,-0.008154226491600275,-0.0014953394245589152
1690840281308524000,4.80652392578125,0.17955168050825596,-0.005435761313140392,-0.00027176157950889316
1690840281318564000,4.816564208984375,0.17999942427575588,-0.006211312262900173,0.00037742761080153284
1690840281328605200,4.826605224609375,0.17491057670414448,-0.0009943813322111964,-0.00039707759276498105
1690840281338627600,4.836627685546875,0.18299042278528213,-0.012701879858598112,-0.009715543824457563
1690840281348667600,4.846667724609375,0.17835341063439844,-0.01624452090151608,-0.003488842196180485
1690840281358708700,4.856708740234375,0.18314356752038,-0.009447517705149948,-0.003320230463892221
1690840281368748500,4.86674853515625,0.1801554916203022,-0.00990888813920319,-0.008853679997846484
1690840281378788600,4.87678857421875,0.1696802748352289,-0.005997925240546465,-0.009813524306216277
1690840281388828400,4.886828369140625,0.17237433622479437,0.001054185228049755,-0.004772360934386961
1690840281398869500,4.896869384765625,0.16938275319337845,-0.005372267622873187,0.00016717782702762633
1690840281408909600,4.90690966796875,0.1755184794694185,-0.001605462435260415,-0.0004599273956380784
1690840281418980600,4.916980712890625,0.17791385017335415,-0.008453136372938751,0.0018892934784758835
1690840281429020700,4.927020751953125,0.18180267430543898,-0.005360321456752718,-0.0024790349659742786
1690840281439060700,4.937060791015625,0.17566577898561953,-0.008393880466371774,-0.0037232035079039633
1690840281449101600,4.9471015625,0.17716040145754813,-0.014442403382994233,-0.0023247714194469154
1690840281459141600,4.9571416015625,0.181646022439003,-0.007796426029875874,-0.004911847036890685
1690840281469181400,4.967181396484375,0.187779995149374,-0.005728424116782844,-0.007665570758399553
1690840281479221500,4.977221435546875,0.1861281362891197,-0.008641242823563516,-0.01074162633602973
1690840281489262600,4.9872626953125,0.27543723581433294,-0.05025105459541082,-0.05470067724830005
1690840281499302700,4.997302734375,0.05303484009504318,-0.45175552389193324,-0.1403370841767173
1690840281509342700,5.0073427734375,-0.07641863829195499,0.2563940606376156,0.21690905900001525
1690840281519383600,5.017383544921875,0.3591214811950922,-0.1673060199845582,-0.1642544503942132
1690840281529423600,5.027423583984375,0.12658347590863703,-0.06669310736302286,0.09887218816773966
1690840281539463400,5.03746337890625,0.19981471633613107,0.10792882512547075,-0.03880237140199169
1690840281549503500,5.04750341796875,0.23554946206212043,0.07696637183520942,-0.08271824989281594
1690840281559574500,5.057574462890625,0.27372283311188217,0.07799914894904941,-0.05921856566469651
1690840281569615600,5.06761572265625,0.16183774464130402,0.06132884038351476,-0.006312498481897637
1690840281579655700,5.07765576171875,0.21237258461415767,0.023704152725078163,0.003966638608649373
1690840281589695700,5.08769580078125,0.14854396330416203,0.03430727020613849,-0.00014722645096480847
1690840281599735800,5.09773583984375,0.23261282408833503,0.017812281674891708,-0.002144473815942183
1690840281609776600,5.107776611328125,0.15880758316516874,0.004992109198868274,-0.01118725121167954
1690840281619816400,5.11781640625,0.16668635371625423,-0.0017547347128391265,-0.029343779746978542
1690840281629856500,5.1278564453125,0.20628128200173376,0.00017667174115777016,-0.0347114990588976
1690840281639896600,5.137896484375,0.151585815218091,-0.017103329687938092,-0.02742152471381705
1690840281649937700,5.147937744140625,0.1499965002000332,-0.02739226665329188,-0.017873245481355115
1690840281659977700,5.157977783203125,0.20210838023126124,-0.026967538435198366,-0.016679533051606268
1690840281670017800,5.168017822265625,0.15124913060963152,-0.03866692672036588,-0.01140814568705391
1690840281680058600,5.17805859375,0.15333528923392295,-0.04500508023332804,-0.015970297936862332
1690840281690098400,5.188098388671875,0.1782943739235401,-0.038083427743986244,-0.019673029478895477
1690840281700169500,5.19816943359375,0.15370470706820488,-0.047626880104281004,-0.017148694066470488
1690840281710209500,5.20820947265625,0.1677110205888748,-0.04953388276938349,-0.014465985187981277
1690840281720249600,5.21824951171875,0.15252572641670703,-0.034286738874763245,-0.014526382738864049
1690840281730290700,5.228290771484375,0.18207798411548137,-0.026928375468589363,-0.015723040610947644
1690840281740330800,5.238330810546875,0.17092881359159945,-0.02026157452315092,-0.01775354179155547
1690840281750370800,5.248370849609375,0.1672679529964924,-0.003508665708079934,-0.019351081215264274
1690840281760410600,5.25841064453125,0.1951923172324896,-0.007054156295210123,-0.01990745472270064
1690840281770451500,5.268451416015625,0.1936450877904892,-0.003085033468529582,-0.02201973416893743
1690840281780491500,5.278491455078125,0.16563070718348025,0.003996814551204443,-0.020403471778449603
1690840281790531600,5.288531494140625,0.19405016146004198,0.0032303967559710145,-0.02094926909294445
1690840281800572700,5.29857275390625,0.1771487110197544,0.013301708915270865,-0.015150939811416901
1690840281810612700,5.30861279296875,0.1830044513106346,0.012801029384136199,-0.01137224782318808
1690840281820652800,5.31865283203125,0.19501345353424548,0.013679236990772187,-0.016485700113093478
1690840281830692600,5.328692626953125,0.19266309101581572,0.014595511585474013,-0.01942314637105446
1690840281840763600,5.338763671875,0.18268997853398322,0.005756736895814537,-0.025281517010438254
1690840281850803700,5.3488037109375,0.17960253391265868,-0.002552132168225944,-0.025356833569239824
1690840281860844500,5.358844482421875,0.1730751779705286,-0.006043700611032545,-0.019632546771457416
1690840281870884600,5.368884521484375,0.17701544002890585,-0.009568586801551282,-0.019566071106237357
1690840281880924700,5.378924560546875,0.15865268486440182,-0.01327164257057011,-0.025611858643079174
1690840281890965800,5.3889658203125,0.17200374934673307,-0.025651231672242283,-0.01942508716639131
1690840281901005800,5.399005859375,0.1753185729831457,-0.030230595351755617,-0.016454825484217145
1690840281911045600,5.409045654296875,0.15213234318494795,-0.03287161137983203,-0.018920160718401892
1690840281921085700,5.419085693359375,0.17561667914688586,-0.03448164039235562,-0.02300909226615913
1690840281931126500,5.42912646484375,0.16781740357279776,-0.03069393854718655,-0.0208052346794866
1690840281941166600,5.43916650390625,0.1640513290375471,-0.02964227406978607,-0.02173386186568532
1690840281951206700,5.44920654296875,0.16521569664180277,-0.026088782839290794,-0.01873315937947482
1690840281961247700,5.459247802734375,0.16278291653692722,-0.020013773774541912,-0.013639220074214971
1690840281971287800,5.469287841796875,0.18279811508357524,-0.017007395032793284,-0.01665903368627187
1690840281981358600,5.479358642578125,0.179915253123641,-0.011389372487924992,-0.028521585777052678
1690840281991398700,5.489398681640625,0.17224574140906332,-0.008848638496547937,-0.01580775518575683
1690840282001438700,5.499438720703125,0.1808960808545351,-0.006364493530616164,-0.01610638193930499
1690840282011479600,5.5094794921875,0.18117431327402592,0.00003540010694414377,-0.018605057754088192
1690840282021519600,5.51951953125,0.1760731907427311,-0.0006656608344987034,-0.019242382976668887
1690840282031559700,5.5295595703125,0.18055822720229625,0.013574461442045866,-0.017233111813757567
1690840282041599500,5.539599609375,0.1798147153586149,0.007882423812896012,-0.017736385160777718
1690840282051640800,5.549640869140625,0.18745967715382575,0.0015117562698200343,-0.022774109899927862
1690840282061680600,5.5596806640625,0.1853922232300043,0.0018059899760410189,-0.019652411382552235
1690840282071720700,5.569720703125,0.16881342887282372,-0.001941306793503463,-0.01952761595910415
1690840282081761500,5.579761474609375,0.18021745094060898,-0.0005921206742525101,-0.01763218956736382
1690840282091801600,5.589801513671875,0.18025193773210046,-0.004703282320126891,-0.007254327642964199
1690840282101841700,5.599841552734375,0.1820803222030401,0.001761785508133471,-0.012530213086120784
1690840282111881700,5.6098818359375,0.17492752783894538,-0.006091923666931689,-0.013866160697885788
1690840282121952500,5.619952392578125,0.16686930906772612,-0.0117661333784461,-0.013157683634967542
1690840282131992600,5.62999267578125,0.17541326552927494,-0.01625113330539316,-0.020027185811963864
1690840282142033700,5.64003369140625,0.16973346632719039,-0.015015490563213824,-0.01378303985854145
1690840282152073700,5.65007373046875,0.16644553069770335,-0.013450725464522837,-0.019702187074720857
1690840282162113800,5.66011376953125,0.18125380825102327,-0.014388956162706017,-0.016321833054581656
1690840282172154600,5.670154541015625,0.16836977675855158,-0.019318448454141615,-0.017638879603054373
1690840282182194700,5.680194580078125,0.17448329120278358,-0.0181288368107751,-0.02311887278356589
1690840282192234500,5.690234375,0.1822416502445936,-0.021454291439056396,-0.015394712838879785
1690840282202274600,5.700274658203125,0.17578209884166718,-0.017097484469041226,-0.013997184932720846
1690840282212315600,5.710315673828125,0.17470833213031292,-0.007827917146682739,-0.017066025318275203
1690840282222355700,5.720355712890625,0.16690438038110733,-0.007587788247875869,-0.025134404723905025
1690840282232395800,5.730395751953125,0.17182079399526118,-0.003239858704060316,-0.017737736867647617
1690840282242436600,5.7404365234375,0.17060732655227184,0.0009132423873990773,-0.020656081132916733
1690840282252476700,5.7504765625,0.17389350861608982,-0.003913812442868948,-0.024535443316912278
1690840282262547700,5.760547607421875,0.17688509164750574,-0.005601217540539801,-0.013762860153615475
1690840282272587500,5.77058740234375,0.1767389611750841,0.0027159809604287146,-0.012944342278386466
1690840282282627600,5.780627685546875,0.17300678890943527,0.002503507253527641,-0.016138822904182597
1690840282292667600,5.790667724609375,0.18663959294259547,-0.004080693442374468,-0.01527707780858036
1690840282302708700,5.800708740234375,0.18156769650578497,0.002502192079275846,-0.02430233324735891
1690840282312748500,5.81074853515625,0.1769441283583641,-0.001529291926510632,-0.025410216857446356
1690840282322788600,5.82078857421875,0.1871358520269394,-0.0032987492844462393,-0.0166738613626454
1690840282332823800,5.83082373046875,0.17248890251517296,0.001970861681550741,-0.022994045394076963
1690840282342864000,5.84086376953125,0.18447160125374792,-0.007749700811319053,-0.01955202431457583
1690840282352904000,5.850904052734375,0.175357151427865,-0.011715681832842528,-0.015623397895065136
1690840282362943700,5.86094384765625,0.16982757435142992,-0.008844766039028763,-0.027690532647236248
1690840282372984600,5.870984619140625,0.17461890028119087,-0.016089403405040503,-0.02530222643832676
1690840282383024600,5.881024658203125,0.1635463021248579,-0.015021226184256374,-0.006907660496607422
1690840282393064700,5.891064697265625,0.1630927131384611,-0.02563789726663381,-0.012729082959354855
1690840282403135700,5.9011357421875,0.1708651007056236,-0.01764572946894914,-0.02350652952743694
1690840282413175800,5.91117578125,0.17085341026782988,-0.009599128070287406,-0.020698614233545957
1690840282423217000,5.921216796875,0.1754799010246992,-0.01202259235754609,-0.0212326434784336
1690840282433257000,5.931257080078125,0.167833770185709,-0.008372326221689581,-0.013403657752671279
1690840282443296800,5.941296875,0.17634850055277346,-0.010720935174450278,-0.01930575793592725
1690840282453337600,5.951337646484375,0.1728963142722845,-0.01179272912442684,-0.01725049677339848
1690840282463377700,5.961377685546875,0.1809656389594078,-0.01295501436945051,-0.011491357857943512
1690840282473417700,5.971417724609375,0.17422727061510085,-0.0048503261080011725,-0.017213658194616437
1690840282483457800,5.981457763671875,0.1782639787852764,0.0005831336501985788,-0.009859167245961725
1690840282493499000,5.991498779296875,0.17272388031482697,-0.00966477718502283,-0.01760550705641508
1690840282503539000,6.0015390625,0.18140636846423147,-0.005875942828692495,-0.024457131083426065
1690840282513578800,6.011578857421875,0.18216157074570655,-0.004319434101693332,-0.01787061969942879
1690840282523619600,6.02161962890625,0.17109949398338795,-0.008510090724565088,-0.01853350405495148
1690840282533659600,6.03165966796875,0.177244572609663,-0.002722264570742845,-0.019466432956932112
1690840282543730700,6.041730712890625,0.1780026975005865,-0.007077829431742429,-0.018990102415764702
1690840282553770800,6.051770751953125,0.16784078444838524,-0.011511427965015173,-0.028054132662084882
1690840282563810800,6.061810791015625,0.16381050601899622,-0.013922580759972334,-0.008529608275787904
1690840282573851000,6.071850830078125,0.1802823328703642,-0.007906316145136951,-0.013473914543865248
1690840282583892000,6.08189208984375,0.1759463494926691,-0.010647175818495452,-0.01840519693358801
1690840282593931800,6.091931884765625,0.1737064616113901,-0.013387560567818582,-0.015429204196948557
1690840282603971800,6.101971923828125,0.17894670035243032,-0.013345657654851675,-0.01737910528886132
1690840282614012700,6.1120126953125,0.179396782207489,-0.005070215936377644,-0.012656383049325086
1690840282624052700,6.122052734375,0.17400807490646839,-0.007029642908461391,-0.016083229392580688
1690840282634092800,6.1320927734375,0.1662257504671812,-0.013208039282448588,-0.02890266664966475
1690840282644132900,6.1421328125,0.17145605233609676,-0.007107092058844864,-0.021501025790767743
1690840282654174000,6.152174072265625,0.17219605704843996,-0.010611191189661622,-0.02277105942631606
1690840282664213800,6.1622138671875,0.1718897675782442,-0.015615465750358997,-0.015507288101571612
1690840282674253800,6.17225390625,0.16455460238456726,-0.012255012873932719,-0.015822062272322364
1690840282684324900,6.182324951171875,0.1747217761337757,-0.002439136780425906,-0.02088501735085156
1690840282694364700,6.19236474609375,0.18818273073136804,-0.00518076363876462,-0.010531559215346351
1690840282704405800,6.20240576171875,0.1853402007818222,-0.0014112550374120473,-0.017309588283183984
1690840282714445800,6.21244580078125,0.18115502405166625,0.005881459254026412,-0.028887259017978794
1690840282724486000,6.22248583984375,0.17966040157973764,-0.003032170770131051,-0.014094010070431977
1690840282734527000,6.23252685546875,0.1820586948931217,-0.008623743699491024,-0.01236111273006536
1690840282744566800,6.24256689453125,0.1694938123524189,-0.007763217880018055,-0.016909624613588674
1690840282754606800,6.25260693359375,0.17039456058442592,0.0029381723437458276,-0.02286761513596866
1690840282764646700,6.262646728515625,0.17683599180877208,0.004320383949764073,-0.018561259711557067
1690840282774687700,6.272687744140625,0.17340134118497372,-0.005671104438975453,-0.02391599624431692
1690840282784727800,6.282727783203125,0.1719160710632801,-0.008194996893405913,-0.020026688055042177
1690840282794768000,6.292767822265625,0.17326807019412516,-0.005674611570313573,-0.01573446162068285
1690840282804807700,6.3028076171875,0.17671616482138633,-0.010003617217950522,-0.019697757494775578
1690840282814848800,6.312848876953125,0.18121113815307616,-0.007576572734117507,-0.019916724874544888
1690840282824919800,6.322919921875,0.17732523663043975,-0.009083945089764893,-0.018735611631465143
1690840282834960000,6.3329599609375,0.17852759815752506,-0.009075871381163596,-0.019198813263000918
1690840282844999700,6.342999755859375,0.1746393585473299,-0.006328545434400439,-0.021980954794818534
1690840282855039700,6.353039794921875,0.17194821976721286,-0.008210596321336925,-0.01698415572110098
1690840282865080800,6.363080810546875,0.176735454043746,-0.009906696182116866,-0.020113247527065687
1690840282875120600,6.37312060546875,0.16700374910235405,-0.006596731383912265,-0.014913089634664357
1690840282885160700,6.38316064453125,0.17268354830443858,-0.005445113663375378,-0.010523380475468002
1690840282895201800,6.393201904296875,0.17447276980876922,-0.003504610587470233,-0.02248842025976628
1690840282905241600,6.40324169921875,0.18075521107912063,-0.0019221637016162275,-0.020000567233096806
1690840282915281700,6.41328173828125,0.1752139435648918,-0.004315415513701737,-0.013801781091629526
1690840282925321700,6.42332177734375,0.17565876472294328,-0.011307977814786135,-0.021407036497537047
1690840282935362800,6.43336279296875,0.18269056305587292,-0.015207944395393132,-0.017935725391469894
1690840282945403000,6.44340283203125,0.17580489519536494,0.00014919921234250069,-0.006499056862830184
1690840282955442700,6.453442626953125,0.1822328824162483,-0.0009078355599194764,-0.008375819653295912
1690840282965513700,6.463513671875,0.17939210603237152,-0.006986753614805639,-0.02243397752563469
1690840282975553800,6.4735537109375,0.17669921368658542,-0.014303287173248826,-0.021992841595434583
1690840282985594600,6.4835947265625,0.18642624245285988,-0.009635916416719556,-0.01646593140012119
1690840282995634700,6.493634765625,0.18328969799280165,-0.011124291810952126,-0.008516027275007217
1690840283005674800,6.5036748046875,0.17746084570884704,-0.0017787001103162765,-0.01803672438079957
1690840283015714600,6.513714599609375,0.17447160076498985,-0.0012180705528706311,-0.023434628768428226
1690840283025755600,6.523755615234375,0.1767173338651657,-0.00031494770068675275,-0.015721086115879006
1690840283035795700,6.533795654296875,0.1786561929732561,-0.002717697993479669,-0.019407798104872927
1690840283045835800,6.543835693359375,0.17536533473432064,-0.008229008760862052,-0.019185684353369287
1690840283055876600,6.553876708984375,0.17117606635093688,-0.007913366940431297,-0.01995282823438756
1690840283065916700,6.563916748046875,0.18045301326215266,-0.011083740604855119,-0.01958420041797217
1690840283075956700,6.573956787109375,0.17312135519981384,-0.007213036651350558,-0.00645260107233189
1690840283085996800,6.583996826171875,0.18404723836183548,-0.001131597845815122,-0.011157646091282367
1690840283096038000,6.594037841796875,0.1807522884696722,-0.014396153088472783,-0.01624870845286641
1690840283106108700,6.604108642578125,0.16892916420698165,-0.0056270095689222215,-0.01675512817162089
1690840283116148700,6.614148681640625,0.1728168192952871,-0.005121325069107115,-0.016417635278985834
1690840283126188800,6.624188720703125,0.17386135991215704,-0.002654460031539202,-0.015137810901785268
1690840283136228900,6.634228759765625,0.17595336375534534,-0.00452876600343734,-0.024672787694679572
1690840283146269700,6.644269775390625,0.17086802331507206,-0.007920527333579957,-0.019975172496936283
1690840283156309800,6.654309814453125,0.18119418701827525,-0.007301701315492391,-0.01742097166921012
1690840283166349600,6.664349609375,0.17924539103806017,-0.006642251026071608,-0.014774827374867162
1690840283176390700,6.674390625,0.18014438570439814,-0.003601787351630628,-0.015402686082781291
1690840283186430700,6.6844306640625,0.17910101413130758,-0.006171016785129904,-0.01980004882547073
1690840283196470800,6.694470703125,0.17431319533288478,-0.014866620144434272,-0.011437819306110032
1690840283206510800,6.7045107421875,0.1735720215767622,-0.007660780418850481,-0.01353507471315097
1690840283216551700,6.7145517578125,0.17522388043701648,-0.013912607355229556,-0.017296304109925404
1690840283226591700,6.724591796875,0.1789689121842384,-0.0072266633179038755,-0.013226291891769505
1690840283236631800,6.7346318359375,0.17178864529132842,-0.005826842989958822,-0.01167758744531311
1690840283246702600,6.74470263671875,0.17448446024656294,-0.0033788287833333014,-0.009231395303015597
1690840283256742700,6.75474267578125,0.18002222062945364,0.0022075930468738077,-0.01659181366895791
1690840283266783700,6.76478369140625,0.1696983950138092,-0.000449460800550878,-0.020346832520654425
1690840283276823800,6.77482373046875,0.17658698548376559,-0.00463752360753715,-0.014095128881861456
1690840283286864000,6.78486376953125,0.17688976782262325,-0.011120857744850218,-0.016820119699230418
1690840283296904000,6.794904052734375,0.18497078294754027,-0.013045944055914879,-0.019196539107523856
1690840283306944800,6.80494482421875,0.18571663287878035,-0.0068242199968546625,-0.016359813277679495
1690840283316984600,6.814984619140625,0.1794277618676424,-0.011713891734555363,-0.021248777195904404
1690840283327024600,6.825024658203125,0.17433949881792069,-0.018917649100907145,-0.01658358926330693
1690840283337059300,6.835059326171875,0.1758376284211874,-0.004674640747532249,-0.015880911753512916
1690840283347099400,6.845099365234375,0.16895196056067943,-0.0011611162012442947,-0.018361987979523837
1690840283357139500,6.855139404296875,0.1741869386047125,-0.0005143792629241943,-0.01822494499585591
1690840283367179300,6.86517919921875,0.17972119185626506,0.0004405103091150522,-0.021030444570374673
1690840283377220000,6.87522021484375,0.17508067257404325,-0.0036790538389235732,-0.02186349329445511
1690840283387291100,6.885291015625,0.1746311752408743,-0.0026443404963240025,-0.017348490954888985
1690840283397331200,6.895331298828125,0.17837094629108904,-0.005544372786767781,-0.01413165236681234
1690840283407371300,6.905371337890625,0.17582652250528336,-0.0010968918586149812,-0.014604772604163735
1690840283417411300,6.915411376953125,0.1725339107006788,-0.00512264024335891,-0.01410831715699751
1690840283427452400,6.925452392578125,0.1753805323034525,-0.006372822967544198,-0.013242818334884941
1690840283437492500,6.935492431640625,0.18017127371132372,-0.004981368609145284,-0.013879207409126683
1690840283447532300,6.9455322265625,0.17343816606402396,-0.006343158481642603,-0.010004968924820423
1690840283457572000,6.955572021484375,0.17957681494951247,-0.0028087738104164597,-0.011900317684747279
1690840283467613200,6.96561328125,0.1809258914709091,-0.00812814220227301,-0.011759310912014915
1690840283477653200,6.9756533203125,0.1728477989554405,-0.006887202230468392,-0.017776516241766512
1690840283487693300,6.985693359375,0.16805705754756928,0.002798288949020207,-0.008271966553176753
1690840283497734400,6.995734375,0.17583879746496675,-0.005432509910129011,-0.014623449905170127
1690840283507774500,7.0057744140625,0.17090134106278418,-0.012164338915795088,-0.013989796210709027
1690840283517814300,7.015814208984375,0.17240005518794058,-0.015829656490311025,-0.01732436116063036
1690840283527885300,7.02588525390625,0.17598960411250592,-0.009328165641799568,-0.017342919730627907
1690840283537925000,7.035925048828125,0.16910218268632887,-0.008404840251803398,-0.01922372850854881
1690840283547966200,7.04596630859375,0.1744867983341217,-0.009527158812619745,-0.018258650902635416
1690840283558006300,7.05600634765625,0.1840589287996292,-0.002509790863841772,-0.011431111004110425
1690840283568046300,7.06604638671875,0.1782195551216602,-0.0032257936460897323,-0.007159333702735603
1690840283578086100,7.076086181640625,0.170582776632905,-0.01056925174407661,-0.002886528921476565
1690840283588127500,7.08612744140625,0.1684866811364889,-0.011513144998066127,-0.011965035217721014
1690840283598167300,7.096167236328125,0.1722252831429243,-0.010537687562033533,-0.01431027860303875
1690840283608207000,7.10620703125,0.16354396403729915,-0.004948123926669359,-0.00955998793656472
1690840283618248200,7.116248291015625,0.17491759096682072,-0.0077519658336415885,-0.01597774145780131
1690840283628288300,7.126288330078125,0.17447218528687952,-0.01035243065562099,-0.012232376350439153
1690840283638328300,7.136328369140625,0.17103753466308116,-0.002371916763111949,-0.014034781563328578
1690840283648368400,7.146368408203125,0.17507950353026389,-0.002644084767997265,-0.010645956542366183
1690840283658409500,7.156409423828125,0.17253566426634787,0.00020834552105516193,-0.018166378642455672
1690840283668479200,7.166479248046875,0.1753746870845556,-0.003479804939776659,-0.012571577142970636
1690840283678520300,7.176520263671875,0.16549568262696265,-0.0028170301821082828,-0.017655675474228336
1690840283688560000,7.18656005859375,0.1584609616845846,-0.01033891358692199,-0.016048980063106864
1690840283698600200,7.19660009765625,0.19602000022828578,-0.01717771009840071,-0.005925270996289328
1690840283708641300,7.206641357421875,0.1678945604622364,-0.015655286304093897,-0.007241185033600777
1690840283718681300,7.216681396484375,0.1692453905493021,-0.01187021480742842,-0.01364153076231014
1690840283728721200,7.22672119140625,0.16894669986367225,-0.010141308655589818,-0.023114347305498086
1690840283738761200,7.23676123046875,0.16774901451170443,-0.00305599003713578,-0.029692597751226273
1690840283748802300,7.24680224609375,0.18106383863687514,-0.00854264128729701,-0.0374286353633739
1690840283758842000,7.256842041015625,0.17312895398437975,-0.007082797867804766,-0.03404542723244522
1690840283768882200,7.266882080078125,0.17746376831829547,-0.011412278439477085,-0.024158874222636222
1690840283778923300,7.27692333984375,0.18374737863242624,-0.009207206143252551,-0.015748978769802486
1690840283788963300,7.28696337890625,0.17551614138185978,-0.0071133026039227835,0.0055183204634813585
1690840283799003400,7.29700341796875,0.15950842491090297,0.0001128127247095108,0.009221184436255135
1690840283809074200,7.30707421875,0.16789163785278796,-0.00488919681366533,0.0059666852854890744
1690840283819114200,7.3171142578125,0.1665513291597366,-0.011167838691733777,-0.003188484709849581
1690840283829155300,7.3271552734375,0.19049685289263724,-0.01224266484901309,-0.01600902251205407
1690840283839195100,7.337195068359375,0.1936450877904892,-0.007450060277618467,-0.027295866207266224
1690840283849235200,7.347235107421875,0.17359657149612903,-0.013768266981095074,-0.026589887062110937
1690840283859275300,7.357275146484375,0.18586393239498136,-0.008853241606429219,-0.02522509694835171
1690840283869316400,7.36731640625,0.1776315261006355,-0.00825377787593752,-0.029878009921265766
1690840283879356200,7.377356201171875,0.16939911980628966,-0.0014098302653059362,-0.014519733802368864
1690840283889396200,7.387396240234375,0.17493746471107005,-0.010790310616232455,-0.011634392190980725
1690840283899436300,7.397436279296875,0.16596096205115318,-0.007142126839607954,-0.005985367153072729
1690840283909477000,7.40747705078125,0.1786865881115198,-0.006787431650422513,0.0009835585440974683
1690840283919517200,7.41751708984375,0.1809358283430338,-0.008143230173550545,-0.004614320828462951
1690840283929557200,7.42755712890625,0.16612638174593447,0.002594327342137694,0.0019169806364225223
1690840283939598300,7.437598388671875,0.17645312997102736,0.00004818652328103781,-0.0048651948835700745
1690840283949668000,7.447668212890625,0.15550912614166737,-0.0028849077865481373,-0.009036091926624067
1690840283959709200,7.457709228515625,0.16448972045481203,0.00427979621104896,-0.023779145056894047
1690840283969749200,7.467749267578125,0.18573592210114,0.0026991028908640146,-0.028556154766934922
1690840283979789300,7.477789306640625,0.1785474719017744,-0.012098178344406187,-0.029537649218109436
1690840283989830100,7.487830078125,0.17914134614169597,-0.00927314751893282,-0.022443791100173256
1690840283999870200,7.4978701171875,0.18227905964553356,-0.01112904105130583,-0.01010130087218713
1690840284009910300,7.50791015625,0.16881050626337527,-0.00571030393820256,-0.005617104662838391
1690840284019950000,7.5179501953125,0.1750917784899473,-0.001793313157558441,0.004345522957597859
1690840284029991200,7.5279912109375,0.1676110673457384,-0.007677548890560865,0.007925244607892819
1690840284040031200,7.53803125,0.17209785737097263,-0.005729593160562217,-0.009191401219344697
1690840284050071300,7.5480712890625,0.16820494158565996,-0.0067775313109159465,-0.020492223207559435
1690840284060112100,7.558112060546875,0.16894728438556195,0.0007949497699737549,-0.020888994839647783
1690840284070152200,7.568152099609375,0.17717150737345216,0.002181764485873282,-0.028297983321361242
1690840284080192300,7.578192138671875,0.1837450405448675,-0.008189845794253052,-0.032576172097213564
1690840284090263300,7.58826318359375,0.17490823861658572,-0.004189231850765645,-0.016419388844654895
1690840284100303000,7.59830322265625,0.17580080354213715,-0.004043284041434526,0.003356571285752579
1690840284110343200,7.60834326171875,0.1698164684355259,-0.005505940472520888,0.012736722843116149
1690840284120384300,7.61838427734375,0.177009594810009,-0.006961838369257747,0.009239500977657735
1690840284130424300,7.62842431640625,0.17028934664428233,-0.009594196166843176,-0.004397874199342913
1690840284140464400,7.63846435546875,0.16072890661656855,-0.011250183212943375,-0.011891170830489135
1690840284150505200,7.648505126953125,0.17570728003978728,-0.011680829715169965,-0.02143115259206388
1690840284160545300,7.658545166015625,0.1855880380630493,-0.008997691578418015,-0.02551407909072004
1690840284170585000,7.668585205078125,0.17211305494010448,-0.00011452975776046513,-0.03378278967430815
1690840284180625200,7.678625244140625,0.1758376284211874,0.0013525836527347563,-0.034742455886164675
1690840284190666200,7.688666259765625,0.1824029782861471,0.0003672989424318075,-0.025730037096072918
1690840284200706300,7.698706298828125,0.16847265261113642,-0.011606522369943558,-0.009913450149889104
1690840284210746400,7.708746337890625,0.178790633007884,-0.01673146416824311,0.007669790275790728
1690840284220787200,7.718787109375,0.18567688539028165,-0.01967654117681086,0.010996171919256448
1690840284230827300,7.7288271484375,0.16458908917605877,-0.007391242762468755,0.016956948053766973
1690840284240898300,7.738898193359375,0.15517419509887695,-0.006588401946984231,-0.0065182319207582615
1690840284250938000,7.748938232421875,0.194393275809288,-0.012831935979053377,-0.0223038255070569
1690840284260978200,7.758978271484375,0.141568863594532,0.008565181912668049,-0.03488051721656229
1690840284271019300,7.769019287109375,0.18225567876994608,0.010710523378290236,-0.04681208398952148
1690840284281059300,7.779059326171875,0.1692144108891487,0.0006759630328044294,-0.034822329889074896
1690840284291099400,7.789099365234375,0.20839900480806825,-0.013410064660571515,-0.020470627863681874
1690840284301139500,7.799139404296875,0.17203180639743804,-0.013968173467367886,0.0033416933770291507
1690840284311180300,7.80918017578125,0.17443126875460147,-0.018293050929158925,0.015246851633675396
1690840284321220000,7.81922021484375,0.18387772701382635,-0.007590235933288931,0.01052237126189284
1690840284331260200,7.82926025390625,0.1702905156880617,-0.009548530394211411,-0.006422648892062716
1690840284341300700,7.83930078125,0.14951485416293142,-0.008509725398384033,-0.02300177660938352
1690840284351340800,7.8493408203125,0.19036884259879588,-0.00312573080509901,-0.03633766635546926
1690840284361380900,7.859380859375,0.188259303098917,-0.0010409604202955961,-0.04008112720011268
1690840284371421000,7.8694208984375,0.17356383827030658,-0.0010614186864346265,-0.03221386899030767
1690840284381492000,7.879491943359375,0.18400807539522646,-0.004623239353857935,-0.019798847815650514
1690840284391531800,7.88953173828125,0.17739947091042996,-0.002773337170854211,0.004352760982559993
1690840284401572600,7.899572509765625,0.16213292819559574,-0.004442110633291304,0.013531951174302958
1690840284411612700,7.90961279296875,0.17022797184586524,-0.010888692956790328,0.014541237814701161
1690840284421652700,7.91965283203125,0.16502163537442682,-0.014944836479797958,0.011841235308116302
1690840284431693800,7.92969384765625,0.17927169452309608,-0.018659948012791572,-0.00987687186601106
1690840284441734000,7.93973388671875,0.1872258683979511,-0.011578684514947235,-0.025165388950635678
1690840284451774000,7.94977392578125,0.18738310478627682,0.0016130612198263406,-0.05054503257330507
1690840284461813800,7.959813720703125,0.1851268502920866,0.003861351603269577,-0.05220853163900319
1690840284471854600,7.9698544921875,0.1583183383435011,-0.001108691894263029,-0.029076986603531984
1690840284481894700,7.979894775390625,0.1623340037256479,-0.010914996441826223,-0.008897870766022243
1690840284491934700,7.989934814453125,0.17638357186615466,-0.005356412466615438,0.0053736284628976136
1690840284501975800,7.999975830078125,0.16156886457204817,-0.015478358834609388,0.008629616317851469
1690840284512016000,8.010015869140625,0.1757896976262331,-0.008783902697265148,0.0019118569367332383
1690840284522087000,8.0200869140625,0.1816401772201061,-0.013788359921053052,-0.005572758631035685
1690840284532127000,8.030126953125,0.17521277452111242,-0.011879238364100455,-0.023995838281186295
1690840284542166800,8.040166748046875,0.18478958116173744,-0.0013535335008054972,-0.033682699433853845
1690840284552206800,8.050206787109374,0.18313246160447597,-0.012293408655561507,-0.0354161127974512
1690840284562247700,8.06024755859375,0.1844680941224098,-0.005993176000192761,-0.019009903094777836
1690840284572287700,8.070287841796874,0.17308160771131514,-0.0016084581099450588,-0.003995837303670123
1690840284582327800,8.080327880859375,0.156017075663805,-0.0005628580471500754,0.0071674804765731095
1690840284592369000,8.090368896484375,0.16020692856907845,0.0013669044390320778,0.006896116189286113
1690840284602409000,8.100408935546875,0.16051497160494327,-0.004910276134312152,-0.009423232647264376
1690840284612448800,8.11044873046875,0.1717500668466091,-0.012517645865492522,-0.020452799946046433
1690840284622488800,8.12048876953125,0.18792904823124407,-0.01776252424903214,-0.03430539334288332
1690840284632529700,8.13052978515625,0.19422668707072735,-0.009533004031516612,-0.036235799716459585
1690840284642569700,8.14056982421875,0.18974340417683122,-0.015575389468297361,-0.03762839571917429
1690840284652609800,8.15060986328125,0.1861544397741556,-0.002858129377476871,-0.022177742308820598
1690840284662680800,8.160680908203124,0.16056290239989757,-0.010414353443309664,-0.0010246942720841617
1690840284672721000,8.170720947265625,0.1533726986348629,-0.010780483341962098,0.018740324339200743
1690840284682762000,8.180761962890625,0.1618991194397211,-0.0059286593966186045,0.026819622431066815
1690840284692801800,8.1908017578125,0.1560650064587593,-0.00969615870397538,0.014880132646556011
1690840284702841900,8.200841796875,0.16429799727499483,-0.010884710901416838,-0.005225009205867536
1690840284712882700,8.210882568359375,0.18031331253051758,-0.0100189974501729,-0.03156079364274628
1690840284722922800,8.2209228515625,0.19034020102620125,-0.01236917730551213,-0.04062939959948417
1690840284732962800,8.230962890625,0.19213526774942874,-0.006258622003346682,-0.0415204986537341
1690840284743003000,8.2410029296875,0.18479834899008274,-0.013506255044043063,-0.03151683120343368
1690840284753044000,8.2510439453125,0.18434300643801688,-0.004758263910375535,-0.023875750998896546
1690840284763083800,8.261083740234374,0.17326397854089737,0.0010727803306654095,-0.002077025469765067
1690840284773123800,8.271123779296875,0.16278525462448595,0.00023048428762704134,0.016023904987354762
1690840284783164700,8.28116455078125,0.16607085216641426,0.004162088115513324,0.02345217355827335
1690840284793204700,8.291204833984375,0.1603828696578741,0.0016807561611756681,0.024088754428760146
1690840284803275800,8.30127587890625,0.1701163281649351,-0.006118811673857271,0.004523203912330791
1690840284813315800,8.31131591796875,0.18045009065270423,0.0008216551138088107,-0.018472585914260705
1690840284823356000,8.32135595703125,0.19048691602051257,-0.0037046266715973614,-0.04010907921954058
1690840284833395700,8.331395751953124,0.19528408716917037,-0.011308087412640451,-0.04960445922098588
1690840284843436800,8.341436767578125,0.18750819247066974,-0.00784176300894469,-0.04492688216427341
1690840284853476900,8.351476806640624,0.18062661626338958,0.0001993219643831253,-0.03999696061457507
1690840284863517000,8.361516845703125,0.17718495137691498,-0.00858388661313802,-0.010698431081697345
1690840284873557800,8.371557861328125,0.16925065124630928,-0.004554302303493023,0.014169582357560283
1690840284883597800,8.381597900390625,0.15862462781369685,-0.003589548924565315,0.020315117641561662
1690840284893638000,8.391637939453124,0.16461188552975653,-0.00863452082183212,0.01896313221044838
1690840284903677700,8.401677734375,0.1626706883341074,-0.0018078896721825002,0.015354727888363413
1690840284913718800,8.41171875,0.1695586942821741,-0.008122881505265831,-0.008070740326074882
1690840284923758800,8.4217587890625,0.18482640604078768,-0.012859664236195384,-0.028911745005263945
1690840284933799000,8.431798828125,0.185129772901535,-0.007635280651412904,-0.044151495611295104
1690840284943870000,8.441869873046874,0.18543372428417204,-0.005573343152925372,-0.05378895553112961
1690840284953909800,8.45190966796875,0.18543080167472362,-0.009375329251773656,-0.03936096426597796
1690840284963950800,8.461950927734375,0.180638891223073,-0.000937974969856441,-0.021126475123642012
1690840284973990700,8.47199072265625,0.17599661837518213,-0.006629464609734714,-0.006001427805307321
1690840284984030700,8.48203076171875,0.1650672280818224,-0.0012757190242409706,0.007931907244119792
1690840284994071800,8.49207177734375,0.16446633957922457,0.0033299481403082608,0.018733538405387662
1690840285004112000,8.50211181640625,0.1614718339383602,-0.006313603593595326,0.011423754248139448
1690840285014152000,8.51215185546875,0.17284487634599208,-0.0030075843181461095,0.005478011285979301
1690840285024191700,8.522191650390624,0.17868191193640232,-0.006963043945655226,-0.024146329834894276
1690840285034232800,8.53223291015625,0.17644085501134393,-0.008976429594680667,-0.03394395788565743
1690840285044273000,8.54227294921875,0.186616212067008,-0.003974420056305826,-0.035426282565016294
1690840285054312700,8.552312744140625,0.18407120375931263,-0.0034297917855903503,-0.03326603122462984
1690840285064352800,8.562352783203124,0.18107611359655856,-0.0018556012714281676,-0.020632736789947374
1690840285074393900,8.572393798828125,0.17389350861608982,-0.011049473009072244,-0.00857707327986136
1690840285084465000,8.58246484375,0.16820494158565996,-0.004039959573186934,0.006887247896241024
1690840285094505000,8.5925048828125,0.16999591665565966,0.0010408873550593852,0.01301444837253075
1690840285104544800,8.602544677734375,0.1737368567496538,-0.0010199541648849844,0.007974517976562493
1690840285114584600,8.61258447265625,0.1846685851305723,-0.0049161944184452295,-0.003251434977422468
1690840285124625700,8.622625732421875,0.17465046446323393,-0.013011566862277685,-0.010280360933253541
1690840285134665700,8.632665771484374,0.17600597072541713,-0.012959398283623158,-0.012133048728387802
1690840285144705800,8.642705810546875,0.18633271895051,-0.013644129144772886,-0.027201694250945
1690840285154747000,8.652746826171875,0.18663374772369862,-0.007848959934711457,-0.03378156583160162
1690840285164786700,8.66278662109375,0.1834931116104126,-0.008600837747938931,-0.019889526340365407
1690840285174826800,8.67282666015625,0.1763069994986057,-0.0020324556756764647,-0.02011810179869644
1690840285184866800,8.68286669921875,0.1737596531033516,-0.0016375746065750718,-0.009422291932348162
1690840285194908000,8.692907958984375,0.17689853565096855,-0.004130816194415092,0.0050821438361890615
1690840285204947700,8.70294775390625,0.17420622782707212,-0.0029686405472457407,-0.0006074050083523615
1690840285214987800,8.71298779296875,0.17240940753817557,-0.008471768008172512,-0.003283675012900494
1690840285225058800,8.723058837890624,0.17555413530468938,-0.013566022407263517,-0.009202959226397796
1690840285235099000,8.733098876953125,0.1851309419453144,-0.013020078962296247,-0.013625671039475127
1690840285245139700,8.7431396484375,0.18677929367423057,-0.0065162865588441485,-0.02591501087469514
1690840285255179800,8.7531796875,0.1873795976549387,-0.002527618781477213,-0.027314182748668824
1690840285265219600,8.763219482421874,0.18962591527700423,-0.003479914537630975,-0.02504319190965034
1690840285275259600,8.773259765625,0.18080080378651617,0.00042863720823079344,-0.013983873359998688
1690840285285300700,8.78330078125,0.16912790164947508,-0.0009309241745620965,-0.0042195447906386106
1690840285295340800,8.7933408203125,0.16433540667593477,-0.011955774199031292,0.0011598466927651315
1690840285305380900,8.803380859375,0.1745090101659298,-0.0018761691354215143,0.003022010135720484
1690840285315421700,8.813421630859375,0.17361176906526088,-0.004762611291930079,-0.0050762575180968265
1690840285325461800,8.823461669921874,0.1809440116494894,-0.006756232794560491,-0.008905944474623537
1690840285335495400,8.833495361328126,0.18004501698315142,-0.006354081734456122,-0.016035695889848284
1690840285345535500,8.843535400390625,0.17630466141104698,-0.010078216824121774,-0.021213025462510995
1690840285355576600,8.85357666015625,0.17316694790720938,-0.012318689227290451,-0.01659661770823877
1690840285365647600,8.863647705078124,0.17586451642811296,-0.003909136267751455,-0.019084530100412667
1690840285375687700,8.873687744140625,0.17496902889311314,0.003092668785713613,-0.014089027934637852
1690840285385727500,8.8837275390625,0.17406886518299577,0.0015558146072551606,-0.014371790398773737
1690840285395767600,8.893767578125,0.1751145748436451,-0.003728226742893457,-0.004393851044774055
1690840285405808400,8.903808349609376,0.17421324208974837,-0.004722644607722759,-0.005900323784700594
1690840285415848400,8.913848388671875,0.1755588114798069,-0.0036059155374765393,-0.0042234766136622056
1690840285425888500,8.923888427734376,0.1745084256440401,0.0019615823965519665,-0.011817237944598309
1690840285435929600,8.9339296875,0.17944295943677424,-0.004755706627108156,-0.017477935153990983
1690840285445969700,8.9439697265625,0.18183540753126143,-0.0025702888794243333,-0.017584130908246152
1690840285456009500,8.954009521484375,0.17465514063835144,-0.0036901962874457237,-0.021054514999128877
1690840285466049500,8.964049560546876,0.17809739004671574,-0.0057211906583979726,-0.018121498321113174
1690840285476090400,8.97409033203125,0.1763034923672676,0.0006343158481642604,-0.014073099713143892
1690840285486130400,8.98413037109375,0.17780045292675495,0.0017348975012078881,-0.009030118843563832
1690840285496170500,8.99417041015625,0.18303835358023643,-0.007808408728614449,-0.00011063446735497564
1690840285506241500,9.004241455078125,0.17750410032868386,-0.0020783406440168617,-0.0038983271793695162
1690840285516281600,9.014281494140626,0.17615677737295626,0.001753346473351121,-0.01298308055330999
1690840285526322700,9.02432275390625,0.171218736448884,-0.008178264954313636,-0.010742859311890788
1690840285536362500,9.034362548828126,0.1721206537246704,-0.00541029807832092,-0.005585974305635318
1690840285546402600,9.044402587890625,0.17152677948474884,-0.002602766376920044,-0.01759117257038597
1690840285556442600,9.054442626953126,0.17616671424508093,-0.00987904099021107,-0.017997575113922356
1690840285566483500,9.0644833984375,0.17631518280506134,-0.001954348938167095,-0.020880167645798062
1690840285576523500,9.0745234375,0.1766167961001396,-0.007105265427939593,-0.01919416905392427
1690840285586563600,9.0845634765625,0.17870938446521759,-0.006359452029317617,-0.006725120703666471
1690840285596604700,9.094604736328124,0.17182839277982712,0.005060680923052132,-0.008300790788861923
1690840285606644500,9.10464453125,0.17167758613228798,-0.0012903686041012405,-0.00363548869183287
1690840285616684500,9.1146845703125,0.17945581891834736,0.009355053648725152,-0.012715839885291643
1690840285626724600,9.124724609375,0.17646189779937266,0.007931633249484002,-0.01609401564807631
1690840285636765400,9.134765380859376,0.1727180350959301,-0.0062538727629929776,-0.016391560122813096
1690840285646836500,9.14483642578125,0.17885200780630112,-0.0066104311157017944,-0.013225798701425082
1690840285656876500,9.15487646484375,0.17570903360545634,-0.004265585022605955,-0.013279113490972667
1690840285666916600,9.16491650390625,0.17944705109000206,-0.007019084981828927,-0.01425040164196398
1690840285676956400,9.174956298828125,0.17704992682039736,-0.009919994055107236,-0.010486103505268692
1690840285686997500,9.18499755859375,0.1736070928901434,-0.01038914593681693,-0.018527699935249983
1690840285697037600,9.19503759765625,0.17555062817335126,-0.012650076606124638,-0.008014918485609814
1690840285707077400,9.205077392578126,0.1707604712873697,-0.00028948446586728096,-0.007523093547788448
1690840285717117400,9.215117431640625,0.175845811727643,0.0006831234259530902,-0.014240916860988363
1690840285727158500,9.225158447265626,0.17868541906774044,-0.0012327201327309012,-0.00010758399374317377
1690840285737198600,9.235198486328125,0.17509294753372667,0.004087451976723969,0.0015603172524366526
1690840285747238400,9.24523828125,0.180629538872838,-0.008936316780000925,-0.004334700169484131
1690840285757279500,9.255279541015625,0.17614041076004505,-0.013273213473148643,-0.017063436068966983
1690840285767319600,9.265319580078126,0.18452303918004034,-0.00900927241835743,-0.020360034495522268
1690840285777359400,9.275359375,0.18093407477736473,-0.0021976196421310303,-0.01758943727102596
1690840285787430400,9.285430419921875,0.1771925501614809,-0.003384564404375851,-0.02849822773435153
1690840285797470500,9.295470458984376,0.17913842353224754,-0.0006362886095419525,-0.019931022827955894
1690840285807511600,9.305511474609375,0.16178279958367348,-0.003256115719117224,-0.011662293978058732
1690840285817551600,9.315551513671876,0.17599895646274089,-0.004724690434336662,-0.00885078478786163
1690840285827591400,9.32559130859375,0.18033669340610503,-0.004928907769545913,-0.013032061661034822
1690840285837631500,9.335631591796876,0.17791852634847163,-0.0029047084655612707,-0.01862437437591143
1690840285847672600,9.345672607421875,0.334445889621973,-0.04238024815507233,-0.059794488689396526
1690840285857712400,9.35571240234375,-0.1639215651780367,-0.9717179572433232,-0.8715551630094647
1690840285867752400,9.36575244140625,0.08506956225931644,0.46985473274942485,0.25365289043700323
1690840285877793500,9.37579345703125,0.4801069909662008,0.16136077477931976,0.6218846750058233
1690840285887833600,9.38583349609375,-0.20125264018476008,0.006327668651565909,0.38626996568776667
1690840285897873400,9.395873291015626,0.276436768245697,0.04734634612984955,0.25073168749436736
1690840285907913500,9.40591357421875,0.10340718298256396,-0.1323121557537466,-0.27453992164842783
1690840285917954600,9.41595458984375,0.3563637069195509,0.19323380357585845,-0.21823060819366946
1690840285928024600,9.426024658203126,0.2778624171346426,0.2622598108658567,0.06787364065079018
1690840285938065400,9.4360654296875,0.3477233043462038,0.1356319843588397,-0.19572121821111066
1690840285948105500,9.44610546875,0.23509119690060615,0.04200695786327124,-0.4079575178934261
1690840285958145500,9.4561455078125,0.29542846896350383,-0.006366174031049013,-0.20133768811970948
1690840285968186600,9.4661865234375,0.09766016376316547,-0.015998510251194236,-0.009812049301760271
1690840285978226400,9.476226318359375,0.13289631231725216,-0.003817585526779294,0.10962442266275174
1690840285988266500,9.4862666015625,0.14361995090544222,-0.019169322307035327,0.21911948332479222
1690840285998306600,9.496306640625,0.05151859031319618,-0.027061573394201694,0.23925341288028285
1690840286008347400,9.506347412109376,0.11110066009461879,-0.06851188375540078,0.166202113863267
1690840286018387500,9.516387451171875,0.15671733288764952,-0.07829937400463968,0.06551946960692294
1690840286028427500,9.526427490234376,0.11683306626677513,-0.0551797431692481,-0.015128399186045862
1690840286038468600,9.536468505859375,0.20571604933440685,-0.05894512358475476,-0.11432912062183022
1690840286048508400,9.54650830078125,0.20325521217882633,-0.08067764744330197,-0.17788504420397802
1690840286058548500,9.556548583984375,0.18892215092182157,-0.08916541673820465,-0.17371908363094551
1690840286068619500,9.56661962890625,0.1948947955906391,-0.0829454097121954,-0.13445061082085594
1690840286078659600,9.57665966796875,0.13140461245477197,-0.07411215144786984,-0.06803905121241696
1690840286088700400,9.586700439453125,0.17340251022875308,-0.05371452945489436,0.0232022950170096
1690840286098740500,9.596740478515626,0.1287684187322855,-0.025597017266973852,0.08944599637840873
1690840286108780500,9.606780517578125,0.12290391061306,-0.025332448046654462,0.11568667271062731
1690840286118820400,9.6168203125,0.17003274153470993,-0.010248276161402463,0.11171060868650674
1690840286128861400,9.626861328125,0.1482055251300335,0.015381985788047312,0.0785570568264462
1690840286138901500,9.636901611328126,0.16665888118743896,0.01826338644325733,0.02828120114991907
1690840286148941600,9.646941650390625,0.23601123435497282,0.03243676362652331,-0.027451737188990227
1690840286158981600,9.656981689453126,0.19675415972173213,0.0409940910262987,-0.07144969077296555
1690840286169022500,9.6670224609375,0.24432079753875732,0.03917100378498435,-0.08128874681266024
1690840286179062500,9.6770625,0.2250280680477619,0.04724895016998052,-0.0861312732066959
1690840286189102300,9.687102294921875,0.20845979508459567,0.04681220272053033,-0.07936548713250086
1690840286199143400,9.697143310546876,0.20628712722063064,0.043146519819833334,-0.039623035568534394
1690840286209213400,9.70721337890625,0.17197335420846938,0.04182747311051935,0.016423338933987543
1690840286219254500,9.717254638671875,0.17643617883622645,0.029352168549410997,0.04289289668521378
1690840286229294600,9.727294677734376,0.18361001598834992,0.022828904260508716,0.05059534255501348
1690840286239334700,9.737334716796875,0.14829787958860396,0.01885159812737256,0.054100126672419716
1690840286249375500,9.74737548828125,0.1836141076415777,-0.00014521715696901082,0.038058297869306985
1690840286259415300,9.757415283203125,0.16983517313599586,-0.01662446012981236,0.016574378476967102
1690840286269455400,9.767455322265626,0.16291735657155512,-0.01862009092643857,-0.0039119721122318875
1690840286279495400,9.777495361328125,0.20550094527900217,-0.0290085792761296,-0.037801688193157316
1690840286289536500,9.78753662109375,0.16784838323295115,-0.03721490128114819,-0.05408164116765838
1690840286299576600,9.79757666015625,0.16009703845381737,-0.04472282922584563,-0.04927461077868938
1690840286309616600,9.80761669921875,0.17969605741500855,-0.05324621782340109,-0.0432952395415632
1690840286319657500,9.817657470703125,0.1587140596628189,-0.04793178133498877,-0.019185497123701496
1690840286329697500,9.827697509765626,0.16898001761138437,-0.05898483454063534,0.0006598019158700481
1690840286339730000,9.83772998046875,0.14780220502614974,-0.045895672397501766,0.024064976260950787
1690840286349801000,9.847801025390625,0.154892455548048,-0.03594597732387483,0.03165328509863466
1690840286359841000,9.857841064453124,0.171257899415493,-0.03795965523384511,0.026943125513149424
1690840286369880800,9.867880859375,0.1545522638082504,-0.027301665760390458,0.025043068612064234
1690840286379922000,9.877921875,0.17854571833610533,-0.023582718302495777,0.004181117042968981
1690840286389962000,9.8879619140625,0.17695932592749594,-0.012816519214212894,-0.010303792041190899
1690840286400002000,9.898001953125,0.17463526689410208,0.0020989450406283137,-0.029378230005851946
1690840286410043000,9.90804296875,0.20734160470962523,0.0062628963196650145,-0.03327711430764757
1690840286420083000,9.9180830078125,0.19157763386666773,0.013067863626778125,-0.027932237015198914
1690840286430123000,9.928123046875,0.19079729714393615,0.014015738936141133,-0.018458858783007598
1690840286440162800,9.938162841796874,0.19318039288818836,0.011163747038505971,-0.00949287751710508
1690840286450204000,9.948203857421875,0.18556056553423403,0.02055478531606495,0.004612334367353469
1690840286460244000,9.958243896484374,0.19082652323842048,0.023291407205723223,0.014164002000144681
1690840286470284000,9.968283935546875,0.1793570347189903,0.019129903612099586,0.021055492246663195
1690840286480324900,9.978324951171874,0.17852876720130442,0.024653452806547283,0.009247145427996293
1690840286490395100,9.98839501953125,0.19371990659236907,0.016311412125267086,0.006693127263360656
1690840286500436000,9.99843603515625,0.17928689209222792,0.007050137707218527,-0.001988694165763445
1690840286510476000,10.00847607421875,0.17442834614515304,-0.006411364879645407,-0.00730704877746757
1690840286520515800,10.018515869140625,0.17973814299106597,-0.007293992933072149,-0.01660507044275291
1690840286530557000,10.028556884765624,0.17172084075212476,-0.011677103388123214,-0.01291113869510591
1690840286540597000,10.038596923828125,0.1797013181120157,-0.016873539520055054,-0.018396054645907132
1690840286550637000,10.048636962890624,0.17121113766431809,-0.02438175972569734,-0.021391546667460352
1690840286560677000,10.058677001953125,0.16016133586168288,-0.026794666086323558,-0.011315197573439217
1690840286570718000,10.068718017578124,0.1728881309658289,-0.02818955451082438,-0.0025886465200223026
1690840286580758000,10.078758056640625,0.1549228506863117,-0.030058892046660183,-0.006263923799549229
1690840286590797800,10.0887978515625,0.156848850312829,-0.036300964774005115,0.0055912806684151285
1690840286600839000,10.0988388671875,0.1731318765938282,-0.035429990625754,0.006366890983679332
1690840286610879000,10.10887890625,0.16082184559702872,-0.024470899313874542,-0.004585432660696096
1690840286620919000,10.1189189453125,0.17977789047956466,-0.021213614550977943,-0.007549657327728346
1690840286630990000,10.128989990234375,0.16924831315875052,-0.01751691545750946,-0.016271166879846713
1690840286641030100,10.139030029296874,0.16919161453545092,-0.007111549038253724,-0.011823512421757913
1690840286651070200,10.1490703125,0.18215514100492,-0.01594857016224414,-0.010892560847732238
1690840286661111000,10.159111083984374,0.18150749075114725,-0.006677176208980381,-0.015326570372958667
1690840286671150800,10.16915087890625,0.1781727933704853,-0.0034510172367095944,-0.012277160773659125
1690840286681191000,10.17919091796875,0.18861586145162582,0.00007832593321800231,-0.00408121403218247
1690840286691232000,10.18923193359375,0.1755757626146078,0.004334704736061394,-0.007319378536078147
1690840286701272000,10.19927197265625,0.1787128915965557,0.007947926797159015,-0.007089277840941212
1690840286711312100,10.20931201171875,0.1863473319977522,0.011782901850156485,0.003742716492549516
1690840286721352200,10.219352294921874,0.1839718350380659,0.0056932797381654375,-0.00317298574661836
1690840286731393000,10.22939306640625,0.18623977997004984,0.008135850584693252,-0.005308499937970191
1690840286741432800,10.239432861328124,0.17220950105190277,0.016565788745135066,-0.0057050752072362225
1690840286751473000,10.249472900390625,0.17928221591711044,0.01044551576655358,0.0032212727345991878
1690840286761514000,10.259513916015624,0.18306641063094137,-0.000216784555837512,-0.005665131355915219
1690840286771584000,10.269583984375,0.1672527554273605,0.004648775653913617,-0.005330424075410701
1690840286781625000,10.279625,0.17507658092081546,-0.004513933760486543,-0.003196151993074454
1690840286791665200,10.2896650390625,0.17377251258492468,-0.011127470148727297,-0.0024123994705500078
1690840286801705200,10.299705322265625,0.1735100622564554,-0.013094057513959706,-0.010246773757482877
1690840286811745000,10.3097451171875,0.17413491615653037,-0.013835998455062507,-0.014565372175537048
1690840286821785900,10.319785888671875,0.1671183153927326,-0.021579598319157955,-0.009629751537414266
1690840286831826000,10.329825927734374,0.17924656008183956,-0.019106668866984543,-0.006263549340213648
1690840286841866000,10.339865966796875,0.17535130620896816,-0.018648257574997842,-0.005318190214922651
1690840286851907000,10.349906982421874,0.16620763028860092,-0.02237542487196624,-0.00516075289719738
1690840286861947100,10.359947021484375,0.16753449497818945,-0.015163666862249374,-0.0037099695669952776
1690840286871987200,10.3699873046875,0.17244857050478457,-0.0205031281940639,-0.006962541622156277
1690840286882027000,10.380027099609375,0.17945698796212672,-0.01836465486064553,-0.011161655546119436
1690840286892067800,10.39006787109375,0.18556173457801342,-0.0095092943623662,-0.004370958792953752
1690840286902108000,10.40010791015625,0.17131342899501323,-0.01715224686358124,-0.007791105967364273
1690840286912179000,10.410178955078125,0.18220891701877115,-0.009234569074213505,-0.005713039317983202
1690840286922219000,10.420218994140624,0.18682254829406736,-0.002125613851845264,-0.013324359138496219
1690840286932259000,10.430259033203125,0.1885948186635971,-0.006331431511230766,-0.01119058481308166
1690840286942300200,10.440300048828124,0.18109774090647696,-0.0023890870936214923,-0.01215652093552053
1690840286952340000,10.450340087890625,0.18348083665072917,-0.0026831381367519495,-0.010285073640989139
1690840286962380000,10.460380126953124,0.17913725448846815,0.0010992664787918328,0.0031724331907695157
1690840286972420900,10.4704208984375,0.1807826836079359,-0.00011737930197268724,0.000981508150906302
1690840286982461000,10.4804609375,0.18497721268832681,-0.002393690203502774,-0.006471798963146284
1690840286992501000,10.4905009765625,0.1805085428416729,0.00815784322079271,-0.002863239377434365
1690840287002541000,10.500541015625,0.18726444684267043,0.009041092328727246,-0.005252531967032701
1690840287012582100,10.51058203125,0.17621464504003523,-0.003985489439591765,-0.005331104495422914
1690840287022622200,10.520622314453124,0.18387305083870886,-0.004022496981732547,-0.016597832417790778
1690840287032662000,10.530662109375,0.1747691224068403,0.0021792437352240084,-0.014198607522645033
1690840287042702800,10.540702880859374,0.18047990126907826,-0.002676708395965397,-0.00707469675973989
1690840287052773000,10.550773193359374,0.18693653006255626,-0.0069760495577007526,-0.007509900706075131
1690840287062814000,10.56081396484375,0.1884510262787342,-0.005117489144206047,-0.0089651775483042
1690840287072854000,10.57085400390625,0.17410042936503886,-0.007699541526660323,-0.007302071208250709
1690840287082894000,10.58089404296875,0.16632687275409697,-0.011224829575978219,-0.00047047162253875284
1690840287092934000,10.590933837890624,0.17515899850726127,-0.012910115781798959,-0.00859733061660081
1690840287102975000,10.60097509765625,0.17800328202247617,-0.00677026131991297,-0.0059169324262067675
1690840287113015000,10.61101513671875,0.17440847240090368,-0.015262706789933144,0.002543565269280225
1690840287123055000,10.62105517578125,0.17470131786763668,-0.015188874368742108,0.00039497240064665675
1690840287133096000,10.631095947265624,0.17798048566877842,-0.017198789419047532,-0.012281786716426721
1690840287143136000,10.641135986328125,0.1779629500120878,-0.014261786119081079,-0.011130548021802678
1690840287153176000,10.651176025390624,0.17510288440585137,-0.015331716905534266,-0.008507291412702761
1690840287163216100,10.661216064453125,0.17538520847856998,0.00036211131066083904,-0.008844871070305816
1690840287173257200,10.67125732421875,0.17237901239991188,-0.0038742110848426817,-0.00160890563451685
1690840287183297000,10.681297119140625,0.1707224773645401,-0.002499561730772257,0.003668363481550477
1690840287193368000,10.6913681640625,0.1793885989010334,0.0019539470793679355,0.0007029880370479077
1690840287203408100,10.701408203125,0.17489011843800545,0.001563924848474562,-0.0007001658922992646
1690840287213448000,10.711447998046875,0.18446224890351295,0.0020457170160487295,-0.0037734175914898513
1690840287223489000,10.721489013671874,0.182516960054636,-0.006205357446148991,-0.004398933645267971
1690840287233529000,10.731529052734375,0.18177461725473404,-0.003955861486308276,-0.0034435919820796695
1690840287243569000,10.74156884765625,0.17819266711473464,-0.0013350114634260535,0.003992974059726111
1690840287253610000,10.75160986328125,0.18149404674768446,0.0038763665093109008,-0.004274973905459046
1690840287263650000,10.761650146484374,0.18000643853843212,0.0012731982735916972,-0.002013801207556389
1690840287273690000,10.771690185546875,0.17762509635984897,0.0005694339184090495,-0.004949251871253364
1690840287283730000,10.78172998046875,0.17614157980382442,-0.0010213424043729901,-0.012786183441453613
1690840287293771000,10.79177099609375,0.17480360919833182,0.001500102364644408,-0.0038095300844870504
1690840287303811000,10.80181103515625,0.16568740580677985,-0.0029718919502571225,0.0002052539482479915
1690840287313851100,10.81185107421875,0.17557459357082844,-0.008055515357479453,-0.0033492190963588654
1690840287323891000,10.821890869140624,0.17887597320377827,-0.001359817111119628,-0.00603220653606113
1690840287333962000,10.8319619140625,0.17529460758566856,-0.005722944224067032,-0.007082176813296973
1690840287343995000,10.841994873046875,0.1708095711261034,-0.008620163502916693,-0.0031248266228009014
1690840287354035000,10.852034912109374,0.1803863777667284,-0.007728365762345492,-0.006658188380720093
1690840287364074800,10.86207470703125,0.18128069625794888,-0.00860251824837178,-0.005503675450198352
1690840287374114800,10.87211474609375,0.1606231081545353,-0.014648995338380336,-0.006508340714406221
1690840287384155600,10.88215576171875,0.19458324542343616,-0.004635879639722407,-0.016049171859351917
1690840287394195700,10.89219580078125,0.1822995179116726,-0.007410824245773256,-0.00494450263089966
1690840287404235800,10.90223583984375,0.17824995025992393,-0.014121829659119248,-0.009654392788326367
1690840287414276900,10.91227685546875,0.1774935789346695,-0.006054112407192587,-0.008653047425788827
1690840287424317000,10.92231689453125,0.18376316072344778,-0.0014189999524503946,-0.006177008134499192
1690840287434356700,10.932356689453124,0.17612287510335445,-0.002379734743386507,-0.008168519878434017
1690840287444396800,10.942396728515625,0.18583879795372485,-0.008804434028640389,-0.005250732735591009
1690840287454437600,10.952437744140624,0.17850129467248915,-0.007038520334661007,-0.006321649902733042
1690840287464477700,10.962477783203125,0.1823866116732359,-0.004335179660096764,0.005082719224924221
1690840287474548700,10.972548828125,0.16936930918991563,-0.002368373099155724,0.004490027728513814
1690840287484588800,10.9825888671875,0.17491174574792384,-0.0005829875197261572,-0.002124746202165261
1690840287494628900,10.99262890625,0.18644027097821234,-0.004030168831534684,-0.009112244169064797
1690840287504670000,11.002669921875,0.17477613666951655,-0.011760872681438923,-0.0020649240400176495
1690840287514709800,11.012709716796875,0.17074001302123068,-0.008184694695100189,-0.009145109825627877
1690840287524749800,11.022749755859374,0.1888520082950592,-0.005154058294929564,-0.009767073082295246
1690840287534790000,11.032789794921875,0.18496318416297436,-0.007152136776968836,-0.004384731589979492
1690840287544830700,11.042830810546874,0.17359598697423934,-0.01055467522945255,0.003595238879835233
1690840287554870800,11.052870849609375,0.18437632418572902,-0.008549838213063776,0.007205241503962315
1690840287564910800,11.062910888671874,0.18183774561882018,-0.0028955753110349175,0.006281678651948459
1690840287574952000,11.072951904296875,0.16687983046174049,0.002588116797059774,-0.00562365770121105
1690840287584991700,11.08299169921875,0.1710743595421314,-0.006208426186069846,0.00040456221289932726
1690840287595031800,11.09303173828125,0.18394436250925064,-0.008330204113014042,0.003912844328489155
1690840287605072000,11.10307177734375,0.1828951457172632,-0.0075079644773155445,-0.011779248588345944
1690840287615143000,11.113142822265624,0.17810206622183322,-0.00700998835992068,-0.015810892424336635
1690840287625183700,11.123183837890625,0.1816846008837223,-0.007956110103614628,-0.005889642560482025
1690840287635223800,11.133223876953124,0.18437340157628057,-0.0067030413025990125,-0.010118799996259621
1690840287645264000,11.143263916015625,0.17733926515579224,-0.00043042730651795863,-0.006211234631086699
1690840287655303700,11.1533037109375,0.17927987782955168,-0.006511062394455075,-0.006829371096007526
1690840287665344800,11.1633447265625,0.17224574140906332,-0.0038117768405005335,-0.0038800060713896525
1690840287675384800,11.173384765625,0.18137363523840902,0.00010912293028086423,0.0019136287687113508
1690840287685425000,11.1834248046875,0.18406185140907763,-0.006163856391981244,0.004391855450510047
1690840287695465700,11.1934658203125,0.17642858005166054,-0.005441971858218312,0.007478290858259424
1690840287705505800,11.203505859375,0.17732874376177787,-0.0041901086336001755,0.012606657589506357
1690840287715545900,11.2135458984375,0.17478490449786185,-0.0016848843470215796,0.016350903885439038
1690840287725585700,11.223585693359375,0.17419161477982997,-0.005155373469181358,0.006016579708666541
1690840287735626800,11.233626708984374,0.18048340840041635,-0.001586465473845601,-0.0066210484078386795
1690840287745666800,11.243666748046875,0.1773532936811447,0.0034730464054271576,-0.007750623259926214
1690840287755737900,11.25373779296875,0.1760106469005346,-0.0016855784667655824,-0.016229177201911808
1690840287765778000,11.26377783203125,0.1806517507046461,-0.007892762543819844,-0.027435082881711422
1690840287775818000,11.27381787109375,0.17990765433907507,-0.0024669381028041243,-0.02884538807105273
1690840287785858800,11.28385888671875,0.18499825547635554,-0.00008983370792120694,-0.012828296416974626
1690840287795899000,11.29389892578125,0.18200550340116023,0.001822246991097927,-0.0022728814020054416
1690840287805938700,11.303938720703124,0.17422317896187303,-0.006181428581289947,0.004530044645071029
1690840287815978800,11.313978759765625,0.17257833436429498,-0.0056776072449982165,0.018933129797829313
1690840287826019800,11.324019775390624,0.17123334949612617,-0.005092245105095207,0.016693082086346112
1690840287836060000,11.334059814453125,0.17512801884710788,-0.0013170008827000856,0.007846973473601974
1690840287846100000,11.344099853515624,0.17588263660669326,-0.004105900948867202,0.007119686678936705
1690840287856140800,11.354140869140625,0.17513503310978412,-0.012128025493398307,0.006527360508707352
1690840287866180900,11.364180908203124,0.17798223923444748,-0.013158975976333021,-0.020645089381444267
1690840287876220700,11.374220703125,0.18980360993146894,-0.006880114902555942,-0.024038115653488783
1690840287886260700,11.3842607421875,0.1945902596861124,-0.0058572746608406305,-0.025670767489774152
1690840287896331800,11.394331787109374,0.18410861316025257,-0.007323401690647006,-0.02460104676587507
1690840287906372900,11.404372802734375,0.1863467474758625,-0.011881211125478148,-0.01740435389454942
1690840287916413000,11.414412841796874,0.17930851940214632,-0.008587247614003717,-0.008883732642815449
1690840287926453000,11.424452880859375,0.17526245888173578,-0.006139781396649778,0.0073416314670816055
1690840287936492800,11.434492919921874,0.1724205134540796,-0.012953699195198714,0.011264887591730803
1690840287946533600,11.44453369140625,0.1760159075975418,-0.006029781683534383,0.014130693385587072
1690840287956573700,11.45457373046875,0.1788654518097639,0.00002246756013482809,0.016564158477052116
1690840287966613800,11.46461376953125,0.18276421281397343,-0.002004800483770668,0.0062836879459442566
1690840287976653800,11.47465380859375,0.18501345304548739,-0.004239391135424375,-0.008143211907241493
1690840287986695000,11.48469482421875,0.18112755152285098,0.0006365078052505851,-0.00968652779252734
1690840287996735000,11.49473486328125,0.1929512603074312,-0.00034523324109613895,-0.020761797396559267
1690840288006774800,11.50477490234375,0.1959445969045162,0.0036451150367036458,-0.024842518238397313
1690840288016815900,11.51481591796875,0.18771569774150848,0.0028968904852867123,-0.022030511291278525
1690840288026855700,11.524855712890625,0.19295652100443839,0.0025091332767158744,-0.013934992716973647
1690840288036926700,11.5349267578125,0.1744043807476759,-0.0037657457416877147,-0.004057641360349953
1690840288046966800,11.544966796875,0.17306056492328642,-0.0008268792781978845,0.017851791701372712
1690840288057006800,11.5550068359375,0.17740882326066493,-0.005421915450878441,0.017335996799496933
1690840288067048000,11.5650478515625,0.1781628564983606,-0.010255363489314913,0.011102381373243406
1690840288077088000,11.575087890625,0.17741759108901023,-0.005617620686069131,-0.0014633414176758379
1690840288087127800,11.5851279296875,0.17383038025200365,-0.0036745603268966078,-0.001798231361270882
1690840288097167600,11.595167724609375,0.17996493748426437,-0.0104956019859761,-0.00918627295307815
1690840288107208700,11.605208740234374,0.1772702915728092,-0.0043792014649137855,-0.01487774432664737
1690840288117248800,11.615248779296875,0.1715811400204897,-0.0011593626355752347,-0.015146268202876671
1690840288127288800,11.625288818359374,0.18220365632176397,-0.0021916648253798485,-0.017832776473648844
1690840288137330000,11.635329833984375,0.187888131698966,0.0005837912373244762,-0.016021233539655802
1690840288147370000,11.645369873046874,0.18070552671849727,-0.006960194401443004,-0.00531036766807083
1690840288157409800,11.655409912109375,0.16873276485204697,-0.004111782700382173,0.006995028252806514
1690840288167449600,11.66544970703125,0.1829518443405628,-0.00551189528927207,0.005052643747068941
1690840288177520600,11.675520751953124,0.1775666441708803,-0.009079926501773297,-0.00004160151886753738
1690840288187560700,11.685560791015625,0.16858955698907374,-0.010303623077832162,0.003110944227920845
1690840288197601800,11.695601806640624,0.17577099292576312,-0.007704546495340764,-0.00012353504812344908
1690840288207641900,11.705641845703125,0.17547171771824358,-0.0020929536912590264,-0.004647720774565823
1690840288217682000,11.715681884765624,0.1835492257118225,-0.0017595204858109354,-0.01013396559935063
1690840288227723000,11.725722900390625,0.18249533274471758,-0.0016443331409245728,-0.011045271757990121
1690840288237762800,11.7357626953125,0.18369068000912664,0.0013394319102168083,-0.016348273536935447
1690840288247802600,11.745802734375,0.17576164057552812,-0.00019431699570268392,-0.009382306981831788
1690840288257842700,11.7558427734375,0.1786035860031843,-0.007784333733282983,-0.009553745425445959
1690840288267883800,11.7658837890625,0.19192074821591376,-0.0019234788758680224,-0.0012539821164682507
1690840288277923800,11.775923828125,0.18085516432225704,0.0008319573121145367,0.008422407874534837
1690840288287964000,11.7859638671875,0.17412381024062631,-0.006315101430937648,0.002412860694853589
1690840288298005000,11.7960048828125,0.16948387548029423,-0.00921422040592879,0.0066067595875822
1690840288308044800,11.806044921875,0.17232815899550913,-0.004884484105929732,-0.0009241747733671218
1690840288318115600,11.816115478515625,0.17143500954806803,-0.009606398061290383,-0.00027530524346511807
1690840288328155600,11.82615576171875,0.18236206175386904,-0.007301737848110497,-0.0037084717296529558
1690840288338197200,11.836197265625,0.18176584942638874,-0.014579766027070581,-0.003896993738808669
1690840288348238300,11.84623828125,0.17982172962129114,-0.010655139929242432,-0.003907396401814185
1690840288358278100,11.856278076171876,0.19388649533092975,-0.004082556605897843,-0.013007584806904195
1690840288368318200,11.866318115234375,0.19343758251965046,0.0017807824695482849,-0.0143967832761351
1690840288378358000,11.87635791015625,0.18086393215060234,-0.011139416314847767,0.001760598198045045
1690840288388399000,11.886399169921875,0.1780196486353874,-0.006024959377944469,0.0038045707815792407
1690840288398439200,11.896439208984376,0.18101181618869303,-0.007506685835681855,0.006787609746935777
1690840288408479200,11.906479248046875,0.17278583963513372,-0.0030733795633539557,0.009419387589208782
1690840288418520300,11.916520263671876,0.18101415427625178,0.003905227277614176,0.0075463922249851744
1690840288428560100,11.92656005859375,0.17248013468682766,0.0009142653007060289,0.006301493030693382
1690840288438600000,11.936599853515625,0.16783903088271618,-0.0002358545824885368,0.010100930979428812
1690840288448640000,11.946639892578125,0.17801204985082147,-0.002863024748302996,-0.004325621813884936
1690840288458711000,11.9567109375,0.181754158988595,-0.0003002250555902719,-0.00860024865947198
1690840288468751000,11.966751220703125,0.18010814534723757,-0.0014739450100809334,-0.012446183497901074
1690840288478792200,11.976792236328125,0.17606559195816515,-0.010056552981585264,-0.0065461063083726906
1690840288488832300,11.986832275390626,0.17637071238458155,-0.0052194151487201445,-0.010601181252300739
1690840288498872000,11.9968720703125,0.17607728239595888,0.004421213975735009,-0.004305213780095801
1690840288508913200,12.0069130859375,0.18176234229505062,-0.0026146760104224084,-0.0030014285719953473
1690840288518953000,12.016952880859375,0.1729272939324379,-0.008293342701345682,-0.00014614873873069882
1690840288528993000,12.026992919921875,0.18983809672296045,-0.0052610258007422086,-0.0037511098615592344
1690840288539033000,12.037033203125,0.17771745081841944,-0.0027536826223134993,0.004227029410772957
1690840288549074200,12.04707421875,0.17622165930271147,-0.001399162740819156,0.0058382548665395
1690840288559114200,12.0571142578125,0.18026070556044577,-0.004880538583174348,-0.002518613491114229
1690840288569154000,12.067154052734375,0.1842991672962904,-0.003463036468066275,-0.005356768659641966
1690840288579195100,12.077195068359375,0.17637188142836094,-0.006821041659079491,-0.006382344281137921
1690840288589235000,12.08723486328125,0.17786591937839985,-0.0076146762548014515,-0.010667606685170904
1690840288599306000,12.097305908203126,0.18894085562229154,-0.009347454864159227,-0.010726679928647353
1690840288609346000,12.107345947265625,0.18445581916272638,0.0022157032880932093,-0.010106040979386307
1690840288619386000,12.11738623046875,0.17128829455375671,0.0020068463103845714,-0.00333510837261565
1690840288629426200,12.12742626953125,0.18385551518201826,-0.002231668042205274,0.002152004101849161
1690840288639467300,12.13746728515625,0.17352935147881507,0.002071143718250096,0.0009415505998535081
1690840288649507000,12.147507080078125,0.17232932803928852,-0.001007752270437777,-0.00005686758665833622
1690840288659547100,12.157547119140625,0.17068506796360014,-0.0023272739037871358,-0.005301604406302795
1690840288669588000,12.167587890625,0.1750268965601921,-0.006635492491722106,-0.00832016677618958
1690840288679628000,12.1776279296875,0.18071487906873226,-0.00896956146247685,-0.007592642519506625
1690840288689668000,12.187668212890625,0.180864516672492,-0.0027110125243663785,-0.0048020528197521345
1690840288699708200,12.197708251953125,0.17667583281099794,-0.007335932378657162,-0.004552535038092173
