time,seconds_elapsed,z,y,x
1690840276536422100,0.034422119140625,-0.9770050048828125,0.04644775390625,0.002899169921875
1690840276546429200,0.04442919921875,-0.9777069091796875,0.04443359375,0.0040283203125
1690840276556438300,0.054438232421875,-0.9783172607421875,0.039886474609375,0.0049591064453125
1690840276566479000,0.06447900390625,-0.9775238037109375,0.0361785888671875,0.0066070556640625
1690840276576519200,0.074519287109375,-0.979278564453125,0.032073974609375,0.007415771484375
1690840276586559200,0.084559326171875,-0.9816741943359375,0.0280914306640625,0.00537109375
1690840276596600300,0.094600341796875,-0.9803314208984375,0.02374267578125,0.005645751953125
1690840276606670000,0.104670166015625,-0.978302001953125,0.0206298828125,0.0057220458984375
1690840276616711200,0.114711181640625,-0.9795989990234375,0.017852783203125,0.0041351318359375
1690840276626751200,0.124751220703125,-0.9780120849609375,0.0169525146484375,0.003997802734375
1690840276636791300,0.134791259765625,-0.9787445068359375,0.0178985595703125,0.0040283203125
1690840276646831400,0.144831298828125,-0.9787139892578125,0.018798828125,0.004058837890625
1690840276656872200,0.1548720703125,-0.977386474609375,0.02099609375,0.00445556640625
1690840276666912300,0.164912353515625,-0.97625732421875,0.02392578125,0.00555419921875
1690840276676952300,0.174952392578125,-0.976776123046875,0.0267486572265625,0.005889892578125
1690840276686993400,0.184993408203125,-0.9756317138671875,0.030548095703125,0.0059661865234375
1690840276697033200,0.195033203125,-0.973846435546875,0.032745361328125,0.0057373046875
1690840276707073300,0.2050732421875,-0.973114013671875,0.037109375,0.005767822265625
1690840276717113300,0.21511328125,-0.9719085693359375,0.0391082763671875,0.006439208984375
1690840276727154200,0.225154296875,-0.9704132080078125,0.0407257080078125,0.0047607421875
1690840276737194200,0.2351943359375,-0.970672607421875,0.04345703125,0.0037078857421875
1690840276747265300,0.245265380859375,-0.9723052978515625,0.0429229736328125,0.0039520263671875
1690840276757305000,0.25530517578125,-0.9713592529296875,0.04248046875,0.004791259765625
1690840276767345200,0.26534521484375,-0.971954345703125,0.0428619384765625,0.0048065185546875
1690840276777386200,0.27538623046875,-0.972320556640625,0.0410919189453125,0.0048828125
1690840276787426300,0.28542626953125,-0.97271728515625,0.0387420654296875,0.006011962890625
1690840276797466400,0.29546630859375,-0.9746551513671875,0.0364990234375,0.0067291259765625
1690840276807507200,0.305507080078125,-0.975006103515625,0.0349273681640625,0.00579833984375
1690840276817547300,0.31554736328125,-0.9756927490234375,0.0323638916015625,0.0050506591796875
1690840276827587300,0.32558740234375,-0.976776123046875,0.0307464599609375,0.005218505859375
1690840276837627100,0.335627197265625,-0.9771575927734375,0.0279693603515625,0.004425048828125
1690840276847668200,0.345668212890625,-0.9781646728515625,0.026824951171875,0.0042724609375
1690840276857708300,0.355708251953125,-0.978607177734375,0.0249786376953125,0.0057830810546875
1690840276867748400,0.365748291015625,-0.9792938232421875,0.024658203125,0.0058441162109375
1690840276877788400,0.375788330078125,-0.97930908203125,0.02386474609375,0.0052032470703125
1690840276887859500,0.385859375,-0.9784088134765625,0.02435302734375,0.0048065185546875
1690840276897900300,0.395900390625,-0.9791107177734375,0.0261993408203125,0.005096435546875
1690840276907940000,0.405940185546875,-0.9769439697265625,0.027099609375,0.0054473876953125
1690840276917980200,0.415980224609375,-0.9768829345703125,0.0283203125,0.0052490234375
1690840276928020200,0.426020263671875,-0.9764251708984375,0.03094482421875,0.004638671875
1690840276938061300,0.436061279296875,-0.975677490234375,0.0326690673828125,0.00537109375
1690840276948101400,0.446101318359375,-0.97509765625,0.0343170166015625,0.005340576171875
1690840276958141400,0.456141357421875,-0.9744415283203125,0.03619384765625,0.0052032470703125
1690840276968182300,0.466182373046875,-0.975189208984375,0.0369873046875,0.005096435546875
1690840276978222300,0.476222412109375,-0.9741973876953125,0.0378265380859375,0.005523681640625
1690840276988262100,0.48626220703125,-0.9742584228515625,0.03851318359375,0.005645751953125
1690840276998302200,0.49630224609375,-0.9736480712890625,0.038421630859375,0.00482177734375
1690840277008343300,0.50634326171875,-0.9741973876953125,0.0373382568359375,0.0045013427734375
1690840277018383400,0.51638330078125,-0.97467041015625,0.03717041015625,0.0045318603515625
1690840277028454400,0.526454345703125,-0.9756927490234375,0.0360107421875,0.005462646484375
1690840277038494500,0.536494384765625,-0.97650146484375,0.03485107421875,0.0048370361328125
1690840277048534300,0.5465341796875,-0.9764404296875,0.0334320068359375,0.0052032470703125
1690840277058575000,0.5565751953125,-0.9763641357421875,0.032012939453125,0.0053253173828125
1690840277068615200,0.566615234375,-0.978057861328125,0.0313568115234375,0.0048675537109375
1690840277078655200,0.5766552734375,-0.97894287109375,0.0291595458984375,0.00537109375
1690840277088695300,0.5866953125,-0.9787139892578125,0.028656005859375,0.005401611328125
1690840277098736400,0.596736328125,-0.9783935546875,0.027984619140625,0.0058441162109375
1690840277108776400,0.6067763671875,-0.97784423828125,0.0275115966796875,0.0052337646484375
1690840277118816300,0.616816162109375,-0.9791717529296875,0.0280303955078125,0.0054931640625
1690840277128857300,0.626857421875,-0.978759765625,0.027130126953125,0.0047149658203125
1690840277138897200,0.636897216796875,-0.977996826171875,0.0293121337890625,0.005401611328125
1690840277148937200,0.646937255859375,-0.977081298828125,0.029327392578125,0.004913330078125
1690840277158977300,0.656977294921875,-0.977508544921875,0.0299224853515625,0.0045623779296875
1690840277169048300,0.66704833984375,-0.97711181640625,0.031768798828125,0.0046234130859375
1690840277179089400,0.67708935546875,-0.9768524169921875,0.03369140625,0.0050506591796875
1690840277189129500,0.68712939453125,-0.9766693115234375,0.0342254638671875,0.00567626953125
1690840277199169300,0.697169189453125,-0.977264404296875,0.0342864990234375,0.00537109375
1690840277209209000,0.707208984375,-0.9765777587890625,0.03521728515625,0.0053253173828125
1690840277219250200,0.717250244140625,-0.9751129150390625,0.0366058349609375,0.0053863525390625
1690840277229290200,0.727290283203125,-0.9769134521484375,0.035247802734375,0.005279541015625
1690840277239330300,0.737330322265625,-0.97674560546875,0.0357513427734375,0.005218505859375
1690840277249371400,0.747371337890625,-0.9752960205078125,0.0346221923828125,0.005279541015625
1690840277259411500,0.757411376953125,-0.97735595703125,0.0340576171875,0.0045318603515625
1690840277269451300,0.767451171875,-0.97784423828125,0.0339813232421875,0.005401611328125
1690840277279491000,0.777490966796875,-0.97772216796875,0.03302001953125,0.0054168701171875
1690840277289532200,0.7875322265625,-0.9779205322265625,0.0324859619140625,0.0048828125
1690840277299572200,0.797572265625,-0.9780426025390625,0.031158447265625,0.0061492919921875
1690840277309612300,0.8076123046875,-0.9780120849609375,0.030548095703125,0.004852294921875
1690840277319683300,0.817683349609375,-0.9784088134765625,0.0301361083984375,0.0050048828125
1690840277329726000,0.827725830078125,-0.9790802001953125,0.0298614501953125,0.004669189453125
1690840277339767000,0.83776708984375,-0.9791107177734375,0.0298919677734375,0.0047760009765625
1690840277349807000,0.84780712890625,-0.9778289794921875,0.0302581787109375,0.005889892578125
1690840277359847200,0.85784716796875,-0.977691650390625,0.0294342041015625,0.006561279296875
1690840277369887200,0.86788720703125,-0.9807586669921875,0.0312042236328125,0.0054779052734375
1690840277379928000,0.877927978515625,-0.97760009765625,0.0311737060546875,0.003753662109375
1690840277389968000,0.8879677734375,-0.97991943359375,0.031402587890625,0.002532958984375
1690840277400008000,0.898008056640625,-0.977935791015625,0.0327911376953125,0.002838134765625
1690840277410049000,0.908049072265625,-0.977996826171875,0.0330657958984375,0.0041351318359375
1690840277420089000,0.918089111328125,-0.9763336181640625,0.033355712890625,0.0050506591796875
1690840277430129200,0.928129150390625,-0.978302001953125,0.0350341796875,0.0058135986328125
1690840277440169200,0.938169189453125,-0.9776458740234375,0.036285400390625,0.00738525390625
1690840277450210000,0.9482099609375,-0.9787750244140625,0.035919189453125,0.0087890625
1690840277460280800,0.95828076171875,-0.9776763916015625,0.034423828125,0.009429931640625
1690840277470321000,0.96832080078125,-0.978424072265625,0.0336151123046875,0.00830078125
1690840277480361000,0.97836083984375,-0.97845458984375,0.032562255859375,0.0064849853515625
1690840277490401000,0.988401123046875,-0.9787750244140625,0.032257080078125,0.002960205078125
1690840277500442000,0.998442138671875,-0.9774627685546875,0.0321807861328125,0.0005950927734375
1690840277510482200,1.008482177734375,-0.97747802734375,0.0328521728515625,-0.0004119873046875
1690840277520522200,1.018522216796875,-0.977874755859375,0.032379150390625,-0.0003509521484375
1690840277530562000,1.02856201171875,-0.9788665771484375,0.0313720703125,0.0034637451171875
1690840277540603000,1.038602783203125,-0.97900390625,0.0322723388671875,0.0072479248046875
1690840277550643000,1.048642822265625,-0.980133056640625,0.030853271484375,0.0106048583984375
1690840277560683000,1.05868310546875,-0.9803009033203125,0.030731201171875,0.012176513671875
1690840277570724000,1.06872412109375,-0.981414794921875,0.0298004150390625,0.0107269287109375
1690840277580764200,1.07876416015625,-0.981689453125,0.0308685302734375,0.006744384765625
1690840277590804200,1.08880419921875,-0.9797515869140625,0.0313873291015625,0.0016021728515625
1690840277600875000,1.098875,-0.97882080078125,0.0310211181640625,-0.0011749267578125
1690840277610915000,1.1089150390625,-0.9781646728515625,0.0319976806640625,-0.0019683837890625
1690840277620956000,1.118955810546875,-0.9754486083984375,0.0321044921875,-0.0011444091796875
1690840277630996000,1.128995849609375,-0.9774169921875,0.0333709716796875,0.002593994140625
1690840277641036000,1.1390361328125,-0.978363037109375,0.03363037109375,0.0081787109375
1690840277651076000,1.149076171875,-0.9809417724609375,0.034149169921875,0.012298583984375
1690840277661117200,1.1591171875,-0.9813995361328125,0.03509521484375,0.0140533447265625
1690840277671157200,1.1691572265625,-0.981170654296875,0.033416748046875,0.01361083984375
1690840277681197000,1.179197021484375,-0.980865478515625,0.0331573486328125,0.0091400146484375
1690840277691238000,1.18923779296875,-0.9798431396484375,0.0328521728515625,0.0027923583984375
1690840277701278000,1.19927783203125,-0.9756622314453125,0.033172607421875,-0.0020751953125
1690840277711318000,1.209318115234375,-0.9764251708984375,0.0328521728515625,-0.004974365234375
1690840277721358000,1.219358154296875,-0.97674560546875,0.0329742431640625,-0.005126953125
1690840277731399200,1.229399169921875,-0.976898193359375,0.0335235595703125,-0.00238037109375
1690840277741469000,1.239468994140625,-0.9790191650390625,0.033447265625,0.0032501220703125
1690840277751510000,1.249510009765625,-0.979827880859375,0.03228759765625,0.010009765625
1690840277761549800,1.2595498046875,-0.9826812744140625,0.0321502685546875,0.01495361328125
1690840277771590000,1.26958984375,-0.9820404052734375,0.030792236328125,0.016510009765625
1690840277781631000,1.279630859375,-0.981475830078125,0.031097412109375,0.0142364501953125
1690840277791671000,1.289671142578125,-0.981689453125,0.0312347412109375,0.008697509765625
1690840277801711000,1.299711181640625,-0.9801177978515625,0.0313568115234375,0.00115966796875
1690840277811751000,1.3097509765625,-0.9764251708984375,0.031982421875,-0.0046234130859375
1690840277821792000,1.3197919921875,-0.976715087890625,0.03167724609375,-0.006072998046875
1690840277831831800,1.329831787109375,-0.976593017578125,0.031585693359375,-0.0051422119140625
1690840277841872000,1.339871826171875,-0.9776153564453125,0.0312652587890625,-0.00103759765625
1690840277851913000,1.349912841796875,-0.9790496826171875,0.0321197509765625,0.0053558349609375
1690840277861953000,1.359953125,-0.98077392578125,0.0331878662109375,0.0123138427734375
1690840277871993000,1.3699931640625,-0.9819183349609375,0.0323638916015625,0.015533447265625
1690840277882064100,1.380064208984375,-0.9813385009765625,0.0343017578125,0.0152587890625
1690840277892104000,1.39010400390625,-0.9817047119140625,0.0341033935546875,0.01202392578125
1690840277902145000,1.40014501953125,-0.980010986328125,0.0323944091796875,0.00531005859375
1690840277912184800,1.410184814453125,-0.9778594970703125,0.0321807861328125,-0.0003204345703125
1690840277922225000,1.420224853515625,-0.97711181640625,0.03253173828125,-0.0039825439453125
1690840277932265000,1.430264892578125,-0.976287841796875,0.0322113037109375,-0.004486083984375
1690840277942306000,1.44030615234375,-0.977386474609375,0.0325164794921875,-0.0019073486328125
1690840277952346000,1.45034619140625,-0.979766845703125,0.0338134765625,0.00274658203125
1690840277962386000,1.460385986328125,-0.980438232421875,0.032867431640625,0.0081329345703125
1690840277972427000,1.470427001953125,-0.9814453125,0.03253173828125,0.0121612548828125
1690840277982466800,1.480466796875,-0.981475830078125,0.031768798828125,0.0139007568359375
1690840277992507000,1.4905068359375,-0.980499267578125,0.0319061279296875,0.0123443603515625
1690840278002547000,1.500546875,-0.9802398681640625,0.031219482421875,0.00830078125
1690840278012588000,1.510588134765625,-0.9795379638671875,0.0312042236328125,0.0036468505859375
1690840278022658000,1.520657958984375,-0.9792938232421875,0.03155517578125,-0.000244140625
1690840278032699100,1.53069921875,-0.9793243408203125,0.0317840576171875,-0.0020294189453125
1690840278042739000,1.540739013671875,-0.9769744873046875,0.0324554443359375,-0.001220703125
1690840278052779000,1.550779052734375,-0.9787750244140625,0.03289794921875,0.0003662109375
1690840278062819800,1.56081982421875,-0.9802093505859375,0.031707763671875,0.0053253173828125
1690840278072860000,1.57085986328125,-0.980316162109375,0.032623291015625,0.008880615234375
1690840278082900000,1.58089990234375,-0.981109619140625,0.0323333740234375,0.01123046875
1690840278092940000,1.59093994140625,-0.982208251953125,0.0325164794921875,0.0107879638671875
1690840278102981000,1.600981201171875,-0.9810333251953125,0.0326385498046875,0.0093231201171875
1690840278113021000,1.61102099609375,-0.9793701171875,0.032623291015625,0.00604248046875
1690840278123061000,1.62106103515625,-0.9776458740234375,0.032257080078125,0.0036163330078125
1690840278133101800,1.631101806640625,-0.9786834716796875,0.033203125,0.00140380859375
1690840278143142000,1.641141845703125,-0.979156494140625,0.033172607421875,0.0001220703125
1690840278153182000,1.651181884765625,-0.97882080078125,0.03289794921875,0.000518798828125
1690840278163253000,1.6612529296875,-0.9798431396484375,0.0326995849609375,0.0030059814453125
1690840278173293000,1.67129296875,-0.979766845703125,0.0324859619140625,0.0056915283203125
1690840278183332900,1.681332763671875,-0.9808502197265625,0.0318603515625,0.0082244873046875
1690840278193374000,1.6913740234375,-0.9819488525390625,0.032257080078125,0.0098724365234375
1690840278203414000,1.7014140625,-0.980804443359375,0.0324249267578125,0.009796142578125
1690840278213454000,1.7114541015625,-0.9799041748046875,0.032012939453125,0.0078125
1690840278223495000,1.721494873046875,-0.9801177978515625,0.0316009521484375,0.0048675537109375
1690840278233535000,1.731534912109375,-0.980621337890625,0.032318115234375,0.0020751953125
1690840278243575000,1.741574951171875,-0.9791259765625,0.0331573486328125,0.0004730224609375
1690840278253614800,1.75161474609375,-0.9776611328125,0.0323486328125,0.000213623046875
1690840278263656000,1.761656005859375,-0.9799346923828125,0.0325927734375,0.0020294189453125
1690840278273696000,1.771696044921875,-0.9807281494140625,0.033203125,0.00506591796875
1690840278283736000,1.781736083984375,-0.980712890625,0.032501220703125,0.007781982421875
1690840278293777000,1.79177685546875,-0.9807891845703125,0.03125,0.0104522705078125
1690840278303847200,1.80184716796875,-0.981536865234375,0.032073974609375,0.010894775390625
1690840278313888000,1.811887939453125,-0.980865478515625,0.0322418212890625,0.009796142578125
1690840278323928000,1.821927978515625,-0.9810028076171875,0.0322723388671875,0.0078887939453125
1690840278333963000,1.831962890625,-0.97979736328125,0.032135009765625,0.005126953125
1690840278344003800,1.84200390625,-0.9804840087890625,0.0325775146484375,0.00262451171875
1690840278354044000,1.8520439453125,-0.9797515869140625,0.0332183837890625,0.00115966796875
1690840278364083700,1.862083740234375,-0.978973388671875,0.032958984375,0.000579833984375
1690840278374123800,1.872123779296875,-0.97998046875,0.033294677734375,0.001678466796875
1690840278384164900,1.882164794921875,-0.98028564453125,0.032989501953125,0.004638671875
1690840278394205000,1.892204833984375,-0.9805755615234375,0.0326385498046875,0.00732421875
1690840278404245000,1.902244873046875,-0.980987548828125,0.0311126708984375,0.010040283203125
1690840278414285800,1.912285888671875,-0.98077392578125,0.0315093994140625,0.01031494140625
1690840278424326000,1.922325927734375,-0.98126220703125,0.031463623046875,0.0091094970703125
1690840278434366000,1.932365966796875,-0.982025146484375,0.032012939453125,0.006500244140625
1690840278444436700,1.942436767578125,-0.980804443359375,0.0322723388671875,0.003082275390625
1690840278454476800,1.952476806640625,-0.9803314208984375,0.0323333740234375,0.000885009765625
1690840278464516900,1.962516845703125,-0.98016357421875,0.032684326171875,0.00067138671875
1690840278474558000,1.972557861328125,-0.979461669921875,0.0322113037109375,0.000244140625
1690840278484598000,1.982597900390625,-0.9809722900390625,0.0326385498046875,0.002410888671875
1690840278494638000,1.99263818359375,-0.979827880859375,0.03289794921875,0.0059356689453125
1690840278504679000,2.002678955078125,-0.981964111328125,0.0331573486328125,0.0078277587890625
1690840278514718700,2.01271875,-0.9816131591796875,0.0316009521484375,0.0108642578125
1690840278524758800,2.0227587890625,-0.9805755615234375,0.0309600830078125,0.011199951171875
1690840278534798800,2.032798828125,-0.9798126220703125,0.03131103515625,0.009674072265625
1690840278544840000,2.04283984375,-0.9806671142578125,0.032684326171875,0.00714111328125
1690840278554880000,2.0528798828125,-0.9798736572265625,0.0330352783203125,0.0038909912109375
1690840278564920000,2.062920166015625,-0.9805755615234375,0.034149169921875,0.00048828125
1690840278574961000,2.0729609375,-0.9796295166015625,0.034423828125,-0.0007781982421875
1690840278585031000,2.083031005859375,-0.979644775390625,0.0331573486328125,-0.0012054443359375
1690840278595071700,2.09307177734375,-0.9780120849609375,0.03277587890625,0.0006256103515625
1690840278605111800,2.10311181640625,-0.9795379638671875,0.0317535400390625,0.0046234130859375
1690840278615151900,2.11315185546875,-0.9799346923828125,0.0320587158203125,0.008544921875
1690840278625193000,2.12319287109375,-0.98248291015625,0.0322418212890625,0.0121307373046875
1690840278635233000,2.13323291015625,-0.9830169677734375,0.03143310546875,0.0122528076171875
1690840278645273000,2.143273193359375,-0.9835662841796875,0.0322418212890625,0.01104736328125
1690840278655313000,2.15331298828125,-0.98162841796875,0.0318450927734375,0.0078125
1690840278665353700,2.163353759765625,-0.981658935546875,0.03173828125,0.0039825439453125
1690840278675393800,2.173393798828125,-0.9796142578125,0.032745361328125,0.00006103515625
1690840278685433900,2.183433837890625,-0.9789276123046875,0.032806396484375,-0.002349853515625
1690840278695474000,2.193473876953125,-0.9788055419921875,0.03277587890625,-0.001495361328125
1690840278705515000,2.203514892578125,-0.9799041748046875,0.0321807861328125,0.00152587890625
1690840278715555000,2.21355517578125,-0.9798736572265625,0.0321197509765625,0.0051116943359375
1690840278725626000,2.223626220703125,-0.980499267578125,0.0323638916015625,0.008880615234375
1690840278735666000,2.233666015625,-0.9824981689453125,0.031829833984375,0.010955810546875
1690840278745705700,2.243705810546875,-0.980377197265625,0.031707763671875,0.011199951171875
1690840278755746800,2.253746826171875,-0.98223876953125,0.031585693359375,0.0097503662109375
1690840278765787000,2.263786865234375,-0.98065185546875,0.0328369140625,0.007293701171875
1690840278775827000,2.273826904296875,-0.98040771484375,0.03350830078125,0.00372314453125
1690840278785868000,2.283867919921875,-0.9786834716796875,0.032989501953125,0.0009307861328125
1690840278795908000,2.293908203125,-0.979736328125,0.032958984375,-0.0001678466796875
1690840278805948000,2.303947998046875,-0.979766845703125,0.032745361328125,0.0012054443359375
1690840278815987700,2.31398779296875,-0.980316162109375,0.0322418212890625,0.0025787353515625
1690840278826028800,2.32402880859375,-0.9801788330078125,0.0323944091796875,0.00469970703125
1690840278836068900,2.33406884765625,-0.9817962646484375,0.0318756103515625,0.00689697265625
1690840278846109000,2.34410888671875,-0.982025146484375,0.031585693359375,0.00830078125
1690840278856150000,2.35414990234375,-0.981719970703125,0.032135009765625,0.0084991455078125
1690840278866220000,2.364219970703125,-0.9817352294921875,0.0318145751953125,0.0075836181640625
1690840278876261000,2.37426123046875,-0.982208251953125,0.0326385498046875,0.0062408447265625
1690840278886301000,2.384301025390625,-0.980804443359375,0.0330963134765625,0.0048065185546875
1690840278896340700,2.3943408203125,-0.981292724609375,0.03240966796875,0.00262451171875
1690840278906380800,2.404380859375,-0.98040771484375,0.0320281982421875,0.00189208984375
1690840278916422000,2.414421875,-0.9801177978515625,0.0325775146484375,0.0023040771484375
1690840278926462000,2.4244619140625,-0.9801025390625,0.0323028564453125,0.0035400390625
1690840278936502000,2.434501953125,-0.98101806640625,0.031219482421875,0.0059814453125
1690840278946543000,2.444543212890625,-0.9813385009765625,0.0315399169921875,0.0057373046875
1690840278956583000,2.4545830078125,-0.9812774658203125,0.031768798828125,0.0066070556640625
1690840278966622700,2.464622802734375,-0.9815521240234375,0.03179931640625,0.0068817138671875
1690840278976662800,2.474662841796875,-0.9813995361328125,0.0320892333984375,0.006561279296875
1690840278986704000,2.484703857421875,-0.981109619140625,0.0325164794921875,0.00531005859375
1690840278996744000,2.494743896484375,-0.980316162109375,0.0327606201171875,0.0050506591796875
1690840279006815000,2.50481494140625,-0.980926513671875,0.032745361328125,0.0042266845703125
1690840279016854800,2.514854736328125,-0.9807891845703125,0.03265380859375,0.00372314453125
1690840279026894800,2.524894775390625,-0.980865478515625,0.03204345703125,0.0040740966796875
1690840279036935700,2.534935791015625,-0.981658935546875,0.032012939453125,0.0048675537109375
1690840279046975700,2.544975830078125,-0.980224609375,0.0321502685546875,0.004180908203125
1690840279057015800,2.555015869140625,-0.9799041748046875,0.031982421875,0.0050506591796875
1690840279067057000,2.565056884765625,-0.9798583984375,0.03216552734375,0.0061798095703125
1690840279077097000,2.575096923828125,-0.9806365966796875,0.0330352783203125,0.005828857421875
1690840279087137000,2.585136962890625,-0.9809722900390625,0.0326690673828125,0.0058441162109375
1690840279097176800,2.5951767578125,-0.981414794921875,0.0326690673828125,0.0059967041015625
1690840279107217700,2.6052177734375,-0.9824981689453125,0.0329437255859375,0.0058441162109375
1690840279117257700,2.6152578125,-0.981658935546875,0.0325927734375,0.005889892578125
1690840279127297800,2.6252978515625,-0.98095703125,0.03253173828125,0.0048828125
1690840279137339000,2.6353388671875,-0.9808197021484375,0.0324554443359375,0.0039825439453125
1690840279147409000,2.645408935546875,-0.9803314208984375,0.0318603515625,0.003448486328125
1690840279157450000,2.655449951171875,-0.979644775390625,0.0316009521484375,0.0037994384765625
1690840279167489800,2.66548974609375,-0.9817047119140625,0.03240966796875,0.0045318603515625
1690840279177529900,2.67552978515625,-0.9816741943359375,0.031646728515625,0.0047149658203125
1690840279187570000,2.68556982421875,-0.9808502197265625,0.03204345703125,0.0052642822265625
1690840279197610800,2.69561083984375,-0.98077392578125,0.0332794189453125,0.0064697265625
1690840279207650800,2.70565087890625,-0.9813079833984375,0.032989501953125,0.0048980712890625
1690840279217691000,2.71569091796875,-0.9812164306640625,0.0316925048828125,0.00579833984375
1690840279227732000,2.72573193359375,-0.9814910888671875,0.0321044921875,0.0050811767578125
1690840279237772000,2.73577197265625,-0.9803619384765625,0.032440185546875,0.0045623779296875
1690840279247811800,2.745811767578125,-0.9808349609375,0.031768798828125,0.004302978515625
1690840279257852000,2.755851806640625,-0.9806365966796875,0.03204345703125,0.0044708251953125
1690840279267892700,2.765892822265625,-0.9809722900390625,0.0318145751953125,0.004425048828125
1690840279277932800,2.775932861328125,-0.980804443359375,0.03277587890625,0.00457763671875
1690840279288003800,2.78600390625,-0.980743408203125,0.0327301025390625,0.0059814453125
1690840279298044000,2.7960439453125,-0.980682373046875,0.033111572265625,0.0062408447265625
1690840279308083700,2.806083740234375,-0.9807891845703125,0.032684326171875,0.0058746337890625
1690840279318124800,2.816124755859375,-0.981414794921875,0.0326080322265625,0.00579833984375
1690840279328164900,2.826164794921875,-0.9809112548828125,0.0321807861328125,0.00616455078125
1690840279338202600,2.83620263671875,-0.9806976318359375,0.0321197509765625,0.00579833984375
1690840279348242400,2.846242431640625,-0.9806060791015625,0.031982421875,0.0045928955078125
1690840279358283500,2.856283447265625,-0.9813995361328125,0.0319061279296875,0.0041046142578125
1690840279368323600,2.866323486328125,-0.9814605712890625,0.032257080078125,0.0047149658203125
1690840279378363600,2.87636376953125,-0.98089599609375,0.0329437255859375,0.004608154296875
1690840279388404500,2.886404541015625,-0.9806060791015625,0.0329132080078125,0.005096435546875
1690840279398444500,2.896444580078125,-0.980560302734375,0.032958984375,0.00616455078125
1690840279408484600,2.906484619140625,-0.9816131591796875,0.03289794921875,0.0054931640625
1690840279418524700,2.916524658203125,-0.98260498046875,0.0330963134765625,0.0065460205078125
1690840279428595500,2.926595458984375,-0.981597900390625,0.0325775146484375,0.006103515625
1690840279438636500,2.936636474609375,-0.980987548828125,0.0330810546875,0.0057220458984375
1690840279448676600,2.946676513671875,-0.980438232421875,0.0325164794921875,0.00531005859375
1690840279458716700,2.956716552734375,-0.9805450439453125,0.032470703125,0.0041351318359375
1690840279468756700,2.9667568359375,-0.981475830078125,0.0324554443359375,0.004547119140625
1690840279478797600,2.976797607421875,-0.98095703125,0.0319366455078125,0.0052642822265625
1690840279488837600,2.986837646484375,-0.9805755615234375,0.03216552734375,0.0052947998046875
1690840279498877400,2.99687744140625,-0.9821929931640625,0.032745361328125,0.005706787109375
1690840279508918500,3.00691845703125,-0.9810943603515625,0.0319671630859375,0.0056610107421875
1690840279518958600,3.01695849609375,-0.9814453125,0.0326995849609375,0.0054168701171875
1690840279528998700,3.02699853515625,-0.981201171875,0.0315093994140625,0.0050811767578125
1690840279539038700,3.037038818359375,-0.9808807373046875,0.032318115234375,0.0048370361328125
1690840279549079600,3.04707958984375,-0.9808197021484375,0.0321044921875,0.0057830810546875
1690840279559119600,3.05711962890625,-0.9809417724609375,0.0315704345703125,0.0050201416015625
1690840279569190700,3.067190673828125,-0.9808807373046875,0.031707763671875,0.00482177734375
1690840279579230500,3.07723046875,-0.9807891845703125,0.0322265625,0.0049591064453125
1690840279589270500,3.0872705078125,-0.98101806640625,0.03302001953125,0.0046234130859375
1690840279599311600,3.0973115234375,-0.9809112548828125,0.0320892333984375,0.0048828125
1690840279609351700,3.1073515625,-0.982025146484375,0.0325469970703125,0.00579833984375
1690840279619391700,3.117391845703125,-0.9810943603515625,0.0333709716796875,0.006744384765625
1690840279629431800,3.127431884765625,-0.9809417724609375,0.033294677734375,0.00604248046875
1690840279639472600,3.13747265625,-0.981903076171875,0.0325469970703125,0.0050506591796875
1690840279649512400,3.147512451171875,-0.9815673828125,0.0323944091796875,0.00604248046875
1690840279659552500,3.157552490234375,-0.9808197021484375,0.0324554443359375,0.005706787109375
1690840279669593600,3.167593505859375,-0.9810028076171875,0.03204345703125,0.0048370361328125
1690840279679633700,3.177633544921875,-0.98016357421875,0.031494140625,0.0049896240234375
1690840279689673700,3.187673828125,-0.9802093505859375,0.0316162109375,0.00494384765625
1690840279699713800,3.1977138671875,-0.98065185546875,0.0321807861328125,0.0058135986328125
1690840279709784800,3.207784912109375,-0.9803466796875,0.033538818359375,0.005340576171875
1690840279719825700,3.21782568359375,-0.9817047119140625,0.0335845947265625,0.006866455078125
1690840279729865500,3.227865478515625,-0.981842041015625,0.0330657958984375,0.0066986083984375
1690840279739905500,3.237905517578125,-0.981201171875,0.0323333740234375,0.0058746337890625
1690840279749945600,3.247945556640625,-0.980865478515625,0.0322723388671875,0.004974365234375
1690840279759986700,3.257986572265625,-0.9814605712890625,0.032379150390625,0.0047607421875
1690840279770026800,3.26802685546875,-0.980682373046875,0.032623291015625,0.004150390625
1690840279780066800,3.27806689453125,-0.98028564453125,0.0315704345703125,0.0043182373046875
1690840279790106600,3.288106689453125,-0.9810638427734375,0.0314178466796875,0.00469970703125
1690840279800147500,3.2981474609375,-0.98089599609375,0.0323944091796875,0.0054473876953125
1690840279810187500,3.3081875,-0.9809722900390625,0.0323486328125,0.005218505859375
1690840279820227600,3.3182275390625,-0.980987548828125,0.03271484375,0.00592041015625
1690840279830268700,3.3282685546875,-0.981719970703125,0.0323333740234375,0.0050811767578125
1690840279840308700,3.338308837890625,-0.9816741943359375,0.0321807861328125,0.00531005859375
1690840279850379800,3.3483798828125,-0.9812469482421875,0.032684326171875,0.00531005859375
1690840279860419600,3.358419677734375,-0.9815826416015625,0.032745361328125,0.0054168701171875
1690840279870459600,3.368459716796875,-0.9812164306640625,0.032318115234375,0.00421142578125
1690840279880500500,3.37850048828125,-0.981353759765625,0.0319976806640625,0.0047760009765625
1690840279890540500,3.38854052734375,-0.9807891845703125,0.0325164794921875,0.0039520263671875
1690840279900580600,3.39858056640625,-0.9806060791015625,0.03173828125,0.004241943359375
1690840279910620700,3.40862060546875,-0.9806671142578125,0.0321502685546875,0.0048675537109375
1690840279920661800,3.418661865234375,-0.9813690185546875,0.03228759765625,0.00469970703125
1690840279930701800,3.428701904296875,-0.981231689453125,0.0330352783203125,0.0055084228515625
1690840279940741600,3.43874169921875,-0.9815216064453125,0.03277587890625,0.0057525634765625
1690840279950782500,3.448782470703125,-0.981689453125,0.0321502685546875,0.00543212890625
1690840279960822500,3.458822509765625,-0.981170654296875,0.0328826904296875,0.0050048828125
1690840279970862600,3.468862548828125,-0.9810791015625,0.0333404541015625,0.005401611328125
1690840279980902700,3.478902587890625,-0.9816741943359375,0.0322265625,0.0055694580078125
1690840279990973700,3.4889736328125,-0.982452392578125,0.031280517578125,0.0052490234375
1690840280001013500,3.499013427734375,-0.9818267822265625,0.0322723388671875,0.004730224609375
1690840280011054600,3.5090546875,-0.980712890625,0.0323944091796875,0.0053253173828125
1690840280021094700,3.5190947265625,-0.981781005859375,0.0319671630859375,0.005767822265625
1690840280031134700,3.529134765625,-0.9814453125,0.032257080078125,0.00469970703125
1690840280041175600,3.539175537109375,-0.9816436767578125,0.0327606201171875,0.0049285888671875
1690840280051215600,3.549215576171875,-0.9811859130859375,0.03228759765625,0.005706787109375
1690840280061255700,3.559255615234375,-0.98095703125,0.0323028564453125,0.006378173828125
1690840280071295700,3.569295654296875,-0.980865478515625,0.0322265625,0.005218505859375
1690840280081336800,3.5793369140625,-0.9806976318359375,0.031951904296875,0.00439453125
1690840280091376600,3.589376708984375,-0.9809417724609375,0.0321502685546875,0.0051422119140625
1690840280101416700,3.599416748046875,-0.9813690185546875,0.0322113037109375,0.0048828125
1690840280111457500,3.60945751953125,-0.9804840087890625,0.0323944091796875,0.005096435546875
1690840280121497600,3.61949755859375,-0.9810943603515625,0.0323944091796875,0.0050048828125
1690840280131568600,3.629568603515625,-0.9817657470703125,0.0327911376953125,0.0048675537109375
1690840280141608700,3.639608642578125,-0.982208251953125,0.0325927734375,0.0057220458984375
1690840280151648500,3.6496484375,-0.981903076171875,0.0321807861328125,0.005645751953125
1690840280161689600,3.659689697265625,-0.98248291015625,0.0313720703125,0.004486083984375
1690840280171729700,3.669729736328125,-0.982666015625,0.0326995849609375,0.0050811767578125
1690840280181769700,3.679769775390625,-0.9806976318359375,0.03253173828125,0.005462646484375
1690840280191809500,3.6898095703125,-0.981536865234375,0.031982421875,0.005157470703125
1690840280201850600,3.6998505859375,-0.982757568359375,0.0321044921875,0.00616455078125
1690840280211890700,3.709890625,-0.9823760986328125,0.0327606201171875,0.0052337646484375
1690840280221930800,3.7199306640625,-0.9808807373046875,0.032684326171875,0.00518798828125
1690840280231971800,3.729971923828125,-0.982421875,0.032745361328125,0.004669189453125
1690840280242011600,3.74001171875,-0.9824066162109375,0.0320281982421875,0.00457763671875
1690840280252051700,3.7500517578125,-0.981170654296875,0.0322418212890625,0.0054473876953125
1690840280262091500,3.760091552734375,-0.980682373046875,0.0329742431640625,0.0056304931640625
1690840280272162600,3.77016259765625,-0.9825286865234375,0.0324859619140625,0.0047760009765625
1690840280282202600,3.78020263671875,-0.981109619140625,0.0326690673828125,0.0052337646484375
1690840280292243700,3.79024365234375,-0.980865478515625,0.0331573486328125,0.0052947998046875
1690840280302283500,3.800283447265625,-0.980560302734375,0.032623291015625,0.0047607421875
1690840280312323600,3.810323486328125,-0.98126220703125,0.0325164794921875,0.0047454833984375
1690840280322364700,3.82036474609375,-0.98101806640625,0.0318450927734375,0.0046844482421875
1690840280332389000,3.83038916015625,-0.981597900390625,0.03216552734375,0.0048370361328125
1690840280342429200,3.84042919921875,-0.9820098876953125,0.0321807861328125,0.0042724609375
1690840280352469200,3.85046923828125,-0.981475830078125,0.0324554443359375,0.0049896240234375
1690840280362510000,3.860510009765625,-0.9812774658203125,0.0328826904296875,0.005218505859375
1690840280372550100,3.870550048828125,-0.981048583984375,0.0324554443359375,0.0052337646484375
1690840280382590000,3.88058984375,-0.980743408203125,0.032257080078125,0.0053253173828125
1690840280392631000,3.890631103515625,-0.9805908203125,0.03228759765625,0.004547119140625
1690840280402671000,3.900671142578125,-0.9809112548828125,0.0321197509765625,0.0050048828125
1690840280412742100,3.9107421875,-0.9810028076171875,0.0321044921875,0.00469970703125
1690840280422782200,3.9207822265625,-0.981658935546875,0.032135009765625,0.0047149658203125
1690840280432822300,3.930822265625,-0.982086181640625,0.032501220703125,0.0059661865234375
1690840280442862000,3.940862060546875,-0.981597900390625,0.032135009765625,0.005523681640625
1690840280452903000,3.95090283203125,-0.981964111328125,0.03277587890625,0.0053863525390625
1690840280462943000,3.96094287109375,-0.982269287109375,0.03338623046875,0.0054168701171875
1690840280472983000,3.970983154296875,-0.9818267822265625,0.0323028564453125,0.0057830810546875
1690840280483024100,3.981024169921875,-0.9814605712890625,0.032196044921875,0.0061492919921875
1690840280493064200,3.991064208984375,-0.9813995361328125,0.03216552734375,0.0061798095703125
1690840280503104300,4.001104248046875,-0.981842041015625,0.031646728515625,0.005767822265625
1690840280513144000,4.01114404296875,-0.9810333251953125,0.0321502685546875,0.0054779052734375
1690840280523185000,4.021184814453125,-0.9810943603515625,0.03192138671875,0.00555419921875
1690840280533225000,4.031224853515625,-0.9813690185546875,0.0322723388671875,0.005523681640625
1690840280543265000,4.04126513671875,-0.9810943603515625,0.0322418212890625,0.0047760009765625
1690840280553336000,4.051336181640625,-0.9822235107421875,0.0321807861328125,0.005645751953125
1690840280563376000,4.061376220703125,-0.9822540283203125,0.032257080078125,0.005096435546875
1690840280573417200,4.071417236328125,-0.9821014404296875,0.0324249267578125,0.005157470703125
1690840280583457300,4.081457275390625,-0.981536865234375,0.031890869140625,0.0049591064453125
1690840280593497000,4.0914970703125,-0.9817657470703125,0.03173828125,0.005462646484375
1690840280603538000,4.101537841796875,-0.981048583984375,0.031707763671875,0.005859375
1690840280613578000,4.111577880859375,-0.98101806640625,0.032012939453125,0.00531005859375
1690840280623618000,4.1216181640625,-0.98040771484375,0.0324859619140625,0.004791259765625
1690840280633658000,4.131658203125,-0.981597900390625,0.0331268310546875,0.0042724609375
1690840280643699200,4.14169921875,-0.982147216796875,0.03228759765625,0.0045623779296875
1690840280653739300,4.1517392578125,-0.9820556640625,0.0319366455078125,0.00579833984375
1690840280663779000,4.161779052734375,-0.9814300537109375,0.0321807861328125,0.005523681640625
1690840280673820000,4.17181982421875,-0.9818267822265625,0.0325469970703125,0.0054168701171875
1690840280683860000,4.18185986328125,-0.982177734375,0.032958984375,0.0052947998046875
1690840280693931000,4.191930908203125,-0.9809112548828125,0.0332183837890625,0.0048828125
1690840280703971000,4.20197119140625,-0.9821014404296875,0.0323028564453125,0.0048675537109375
1690840280714011100,4.21201123046875,-0.98187255859375,0.0324249267578125,0.004791259765625
1690840280724051200,4.22205126953125,-0.9823455810546875,0.032470703125,0.0048065185546875
1690840280734092300,4.23209228515625,-0.9818115234375,0.0318756103515625,0.0047607421875
1690840280744132000,4.242132080078125,-0.981048583984375,0.0321197509765625,0.0048370361328125
1690840280754172200,4.252172119140625,-0.9812469482421875,0.03228759765625,0.0052642822265625
1690840280764213000,4.262212890625,-0.98138427734375,0.0324554443359375,0.0052337646484375
1690840280774253000,4.272253173828125,-0.98150634765625,0.0323944091796875,0.00469970703125
1690840280784293000,4.282293212890625,-0.980743408203125,0.032806396484375,0.005584716796875
1690840280794333200,4.292333251953125,-0.9810028076171875,0.0331573486328125,0.005828857421875
1690840280804374300,4.302374267578125,-0.9820098876953125,0.0325927734375,0.005279541015625
1690840280814414000,4.3124140625,-0.9814605712890625,0.0318756103515625,0.00543212890625
1690840280824454100,4.3224541015625,-0.9814453125,0.031951904296875,0.0055694580078125
1690840280834525200,4.332525146484375,-0.9818115234375,0.0323638916015625,0.0052642822265625
1690840280844565200,4.342565185546875,-0.98187255859375,0.03228759765625,0.0047607421875
1690840280854606000,4.352606201171875,-0.9817047119140625,0.031890869140625,0.005584716796875
1690840280864646100,4.362646240234375,-0.981842041015625,0.0326690673828125,0.0061492919921875
1690840280874686200,4.372686279296875,-0.9808502197265625,0.0323333740234375,0.005523681640625
1690840280884727300,4.382727294921875,-0.98077392578125,0.0322265625,0.005340576171875
1690840280894767000,4.39276708984375,-0.9808349609375,0.0320281982421875,0.00457763671875
1690840280904807200,4.40280712890625,-0.980682373046875,0.031707763671875,0.0050201416015625
1690840280914847200,4.41284716796875,-0.9811553955078125,0.0322113037109375,0.0052032470703125
1690840280924888000,4.42288818359375,-0.9808502197265625,0.0325469970703125,0.005767822265625
1690840280934928100,4.43292822265625,-0.9817657470703125,0.0325164794921875,0.0048828125
1690840280944968200,4.44296826171875,-0.9814453125,0.032745361328125,0.0047454833984375
1690840280955008000,4.453008056640625,-0.9818572998046875,0.0331573486328125,0.0048370361328125
1690840280965049000,4.463049072265625,-0.981292724609375,0.0321044921875,0.0060272216796875
1690840280975120100,4.4731201171875,-0.981903076171875,0.0320281982421875,0.0062103271484375
1690840280985160200,4.48316015625,-0.9824981689453125,0.0319671630859375,0.00518798828125
1690840280995200300,4.4932001953125,-0.98095703125,0.0327301025390625,0.0048828125
1690840281005240300,4.503240234375,-0.981170654296875,0.03192138671875,0.0054168701171875
1690840281015281200,4.51328125,-0.982147216796875,0.0318145751953125,0.0051116943359375
1690840281025321200,4.5233212890625,-0.9819183349609375,0.0329742431640625,0.00555419921875
1690840281035361000,4.533361083984375,-0.9813690185546875,0.032501220703125,0.00469970703125
1690840281045402000,4.543402099609375,-0.982452392578125,0.03216552734375,0.0047760009765625
1690840281055442200,4.553442138671875,-0.9817047119140625,0.032440185546875,0.0051422119140625
1690840281065482200,4.563482177734375,-0.9811859130859375,0.032257080078125,0.0058441162109375
1690840281075522300,4.573522216796875,-0.98175048828125,0.0317840576171875,0.0056304931640625
1690840281085563100,4.583563232421875,-0.98211669921875,0.0325927734375,0.005462646484375
1690840281095603200,4.593603271484375,-0.98150634765625,0.032501220703125,0.005889892578125
1690840281105643000,4.60364306640625,-0.9815521240234375,0.0324249267578125,0.005615234375
1690840281115714000,4.613714111328125,-0.982147216796875,0.0324859619140625,0.006011962890625
1690840281125754000,4.623754150390625,-0.981353759765625,0.0326995849609375,0.0050811767578125
1690840281135795200,4.633795166015625,-0.98162841796875,0.0326080322265625,0.0045928955078125
1690840281145835300,4.643835205078125,-0.9812164306640625,0.031829833984375,0.00494384765625
1690840281155875300,4.653875244140625,-0.9814910888671875,0.032318115234375,0.0052032470703125
1690840281165915100,4.6639150390625,-0.9818878173828125,0.0319366455078125,0.0057373046875
1690840281175956200,4.673956298828125,-0.9823455810546875,0.03265380859375,0.0052947998046875
1690840281185996000,4.68399609375,-0.9815826416015625,0.0329437255859375,0.0049285888671875
1690840281196036000,4.6940361328125,-0.9816741943359375,0.0323638916015625,0.0050201416015625
1690840281206077200,4.7040771484375,-0.98236083984375,0.0325927734375,0.0050048828125
1690840281216117200,4.7141171875,-0.98114013671875,0.0325775146484375,0.0056915283203125
1690840281226157300,4.7241572265625,-0.9808502197265625,0.032806396484375,0.004669189453125
1690840281236197000,4.734197021484375,-0.981536865234375,0.0327301025390625,0.004180908203125
1690840281246238200,4.74423828125,-0.98150634765625,0.03192138671875,0.0045166015625
1690840281256309000,4.75430908203125,-0.9815521240234375,0.0323486328125,0.0050201416015625
1690840281266349000,4.76434912109375,-0.982208251953125,0.0325927734375,0.005523681640625
1690840281276389000,4.77438916015625,-0.98236083984375,0.0325927734375,0.005340576171875
1690840281286429200,4.78442919921875,-0.9814300537109375,0.032135009765625,0.00531005859375
1690840281296470300,4.79447021484375,-0.9814453125,0.0326385498046875,0.0056304931640625
1690840281306510300,4.80451025390625,-0.9810638427734375,0.0324249267578125,0.0055084228515625
1690840281316550100,4.814550048828125,-0.981353759765625,0.03271484375,0.00567626953125
1690840281326591000,4.824591064453125,-0.9813385009765625,0.0328216552734375,0.0051727294921875
1690840281336613600,4.834613525390625,-0.9809112548828125,0.031341552734375,0.0045623779296875
1690840281346653700,4.84465380859375,-0.9814300537109375,0.031982421875,0.0056304931640625
1690840281356693800,4.85469384765625,-0.98052978515625,0.0321807861328125,0.00482177734375
1690840281366734800,4.86473486328125,-0.9816131591796875,0.032196044921875,0.004791259765625
1690840281376774700,4.874774658203125,-0.982086181640625,0.0328369140625,0.0049591064453125
1690840281386814700,4.884814697265625,-0.9817352294921875,0.0330047607421875,0.0053558349609375
1690840281396885800,4.8948857421875,-0.9818572998046875,0.032806396484375,0.00537109375
1690840281406925600,4.904925537109375,-0.981597900390625,0.03277587890625,0.0060272216796875
1690840281416966700,4.914966552734375,-0.9810943603515625,0.03204345703125,0.0056915283203125
1690840281427006700,4.9250068359375,-0.9808502197265625,0.0327911376953125,0.0052337646484375
1690840281437046500,4.935046630859375,-0.9815673828125,0.031768798828125,0.0053863525390625
1690840281447086600,4.945086669921875,-0.980987548828125,0.0319976806640625,0.0053558349609375
1690840281457127700,4.955127685546875,-0.9806060791015625,0.0324554443359375,0.0050506591796875
1690840281467167500,4.96516748046875,-0.9803619384765625,0.0323944091796875,0.0048675537109375
1690840281477207600,4.97520751953125,-0.9806060791015625,0.0326385498046875,0.0056304931640625
1690840281487248600,4.98524853515625,-0.9755859375,0.0140533447265625,-0.01422119140625
1690840281497288700,4.995288818359375,-1.0214385986328125,0.0265350341796875,0.0332183837890625
1690840281507328800,5.005328857421875,-0.976806640625,0.04278564453125,0.00140380859375
1690840281517368600,5.01536865234375,-0.9787139892578125,0.019195556640625,0.00323486328125
1690840281527409700,5.02540966796875,-0.986114501953125,0.0350799560546875,0.01416015625
1690840281537480700,5.035480712890625,-0.9720916748046875,0.0508880615234375,-0.0005950927734375
1690840281547520500,5.0455205078125,-0.9779510498046875,0.042999267578125,0.0001678466796875
1690840281557560600,5.055560546875,-0.97113037109375,0.04583740234375,0.003875732421875
1690840281567600600,5.0656005859375,-0.9859771728515625,0.0399169921875,0.0088043212890625
1690840281577641700,5.075641845703125,-0.976318359375,0.0390167236328125,0.0078277587890625
1690840281587681500,5.085681640625,-0.984130859375,0.0389251708984375,0.007568359375
1690840281597721600,5.0957216796875,-0.975494384765625,0.0365142822265625,0.0071563720703125
1690840281607761700,5.10576171875,-0.9861297607421875,0.0357666015625,0.0057373046875
1690840281617802500,5.115802490234375,-0.97894287109375,0.0345916748046875,0.0042572021484375
1690840281627842600,5.125842529296875,-0.981414794921875,0.0342864990234375,0.004364013671875
1690840281637882600,5.135882568359375,-0.983734130859375,0.0319366455078125,0.0051422119140625
1690840281647923700,5.145923828125,-0.983367919921875,0.0312957763671875,0.006011962890625
1690840281657963500,5.155963623046875,-0.9782562255859375,0.0310516357421875,0.00592041015625
1690840281668003600,5.166003662109375,-0.9866180419921875,0.0299224853515625,0.0066986083984375
1690840281678074600,5.17607470703125,-0.98089599609375,0.0296478271484375,0.005584716796875
1690840281688114700,5.18611474609375,-0.983245849609375,0.0305023193359375,0.0059356689453125
1690840281698155500,5.196155517578125,-0.982666015625,0.029266357421875,0.005767822265625
1690840281708195600,5.206195556640625,-0.9834747314453125,0.0303497314453125,0.00634765625
1690840281718235600,5.216235595703125,-0.98248291015625,0.031890869140625,0.0058746337890625
1690840281728275500,5.226275390625,-0.9811859130859375,0.0327911376953125,0.00604248046875
1690840281738316500,5.236316650390625,-0.9821319580078125,0.0338897705078125,0.0057220458984375
1690840281748356600,5.246356689453125,-0.98193359375,0.0352783203125,0.00555419921875
1690840281758396700,5.256396728515625,-0.9782562255859375,0.0350341796875,0.00531005859375
1690840281768437500,5.2664375,-0.9813232421875,0.0360565185546875,0.0053863525390625
1690840281778477600,5.2764775390625,-0.981353759765625,0.0360107421875,0.005645751953125
1690840281788517600,5.286517578125,-0.9795989990234375,0.03668212890625,0.005401611328125
1690840281798557400,5.296557373046875,-0.98150634765625,0.0370941162109375,0.0064697265625
1690840281808598500,5.3065986328125,-0.980072021484375,0.0369415283203125,0.0063018798828125
1690840281818668500,5.31666845703125,-0.979217529296875,0.037200927734375,0.006011962890625
1690840281828709600,5.326709716796875,-0.980438232421875,0.036834716796875,0.005523681640625
1690840281838749700,5.336749755859375,-0.980743408203125,0.035675048828125,0.0049896240234375
1690840281848789800,5.346789794921875,-0.981353759765625,0.0347137451171875,0.0052337646484375
1690840281858830600,5.35683056640625,-0.981353759765625,0.034332275390625,0.0059661865234375
1690840281868870700,5.36687060546875,-0.982208251953125,0.0338897705078125,0.005126953125
1690840281878910500,5.376910400390625,-0.98321533203125,0.0328826904296875,0.0052032470703125
1690840281888950500,5.386950439453125,-0.9810791015625,0.031768798828125,0.0059051513671875
1690840281898991600,5.39699169921875,-0.982452392578125,0.031280517578125,0.0057373046875
1690840281909031700,5.40703173828125,-0.983154296875,0.0314178466796875,0.0055389404296875
1690840281919071700,5.41707177734375,-0.9810943603515625,0.0312957763671875,0.00537109375
1690840281929112600,5.427112548828125,-0.9827728271484375,0.0317230224609375,0.005462646484375
1690840281939152600,5.437152587890625,-0.9822540283203125,0.0316619873046875,0.0054779052734375
1690840281949192400,5.4471923828125,-0.982757568359375,0.0326690673828125,0.005828857421875
1690840281959263500,5.457263427734375,-0.9819488525390625,0.032806396484375,0.006256103515625
1690840281969303600,5.467303466796875,-0.980499267578125,0.0339813232421875,0.0054473876953125
1690840281979344600,5.4773447265625,-0.9815521240234375,0.0341796875,0.00482177734375
1690840281989384700,5.487384765625,-0.9812774658203125,0.0348663330078125,0.00640869140625
1690840281999424800,5.4974248046875,-0.9806060791015625,0.0350341796875,0.00579833984375
1690840282009464800,5.50746484375,-0.981292724609375,0.0354461669921875,0.0057830810546875
1690840282019505700,5.517505615234375,-0.9812469482421875,0.03607177734375,0.005950927734375
1690840282029545500,5.52754541015625,-0.9807891845703125,0.0369720458984375,0.0056915283203125
1690840282039585500,5.53758544921875,-0.981048583984375,0.0358428955078125,0.0054168701171875
1690840282049625600,5.54762548828125,-0.9798736572265625,0.035797119140625,0.005157470703125
1690840282059666700,5.557666748046875,-0.98150634765625,0.0353240966796875,0.005584716796875
1690840282069706800,5.567706787109375,-0.981689453125,0.03533935546875,0.0055999755859375
1690840282079746800,5.577746826171875,-0.9807891845703125,0.0347137451171875,0.006439208984375
1690840282089787600,5.58778759765625,-0.9809722900390625,0.03497314453125,0.0069427490234375
1690840282099857700,5.597857666015625,-0.980926513671875,0.034759521484375,0.006011962890625
1690840282109898500,5.6078984375,-0.981842041015625,0.03424072265625,0.0063629150390625
1690840282119938600,5.6179384765625,-0.982147216796875,0.0333251953125,0.0058441162109375
1690840282129978600,5.627978515625,-0.9814300537109375,0.0332794189453125,0.005584716796875
1690840282140019700,5.638019775390625,-0.98236083984375,0.0332183837890625,0.0059967041015625
1690840282150059800,5.648059814453125,-0.9817047119140625,0.033355712890625,0.0054779052734375
1690840282160099800,5.658099853515625,-0.9813232421875,0.03314208984375,0.006072998046875
1690840282170139600,5.6681396484375,-0.9821624755859375,0.03302001953125,0.0053253173828125
1690840282180180500,5.678180419921875,-0.9809112548828125,0.033203125,0.0054931640625
1690840282190220500,5.688220458984375,-0.9810791015625,0.0328369140625,0.005950927734375
1690840282200260600,5.698260498046875,-0.9813995361328125,0.0337066650390625,0.0062713623046875
1690840282210301700,5.7083017578125,-0.981842041015625,0.0344696044921875,0.005401611328125
1690840282220341800,5.718341796875,-0.9821014404296875,0.034515380859375,0.005126953125
1690840282230381800,5.7283818359375,-0.981689453125,0.0353851318359375,0.005615234375
1690840282240452600,5.73845263671875,-0.981964111328125,0.03546142578125,0.005157470703125
1690840282250492700,5.74849267578125,-0.9815521240234375,0.03460693359375,0.0055389404296875
1690840282260532700,5.75853271484375,-0.9811553955078125,0.035400390625,0.00634765625
1690840282270573600,5.768573486328125,-0.9815521240234375,0.0359344482421875,0.006011962890625
1690840282280613600,5.778613525390625,-0.9811859130859375,0.035247802734375,0.005889892578125
1690840282290653700,5.78865380859375,-0.980194091796875,0.035125732421875,0.0057220458984375
1690840282300694800,5.79869482421875,-0.981231689453125,0.0353851318359375,0.0046234130859375
1690840282310734800,5.80873486328125,-0.980712890625,0.0348052978515625,0.00537109375
1690840282320774700,5.818774658203125,-0.980865478515625,0.035369873046875,0.0056915283203125
1690840282330808600,5.82880859375,-0.981292724609375,0.0348968505859375,0.0052490234375
1690840282340849700,5.838849609375,-0.98046875,0.03399658203125,0.005767822265625
1690840282350889700,5.8488896484375,-0.982025146484375,0.0338134765625,0.0057525634765625
1690840282360929800,5.8589296875,-0.9818115234375,0.03399658203125,0.00439453125
1690840282370970600,5.868970703125,-0.9817352294921875,0.033538818359375,0.00567626953125
1690840282381041000,5.879041015625,-0.98309326171875,0.0328521728515625,0.0069427490234375
1690840282391081700,5.889081787109375,-0.9822235107421875,0.032745361328125,0.0055694580078125
1690840282401121800,5.899121826171875,-0.982086181640625,0.0337677001953125,0.005340576171875
1690840282411161600,5.90916162109375,-0.98199462890625,0.0339813232421875,0.005157470703125
1690840282421202700,5.91920263671875,-0.9816741943359375,0.0340118408203125,0.005859375
1690840282431242800,5.92924267578125,-0.9819793701171875,0.0341644287109375,0.0059661865234375
1690840282441282800,5.93928271484375,-0.981201171875,0.03424072265625,0.005584716796875
1690840282451323000,5.949322998046875,-0.9815216064453125,0.034088134765625,0.0060577392578125
1690840282461363700,5.95936376953125,-0.9811553955078125,0.034271240234375,0.006317138671875
1690840282471403800,5.96940380859375,-0.9814300537109375,0.0348663330078125,0.0060882568359375
1690840282481443600,5.979443603515625,-0.9813385009765625,0.0351409912109375,0.00634765625
1690840282491484700,5.989484619140625,-0.9813690185546875,0.034210205078125,0.0053863525390625
1690840282501524700,5.999524658203125,-0.98065185546875,0.035003662109375,0.005157470703125
1690840282511564800,6.009564697265625,-0.9813232421875,0.0345306396484375,0.005706787109375
1690840282521635800,6.0196357421875,-0.9818572998046875,0.0344696044921875,0.0056304931640625
1690840282531676000,6.029676025390625,-0.9809417724609375,0.034881591796875,0.0053863525390625
1690840282541716000,6.039716064453125,-0.9817047119140625,0.034423828125,0.0049591064453125
1690840282551756800,6.0497568359375,-0.982666015625,0.033966064453125,0.0051727294921875
1690840282561796600,6.059796630859375,-0.982147216796875,0.0339202880859375,0.0070037841796875
1690840282571836700,6.069836669921875,-0.9807586669921875,0.0342864990234375,0.0058135986328125
1690840282581877800,6.079877685546875,-0.9819488525390625,0.0340423583984375,0.0059967041015625
1690840282591917800,6.089917724609375,-0.98126220703125,0.033416748046875,0.0058135986328125
1690840282601958000,6.0999580078125,-0.980865478515625,0.0337371826171875,0.0059967041015625
1690840282611998000,6.109998046875,-0.9813385009765625,0.0349884033203125,0.00640869140625
1690840282622038800,6.120038818359375,-0.98187255859375,0.0337066650390625,0.0052490234375
1690840282632078600,6.13007861328125,-0.9822998046875,0.0337982177734375,0.0047760009765625
1690840282642118700,6.14011865234375,-0.98187255859375,0.03448486328125,0.0054931640625
1690840282652159700,6.15015966796875,-0.9816436767578125,0.03375244140625,0.005401611328125
1690840282662229800,6.160229736328125,-0.9822845458984375,0.033355712890625,0.005859375
1690840282672270800,6.170270751953125,-0.982177734375,0.034332275390625,0.0053863525390625
1690840282682311000,6.180310791015625,-0.980560302734375,0.0347900390625,0.005645751953125
1690840282692351000,6.19035107421875,-0.9802398681640625,0.0346221923828125,0.0064697265625
1690840282702390800,6.200390869140625,-0.98077392578125,0.0354156494140625,0.0048675537109375
1690840282712431600,6.210431640625,-0.98089599609375,0.0358428955078125,0.005279541015625
1690840282722471700,6.2204716796875,-0.9809112548828125,0.0344696044921875,0.00616455078125
1690840282732511700,6.23051171875,-0.980987548828125,0.034515380859375,0.0061187744140625
1690840282742552800,6.240552734375,-0.982513427734375,0.03472900390625,0.005279541015625
1690840282752593000,6.250593017578125,-0.981109619140625,0.0355377197265625,0.005401611328125
1690840282762633000,6.260633056640625,-0.9816131591796875,0.0351104736328125,0.00531005859375
1690840282772672800,6.2706728515625,-0.9814453125,0.034332275390625,0.0049285888671875
1690840282782713600,6.280713623046875,-0.981964111328125,0.034271240234375,0.005706787109375
1690840282792753700,6.290753662109375,-0.981536865234375,0.0342864990234375,0.00555419921875
1690840282802824700,6.30082470703125,-0.98126220703125,0.0339813232421875,0.0053863525390625
1690840282812864800,6.31086474609375,-0.9810028076171875,0.0341796875,0.0054473876953125
1690840282822904800,6.32090478515625,-0.981201171875,0.033966064453125,0.0055694580078125
1690840282832946000,6.33094580078125,-0.981048583984375,0.0341796875,0.0053863525390625
1690840282842986000,6.340986083984375,-0.9818267822265625,0.0342254638671875,0.005523681640625
1690840282853025800,6.35102587890625,-0.981658935546875,0.0339508056640625,0.00531005859375
1690840282863066600,6.361066650390625,-0.9815826416015625,0.0340576171875,0.0058746337890625
1690840282873106700,6.371106689453125,-0.9822235107421875,0.0342559814453125,0.0059661865234375
1690840282883146800,6.381146728515625,-0.981597900390625,0.034454345703125,0.006072998046875
1690840282893186800,6.391186767578125,-0.9811553955078125,0.03466796875,0.0049591064453125
1690840282903228000,6.401227783203125,-0.980865478515625,0.0347442626953125,0.0062713623046875
1690840282913268000,6.41126806640625,-0.9817962646484375,0.03485107421875,0.0056304931640625
1690840282923307800,6.421307861328125,-0.9807281494140625,0.0332489013671875,0.0053558349609375
1690840282933348600,6.4313486328125,-0.98126220703125,0.0342559814453125,0.00592041015625
1690840282943418600,6.441418701171875,-0.980987548828125,0.035186767578125,0.0070953369140625
1690840282953459700,6.451459716796875,-0.980743408203125,0.0347900390625,0.0057525634765625
1690840282963499800,6.461499755859375,-0.9813079833984375,0.0338287353515625,0.005218505859375
1690840282973539800,6.471539794921875,-0.9810028076171875,0.033905029296875,0.0054473876953125
1690840282983580000,6.481579833984375,-0.9801025390625,0.0338592529296875,0.0063629150390625
1690840282993621000,6.49162109375,-0.98089599609375,0.034423828125,0.00634765625
1690840283003660800,6.501660888671875,-0.9812164306640625,0.0348358154296875,0.0052642822265625
1690840283013700600,6.51170068359375,-0.981414794921875,0.0349273681640625,0.0054931640625
1690840283023741700,6.52174169921875,-0.9813690185546875,0.034820556640625,0.005828857421875
1690840283033781800,6.53178173828125,-0.98114013671875,0.034423828125,0.0057525634765625
1690840283043821800,6.54182177734375,-0.9817657470703125,0.03411865234375,0.005340576171875
1690840283053862000,6.55186181640625,-0.98138427734375,0.0341033935546875,0.0054931640625
1690840283063903000,6.561903076171875,-0.9813690185546875,0.0340423583984375,0.006072998046875
1690840283073942800,6.57194287109375,-0.981292724609375,0.034759521484375,0.0068359375
1690840283084013800,6.582013916015625,-0.9805908203125,0.0343780517578125,0.006103515625
1690840283094053600,6.5920537109375,-0.9811248779296875,0.03369140625,0.005828857421875
1690840283104093700,6.60209375,-0.9822998046875,0.0345458984375,0.0056915283203125
1690840283114134800,6.612134765625,-0.981658935546875,0.0343475341796875,0.00567626953125
1690840283124174800,6.6221748046875,-0.9813385009765625,0.0349884033203125,0.005523681640625
1690840283134214700,6.632214599609375,-0.9817657470703125,0.034271240234375,0.005157470703125
1690840283144255700,6.642255859375,-0.981597900390625,0.0345611572265625,0.0054931640625
1690840283154295800,6.6522958984375,-0.980865478515625,0.03424072265625,0.0058441162109375
1690840283164335600,6.662335693359375,-0.980987548828125,0.03436279296875,0.006134033203125
1690840283174375700,6.672375732421875,-0.980987548828125,0.034912109375,0.0056610107421875
1690840283184416800,6.682416748046875,-0.9813995361328125,0.033721923828125,0.0056915283203125
1690840283194456800,6.692456787109375,-0.9816131591796875,0.0339508056640625,0.0062103271484375
1690840283204497000,6.702496826171875,-0.9814605712890625,0.0340576171875,0.0060577392578125
1690840283214536700,6.71253662109375,-0.9813079833984375,0.033538818359375,0.005584716796875
1690840283224607700,6.722607666015625,-0.9813995361328125,0.03466796875,0.0064239501953125
1690840283234648800,6.73264892578125,-0.981719970703125,0.034027099609375,0.0062103271484375
1690840283244688600,6.742688720703125,-0.981292724609375,0.0355377197265625,0.006378173828125
1690840283254728700,6.752728759765625,-0.9813079833984375,0.0348968505859375,0.0055084228515625
1690840283264768800,6.762768798828125,-0.982025146484375,0.0350341796875,0.005615234375
1690840283274809900,6.772809814453125,-0.9809417724609375,0.033843994140625,0.00604248046875
1690840283284849700,6.782849609375,-0.9814910888671875,0.0337371826171875,0.0055694580078125
1690840283294889700,6.7928896484375,-0.9801177978515625,0.0340118408203125,0.0059051513671875
1690840283304930600,6.8029306640625,-0.9809112548828125,0.0341644287109375,0.00537109375
1690840283314970600,6.812970703125,-0.981414794921875,0.0333099365234375,0.0053558349609375
1690840283325010700,6.8230107421875,-0.981292724609375,0.0334625244140625,0.0056610107421875
1690840283335044000,6.833044189453125,-0.9816741943359375,0.0350494384765625,0.005767822265625
1690840283345085200,6.843085205078125,-0.9818878173828125,0.0349273681640625,0.0055389404296875
1690840283355125200,6.853125244140625,-0.9816436767578125,0.0349884033203125,0.005584716796875
1690840283365196300,6.8631962890625,-0.980987548828125,0.0350341796875,0.0051422119140625
1690840283375236400,6.873236328125,-0.9817657470703125,0.0345001220703125,0.005401611328125
1690840283385276400,6.8832763671875,-0.9812164306640625,0.034576416015625,0.00555419921875
1690840283395317200,6.893317138671875,-0.9810791015625,0.03466796875,0.0059967041015625
1690840283405357300,6.903357421875,-0.9817352294921875,0.034942626953125,0.00579833984375
1690840283415397000,6.913397216796875,-0.9817962646484375,0.034423828125,0.005767822265625
1690840283425437200,6.923437255859375,-0.9810943603515625,0.0343780517578125,0.005950927734375
1690840283435478300,6.933478271484375,-0.98138427734375,0.034454345703125,0.006103515625
1690840283445518300,6.943518310546875,-0.981536865234375,0.03460693359375,0.0061492919921875
1690840283455558400,6.953558349609375,-0.9808502197265625,0.0342559814453125,0.006256103515625
1690840283465599200,6.96359912109375,-0.9812774658203125,0.0341339111328125,0.0057525634765625
1690840283475639300,6.973639404296875,-0.9818572998046875,0.0345458984375,0.005828857421875
1690840283485679000,6.98367919921875,-0.9818572998046875,0.03521728515625,0.0065460205078125
1690840283495719200,6.99371923828125,-0.9815673828125,0.0340118408203125,0.005584716796875
1690840283505790200,7.003790283203125,-0.9818878173828125,0.033599853515625,0.0058135986328125
1690840283515831300,7.013831298828125,-0.9814910888671875,0.0334014892578125,0.0054931640625
1690840283525871400,7.023871337890625,-0.9817047119140625,0.0343017578125,0.005340576171875
1690840283535911400,7.033911376953125,-0.982086181640625,0.033935546875,0.005218505859375
1690840283545951500,7.043951416015625,-0.9811859130859375,0.0341339111328125,0.00579833984375
1690840283555992300,7.053992431640625,-0.9806365966796875,0.035003662109375,0.0065460205078125
1690840283566032100,7.0640322265625,-0.981231689453125,0.034210205078125,0.0065765380859375
1690840283576072200,7.074072265625,-0.98223876953125,0.0340728759765625,0.0068817138671875
1690840283586113300,7.08411328125,-0.9820556640625,0.0337677001953125,0.0055389404296875
1690840283596153300,7.0941533203125,-0.982086181640625,0.03411865234375,0.0063018798828125
1690840283606193400,7.104193359375,-0.98236083984375,0.0345306396484375,0.006103515625
1690840283616233500,7.1142333984375,-0.981231689453125,0.0339508056640625,0.0055084228515625
1690840283626274300,7.1242744140625,-0.9818115234375,0.0343017578125,0.00604248046875
1690840283636314000,7.134314208984375,-0.981842041015625,0.0348968505859375,0.0059661865234375
1690840283646385200,7.14438525390625,-0.981536865234375,0.0349884033203125,0.0060577392578125
1690840283656425200,7.15442529296875,-0.98199462890625,0.0349884033203125,0.0055999755859375
1690840283666465300,7.16446533203125,-0.9812774658203125,0.0348358154296875,0.0057830810546875
1690840283676506400,7.17450634765625,-0.983734130859375,0.0344696044921875,0.0054779052734375
1690840283686546400,7.18454638671875,-0.9811553955078125,0.03387451171875,0.0062103271484375
1690840283696586500,7.19458642578125,-0.9797821044921875,0.0333251953125,0.0068359375
1690840283706626300,7.204626220703125,-0.983062744140625,0.0338592529296875,0.0061492919921875
1690840283716667100,7.214667236328125,-0.9814605712890625,0.033782958984375,0.005615234375
1690840283726707200,7.224707275390625,-0.98272705078125,0.0343170166015625,0.0046234130859375
1690840283736747300,7.234747314453125,-0.981231689453125,0.0345001220703125,0.003662109375
1690840283746788400,7.244788330078125,-0.9814300537109375,0.034332275390625,0.0032806396484375
1690840283756828400,7.254828369140625,-0.9810943603515625,0.034027099609375,0.004150390625
1690840283766868500,7.264868408203125,-0.981475830078125,0.0339813232421875,0.004852294921875
1690840283776908000,7.274907958984375,-0.9803466796875,0.03424072265625,0.006744384765625
1690840283786979000,7.28497900390625,-0.9825286865234375,0.03448486328125,0.00836181640625
1690840283797020200,7.295020263671875,-0.9826507568359375,0.0350799560546875,0.0081329345703125
1690840283807060200,7.305060302734375,-0.98260498046875,0.0342254638671875,0.007568359375
1690840283817100300,7.315100341796875,-0.981658935546875,0.0337982177734375,0.0064849853515625
1690840283827140400,7.325140380859375,-0.9791412353515625,0.0341339111328125,0.004974365234375
1690840283837181400,7.335181396484375,-0.9803619384765625,0.0337677001953125,0.0040740966796875
1690840283847221200,7.34522119140625,-0.9814453125,0.033935546875,0.0047149658203125
1690840283857261000,7.355260986328125,-0.98028564453125,0.0341033935546875,0.0042266845703125
1690840283867301000,7.365301025390625,-0.9819183349609375,0.03466796875,0.004730224609375
1690840283877342200,7.37534228515625,-0.981781005859375,0.034759521484375,0.0059661865234375
1690840283887382300,7.38538232421875,-0.9820556640625,0.033782958984375,0.0060272216796875
1690840283897422300,7.39542236328125,-0.982025146484375,0.03460693359375,0.0070953369140625
1690840283907463400,7.40546337890625,-0.9806671142578125,0.0341796875,0.0070648193359375
1690840283917503200,7.415503173828125,-0.9816741943359375,0.034576416015625,0.00701904296875
1690840283927574300,7.42557421875,-0.98211669921875,0.0352783203125,0.007171630859375
1690840283937614000,7.435614013671875,-0.98187255859375,0.034759521484375,0.0065765380859375
1690840283947654100,7.445654052734375,-0.9839935302734375,0.0347137451171875,0.0057373046875
1690840283957695200,7.4556953125,-0.9810028076171875,0.035614013671875,0.0040283203125
1690840283967735300,7.4657353515625,-0.9807586669921875,0.03485107421875,0.0040283203125
1690840283977775400,7.475775390625,-0.9811553955078125,0.0335693359375,0.0042572021484375
1690840283987815200,7.485815185546875,-0.980987548828125,0.0341339111328125,0.00555419921875
1690840283997856300,7.495856201171875,-0.9814300537109375,0.0339508056640625,0.00628662109375
1690840284007896000,7.50589599609375,-0.9820098876953125,0.0350799560546875,0.00701904296875
1690840284017936100,7.51593603515625,-0.98150634765625,0.034515380859375,0.0078277587890625
1690840284027977200,7.525977294921875,-0.98236083984375,0.034515380859375,0.0072479248046875
1690840284038017300,7.536017333984375,-0.9813995361328125,0.0343475341796875,0.0055694580078125
1690840284048057300,7.546057373046875,-0.9824371337890625,0.03448486328125,0.0049285888671875
1690840284058097400,7.556097412109375,-0.9819793701171875,0.035614013671875,0.0047454833984375
1690840284068168200,7.566168212890625,-0.9806060791015625,0.0348663330078125,0.0039825439453125
1690840284078208300,7.576208251953125,-0.981109619140625,0.034332275390625,0.0045166015625
1690840284088249000,7.5862490234375,-0.9813385009765625,0.0349578857421875,0.0066070556640625
1690840284098289200,7.5962890625,-0.9817962646484375,0.03436279296875,0.0079345703125
1690840284108329200,7.6063291015625,-0.9819488525390625,0.0348052978515625,0.0088348388671875
1690840284118370300,7.616370361328125,-0.981170654296875,0.0341339111328125,0.0074615478515625
1690840284128410400,7.626410400390625,-0.98297119140625,0.03411865234375,0.006591796875
1690840284138450200,7.6364501953125,-0.9822845458984375,0.0337677001953125,0.005340576171875
1690840284148490200,7.646490234375,-0.980743408203125,0.033843994140625,0.004638671875
1690840284158531000,7.656531005859375,-0.981048583984375,0.0344390869140625,0.0042266845703125
1690840284168571100,7.666571044921875,-0.9817352294921875,0.0350189208984375,0.0032501220703125
1690840284178611200,7.676611083984375,-0.9810333251953125,0.0353546142578125,0.0040435791015625
1690840284188652300,7.68665234375,-0.981536865234375,0.0345001220703125,0.0055389404296875
1690840284198692400,7.6966923828125,-0.9817352294921875,0.033660888671875,0.00701904296875
1690840284208763400,7.706763427734375,-0.98101806640625,0.033050537109375,0.0083770751953125
1690840284218803200,7.71680322265625,-0.9803009033203125,0.033416748046875,0.008880615234375
1690840284228843300,7.72684326171875,-0.985015869140625,0.0348968505859375,0.0084381103515625
1690840284238884000,7.736884033203125,-0.9800567626953125,0.03369140625,0.005218505859375
1690840284248924200,7.746924072265625,-0.982452392578125,0.034515380859375,0.0044097900390625
1690840284258964200,7.756964111328125,-0.9832305908203125,0.0362548828125,0.002716064453125
1690840284269004300,7.76700439453125,-0.9814453125,0.0359649658203125,0.0025634765625
1690840284279045400,7.77704541015625,-0.9807281494140625,0.034576416015625,0.0042572021484375
1690840284289085200,7.787085205078125,-0.978729248046875,0.033599853515625,0.0058746337890625
1690840284299125200,7.797125244140625,-0.9828338623046875,0.0335540771484375,0.0084075927734375
1690840284309166000,7.807166015625,-0.980987548828125,0.0336761474609375,0.0086517333984375
1690840284319206100,7.8172060546875,-0.9808349609375,0.034423828125,0.00750732421875
1690840284329246200,7.82724609375,-0.9835357666015625,0.033843994140625,0.0057525634765625
1690840284339285800,7.83728564453125,-0.982696533203125,0.0345306396484375,0.0037994384765625
1690840284349356800,7.847356689453125,-0.979156494140625,0.0345611572265625,0.0029144287109375
1690840284359396600,7.857396728515625,-0.9811859130859375,0.03515625,0.0033721923828125
1690840284369437700,7.867437744140625,-0.981719970703125,0.0347900390625,0.0041046142578125
1690840284379477800,7.877477783203125,-0.9801483154296875,0.0346221923828125,0.0064697265625
1690840284389517800,7.887517822265625,-0.9823150634765625,0.03497314453125,0.0083465576171875
1690840284399558700,7.89755859375,-0.982330322265625,0.034332275390625,0.008697509765625
1690840284409598700,7.9075986328125,-0.9823455810546875,0.0338287353515625,0.0087127685546875
1690840284419638800,7.917638671875,-0.9817962646484375,0.033447265625,0.0073394775390625
1690840284429678600,7.9276787109375,-0.98114013671875,0.033233642578125,0.00531005859375
1690840284439720000,7.937719970703125,-0.979949951171875,0.0344696044921875,0.0032958984375
1690840284449759700,7.947759765625,-0.9804840087890625,0.0354766845703125,0.0009765625
1690840284459799800,7.9577998046875,-0.9809722900390625,0.0351715087890625,0.002716064453125
1690840284469840600,7.967840576171875,-0.983917236328125,0.0348968505859375,0.0049591064453125
1690840284479880700,7.977880615234375,-0.981414794921875,0.0340576171875,0.00689697265625
1690840284489951700,7.98795166015625,-0.982269287109375,0.03436279296875,0.008270263671875
1690840284499991800,7.99799169921875,-0.982574462890625,0.0334625244140625,0.0076446533203125
1690840284510031600,8.008031494140624,-0.98101806640625,0.034423828125,0.0072479248046875
1690840284520071700,8.01807177734375,-0.98101806640625,0.033355712890625,0.005615234375
1690840284530112800,8.02811279296875,-0.9813995361328125,0.034637451171875,0.004180908203125
1690840284540152800,8.03815283203125,-0.98052978515625,0.0346221923828125,0.0032501220703125
1690840284550193000,8.04819287109375,-0.980682373046875,0.0340423583984375,0.0039520263671875
1690840284560233700,8.058233642578125,-0.9805450439453125,0.0348968505859375,0.0059661865234375
1690840284570273800,8.068273681640624,-0.9824981689453125,0.035003662109375,0.007476806640625
1690840284580313600,8.078313720703125,-0.9833221435546875,0.035308837890625,0.008331298828125
1690840284590353700,8.088353759765624,-0.9830169677734375,0.0350799560546875,0.00738525390625
1690840284600394800,8.098394775390625,-0.9825897216796875,0.034454345703125,0.0056610107421875
1690840284610434800,8.108434814453124,-0.9810333251953125,0.0333709716796875,0.00408935546875
1690840284620475000,8.118474853515625,-0.979766845703125,0.0337982177734375,0.0032958984375
1690840284630546000,8.1285458984375,-0.979888916015625,0.034027099609375,0.00299072265625
1690840284640586000,8.1385859375,-0.9799346923828125,0.033905029296875,0.003692626953125
1690840284650626800,8.148626708984375,-0.9812774658203125,0.03485107421875,0.0061187744140625
1690840284660666600,8.15866650390625,-0.9837646484375,0.03375244140625,0.008026123046875
1690840284670706700,8.168706787109375,-0.9832611083984375,0.034332275390625,0.00970458984375
1690840284680747800,8.178747802734375,-0.9831390380859375,0.034393310546875,0.009613037109375
1690840284690787800,8.188787841796875,-0.9832305908203125,0.0340118408203125,0.00787353515625
1690840284700828000,8.198827880859374,-0.9821319580078125,0.033935546875,0.0054168701171875
1690840284710868000,8.208867919921875,-0.9804840087890625,0.0339508056640625,0.0032196044921875
1690840284720908800,8.21890869140625,-0.9797515869140625,0.03424072265625,0.00238037109375
1690840284730948600,8.228948486328125,-0.9800872802734375,0.0342254638671875,0.003509521484375
1690840284740988700,8.23898876953125,-0.98052978515625,0.03387451171875,0.0042266845703125
1690840284751029800,8.24902978515625,-0.9810791015625,0.0352935791015625,0.00537109375
1690840284761069800,8.25906982421875,-0.9819793701171875,0.034912109375,0.0080108642578125
1690840284771140900,8.269140869140625,-0.9826507568359375,0.0352783203125,0.0094757080078125
1690840284781181000,8.279180908203125,-0.9824676513671875,0.0355682373046875,0.0099639892578125
1690840284791221000,8.289220947265624,-0.98297119140625,0.0351409912109375,0.0087890625
1690840284801260800,8.2992607421875,-0.98126220703125,0.034698486328125,0.00677490234375
1690840284811301600,8.309301513671874,-0.98046875,0.0353851318359375,0.0039825439453125
1690840284821341700,8.319341796875,-0.97943115234375,0.0340118408203125,0.0021820068359375
1690840284831381800,8.3293818359375,-0.9798583984375,0.0339202880859375,0.0020751953125
1690840284841422800,8.3394228515625,-0.9803924560546875,0.0344085693359375,0.0027008056640625
1690840284851463000,8.349462890625,-0.981475830078125,0.0347442626953125,0.0040740966796875
1690840284861503000,8.3595029296875,-0.98126220703125,0.0341796875,0.0074310302734375
1690840284871542800,8.369542724609374,-0.9829864501953125,0.03472900390625,0.0093994140625
1690840284881583600,8.37958349609375,-0.982696533203125,0.0344696044921875,0.009185791015625
1690840284891623700,8.389623779296874,-0.982940673828125,0.0343780517578125,0.0093536376953125
1690840284901663700,8.399663818359375,-0.9825897216796875,0.0348663330078125,0.0080108642578125
1690840284911734800,8.40973486328125,-0.9814910888671875,0.033843994140625,0.0053863525390625
1690840284921774800,8.41977490234375,-0.9801483154296875,0.0339508056640625,0.0032806396484375
1690840284931816000,8.42981591796875,-0.980712890625,0.034637451171875,0.002105712890625
1690840284941856000,8.43985595703125,-0.980072021484375,0.03411865234375,0.0018157958984375
1690840284951895800,8.449895751953125,-0.980926513671875,0.034423828125,0.004058837890625
1690840284961936000,8.459935791015624,-0.98089599609375,0.0347747802734375,0.0059051513671875
1690840284971976700,8.469976806640625,-0.981842041015625,0.0341796875,0.0072021484375
1690840284982016800,8.480016845703124,-0.982574462890625,0.0352783203125,0.0086517333984375
1690840284992056800,8.490056884765625,-0.9824981689453125,0.0350799560546875,0.0086517333984375
1690840285002098000,8.500097900390625,-0.982696533203125,0.0344390869140625,0.00830078125
1690840285012138000,8.510137939453125,-0.981048583984375,0.03485107421875,0.00640869140625
1690840285022177800,8.520177734375,-0.981353759765625,0.033905029296875,0.00396728515625
1690840285032217900,8.5302177734375,-0.980804443359375,0.0342254638671875,0.0034027099609375
1690840285042258700,8.5402587890625,-0.9806060791015625,0.0347747802734375,0.0036163330078125
1690840285052329700,8.550329833984375,-0.9809112548828125,0.0347137451171875,0.0041961669921875
1690840285062369800,8.560369873046875,-0.9811248779296875,0.034698486328125,0.005828857421875
1690840285072409900,8.570409912109374,-0.9819488525390625,0.03387451171875,0.0067291259765625
1690840285082450000,8.580449951171875,-0.982208251953125,0.03485107421875,0.0084991455078125
1690840285092491000,8.590490966796875,-0.98199462890625,0.0349578857421875,0.0083770751953125
1690840285102530800,8.60053076171875,-0.981048583984375,0.0348052978515625,0.0075225830078125
1690840285112571000,8.61057080078125,-0.9807891845703125,0.034149169921875,0.00634765625
1690840285122611700,8.62061181640625,-0.9817962646484375,0.0335693359375,0.0060882568359375
1690840285132651800,8.63065185546875,-0.9806976318359375,0.0336151123046875,0.0054473876953125
1690840285142691800,8.64069189453125,-0.98046875,0.033935546875,0.00384521484375
1690840285152732000,8.65073193359375,-0.9802093505859375,0.03424072265625,0.0042266845703125
1690840285162773000,8.66077294921875,-0.98095703125,0.034027099609375,0.005126953125
1690840285172812800,8.670812744140624,-0.98150634765625,0.0351409912109375,0.0052947998046875
1690840285182852900,8.680852783203125,-0.9815216064453125,0.0342864990234375,0.0072021484375
1690840285192924000,8.690923828125,-0.9815216064453125,0.0347442626953125,0.0074005126953125
1690840285202963700,8.700963623046874,-0.9816436767578125,0.03436279296875,0.007080078125
1690840285213004800,8.7110048828125,-0.981658935546875,0.03387451171875,0.0066680908203125
1690840285223044900,8.721044921875,-0.9812774658203125,0.0334625244140625,0.0057525634765625
1690840285233084700,8.731084716796875,-0.9799346923828125,0.033966064453125,0.00537109375
1690840285243124700,8.741124755859374,-0.980621337890625,0.034393310546875,0.00408935546875
1690840285253165800,8.751165771484375,-0.9800567626953125,0.035003662109375,0.0048370361328125
1690840285263206000,8.761205810546874,-0.98028564453125,0.0345001220703125,0.004974365234375
1690840285273245700,8.77124560546875,-0.981597900390625,0.03509521484375,0.0064239501953125
1690840285283286800,8.781286865234375,-0.98248291015625,0.0342559814453125,0.006927490234375
1690840285293326800,8.791326904296875,-0.98211669921875,0.0340728759765625,0.0074310302734375
1690840285303367000,8.801366943359374,-0.981414794921875,0.03497314453125,0.0070953369140625
1690840285313406700,8.81140673828125,-0.9814453125,0.0342864990234375,0.0065765380859375
1690840285323447800,8.82144775390625,-0.9806060791015625,0.0342559814453125,0.005828857421875
1690840285333518800,8.831518798828125,-0.981292724609375,0.034271240234375,0.0051422119140625
1690840285343552500,8.841552490234376,-0.98138427734375,0.03375244140625,0.0051116943359375
1690840285353592300,8.85159228515625,-0.9815826416015625,0.0340423583984375,0.00537109375
1690840285363632400,8.86163232421875,-0.9812774658203125,0.0352325439453125,0.005401611328125
1690840285373673500,8.871673583984375,-0.9815826416015625,0.0350799560546875,0.0055694580078125
1690840285383713500,8.881713623046876,-0.9817962646484375,0.035125732421875,0.00604248046875
1690840285393753600,8.891753662109375,-0.9814453125,0.034454345703125,0.0066680908203125
1690840285403794400,8.90179443359375,-0.9814453125,0.0344696044921875,0.0064697265625
1690840285413834500,8.91183447265625,-0.98150634765625,0.03509521484375,0.0063629150390625
1690840285423874600,8.92187451171875,-0.9816741943359375,0.035003662109375,0.0056304931640625
1690840285433914400,8.931914306640625,-0.980743408203125,0.03472900390625,0.005126953125
1690840285443955500,8.94195556640625,-0.98126220703125,0.0347442626953125,0.005279541015625
1690840285453995500,8.95199560546875,-0.981201171875,0.034393310546875,0.0047454833984375
1690840285464035600,8.96203564453125,-0.9814605712890625,0.0347442626953125,0.005584716796875
1690840285474106600,8.972106689453126,-0.981414794921875,0.0353546142578125,0.0057830810546875
1690840285484146700,8.982146728515625,-0.980926513671875,0.0347442626953125,0.006500244140625
1690840285494187500,8.9921875,-0.9810638427734375,0.0344085693359375,0.0073089599609375
1690840285504227300,9.002227294921875,-0.98114013671875,0.03521728515625,0.0064239501953125
1690840285514267400,9.012267333984376,-0.981536865234375,0.0348358154296875,0.0056304931640625
1690840285524307500,9.022307373046875,-0.981658935546875,0.034210205078125,0.0064697265625
1690840285534348500,9.0323486328125,-0.9818878173828125,0.0347900390625,0.0062713623046875
1690840285544388600,9.042388671875,-0.98150634765625,0.0342254638671875,0.005279541015625
1690840285554428700,9.0524287109375,-0.9815673828125,0.034332275390625,0.005035400390625
1690840285564469500,9.062469482421875,-0.9812774658203125,0.0345916748046875,0.0052337646484375
1690840285574509600,9.072509521484376,-0.9813232421875,0.0343017578125,0.0055084228515625
1690840285584549400,9.08254931640625,-0.9812164306640625,0.0347900390625,0.0067596435546875
1690840285594589400,9.09258935546875,-0.98193359375,0.035491943359375,0.00665283203125
1690840285604630500,9.102630615234375,-0.981658935546875,0.0349273681640625,0.0063934326171875
1690840285614700500,9.112700439453125,-0.9808197021484375,0.0362701416015625,0.0058746337890625
1690840285624741600,9.12274169921875,-0.9817352294921875,0.03521728515625,0.0051422119140625
1690840285634781700,9.13278173828125,-0.9812469482421875,0.034515380859375,0.0055999755859375
1690840285644821500,9.142821533203126,-0.9812469482421875,0.0342254638671875,0.0055999755859375
1690840285654862300,9.1528623046875,-0.98150634765625,0.0346527099609375,0.0056610107421875
1690840285664902400,9.16290234375,-0.9808502197265625,0.033935546875,0.0058746337890625
1690840285674942500,9.1729423828125,-0.9815673828125,0.03399658203125,0.005767822265625
1690840285684982500,9.182982421875,-0.981170654296875,0.03363037109375,0.00537109375
1690840285695023600,9.193023681640625,-0.98187255859375,0.0342559814453125,0.006622314453125
1690840285705063700,9.203063720703126,-0.9816436767578125,0.035125732421875,0.00592041015625
1690840285715103500,9.213103515625,-0.981231689453125,0.03497314453125,0.005859375
1690840285725144600,9.22314453125,-0.981475830078125,0.0351409912109375,0.00775146484375
1690840285735184400,9.233184326171875,-0.9812469482421875,0.035125732421875,0.0066986083984375
1690840285745224400,9.243224365234376,-0.9810028076171875,0.03375244140625,0.0064239501953125
1690840285755295500,9.25329541015625,-0.9811859130859375,0.0335845947265625,0.00469970703125
1690840285765335600,9.26333544921875,-0.980560302734375,0.0345306396484375,0.00543212890625
1690840285775376600,9.273376708984374,-0.981201171875,0.0348052978515625,0.0047607421875
1690840285785416700,9.283416748046875,-0.981201171875,0.03472900390625,0.004302978515625
1690840285795456500,9.29345654296875,-0.981597900390625,0.034942626953125,0.0054473876953125
1690840285805496600,9.30349658203125,-0.9824066162109375,0.0347900390625,0.006134033203125
1690840285815537400,9.313537353515626,-0.9809417724609375,0.034454345703125,0.006011962890625
1690840285825577500,9.323577392578125,-0.9812774658203125,0.034912109375,0.00555419921875
1690840285835617500,9.333617431640626,-0.9804840087890625,0.035003662109375,0.0054779052734375
1690840285845658600,9.34365869140625,-0.9625396728515625,-0.0104522705078125,-0.021759033203125
1690840285855698700,9.35369873046875,-1.0418853759765625,0.0082244873046875,-0.054229736328125
1690840285865738500,9.363738525390625,-0.94598388671875,0.080322265625,0.070648193359375
1690840285875778600,9.373778564453126,-0.99102783203125,0.0464630126953125,0.0618896484375
1690840285885819400,9.3838193359375,-1.002410888671875,0.0431976318359375,0.040740966796875
1690840285895889400,9.393889404296875,-0.9678497314453125,0.0371246337890625,0.020751953125
1690840285905930500,9.403930419921876,-0.9864654541015625,0.0368499755859375,-0.0423583984375
1690840285915970600,9.413970458984375,-0.9561614990234375,0.06781005859375,0.004852294921875
1690840285926010600,9.4240107421875,-0.976348876953125,0.0632476806640625,0.0052947998046875
1690840285936051700,9.4340517578125,-0.964813232421875,0.047210693359375,-0.0291748046875
1690840285946091500,9.444091552734376,-0.9747772216796875,0.04046630859375,-0.0284423828125
1690840285956131600,9.454131591796875,-0.9732818603515625,0.0345001220703125,-0.00347900390625
1690840285966171400,9.46417138671875,-0.993743896484375,0.0361175537109375,0.0122528076171875
1690840285976212500,9.47421240234375,-0.9800872802734375,0.03411865234375,0.02447509765625
1690840285986252500,9.48425244140625,-0.991485595703125,0.0333251953125,0.0328369140625
1690840285996292600,9.494292724609375,-0.9913330078125,0.0302276611328125,0.02935791015625
1690840286006333700,9.504333740234374,-0.9867706298828125,0.0263214111328125,0.0194854736328125
1690840286016373500,9.51437353515625,-0.98333740234375,0.027099609375,0.009002685546875
1690840286026413600,9.52441357421875,-0.9866790771484375,0.0288238525390625,0.0003662109375
1690840286036484400,9.534484375,-0.9745330810546875,0.027008056640625,-0.0097808837890625
1690840286046524400,9.5445244140625,-0.982208251953125,0.0256805419921875,-0.0127410888671875
1690840286056565500,9.5545654296875,-0.9774017333984375,0.02581787109375,-0.01019287109375
1690840286066605600,9.56460546875,-0.9840850830078125,0.0269927978515625,-0.0045623779296875
1690840286076645600,9.574645751953126,-0.9837188720703125,0.028594970703125,0.00390625
1690840286086685400,9.584685546875,-0.9829864501953125,0.031982421875,0.0135040283203125
1690840286096726500,9.5947265625,-0.9872894287109375,0.034454345703125,0.0182647705078125
1690840286106766300,9.604766357421875,-0.985198974609375,0.0347442626953125,0.0196685791015625
1690840286116806400,9.614806396484376,-0.9815216064453125,0.03790283203125,0.017181396484375
1690840286126846500,9.624846435546875,-0.9856719970703125,0.039825439453125,0.0130157470703125
1690840286136887600,9.634887451171876,-0.9780120849609375,0.04083251953125,0.0070343017578125
1690840286146927600,9.644927734375,-0.9769134521484375,0.0423583984375,0.001556396484375
1690840286156967400,9.654967529296876,-0.9778900146484375,0.0428619384765625,-0.00177001953125
1690840286167008500,9.665008544921875,-0.9739532470703125,0.0429229736328125,-0.0022430419921875
1690840286177078500,9.67507861328125,-0.9777374267578125,0.0434722900390625,-0.0019683837890625
1690840286187119400,9.685119384765626,-0.9775238037109375,0.0427703857421875,0.0000152587890625
1690840286197159400,9.695159423828125,-0.97967529296875,0.0427093505859375,0.0054168701171875
1690840286207199500,9.705199462890626,-0.9822540283203125,0.0413055419921875,0.0105743408203125
1690840286217240600,9.715240478515625,-0.9800872802734375,0.03997802734375,0.0118560791015625
1690840286227280600,9.72528076171875,-0.9824676513671875,0.039337158203125,0.0126495361328125
1690840286237320400,9.735320556640625,-0.9833831787109375,0.0377960205078125,0.012115478515625
1690840286247360500,9.745360595703126,-0.9800567626953125,0.0354156494140625,0.0096893310546875
1690840286257401300,9.7554013671875,-0.9833526611328125,0.034271240234375,0.0076446533203125
1690840286267441400,9.76544140625,-0.980560302734375,0.0333251953125,0.0046234130859375
1690840286277481500,9.7754814453125,-0.97900390625,0.0319976806640625,0.0018157958984375
1690840286287522600,9.7855224609375,-0.983917236328125,0.03125,0.001007080078125
1690840286297562600,9.795562744140625,-0.9815673828125,0.0300445556640625,0.0018463134765625
1690840286307602400,9.8056025390625,-0.9821624755859375,0.03009033203125,0.0032501220703125
1690840286317673500,9.815673583984376,-0.983001708984375,0.030029296875,0.00592041015625
1690840286327713500,9.825713623046875,-0.98236083984375,0.029541015625,0.0079345703125
1690840286337746000,9.835745849609374,-0.9847869873046875,0.031829833984375,0.0101318359375
1690840286347787000,9.845787109375,-0.9823150634765625,0.0320892333984375,0.009979248046875
1690840286357827000,9.8558271484375,-0.9825897216796875,0.0328369140625,0.009735107421875
1690840286367867000,9.865866943359375,-0.9830169677734375,0.034027099609375,0.008697509765625
1690840286377908000,9.875907958984374,-0.98028564453125,0.0349273681640625,0.00616455078125
1690840286387948000,9.885947998046875,-0.982025146484375,0.036590576171875,0.0047760009765625
1690840286397988000,9.895988037109374,-0.9800567626953125,0.03778076171875,0.0034027099609375
1690840286408028000,9.90602783203125,-0.97821044921875,0.0383758544921875,0.003387451171875
1690840286418069200,9.9160693359375,-0.9800872802734375,0.03900146484375,0.004150390625
1690840286428109000,9.926109130859375,-0.979400634765625,0.0388641357421875,0.0054779052734375
1690840286438148900,9.93614892578125,-0.9798431396484375,0.0391082763671875,0.006561279296875
1690840286448190000,9.94618994140625,-0.98028564453125,0.0401458740234375,0.007659912109375
1690840286458260000,9.956260009765625,-0.9796600341796875,0.0394744873046875,0.00909423828125
1690840286468301000,9.966301025390624,-0.9815673828125,0.0396575927734375,0.008636474609375
1690840286478341000,9.976341064453125,-0.980194091796875,0.0392608642578125,0.0076904296875
1690840286488381000,9.986380859375,-0.9795684814453125,0.0381317138671875,0.0069427490234375
1690840286498422000,9.996422119140625,-0.9821319580078125,0.036865234375,0.0064849853515625
1690840286508462000,10.006462158203124,-0.9807891845703125,0.035614013671875,0.00518798828125
1690840286518502000,10.016501953125,-0.9814300537109375,0.0355987548828125,0.0052947998046875
1690840286528542000,10.0265419921875,-0.981689453125,0.0347747802734375,0.0051116943359375
1690840286538583000,10.0365830078125,-0.9808502197265625,0.033966064453125,0.0048065185546875
1690840286548623000,10.046623046875,-0.9827117919921875,0.033447265625,0.0049285888671875
1690840286558663000,10.056662841796875,-0.98223876953125,0.0329742431640625,0.0063018798828125
1690840286568704000,10.0667041015625,-0.9821624755859375,0.032989501953125,0.00653076171875
1690840286578743800,10.076743896484375,-0.9839935302734375,0.0323486328125,0.00653076171875
1690840286588783900,10.086783935546874,-0.982147216796875,0.0323028564453125,0.007537841796875
1690840286598855000,10.09685498046875,-0.9820556640625,0.0327301025390625,0.0072021484375
1690840286608895000,10.10689501953125,-0.9825439453125,0.0339202880859375,0.006072998046875
1690840286618935000,10.11693505859375,-0.9808197021484375,0.034210205078125,0.0056610107421875
1690840286628976000,10.12697607421875,-0.9824676513671875,0.0351409912109375,0.00494384765625
1690840286639016000,10.137015869140624,-0.98138427734375,0.0355224609375,0.0058135986328125
1690840286649056000,10.147055908203125,-0.98052978515625,0.0354461669921875,0.0053558349609375
1690840286659096800,10.157096923828124,-0.980987548828125,0.0363922119140625,0.00506591796875
1690840286669137000,10.167136962890625,-0.9805908203125,0.0370025634765625,0.006011962890625
1690840286679177000,10.177177001953124,-0.9807281494140625,0.0372467041015625,0.00634765625
1690840286689217000,10.187217041015625,-0.98150634765625,0.037567138671875,0.0059051513671875
1690840286699258000,10.197258056640624,-0.9806671142578125,0.038299560546875,0.0064697265625
1690840286709298000,10.2072978515625,-0.9805755615234375,0.0380401611328125,0.007110595703125
1690840286719338000,10.217337890625,-0.97979736328125,0.037567138671875,0.00628662109375
1690840286729378800,10.22737890625,-0.9813232421875,0.0380401611328125,0.0060272216796875
1690840286739449000,10.237448974609375,-0.981231689453125,0.0385894775390625,0.0066680908203125
1690840286749490000,10.247489990234374,-0.980499267578125,0.037384033203125,0.00701904296875
1690840286759530000,10.257530029296875,-0.9811248779296875,0.0364990234375,0.0059814453125
1690840286769570000,10.267570068359374,-0.982452392578125,0.036590576171875,0.0062103271484375
1690840286779609900,10.27760986328125,-0.981109619140625,0.035614013671875,0.0066680908203125
1690840286789651000,10.28765087890625,-0.981781005859375,0.0347900390625,0.0062255859375
1690840286799691000,10.29769091796875,-0.9817657470703125,0.03497314453125,0.0056610107421875
1690840286809731000,10.30773095703125,-0.9816436767578125,0.03448486328125,0.005340576171875
1690840286819772000,10.31777197265625,-0.9821319580078125,0.0336456298828125,0.0058746337890625
1690840286829812000,10.32781201171875,-0.980865478515625,0.034393310546875,0.0064239501953125
1690840286839852000,10.33785205078125,-0.9820404052734375,0.03411865234375,0.0061187744140625
1690840286849891800,10.347891845703124,-0.98223876953125,0.0340576171875,0.00653076171875
1690840286859933000,10.357932861328125,-0.9821624755859375,0.034576416015625,0.0062255859375
1690840286869973000,10.367972900390624,-0.9815673828125,0.033905029296875,0.0058746337890625
1690840286880044000,10.3780439453125,-0.980560302734375,0.0351104736328125,0.0057373046875
1690840286890084000,10.388083984375,-0.9810791015625,0.0352020263671875,0.00634765625
1690840286900124200,10.398124267578124,-0.9816436767578125,0.0348358154296875,0.0061492919921875
1690840286910165000,10.4081650390625,-0.980499267578125,0.0361175537109375,0.005950927734375
1690840286920205000,10.418205078125,-0.9800872802734375,0.0362091064453125,0.005615234375
1690840286930244900,10.428244873046875,-0.980438232421875,0.036468505859375,0.005401611328125
1690840286940286000,10.438285888671874,-0.9806060791015625,0.0363922119140625,0.005523681640625
1690840286950326000,10.448325927734375,-0.980926513671875,0.036773681640625,0.006317138671875
1690840286960366000,10.458365966796874,-0.981109619140625,0.03717041015625,0.0072021484375
1690840286970406100,10.46840625,-0.9806365966796875,0.0363922119140625,0.0064849853515625
1690840286980447000,10.478447021484374,-0.980560302734375,0.0367584228515625,0.0062408447265625
1690840286990487000,10.488487060546875,-0.9808197021484375,0.0380096435546875,0.0063323974609375
1690840287000526800,10.49852685546875,-0.980682373046875,0.0370330810546875,0.00634765625
1690840287010568000,10.50856787109375,-0.98138427734375,0.035980224609375,0.005706787109375
1690840287020638000,10.518637939453125,-0.9807586669921875,0.0365447998046875,0.005157470703125
1690840287030679000,10.528678955078124,-0.9816741943359375,0.0364990234375,0.005523681640625
1690840287040719000,10.538718994140625,-0.9805145263671875,0.0357666015625,0.005889892578125
1690840287050759200,10.54875927734375,-0.9800872802734375,0.035552978515625,0.00592041015625
1690840287060799200,10.55879931640625,-0.9805145263671875,0.0358123779296875,0.0056610107421875
1690840287070840000,10.568840087890624,-0.982177734375,0.0351409912109375,0.006683349609375
1690840287080879900,10.5788798828125,-0.9818878173828125,0.034912109375,0.0063934326171875
1690840287090920000,10.588919921875,-0.9811859130859375,0.0352325439453125,0.00592041015625
1690840287100961000,10.5989609375,-0.9813385009765625,0.035308837890625,0.006317138671875
1690840287111001000,10.6090009765625,-0.9815521240234375,0.034820556640625,0.0072174072265625
1690840287121041200,10.619041259765625,-0.9814300537109375,0.034393310546875,0.00604248046875
1690840287131081200,10.629081298828124,-0.981170654296875,0.034912109375,0.005462646484375
1690840287141122000,10.6391220703125,-0.981353759765625,0.0345306396484375,0.0057525634765625
1690840287151161900,10.649161865234374,-0.9814910888671875,0.0355987548828125,0.0058746337890625
1690840287161202000,10.659201904296875,-0.9814910888671875,0.0363922119140625,0.0059051513671875
1690840287171273000,10.66927294921875,-0.9820098876953125,0.035919189453125,0.0067138671875
1690840287181313000,10.67931298828125,-0.981536865234375,0.0364227294921875,0.006866455078125
1690840287191354000,10.68935400390625,-0.9811553955078125,0.036773681640625,0.0069580078125
1690840287201394200,10.699394287109374,-0.9809417724609375,0.0367431640625,0.0062713623046875
1690840287211434000,10.70943408203125,-0.9806671142578125,0.03643798828125,0.006622314453125
1690840287221474000,10.71947412109375,-0.9809112548828125,0.03619384765625,0.00604248046875
1690840287231515000,10.729514892578125,-0.9808197021484375,0.036224365234375,0.0066986083984375
1690840287241555000,10.739554931640624,-0.9813232421875,0.036529541015625,0.0068511962890625
1690840287251595000,10.749594970703125,-0.9804840087890625,0.036834716796875,0.0060577392578125
1690840287261636000,10.759635986328124,-0.98114013671875,0.0363311767578125,0.0066375732421875
1690840287271676200,10.76967626953125,-0.9811553955078125,0.0365142822265625,0.0058441162109375
1690840287281716200,10.77971630859375,-0.9811553955078125,0.0362548828125,0.005645751953125
1690840287291756000,10.789756103515625,-0.98193359375,0.03668212890625,0.006866455078125
1690840287301796900,10.799796875,-0.982513427734375,0.035675048828125,0.00665283203125
1690840287311868000,10.809867919921874,-0.98101806640625,0.03582763671875,0.006317138671875
1690840287321908000,10.819907958984375,-0.9811553955078125,0.036041259765625,0.00592041015625
1690840287331948000,10.829947998046874,-0.9817962646484375,0.0353546142578125,0.0063323974609375
1690840287341979600,10.839979736328125,-0.9815216064453125,0.035400390625,0.00628662109375
1690840287352020700,10.850020751953124,-0.980560302734375,0.035491943359375,0.00604248046875
1690840287362060800,10.860060791015625,-0.981903076171875,0.0350799560546875,0.0060882568359375
1690840287372100900,10.870100830078124,-0.981842041015625,0.034912109375,0.0055999755859375
1690840287382142000,10.880141845703125,-0.9791412353515625,0.03594970703125,0.00543212890625
1690840287392181800,10.890181640625,-0.981658935546875,0.0352630615234375,0.0065460205078125
1690840287402221600,10.9002216796875,-0.9805908203125,0.0351104736328125,0.0055389404296875
1690840287412261600,10.91026171875,-0.9815521240234375,0.036102294921875,0.0059356689453125
1690840287422302700,10.920302734375,-0.98046875,0.03607177734375,0.0059661865234375
1690840287432342800,10.9303427734375,-0.98150634765625,0.03594970703125,0.0059356689453125
1690840287442382800,10.9403828125,-0.980194091796875,0.0357513427734375,0.0060577392578125
1690840287452454000,10.950453857421875,-0.98101806640625,0.0359344482421875,0.0063629150390625
1690840287462494000,10.960493896484374,-0.9810791015625,0.0362091064453125,0.00738525390625
1690840287472534800,10.97053466796875,-0.98211669921875,0.0363922119140625,0.0069122314453125
1690840287482574600,10.98057470703125,-0.98101806640625,0.036529541015625,0.0060272216796875
1690840287492614700,10.99061474609375,-0.98065185546875,0.0355377197265625,0.006103515625
1690840287502654700,11.00065478515625,-0.982147216796875,0.03533935546875,0.006195068359375
1690840287512695800,11.01069580078125,-0.9810943603515625,0.03570556640625,0.005584716796875
1690840287522735900,11.02073583984375,-0.9796600341796875,0.0356597900390625,0.005950927734375
1690840287532776000,11.03077587890625,-0.981048583984375,0.0358428955078125,0.00665283203125
1690840287542816800,11.040816650390624,-0.980804443359375,0.0351715087890625,0.0071563720703125
1690840287552856600,11.050856689453125,-0.9806976318359375,0.035552978515625,0.007568359375
1690840287562896600,11.060896728515624,-0.9811859130859375,0.036346435546875,0.0067901611328125
1690840287572936700,11.070936767578125,-0.982757568359375,0.0361480712890625,0.006378173828125
1690840287582977800,11.080977783203124,-0.9812774658203125,0.0356292724609375,0.0070037841796875
1690840287593048800,11.091048828125,-0.9803009033203125,0.035736083984375,0.0064544677734375
1690840287603089000,11.1010888671875,-0.98089599609375,0.0356292724609375,0.004852294921875
1690840287613129000,11.11112890625,-0.980987548828125,0.0356597900390625,0.00555419921875
1690840287623168800,11.121168701171875,-0.9803466796875,0.0355682373046875,0.005767822265625
1690840287633209600,11.131209716796874,-0.9809112548828125,0.035980224609375,0.0058441162109375
1690840287643249700,11.141249755859375,-0.981109619140625,0.0363311767578125,0.0059051513671875
1690840287653289700,11.151289794921874,-0.9813079833984375,0.0355224609375,0.00628662109375
1690840287663330800,11.161330810546875,-0.9814910888671875,0.036285400390625,0.0063323974609375
1690840287673371000,11.171370849609374,-0.9804840087890625,0.0359039306640625,0.0072021484375
1690840287683411000,11.181410888671875,-0.9807891845703125,0.0357818603515625,0.00714111328125
1690840287693450800,11.19145068359375,-0.981292724609375,0.0360107421875,0.0079193115234375
1690840287703491600,11.20149169921875,-0.981414794921875,0.036224365234375,0.0082550048828125
1690840287713531600,11.21153173828125,-0.9818115234375,0.036224365234375,0.0083160400390625
1690840287723571700,11.22157177734375,-0.98114013671875,0.0359954833984375,0.0065765380859375
1690840287733642800,11.231642822265625,-0.981109619140625,0.036376953125,0.0058746337890625
1690840287743682800,11.241682861328124,-0.9813079833984375,0.0365753173828125,0.0054931640625
1690840287753724000,11.251723876953125,-0.9811553955078125,0.0360107421875,0.004425048828125
1690840287763764000,11.261763916015624,-0.9810333251953125,0.03558349609375,0.003662109375
1690840287773803800,11.2718037109375,-0.9808502197265625,0.0361328125,0.0042877197265625
1690840287783843800,11.28184375,-0.9803009033203125,0.0363922119140625,0.006072998046875
1690840287793884700,11.291884765625,-0.981048583984375,0.0363006591796875,0.0065155029296875
1690840287803924700,11.3019248046875,-0.9815826416015625,0.0355987548828125,0.008026123046875
1690840287813964800,11.31196484375,-0.982086181640625,0.0357666015625,0.0087890625
1690840287824006000,11.322005859375,-0.9817352294921875,0.03607177734375,0.0084228515625
1690840287834046000,11.3320458984375,-0.9811553955078125,0.03594970703125,0.0070953369140625
1690840287844085800,11.342085693359374,-0.981689453125,0.0355377197265625,0.0077056884765625
1690840287854125800,11.352125732421875,-0.98138427734375,0.035003662109375,0.0061492919921875
1690840287864166700,11.362166748046874,-0.9807891845703125,0.035247802734375,0.0039215087890625
1690840287874237000,11.37223681640625,-0.9798583984375,0.03558349609375,0.004150390625
1690840287884277800,11.38227783203125,-0.9799957275390625,0.035736083984375,0.0037078857421875
1690840287894317800,11.39231787109375,-0.9806671142578125,0.0352325439453125,0.0045166015625
1690840287904358000,11.40235791015625,-0.9799346923828125,0.0352783203125,0.0053558349609375
1690840287914399000,11.41239892578125,-0.9815521240234375,0.035552978515625,0.0065765380859375
1690840287924438800,11.422438720703125,-0.9813385009765625,0.0355072021484375,0.0077667236328125
1690840287934478800,11.432478759765624,-0.9818878173828125,0.0352020263671875,0.0084381103515625
1690840287944519000,11.442518798828125,-0.9815521240234375,0.035858154296875,0.0081634521484375
1690840287954559700,11.452559814453124,-0.9809417724609375,0.03631591796875,0.0081024169921875
1690840287964599800,11.462599853515625,-0.980377197265625,0.0358734130859375,0.006683349609375
1690840287974639900,11.472639892578124,-0.9810638427734375,0.0360107421875,0.00567626953125
1690840287984681000,11.482680908203125,-0.9804534912109375,0.0363311767578125,0.0052947998046875
1690840287994720800,11.492720703125,-0.9792327880859375,0.0364227294921875,0.004150390625
1690840288004760800,11.5027607421875,-0.97979736328125,0.036468505859375,0.0041351318359375
1690840288014831900,11.512831787109375,-0.980072021484375,0.036773681640625,0.004730224609375
1690840288024872000,11.522871826171874,-0.9801483154296875,0.0359954833984375,0.005523681640625
1690840288034912800,11.532912841796875,-0.9820556640625,0.035980224609375,0.0074310302734375
1690840288044952800,11.542952880859374,-0.9811859130859375,0.0361480712890625,0.008575439453125
1690840288054993000,11.552992919921875,-0.9814605712890625,0.03558349609375,0.00836181640625
1690840288065032700,11.56303271484375,-0.98089599609375,0.0352020263671875,0.0073394775390625
1690840288075073800,11.57307373046875,-0.98150634765625,0.0359954833984375,0.00616455078125
1690840288085113900,11.58311376953125,-0.9812774658203125,0.035400390625,0.00616455078125
1690840288095154000,11.59315380859375,-0.981201171875,0.035308837890625,0.0052947998046875
1690840288105194800,11.60319482421875,-0.981658935546875,0.035858154296875,0.0050506591796875
1690840288115234800,11.61323486328125,-0.9816131591796875,0.036102294921875,0.0048370361328125
1690840288125275000,11.62327490234375,-0.9805755615234375,0.0360107421875,0.005035400390625
1690840288135314700,11.633314697265625,-0.97979736328125,0.0359954833984375,0.005340576171875
1690840288145355800,11.643355712890624,-0.9820556640625,0.0353851318359375,0.0067138671875
1690840288155425800,11.65342578125,-0.9813079833984375,0.035888671875,0.0075836181640625
1690840288165467000,11.663466796875,-0.9807281494140625,0.035430908203125,0.0068206787109375
1690840288175507000,11.6735068359375,-0.98193359375,0.0351715087890625,0.006866455078125
1690840288185546800,11.683546630859375,-0.981903076171875,0.034942626953125,0.006988525390625
1690840288195587800,11.693587890625,-0.9813690185546875,0.0356597900390625,0.0064849853515625
1690840288205627600,11.703627685546875,-0.9811553955078125,0.035919189453125,0.0058135986328125
1690840288215667700,11.713667724609374,-0.9805145263671875,0.03607177734375,0.0056915283203125
1690840288225707800,11.723707763671875,-0.981048583984375,0.0359954833984375,0.0054931640625
1690840288235748900,11.733748779296874,-0.9806060791015625,0.036590576171875,0.005218505859375
1690840288245789000,11.743788818359375,-0.9817657470703125,0.0355682373046875,0.0059661865234375
1690840288255828700,11.753828857421874,-0.9803314208984375,0.0354156494140625,0.006011962890625
1690840288265869800,11.763869873046875,-0.9800262451171875,0.036407470703125,0.007476806640625
1690840288275910000,11.773909912109374,-0.981231689453125,0.036163330078125,0.00726318359375
1690840288285949700,11.78394970703125,-0.981842041015625,0.0350799560546875,0.006927490234375
1690840288296020700,11.794020751953125,-0.9820709228515625,0.0356292724609375,0.00732421875
1690840288306060800,11.804060791015624,-0.9814300537109375,0.035491943359375,0.006195068359375
1690840288316102000,11.814101806640625,-0.9816436767578125,0.035308837890625,0.006744384765625
1690840288326142000,11.824141845703124,-0.980438232421875,0.0351104736328125,0.00640869140625
1690840288336181800,11.834181640625,-0.981048583984375,0.034820556640625,0.0060882568359375
1690840288346223000,11.84422314453125,-0.980499267578125,0.035186767578125,0.005950927734375
1690840288356264200,11.85426416015625,-0.9794769287109375,0.036376953125,0.005035400390625
1690840288366304300,11.86430419921875,-0.9800567626953125,0.0356597900390625,0.005889892578125
1690840288376344300,11.87434423828125,-0.9810333251953125,0.03509521484375,0.0071563720703125
1690840288386384100,11.884384033203125,-0.9808197021484375,0.0356597900390625,0.0074005126953125
1690840288396425200,11.89442529296875,-0.981475830078125,0.035308837890625,0.007568359375
1690840288406465000,11.904465087890625,-0.9811859130859375,0.036346435546875,0.0077362060546875
1690840288416505000,11.914505126953125,-0.9810791015625,0.0361328125,0.0073394775390625
1690840288426546200,11.924546142578125,-0.9821319580078125,0.0364227294921875,0.0074615478515625
1690840288436616200,11.9346162109375,-0.981719970703125,0.0358428955078125,0.00738525390625
1690840288446657300,11.9446572265625,-0.9810943603515625,0.0361328125,0.0058135986328125
1690840288456697300,11.954697265625,-0.9805908203125,0.0360565185546875,0.005645751953125
1690840288466737200,11.964737060546875,-0.9814910888671875,0.035797119140625,0.005645751953125
1690840288476778000,11.974778076171875,-0.98126220703125,0.0351715087890625,0.00592041015625
1690840288486818000,11.984818115234376,-0.9816741943359375,0.036102294921875,0.0057830810546875
1690840288496858000,11.994858154296875,-0.981109619140625,0.03631591796875,0.0063934326171875
1690840288506898200,12.004898193359375,-0.9810943603515625,0.035614013671875,0.006561279296875
1690840288516939300,12.014939208984375,-0.9810943603515625,0.0352630615234375,0.0068206787109375
1690840288526979300,12.024979248046876,-0.9801177978515625,0.03582763671875,0.0065460205078125
1690840288537019100,12.03501904296875,-0.98150634765625,0.036041259765625,0.0072784423828125
1690840288547060000,12.04506005859375,-0.98126220703125,0.035797119140625,0.0069732666015625
1690840288557100000,12.05510009765625,-0.9806671142578125,0.03570556640625,0.00616455078125
1690840288567140000,12.06514013671875,-0.980926513671875,0.0359954833984375,0.006256103515625
1690840288577211100,12.075211181640626,-0.981475830078125,0.0352020263671875,0.0058441162109375
1690840288587251200,12.085251220703125,-0.98089599609375,0.0351715087890625,0.005828857421875
1690840288597291300,12.095291259765625,-0.9799652099609375,0.0356903076171875,0.0056610107421875
1690840288607332400,12.105332275390625,-0.9811859130859375,0.03656005859375,0.00579833984375
1690840288617372200,12.1153720703125,-0.98138427734375,0.036102294921875,0.0067138671875
1690840288627412000,12.125411865234375,-0.980712890625,0.0360565185546875,0.0070953369140625
1690840288637453000,12.135453125,-0.9819488525390625,0.0361480712890625,0.006927490234375
1690840288647493000,12.1454931640625,-0.981536865234375,0.0361175537109375,0.0066070556640625
1690840288657533200,12.155533203125,-0.9820556640625,0.0354461669921875,0.0061798095703125
1690840288667573200,12.1655732421875,-0.9813079833984375,0.0354461669921875,0.006103515625
1690840288677614300,12.1756142578125,-0.9808197021484375,0.0352325439453125,0.00592041015625
1690840288687654100,12.185654052734375,-0.9813079833984375,0.035797119140625,0.0065460205078125
1690840288697694000,12.19569384765625,-0.98095703125,0.035186767578125,0.0060272216796875
1690840288707735000,12.205735107421875,-0.9807586669921875,0.035980224609375,0.006500244140625
1690840288717805000,12.21580517578125,-0.98052978515625,0.0360565185546875,0.0064849853515625
1690840288727846100,12.22584619140625,-0.9809112548828125,0.0366668701171875,0.006378173828125
1690840288737886200,12.23588623046875,-0.9819488525390625,0.0366058349609375,0.00677490234375
1690840288747926300,12.24592626953125,-0.98193359375,0.036712646484375,0.0066070556640625
1690840288757967400,12.25596728515625,-0.980712890625,0.0357513427734375,0.006134033203125
1690840288768007200,12.266007080078126,-0.9807281494140625,0.0353851318359375,0.007080078125
1690840288778047000,12.276046875,-0.9805755615234375,0.0354461669921875,0.007049560546875
1690840288788087000,12.286087158203125,-0.9817047119140625,0.0364227294921875,0.006378173828125
1690840288798128000,12.296128173828125,-0.9813690185546875,0.036224365234375,0.005828857421875
1690840288808168200,12.306168212890626,-0.9805450439453125,0.036468505859375,0.00604248046875
1690840288818208300,12.316208251953125,-0.980133056640625,0.0364837646484375,0.0063323974609375
1690840288828249300,12.326249267578126,-0.98126220703125,0.0362701416015625,0.0058135986328125
1690840288838289000,12.336288818359375,-0.9814605712890625,0.0352783203125,0.005889892578125
1690840288848329000,12.346328857421875,-0.980926513671875,0.0358734130859375,0.006622314453125
1690840288858400000,12.35639990234375,-0.98162841796875,0.0360260009765625,0.0064544677734375
1690840288868440000,12.366440185546875,-0.98162841796875,0.0364837646484375,0.00701904296875
1690840288878480100,12.376480224609375,-0.981903076171875,0.0352020263671875,0.00689697265625
1690840288888521200,12.386521240234375,-0.9809722900390625,0.035186767578125,0.0062103271484375
1690840288898561300,12.396561279296876,-0.980865478515625,0.0367279052734375,0.0064239501953125
1690840288908601000,12.40660107421875,-0.9810791015625,0.03656005859375,0.006866455078125
1690840288918642000,12.416641845703126,-0.9804534912109375,0.0359344482421875,0.006866455078125
1690840288928682000,12.426681884765625,-0.980682373046875,0.0362396240234375,0.0061492919921875
1690840288938722000,12.43672216796875,-0.9799041748046875,0.0360260009765625,0.00714111328125
1690840288948762000,12.44676220703125,-0.9813690185546875,0.0352630615234375,0.006378173828125
1690840288958803200,12.45680322265625,-0.9810028076171875,0.035400390625,0.005767822265625
1690840288968843300,12.46684326171875,-0.9795989990234375,0.03564453125,0.0061492919921875
1690840288978883000,12.476883056640625,-0.9807891845703125,0.0350799560546875,0.0059661865234375
1690840288988924000,12.486923828125,-0.9815826416015625,0.035614013671875,0.006805419921875
1690840288998994200,12.496994140625,-0.9811248779296875,0.0353546142578125,0.00628662109375
1690840289009035000,12.507034912109376,-0.9815216064453125,0.0355377197265625,0.006591796875
1690840289019075000,12.517074951171875,-0.9817352294921875,0.036346435546875,0.0069580078125
1690840289029115100,12.527115234375,-0.9820556640625,0.0348663330078125,0.006378173828125
1690840289039155200,12.5371552734375,-0.9813995361328125,0.035736083984375,0.006195068359375
1690840289049196300,12.5471962890625,-0.9810943603515625,0.0360260009765625,0.006256103515625
1690840289059236000,12.557236083984375,-0.9805450439453125,0.0362548828125,0.0061187744140625
1690840289069276200,12.567276123046875,-0.9810028076171875,0.03564453125,0.0068511962890625
1690840289079317000,12.57731689453125,-0.9813079833984375,0.0356597900390625,0.00640869140625
1690840289089357000,12.587357177734376,-0.981536865234375,0.0361328125,0.0059661865234375
1690840289099397000,12.597397216796875,-0.980194091796875,0.03533935546875,0.007415771484375
1690840289109437200,12.607437255859375,-0.9807891845703125,0.03521728515625,0.0067138671875
1690840289119478300,12.617478271484375,-0.9808807373046875,0.0361480712890625,0.0064239501953125
1690840289129518000,12.62751806640625,-0.98089599609375,0.0364990234375,0.006317138671875
1690840289139589000,12.637589111328126,-0.9813232421875,0.0367279052734375,0.006622314453125
1690840289149629200,12.647629150390625,-0.9812469482421875,0.0363006591796875,0.005950927734375
1690840289159669200,12.657669189453125,-0.981414794921875,0.0357818603515625,0.0057525634765625
1690840289169710000,12.6677099609375,-0.980712890625,0.03582763671875,0.00701904296875
1690840289179750100,12.677750244140626,-0.9808349609375,0.0358428955078125,0.006591796875
1690840289189790200,12.687790283203125,-0.981597900390625,0.0357818603515625,0.0064544677734375
1690840289199831300,12.697831298828126,-0.9821319580078125,0.03643798828125,0.005279541015625
1690840289209871000,12.70787109375,-0.9805450439453125,0.0359344482421875,0.00653076171875
1690840289219911200,12.7179111328125,-0.9817962646484375,0.034912109375,0.006317138671875
1690840289229951200,12.727951171875,-0.9822998046875,0.0357818603515625,0.0069427490234375
1690840289239992000,12.737991943359376,-0.98101806640625,0.0362396240234375,0.0066986083984375
1690840289250032000,12.7480322265625,-0.9810333251953125,0.035980224609375,0.0066986083984375
1690840289260072200,12.758072265625,-0.9819793701171875,0.0359344482421875,0.00592041015625
1690840289270113300,12.76811328125,-0.9812774658203125,0.0352325439453125,0.0067901611328125
1690840289280183000,12.77818310546875,-0.9814910888671875,0.0366058349609375,0.0059967041015625
1690840289290224000,12.78822412109375,-0.981048583984375,0.0359954833984375,0.005859375
1690840289300264200,12.79826416015625,-0.9816436767578125,0.0365447998046875,0.006439208984375
1690840289310304300,12.80830419921875,-0.98187255859375,0.0366668701171875,0.0061187744140625
1690840289320344300,12.81834423828125,-0.9812164306640625,0.03582763671875,0.005767822265625
1690840289330385200,12.82838525390625,-0.9806671142578125,0.0368804931640625,0.0059814453125
1690840289340426500,12.838426513671875,-0.980804443359375,0.0359954833984375,0.00665283203125
1690840289350466600,12.848466552734376,-0.9805450439453125,0.035675048828125,0.0057830810546875
1690840289360507400,12.85850732421875,-0.9811248779296875,0.0362548828125,0.00579833984375
1690840289370547200,12.868547119140626,-0.9814605712890625,0.0363006591796875,0.006500244140625
1690840289380587300,12.878587158203125,-0.981414794921875,0.0359954833984375,0.006744384765625
1690840289390627300,12.88862744140625,-0.9810943603515625,0.03643798828125,0.0059356689453125
1690840289400668400,12.89866845703125,-0.982421875,0.03564453125,0.006866455078125
1690840289410708500,12.90870849609375,-0.982330322265625,0.0351715087890625,0.0065460205078125
1690840289420779500,12.918779541015626,-0.9808502197265625,0.03546142578125,0.0061187744140625
1690840289430819300,12.9288193359375,-0.9810638427734375,0.0366363525390625,0.00531005859375
1690840289440859400,12.938859375,-0.9815826416015625,0.036041259765625,0.006866455078125
1690840289450900200,12.948900146484375,-0.9813690185546875,0.0357208251953125,0.0066986083984375
1690840289460940300,12.958940185546876,-0.9811859130859375,0.0359954833984375,0.0071258544921875
1690840289470980400,12.96898046875,-0.980499267578125,0.036651611328125,0.0067596435546875
1690840289481021400,12.979021484375,-0.980682373046875,0.036376953125,0.0059051513671875
1690840289491061500,12.9890615234375,-0.980224609375,0.0360260009765625,0.00579833984375
1690840289501101600,12.9991015625,-0.98187255859375,0.0358734130859375,0.006011962890625
1690840289511141400,13.009141357421875,-0.980804443359375,0.035980224609375,0.005584716796875
1690840289521182200,13.01918212890625,-0.9804229736328125,0.0368499755859375,0.005767822265625
1690840289531222300,13.02922216796875,-0.9816131591796875,0.0368499755859375,0.00640869140625
1690840289541262300,13.039262451171876,-0.98162841796875,0.0352325439453125,0.006256103515625
1690840289551302400,13.049302490234375,-0.9815826416015625,0.0359954833984375,0.0067901611328125
1690840289561373400,13.05937353515625,-0.980499267578125,0.036407470703125,0.006683349609375
1690840289571414500,13.06941455078125,-0.9815521240234375,0.035247802734375,0.006317138671875
1690840289581454300,13.079454345703125,-0.9814605712890625,0.035247802734375,0.00665283203125
