time,seconds_elapsed,z,y,x
1690840276709087500,0.20708740234375,0.0011674694251269102,-0.0021906669717282057,-0.05792035162448883
1690840276719128300,0.21712841796875,0.0012609462719410658,-0.002526757540181279,-0.04479736089706421
1690840276729168100,0.227168212890625,0.00042783329263329506,-0.0026192418299615383,-0.029345648363232613
1690840276739208200,0.237208251953125,0.0007498092018067837,-0.0011534378863871098,-0.012997834011912346
1690840276749248300,0.247248291015625,0.00044873543083667755,0.0009122705087065697,0.003657279536128044
1690840276759289300,0.257289306640625,0.0015590072143822908,0.0026068398728966713,0.018168311566114426
1690840276769329400,0.267329345703125,-0.0004764338955283165,0.002341680461540818,0.030643628910183907
1690840276779400400,0.277400390625,0.00006365543231368065,0.0006830637576058507,0.04313092678785324
1690840276789440300,0.287440185546875,-0.0002412223257124424,0.0036184918135404587,0.051846668124198914
1690840276799480300,0.297480224609375,0.0000397413969039917,-0.003411188255995512,0.05487361550331116
1690840276809521200,0.307521240234375,-0.0008452399633824825,-0.0006125608924776316,0.055501315742731094
1690840276819561200,0.317561279296875,-0.0003411038778722286,-0.0016972662415355444,0.0510098971426487
1690840276829601300,0.327601318359375,0.0020498542580753565,0.000523362890817225,0.043819621205329895
1690840276839642400,0.337642333984375,0.0001403680071234703,-0.0005498910322785378,0.035090845078229904
1690840276849682400,0.347682373046875,0.000515395775437355,0.0006414367817342281,0.02402728609740734
1690840276859722200,0.35772216796875,-0.00043029244989156723,-0.00017215893603861332,0.009645950049161911
1690840276869762300,0.36776220703125,0.0005956124514341354,0.0009121097391471267,-0.0028607789427042007
1690840276879803100,0.37780322265625,0.00018868129700422287,0.0019494110019877553,-0.015642089769244194
1690840276889843200,0.38784326171875,0.0006123078055679798,0.0003437803825363517,-0.026314720511436462
1690840276899883300,0.39788330078125,0.001255461247637868,-0.0006357303354889154,-0.03435507044196129
1690840276909924400,0.40792431640625,0.001043079886585474,0.002086134161800146,-0.03969921916723251
1690840276919994400,0.417994384765625,-0.0004030168056488037,0.0017580327112227678,-0.041991934180259705
1690840276930035500,0.428035400390625,0.00030398275703191757,0.001742660184390843,-0.03925847262144089
1690840276940075300,0.4380751953125,0.00018760282546281815,0.0003844480961561203,-0.03620462492108345
1690840276950115300,0.448115234375,-0.0002471054904162884,0.000861290842294693,-0.031744904816150665
1690840276960155100,0.458155029296875,0.0009577088057994843,0.0009081625612452626,-0.02219134382903576
1690840276970196200,0.4681962890625,0.0022463537752628326,-0.00024375971406698227,-0.016438642516732216
1690840276980236300,0.478236328125,-0.00020828191190958023,0.002252687467262149,-0.005641123279929161
1690840276990276400,0.4882763671875,-0.0016232333146035671,-0.00012907269410789013,0.004822970367968082
1690840277000317400,0.4983173828125,0.0010468519758433104,0.0007026325911283493,0.013213792815804482
1690840277010357200,0.508357177734375,-0.00006257742643356323,-0.0015621036291122437,0.018044227734208107
1690840277020397300,0.518397216796875,0.0003153248690068722,0.0025844380725175142,0.02709072083234787
1690840277030437000,0.52843701171875,0.0010597375221550465,-0.001573182176798582,0.028059832751750946
1690840277040478200,0.538478271484375,0.0006269738078117371,-0.00018434366211295128,0.03212994337081909
1690840277050518300,0.548518310546875,0.0002838564105331898,0.000252558384090662,0.028930705040693283
1690840277060589300,0.55858935546875,-0.0004375940188765526,-0.0012729002628475428,0.026882732287049294
1690840277070629400,0.56862939453125,0.00039174268022179604,-0.0011355611495673656,0.021214723587036133
1690840277080669200,0.578669189453125,0.0007249042391777039,0.0002892301417887211,0.015374677255749702
1690840277090710300,0.588710205078125,0.0007710806094110012,0.00014820822980254889,0.007718334905803204
1690840277100750000,0.59875,0.001015026355162263,0.0002715126611292362,0.0015762858092784882
1690840277110790100,0.6087900390625,0.0008753878064453602,-0.0004084224347025156,-0.006470169872045517
1690840277120830200,0.618830322265625,-0.0007968111895024776,-0.0006086919456720352,-0.01196213997900486
1690840277130871300,0.628871337890625,-0.000654950737953186,-0.0009058304131031036,-0.01841050200164318
1690840277140911400,0.638911376953125,0.000048123765736818314,0.0009155053412541747,-0.021434253081679344
1690840277150951200,0.648951171875,0.0008445689454674721,0.0011401427909731865,-0.020147912204265594
1690840277160992300,0.6589921875,-0.00034506479278206825,0.002032301854342222,-0.023044101893901825
1690840277171032000,0.669031982421875,0.0003842306323349476,-0.0020082849077880383,-0.022232675924897194
1690840277181072100,0.679072021484375,-0.00004294048994779587,0.0005185224581509829,-0.019183089956641197
1690840277191112200,0.6891123046875,0.0001945975236594677,-0.0004911762662231922,-0.013422666117548943
1690840277201183200,0.699183349609375,0.00105959246866405,-0.002537016524001956,-0.010047376155853271
1690840277211224300,0.709224365234375,0.0006313254125416279,-0.0003070770762860775,-0.005093619227409363
1690840277221264400,0.719264404296875,-0.0005383351817727089,-0.0004642035346478224,0.0007110070437192917
1690840277231304200,0.72930419921875,0.0006805607117712498,-0.00033155851997435093,0.005353944376111031
1690840277241344300,0.73934423828125,0.00008694222196936607,0.0005861667450517416,0.009208337403833866
1690840277251385000,0.749385009765625,-0.0009503844194114208,0.0012835138477385044,0.013714442029595375
1690840277261425200,0.759425048828125,0.0011322074569761753,-0.0004368883091956377,0.015997303649783134
1690840277271465200,0.76946533203125,-0.0007951231673359871,-0.0005715473089367151,0.017266293987631798
1690840277281506300,0.77950634765625,-0.0006920588202774525,0.0036176051944494247,0.017613571137189865
1690840277291546400,0.78954638671875,0.0020568000618368387,-0.00013264641165733337,0.016265923157334328
1690840277301586200,0.799586181640625,0.00022561056539416313,0.0004910659044981003,0.012750017456710339
1690840277311626200,0.809626220703125,-0.0005699070170521736,-0.0013085724785923958,0.009616238996386528
1690840277321667000,0.8196669921875,0.00040108151733875275,-0.0003351871855556965,0.004528801888227463
1690840277331710200,0.829710205078125,0.00008252030238509178,0.001311390777118504,-0.0004954654723405838
1690840277341781000,0.839781005859375,0.0009717498905956745,0.0034485775977373123,-0.002360742539167404
1690840277351821000,0.849821044921875,0.00040942104533314705,0.003542711492627859,-0.003976516425609589
1690840277361860900,0.85986083984375,0.00011860392987728119,0.0019040683982893825,-0.009184328839182854
1690840277371902000,0.86990185546875,-0.0026073711924254894,-0.002997408853843808,-0.010644521564245224
1690840277381942000,0.87994189453125,-0.0002744421362876892,-0.004519139416515827,-0.013974271714687347
1690840277391982000,0.889982177734375,-0.00022041751071810722,-0.004111309535801411,-0.013274669647216797
1690840277402022100,0.900022216796875,-0.0018726424314081669,-0.0014462845865637064,-0.013119138777256012
1690840277412063200,0.910063232421875,0.0022726852912455797,0.0076956721022725105,-0.009370513260364532
1690840277422103000,0.92010302734375,0.0003248495049774647,0.009479723870754242,-0.010184641927480698
1690840277432142800,0.930142822265625,-0.0017163939774036407,0.01058929692953825,-0.008797146379947662
1690840277442184000,0.940183837890625,0.00019602198153734207,0.005402524024248123,-0.006420807912945747
1690840277452224000,0.95022412109375,-0.0016520693898200989,-0.003777134697884321,-0.004012146964669228
1690840277462264000,0.96026416015625,0.0013522426597774029,-0.005750270560383797,0.004512898623943329
1690840277472304000,0.97030419921875,0.0008602323941886425,-0.00871502049267292,0.009231696836650372
1690840277482375000,0.980375,0.00036674831062555313,-0.009327813982963562,0.015052035450935364
1690840277492416000,0.990416015625,-0.000572368036955595,-0.008326294831931591,0.017325852066278458
1690840277502456000,1.0004560546875,-0.0007742354646325111,-0.005721990019083023,0.014543913304805756
1690840277512495900,1.010495849609375,-0.00020031817257404327,0.00513697974383831,0.01434282585978508
1690840277522536000,1.020535888671875,0.0006646765395998955,0.01148542296141386,0.009845546446740627
1690840277532577000,1.030576904296875,0.0007350421510636806,0.014780208468437195,0.005043225362896919
1690840277542617000,1.0406171875,0.002110831206664443,0.015458249486982822,0.001026911661028862
1690840277552657000,1.050656982421875,-0.0007332884706556797,0.006560296751558781,-0.001200048252940178
1690840277562698000,1.060697998046875,0.0006872415542602539,-0.005668939091265202,-0.0034837089478969574
1690840277572738000,1.070738037109375,-0.0008379686623811722,-0.017749005928635597,-0.0054599810391664505
1690840277582777900,1.08077783203125,-0.0009671319276094437,-0.02407774329185486,-0.008003566414117813
1690840277592818000,1.09081787109375,-0.001511331181973219,-0.018773987889289856,-0.00768689252436161
1690840277602859000,1.10085888671875,-0.0016253143548965454,-0.007220128085464239,-0.007479432970285416
1690840277612899000,1.110899169921875,-0.0008150516077876091,0.007930958643555641,-0.007024843245744705
1690840277622970000,1.12097021484375,0.0008536851964890957,0.02357703074812889,-0.007209135219454765
1690840277633010000,1.131010009765625,0.0008871862664818764,0.027814682573080063,-0.00658918172121048
1690840277643050000,1.141050048828125,0.0031756404787302017,0.018908007070422173,-0.009082967415452003
1690840277653091000,1.151091064453125,0.0008848621509969234,0.006292204838246107,-0.009675107896327972
1690840277663131000,1.161130859375,0.0008052336052060127,-0.010560544207692146,-0.006797561421990395
1690840277673171000,1.1711708984375,0.0004422096535563469,-0.023382924497127533,-0.0005917232483625412
1690840277683211000,1.1812109375,0.00011597247794270515,-0.02618536911904812,0.0019409433007240295
1690840277693252000,1.191252197265625,-0.00018740259110927582,-0.022102704271674156,0.005462761037051678
1690840277703292000,1.2012919921875,-0.0013381545431911945,-0.007642004638910294,0.01134488545358181
1690840277713332000,1.21133203125,-0.0018720561638474464,0.007662678137421608,0.011045416817069054
1690840277723373000,1.221373046875,0.0008318512700498104,0.019311077892780304,0.007732178084552288
1690840277733412900,1.231412841796875,0.0005581188015639782,0.026560936123132706,0.004858069121837616
1690840277743453000,1.241452880859375,0.0025525600649416447,0.02581791579723358,0.003149118274450302
1690840277753493000,1.251492919921875,0.002284073969349265,0.015174126252532005,0.0020240582525730133
1690840277763564000,1.26156396484375,0.002703788224607706,-0.00019684014841914177,0.0017241854220628738
1690840277773603800,1.271603759765625,0.0015879126731306314,-0.014553743414580822,-0.001223791390657425
1690840277783645000,1.28164501953125,-0.0017540883272886276,-0.02510625123977661,-0.0010197944939136505
1690840277793685000,1.29168505859375,-0.00276217982172966,-0.027723975479602814,0.00008756294846534729
1690840277803725000,1.30172509765625,-0.005217348225414753,-0.021218404173851013,-0.0014317706227302551
1690840277813766000,1.311765869140625,-0.003846901934593916,-0.006959673948585987,-0.0013268310576677322
1690840277823806000,1.321805908203125,0.0011960600968450308,0.010557001456618309,-0.0033886488527059555
1690840277833846000,1.331845947265625,0.0015503966715186834,0.02545846253633499,-0.007145950570702553
1690840277843885800,1.3418857421875,0.004418887197971344,0.03206896036863327,-0.007332906126976013
1690840277853927000,1.351927001953125,0.005093562416732311,0.025553327053785324,-0.00894264504313469
1690840277863967000,1.361967041015625,0.0032557151280343533,0.011604487895965576,-0.008070193231105804
1690840277874007000,1.372007080078125,-0.0008454686030745506,-0.008441155776381493,-0.0068750325590372086
1690840277884048000,1.3820478515625,0.00006985990330576897,-0.021710621193051338,-0.0014760065823793411
1690840277894088000,1.392087890625,-0.004149803426116705,-0.031002227216959,0.0006410535424947739
1690840277904159000,1.402158935546875,-0.0034009222872555256,-0.02553688921034336,0.0024674497544765472
1690840277914199000,1.412198974609375,-0.0011161565780639648,-0.010695671662688255,0.006149284541606903
1690840277924238800,1.42223876953125,0.0010021214839071035,0.005164251662790775,0.0054286327213048935
1690840277934280000,1.432280029296875,0.002381865167990327,0.01820819452404976,0.003142295405268669
1690840277944320000,1.442320068359375,0.004162188619375229,0.027857093140482903,0.0040464382618665695
1690840277954360000,1.452360107421875,0.0030349302105605602,0.022342007607221603,0.0023127179592847824
1690840277964400000,1.462400146484375,0.0017888371367007494,0.012651298195123672,-0.000560833141207695
1690840277974441000,1.47244091796875,0.00030621420592069626,0.0009667255217209458,0.0014200154691934586
1690840277984481000,1.48248095703125,-0.0029316567815840244,-0.012102204374969006,-0.0004298165440559387
1690840277994520800,1.492520751953125,-0.0021218229085206985,-0.020405607298016548,0.002475183457136154
1690840278004562000,1.50256201171875,-0.001160155050456524,-0.01710142381489277,0.002049878239631653
1690840278014602000,1.51260205078125,-0.0013112043961882591,-0.015266003087162971,0.002345586195588112
1690840278024642000,1.52264208984375,-0.0014230571687221527,-0.004925214219838381,0.0013809893280267715
1690840278034682000,1.53268212890625,-0.00018690293654799461,0.00402676360681653,-0.001935640349984169
1690840278044723000,1.542722900390625,0.000673564150929451,0.014014416374266148,-0.005616128444671631
1690840278054793200,1.552793212890625,0.0025492627173662186,0.01744583435356617,-0.004040364176034927
1690840278064834000,1.562833984375,0.003127168631181121,0.014657239429652691,-0.0091690793633461
1690840278074873900,1.572873779296875,0.0021374705247581005,0.009796037338674068,-0.006395876407623291
1690840278084914000,1.582913818359375,-0.0008362154476344585,-0.0024787383154034615,-0.00542541965842247
1690840278094955000,1.592955078125,-0.0018776590004563332,-0.011424126103520393,-0.0017346423119306564
1690840278104995000,1.6029951171875,-0.0018014921806752682,-0.014436427503824234,0.0012792572379112244
1690840278115035100,1.61303515625,-0.0015014223754405975,-0.011904696002602577,0.0028186198323965073
1690840278125075200,1.6230751953125,-0.0009544091299176216,-0.005893941968679428,0.004149667918682098
1690840278135116000,1.633115966796875,0.000672715250402689,-0.0009954595007002354,0.0016255788505077362
1690840278145155800,1.64315576171875,0.00106206932105124,0.006861664354801178,0.0016644597053527832
1690840278155196000,1.65319580078125,0.0020805122330784798,0.012507333420217037,0.0015951786190271378
1690840278165237000,1.663237060546875,0.0002836775965988636,0.01198029424995184,-0.000703928992152214
1690840278175277000,1.673277099609375,0.003113536164164543,0.00941503793001175,-0.00032122060656547546
1690840278185317000,1.683317138671875,-0.0006612283177673817,0.003235705429688096,-0.0006405338644981384
1690840278195388200,1.69338818359375,-0.0004417030140757561,-0.004761324264109135,0.000815095379948616
1690840278205428200,1.70342822265625,-0.0016494463197886944,-0.010191509500145912,0.0028801094740629196
1690840278215469000,1.713468994140625,-0.0014039678499102592,-0.010921825654804707,0.0037962812930345535
1690840278225508900,1.7235087890625,-0.00028304336592555046,-0.011194267310202122,0.004458077251911163
1690840278235549000,1.733548828125,0.0007599531672894955,-0.005958417430520058,0.0034486502408981323
1690840278245589000,1.743589111328125,0.0011240073945373297,0.000576713471673429,0.0015239845961332321
1690840278255630000,1.753630126953125,0.0028678111266344786,0.007216037251055241,-0.0029349159449338913
1690840278265670100,1.763670166015625,0.0014765758533030748,0.012763934209942818,-0.005204461514949799
1690840278275710200,1.773710205078125,0.002321811392903328,0.012816096656024456,-0.005792178213596344
1690840278285750000,1.78375,0.0005366946570575237,0.0049661630764603615,-0.004599083214998245
1690840278295790800,1.793790771484375,0.000130433589220047,0.0030969015788286924,-0.002378661185503006
1690840278305831000,1.803830810546875,-0.0003737029619514942,-0.0036544781178236008,-0.00024147331714630127
1690840278315871000,1.81387109375,-0.0009720446541905403,-0.010580150410532951,0.0021715518087148666
1690840278325912000,1.823912109375,0.0018080291338264942,-0.010728488676249981,0.0030200351029634476
1690840278335977000,1.83397705078125,-0.000015791039913892746,-0.009128440171480179,0.005029471591114998
1690840278346017800,1.844017822265625,-0.00029355892911553383,-0.002307818504050374,0.001918099820613861
1690840278356057900,1.854057861328125,0.000980643555521965,0.0037592181470245123,0.00009340792894363403
1690840278366098000,1.864097900390625,0.001367867225781083,0.009879961609840393,-0.004623850807547569
1690840278376139000,1.874138916015625,0.0008745207451283932,0.009361987933516502,-0.0054897647351026535
1690840278386179000,1.884178955078125,0.000662799458950758,0.011286919936537743,-0.002354959025979042
1690840278396219000,1.894218994140625,0.0008223513141274452,0.008225535973906517,0.0025278832763433456
1690840278406259000,1.904259033203125,-0.0008250800892710686,0.0020225008483976126,0.0014194753021001816
1690840278416299800,1.9142998046875,0.000028365757316350937,-0.005127614364027977,0.0036446768790483475
1690840278426339800,1.92433984375,-0.00033089471980929375,-0.012155963107943535,0.004597289487719536
1690840278436380000,1.9343798828125,0.0009947922080755234,-0.015772202983498573,0.0012145694345235825
1690840278446421000,1.9444208984375,0.0008706888183951378,-0.00930844433605671,-0.0009324699640274048
1690840278456461000,1.9544609375,0.0021969948429614305,-0.0021338516380637884,-0.0017106905579566956
1690840278466501000,1.964501220703125,0.0017083047423511744,0.006372285075485706,-0.003389814868569374
1690840278476572000,1.974572021484375,0.0007077036425471306,0.012269818224012852,-0.0038859155029058456
1690840278486612000,1.984612060546875,0.0005010422319173813,0.01521261129528284,-0.00547422468662262
1690840278496651800,1.99465185546875,-0.0008341451175510883,0.01048195082694292,-0.002408502623438835
1690840278506692900,2.00469287109375,-0.0002858005464076996,0.0049510980024933815,-0.0028215590864419937
1690840278516733000,2.01473291015625,0.0005219061858952045,0.0010754824616014957,0.0017555132508277893
1690840278526773000,2.02477294921875,0.0004361523315310478,-0.004728610627353191,0.003608008846640587
1690840278536814000,2.03481396484375,-0.0006372677162289619,-0.010298379696905613,0.004789373837411404
1690840278546854000,2.04485400390625,0.0002967030741274357,-0.012736503966152668,0.00467432476580143
1690840278556894000,2.05489404296875,-0.0012239692732691765,-0.009632701985538006,0.0018261577934026718
1690840278566933800,2.064933837890625,-0.001164581160992384,-0.008412442170083523,-0.0009730905294418335
1690840278576974800,2.074974853515625,-0.0016457932069897652,0.0008071555057540536,-0.002811204642057419
1690840278587015000,2.085014892578125,-0.00005215778946876526,0.00836494006216526,-0.005433086305856705
1690840278597055000,2.095054931640625,0.0017365044914186,0.016501784324645996,-0.004917340353131294
1690840278607096000,2.105095947265625,0.0024427748285233974,0.01905149407684803,-0.002159103751182556
1690840278617165800,2.115165771484375,0.002066425047814846,0.014265811070799828,0.0007132049649953842
1690840278627207000,2.12520703125,0.00033750105649232864,0.004758059047162533,0.0040541402995586395
1690840278637246700,2.135246826171875,-0.0004312228411436081,-0.006192482076585293,0.0034497883170843124
1690840278647286800,2.145286865234375,0.00005586957558989525,-0.015391838736832142,0.0018345825374126434
1690840278657327900,2.155327880859375,-0.0005467738956212997,-0.019149495288729668,0.0024226345121860504
1690840278667368000,2.165367919921875,-0.0027486756443977356,-0.013491609133780003,-0.0009465310722589493
1690840278677408000,2.175407958984375,0.0002657524310052395,-0.0035179194528609514,-0.002544870600104332
1690840278687447800,2.18544775390625,0.0012370075564831495,0.007740328088402748,-0.0022766906768083572
1690840278697489000,2.195489013671875,0.0018346360884606838,0.016157083213329315,-0.004733208566904068
1690840278707528700,2.20552880859375,0.0016159904189407825,0.018039673566818237,-0.003823205828666687
1690840278717568800,2.21556884765625,0.0016095596365630627,0.01299292128533125,-0.001393372192978859
1690840278727608800,2.22560888671875,0.00043537188321352005,0.007601617835462093,-0.0002759099006652832
1690840278737650000,2.23564990234375,0.0009554133284837008,-0.0011623306199908257,0.0032265428453683853
1690840278747690000,2.24568994140625,0.0008715237490832806,-0.008449005894362926,0.005245485343039036
1690840278757760800,2.2557607421875,0.00032037682831287384,-0.01658930629491806,0.004482641816139221
1690840278767800800,2.26580078125,-0.0014948337338864803,-0.014528819359838963,0.0033790282905101776
1690840278777841000,2.2758408203125,-0.0002917689271271229,-0.00901460088789463,-0.000794481486082077
1690840278787881700,2.2858818359375,0.0004360731691122055,-0.00032603717409074306,-0.002689320594072342
1690840278797921800,2.295921875,0.00046140654012560844,0.00966847874224186,-0.003808462992310524
1690840278807961900,2.3059619140625,0.001157290767878294,0.012410469353199005,-0.002836676314473152
1690840278818003000,2.3160029296875,0.002955023664981127,0.012178751640021801,-0.0022449996322393417
1690840278828043000,2.32604296875,0.0016069314442574978,0.0043354760855436325,-0.0024029258638620377
1690840278838082800,2.336082763671875,0.002165457932278514,0.0005566775798797607,0.002236347645521164
1690840278848123000,2.346122802734375,-0.0003003631718456745,-0.004837554879486561,0.0034723207354545593
1690840278858163700,2.356163818359375,-0.00023316079750657082,-0.006876656785607338,0.0035486556589603424
1690840278868203800,2.366203857421875,-0.0016454351134598255,-0.006160799413919449,0.0016548819839954376
1690840278878243800,2.376243896484375,0.00003628944978117943,-0.004675049334764481,0.0013995617628097534
1690840278888285000,2.386284912109375,-0.00015359418466687202,-0.004243883304297924,-0.0043483395129442215
1690840278898354700,2.396354736328125,0.00019195303320884705,0.0013527771225199103,-0.004217388108372688
1690840278908395800,2.406395751953125,0.0017501686234027147,0.00036687497049570084,-0.003915386274456978
1690840278918435800,2.416435791015625,0.00033930642530322075,0.004092209041118622,-0.004139643162488937
1690840278928476000,2.426475830078125,0.0011246725916862488,0.0018911065999418497,-0.0007417164742946625
1690840278938516000,2.436515869140625,0.0010900956112891436,0.0034539271146059036,0.0014256220310926437
1690840278948556800,2.446556884765625,0.0013971580192446709,0.0019164843251928687,0.0019776951521635056
1690840278958596900,2.456596923828125,-0.00008765095844864845,-0.0003392309881746769,0.001906299963593483
1690840278968637000,2.466636962890625,0.00003698468208312988,-0.001957101281732321,0.002559574320912361
1690840278978678000,2.476677978515625,0.00039506983011960983,-0.003282309975475073,0.0006281137466430664
1690840278988717800,2.4867177734375,0.00003474391996860504,-0.0021451404318213463,0.0000355597585439682
1690840278998758000,2.4967578125,0.001401800662279129,-0.00009102420881390572,-0.001564864069223404
1690840279008798000,2.5067978515625,0.0031301924027502537,-0.0017693485133349895,-0.0032128281891345978
1690840279018838800,2.5168388671875,0.0010106770787388086,-0.0005640422459691763,-0.004392024129629135
1690840279028878800,2.52687890625,0.0004082699306309223,0.001239716773852706,0.00022110342979431152
1690840279038950000,2.536949951171875,0.0008377572521567345,0.0006486974889412522,0.001039993017911911
1690840279048989700,2.54698974609375,-0.00023017032071948051,0.0016079680062830448,0.001163562759757042
1690840279059029800,2.55702978515625,0.00022449996322393417,0.002287220675498247,0.0024330206215381622
1690840279069070800,2.56707080078125,0.0007302341982722282,0.002385225147008896,0.002353658899664879
1690840279079111000,2.57711083984375,0.0010137029457837343,0.0015301024541258812,0.002419261261820793
1690840279089151000,2.58715087890625,0.0032190666534006596,0.0018033427186310291,0.0005513187497854233
1690840279099191800,2.59719189453125,0.001291461754590273,0.00017384032253175974,-0.001205991953611374
1690840279109231900,2.60723193359375,0.001023814082145691,-0.0027921220753341913,-0.003187650814652443
1690840279119272000,2.61727197265625,-0.000683110672980547,-0.000728031387552619,-0.004732877016067505
1690840279129311700,2.627311767578125,0.0010388894006609917,-0.0015722534153610468,-0.0032351166009902954
1690840279139352800,2.637352783203125,-0.0009366199374198914,-0.0020748130045831203,-0.0009193141013383865
1690840279149393000,2.647392822265625,-0.00007002707570791245,0.0008261683396995068,0.0008285194635391235
1690840279159433000,2.657432861328125,0.00021097809076309204,0.0021358546800911427,0.0016196519136428833
1690840279169473800,2.667473876953125,-0.000540565699338913,0.0009835049277171493,0.001234559342265129
1690840279179544000,2.6775439453125,0.0008283667266368866,0.0010292631341144443,0.002516448497772217
1690840279189585000,2.6875849609375,0.0006515327841043472,0.0015485795447602868,0.00037473440170288086
1690840279199624700,2.697624755859375,0.0015370515175163746,0.0007299876306205988,0.0006655845791101456
1690840279209664800,2.707664794921875,-0.00015751784667372704,-0.0016407582443207502,-0.0017379187047481537
1690840279219704800,2.717704833984375,0.000988067826256156,0.001167811336927116,-0.001979466527700424
1690840279229746000,2.727745849609375,-0.0001720050349831581,-0.001975783845409751,-0.0014915764331817627
1690840279239786000,2.737785888671875,0.0015641986392438412,-0.00038134935311973095,-0.0008827783167362213
1690840279249826000,2.747825927734375,0.0010403548367321491,0.0008993647061288357,0.0009699836373329163
1690840279259867000,2.757866943359375,-0.0009240019135177135,0.00331528065726161,0.0012235306203365326
1690840279269907000,2.767906982421875,-0.00036713527515530586,0.0010736980475485325,-0.00015571899712085724
1690840279279946800,2.77794677734375,0.0012677444610744715,0.003438891377300024,-0.00025297142565250397
1690840279289986800,2.78798681640625,0.0000914260745048523,0.001043111551553011,0.0011627636849880219
1690840279300028000,2.79802783203125,0.0001874375157058239,0.00021255621686577797,-0.000708526000380516
1690840279310068000,2.80806787109375,0.001341385068371892,-0.00041248765774071217,-0.001492828130722046
1690840279320139000,2.818138916015625,0.0014101401902735233,-0.00006590480916202068,-0.0012432616204023361
1690840279330176500,2.828176513671875,0.00009560398757457733,-0.0027101575396955013,-0.002004127949476242
1690840279340216600,2.838216552734375,0.0019382706377655268,-0.0009872824884951115,-0.0017483364790678024
1690840279350257700,2.848257568359375,-0.0007097101770341396,-0.0003300141543149948,-0.00143435038626194
1690840279360297700,2.858297607421875,-0.0008005029521882534,0.00008946307934820652,-0.0004675034433603287
1690840279370337800,2.868337890625,0.0005220230668783188,0.0018865641904994845,0.0019192211329936981
1690840279380377600,2.878377685546875,-0.00022816238924860954,0.0005771222058683634,0.001226179301738739
1690840279390418400,2.88841845703125,0.0009327095467597246,0.002078346209600568,0.0000397413969039917
1690840279400458500,2.89845849609375,0.001095795538276434,0.0028401112649589777,0.000805385410785675
1690840279410498600,2.90849853515625,-0.0005657505244016647,-0.0017442540265619755,-0.00006413646042346954
1690840279420539600,2.91853955078125,-0.00047335121780633926,0.0009899738943204284,-0.0028809159994125366
1690840279430579700,2.928579833984375,0.000235049519687891,-0.0017291135154664516,-0.0007490552961826324
1690840279440619800,2.938619873046875,-0.00018975650891661644,-0.0010166533757001162,0.00005609355866909027
1690840279450659600,2.94865966796875,-0.0003543398343026638,0.0001202502753585577,-0.0008706860244274139
1690840279460730600,2.958730712890625,-0.0007595964707434177,0.0017519253306090832,-0.00045384466648101807
1690840279470771500,2.968771484375,-0.0009353654459118843,-0.0010973906610161066,0.0016583073884248734
1690840279480811500,2.9788115234375,-0.0009684846736490726,0.0034331572242081165,0.0028205495327711105
1690840279490851600,2.9888515625,-0.0010603638365864754,0.0045431628823280334,0.001938510686159134
1690840279500891600,2.9988916015625,-0.000295296311378479,0.0003094723215326667,0.0010041706264019012
1690840279510932700,3.0089326171875,-0.0006260611116886139,-0.0002196978311985731,0.0006491728127002716
1690840279520972800,3.018972900390625,-0.0012622312642633915,-0.0017943847924470901,0.001559453085064888
1690840279531012600,3.0290126953125,0.0007199598476290703,-0.0017275393474847078,-0.0018464643508195877
1690840279541053400,3.039053466796875,-0.0009471718221902847,-0.0008964801672846079,-0.0010624844580888748
1690840279551093500,3.049093505859375,0.0006440668366849422,0.0010199305834248662,-0.0018499810248613358
1690840279561133600,3.059133544921875,-0.0005479715764522552,-0.0009578862227499485,0.000444117933511734
1690840279571173600,3.069173583984375,0.0016563269309699535,0.000022423220798373222,0.0008862018585205078
1690840279581214700,3.079214599609375,0.00024674274027347565,0.003171410644426942,0.0006091166287660599
1690840279591254800,3.0892548828125,0.0019237350206822157,0.0008986688917502761,0.002489842474460602
1690840279601325600,3.09932568359375,0.0015468192286789417,0.0012761210091412067,0.0013666264712810516
1690840279611365600,3.10936572265625,-0.000952291302382946,-0.00134442956186831,-0.0014057233929634094
1690840279621405700,3.11940576171875,0.00021195830777287483,0.0004939342616125941,-0.0007392410188913345
1690840279631446500,3.129446533203125,-0.0010280096903443336,-0.0055658225901424885,0.0015121959149837494
1690840279641486600,3.139486572265625,0.00041604647412896156,-0.0018011643551290035,-0.0009094513952732086
1690840279651526700,3.149526611328125,0.0001230989582836628,-0.0019982384983450174,-0.002075647935271263
1690840279661566700,3.159566650390625,0.0008522891439497471,-0.0023838249035179615,-0.00005760602653026581
1690840279671607800,3.16960791015625,-0.0008020666427910328,-0.00007672840729355812,-0.0002501513808965683
1690840279681647600,3.179647705078125,-0.0010505644604563713,0.0018604362849146128,0.0010387822985649109
1690840279691687700,3.189687744140625,-0.00013736635446548462,0.002378687495365739,-0.000024883076548576355
1690840279701728500,3.199728515625,0.0007486613467335701,0.0013695573434233665,0.0013336576521396637
1690840279711768600,3.2097685546875,-0.00005587982013821602,0.0013178919907659292,0.0005078110843896866
1690840279721808600,3.21980859375,-0.0005744160152971745,-0.003870937507599592,-0.0010808724910020828
1690840279731848700,3.2298486328125,0.0003947080112993717,-0.0016080497298389673,0.0002624262124300003
1690840279741919500,3.23991943359375,-0.0004949620924890041,-0.0028523539658635855,-0.0019412524998188019
1690840279751960600,3.249960693359375,-0.0004121377132833004,0.00014103914145380259,-0.0022547058761119843
1690840279762000600,3.260000732421875,0.0005878955125808716,0.0007763495668768883,-0.00027062371373176575
1690840279772040700,3.270040771484375,-0.00004140939563512802,0.0030411016196012497,-0.0019201859831809998
1690840279782080800,3.280080810546875,0.00017714174464344978,0.0019180314848199487,-0.00031988881528377533
1690840279792121600,3.29012158203125,-0.000034845899790525436,0.0017561112763360143,0.0006377846002578735
1690840279802161700,3.30016162109375,0.0005987551994621754,0.0022539691999554634,0.0027017872780561447
1690840279812201700,3.31020166015625,-0.00038901157677173615,0.0006382294232025743,-0.00046471133828163147
1690840279822242800,3.320242919921875,-0.001154144760221243,0.002047543413937092,0.0009606741368770599
1690840279832282600,3.33028271484375,0.00046452460810542107,-0.0013154963962733746,-0.0003834236413240433
1690840279842322700,3.34032275390625,0.0015912237577140331,-0.003933991305530071,-0.0006798189133405685
1690840279852362800,3.35036279296875,0.00012914836406707764,-0.00015816162340342999,-0.0013690460473299026
1690840279862403600,3.360403564453125,-0.000721360556781292,-0.0006983128841966391,-0.00028673745691776276
1690840279872443600,3.370443603515625,-0.0009416039101779461,0.0002260702895000577,0.00025415048003196716
1690840279882514700,3.3805146484375,-0.001028506550937891,0.000648019602522254,0.0015748552978038788
1690840279892554500,3.390554443359375,-0.0007059979252517223,-0.00013734656386077404,-0.00023582763969898224
1690840279902594600,3.400594482421875,-0.00045172544196248055,0.0006924179615452886,0.0007232110947370529
1690840279912635600,3.4106357421875,-0.0005468004383146763,0.0009994803695008159,0.001413501799106598
1690840279922675700,3.42067578125,-0.000029220711439847946,0.0022622556425631046,0.00039347074925899506
1690840279932715800,3.4307158203125,0.000014455057680606842,0.000052364543080329895,-0.001270204782485962
1690840279942755600,3.440755615234375,-0.00029763113707304,-0.0014613973908126354,0.00003538839519023895
1690840279952796700,3.450796630859375,-0.0004997649230062962,-0.0008992040529847145,-0.0013619717210531235
1690840279962836700,3.460836669921875,0.000324019230902195,-0.0022292358335107565,-0.0009190253913402557
1690840279972876500,3.47087646484375,-0.0008144821040332317,0.00016760919243097305,0.0002807285636663437
1690840279982917600,3.480917724609375,-0.0006564920768141747,-0.0007132422178983688,-0.0017393678426742554
1690840279992957700,3.490957763671875,0.00009052455425262451,-0.0012517333962023258,-0.001194750890135765
1690840280002997800,3.500997802734375,-0.00026020733639597893,0.002245235489681363,-0.0015086978673934937
1690840280013037600,3.51103759765625,-0.001030393410474062,0.0010273719672113657,0.00004312582314014435
1690840280023108600,3.521108642578125,-0.00039966311305761337,0.0006602356443181634,-0.001707669347524643
1690840280033148400,3.5311484375,0.0012973030097782612,0.0011137720430269837,-0.00012095831334590912
1690840280043189500,3.541189453125,-0.00007284851744771004,-0.0000971965491771698,0.00029292143881320953
1690840280053229600,3.5512294921875,-0.0017482428811490536,0.0001283732708543539,-0.0012868661433458328
1690840280063269600,3.56126953125,0.00029134703800082207,0.000006534159183502197,-0.000014996156096458435
1690840280073310700,3.571310791015625,0.000045004766434431076,-0.004842283204197884,-0.0004695989191532135
1690840280083350800,3.581350830078125,0.0016479464247822762,-0.0006754356436431408,0.000945504754781723
1690840280093390600,3.591390625,0.001391483936458826,0.0011608137283474207,0.0009471029043197632
1690840280103430700,3.6014306640625,-0.0010336767882108688,0.0004280500579625368,0.001836828887462616
1690840280113471700,3.6114716796875,-0.002035291399806738,0.0010094180470332503,0.0010996665805578232
1690840280123511600,3.621511474609375,-0.0009428104385733604,0.001431530574336648,0.0014066342264413834
1690840280133551600,3.631551513671875,0.0009059559088200331,-0.00006170384585857391,-0.001317247748374939
1690840280143592700,3.6415927734375,-0.00015555508434772491,0.0006417932454496622,0.00018069706857204437
1690840280153632800,3.6516328125,-0.0008873916231095791,0.0011967960745096207,-0.0005197133868932724
1690840280163703800,3.661703857421875,0.0013334606774151325,-0.0024124393239617348,-0.0025496985763311386
1690840280173743600,3.67174365234375,-0.0009038611315190792,-0.0001855038572102785,-0.0023632775992155075
1690840280183783400,3.681783447265625,-0.00041681108996272087,-0.00019654794596135616,0.0009058192372322083
1690840280193824500,3.691824462890625,-0.0003478354774415493,0.0009725798154249787,0.00033430568873882294
1690840280203864600,3.701864501953125,0.0019262062851339579,0.0016962849767878652,0.0015601571649312973
1690840280213904600,3.711904541015625,0.0007048803381621838,0.0004480613861232996,-0.0012598633766174316
1690840280223944700,3.72194482421875,0.00042908918112516403,0.0005498968530446291,-0.00003952533006668091
1690840280233985500,3.731985595703125,0.00002801697701215744,0.0034942878410220146,0.0005607511848211288
1690840280244025600,3.742025634765625,-0.00015344144776463509,-0.001398877939209342,0.00007890351116657257
1690840280254065400,3.7520654296875,0.0018702945671975613,0.0011785292299464345,-0.0008697155863046646
1690840280264106500,3.7621064453125,0.0021031887736171484,0.0022130515426397324,-0.0023455433547496796
1690840280274146600,3.772146484375,-0.0017802328802645206,0.0000052908435463905334,-0.0008914563804864883
1690840280284186600,3.7821865234375,-0.0009760363027453423,0.00040414161048829556,0.0003545079380273819
1690840280294226700,3.792226806640625,-0.0005925414152443409,-0.00028588343411684036,0.00016595609486103058
1690840280304297700,3.802297607421875,0.000029646791517734528,0.0005799884675070643,0.0002873968333005905
1690840280314337800,3.812337890625,0.0002818484790623188,0.0023925357963889837,0.0005153641104698181
1690840280324378600,3.822378662109375,0.0008993071969598532,-0.000610370421782136,0.0021569635719060898
1690840280334403000,3.832403076171875,-0.001070899423211813,0.000793914427049458,0.0004392247647047043
1690840280344443100,3.842443115234375,0.00017900019884109497,0.0017176647670567036,-0.00010838359594345093
1690840280354484000,3.85248388671875,0.0020277665462344885,0.0018923681927844882,0.000356871634721756
1690840280364524000,3.86252392578125,-0.0005446677096188068,-0.00000840192660689354,-0.001236865296959877
1690840280374564000,3.872564208984375,0.001458828104659915,-0.0003743204288184643,-0.0033112019300460815
1690840280384604200,3.882604248046875,0.0002398565411567688,-0.0012665661051869392,-0.0010719504207372665
1690840280394645200,3.892645263671875,0.0006039110012352467,-0.0008364657405763865,-0.000325201079249382
1690840280404685000,3.90268505859375,0.0005522635765373707,-0.003468855284154415,-0.0013433825224637985
1690840280414725000,3.91272509765625,-0.00044082896783947945,-0.0016520468052476645,-0.00036200881004333496
1690840280424766000,3.922765869140625,0.0006015188992023468,0.0008749763946980238,-0.00034426525235176086
1690840280434806000,3.932805908203125,-0.002377759199589491,-0.0025652952026575804,-0.0012502726167440414
1690840280444877000,3.942876953125,0.0007231277413666248,-0.0009600387420505285,0.0010885726660490036
1690840280454917000,3.952917236328125,0.0005042161792516708,0.0013635691720992327,-0.000974312424659729
1690840280464957200,3.962957275390625,0.0008131549693644047,-0.003132089041173458,0.0008818693459033966
1690840280474998300,3.972998291015625,-0.00002041459083557129,0.0005095176165923476,0.0013242214918136597
1690840280485038000,3.9830380859375,0.000915241427719593,-0.00020683929324150085,0.0009522847831249237
1690840280495078100,3.993078125,-0.0010120882652699947,-0.0010731657966971397,0.0007959567010402679
1690840280505118200,4.0031181640625,-0.0006808699108660221,0.000011399621143937111,-0.0005402248352766037
1690840280515159000,4.013158935546875,-0.0010555768385529518,0.001748845912516117,0.0015815161168575287
1690840280525199000,4.02319921875,-0.00003391224890947342,-0.0005973735824227333,0.0005718767642974854
1690840280535239200,4.0332392578125,0.0005860719829797745,-0.0013800766319036484,0.0016701631247997284
1690840280545279000,4.043279052734375,0.00013279542326927185,0.0005522849969565868,0.00026177801191806793
1690840280555320000,4.053320068359375,-0.0007609613239765167,-0.0013164551928639412,-0.0010860469192266464
1690840280565360000,4.063360107421875,-0.000568639487028122,0.0008495309157297015,-0.0007144417613744736
1690840280575400200,4.073400146484375,0.0002516140230000019,0.001577106537297368,0.0007002279162406921
1690840280585471200,4.08347119140625,-0.0009467890486121178,-0.0015358701348304749,-0.0006196983158588409
1690840280595511300,4.09351123046875,-0.0009816763922572136,0.00020983198191970587,-0.0001781471073627472
1690840280605552000,4.10355224609375,0.00009033223614096642,-0.0013684562873095274,0.0014322884380817413
1690840280615592200,4.11359228515625,0.0008045919239521027,0.002732811728492379,-0.0013523120433092117
1690840280625632000,4.123632080078125,0.0007904474623501301,0.0013871487462893128,0.0016957297921180725
1690840280635673000,4.133673095703125,0.0008953760843724012,0.0015432100044563413,-0.00008592382073402405
1690840280645713200,4.143713134765625,0.0009177771862596273,-0.0017690693493932486,0.0013535786420106888
1690840280655753200,4.153753173828125,0.000972638139501214,-0.00009553879499435425,-0.00021875090897083282
1690840280665793300,4.163793212890625,-0.0010171839967370033,0.00039992271922528744,0.002255253493785858
1690840280675834000,4.173834228515625,-0.0003135767765343189,-0.0012443128507584333,-0.0020521432161331177
1690840280685874200,4.183874267578125,-0.00015078019350767136,-0.0015800229739397764,0.0028093773871660233
1690840280695914000,4.1939140625,0.0005562887527048588,0.0009340011747553945,0.0006868373602628708
1690840280705955000,4.203955078125,-0.00025867437943816185,0.0007838982855901122,0.0002320762723684311
1690840280715995100,4.2139951171875,0.0007464024238288403,0.0007191834738478065,-0.0010236036032438278
1690840280726066200,4.224066162109375,0.00022993003949522972,0.0004282825393602252,-0.001251446083188057
1690840280736106200,4.234106201171875,-0.0007660919800400734,-0.0005973009392619133,-0.00039390847086906433
1690840280746146300,4.244146240234375,-0.0003485693596303463,0.0003996575251221657,0.00011556409299373627
1690840280756186400,4.254186279296875,0.0004967181012034416,-0.0017822703812271357,-0.0008903127163648605
1690840280766227200,4.264227294921875,0.0008345022797584534,0.000036520883440971375,0.000006042420864105225
1690840280776267000,4.27426708984375,0.001576991518959403,-0.0009139613248407841,-0.0020432602614164352
1690840280786307000,4.28430712890625,0.0007859314791858196,-0.00005963491275906563,0.0006747711449861526
1690840280796348200,4.29434814453125,0.0004823310300707817,-0.00366768566891551,0.0007613245397806168
1690840280806388200,4.30438818359375,0.0008257755544036627,0.0016270512714982033,0.0005472805351018906
1690840280816428300,4.31442822265625,-0.00044162292033433914,0.0010438190074637532,-0.00041731633245944977
1690840280826468400,4.32446826171875,-0.0003273910842835903,0.0011597881093621254,0.00079377181828022
1690840280836509200,4.33450927734375,0.0008579818531870842,0.0016146560665220022,-0.0011961422860622406
1690840280846549000,4.344549072265625,-0.0010403995402157307,-0.00022568320855498314,0.0015910100191831589
1690840280856589000,4.354589111328125,0.0018360805697739124,-0.0024092087987810373,-0.0008220802992582321
1690840280866660000,4.36466015625,0.001994277350604534,-0.0003910721279680729,-0.00006074830889701843
1690840280876700200,4.3747001953125,0.0007375315763056278,-0.00021556974388659,-0.0004799291491508484
1690840280886741200,4.3847412109375,-0.0021484093740582466,-0.0015261315274983644,0.0009317975491285324
1690840280896781300,4.39478125,-0.0005968520417809486,-0.0007404990028589964,0.0017318110913038254
1690840280906821000,4.404821044921875,-0.0007915995083749294,-0.0008440804667770863,-0.00007051415741443634
1690840280916862200,4.4148623046875,-0.0008829459547996521,0.0012757957447320223,0.0016229897737503052
1690840280926902000,4.424902099609375,-0.00008431542664766312,0.0007555242627859116,0.001469634473323822
1690840280936942000,4.434942138671875,-0.0006132191047072411,-0.00002078711986541748,0.00019478052854537964
1690840280946982100,4.444982177734375,0.002024793764576316,0.0010990428272634745,0.0005100835114717484
1690840280957023200,4.455023193359375,-0.0008908351883292198,0.0007634845096617937,-0.0007139053195714951
1690840280967063300,4.465063232421875,0.0019235338550060987,0.0009202526416629553,-0.0022992733865976334
1690840280977103400,4.475103271484375,0.00016371719539165497,0.00016444746870547533,-0.00010642595589160919
1690840280987143000,4.485142822265625,-0.00007714005187153816,-0.0011046212166547775,0.0013645626604557037
1690840280997184000,4.49518408203125,-0.00018979143351316452,-0.0018681494984775782,-0.001896211877465248
1690840281007255000,4.505255126953125,0.0008659991435706615,0.0009581565391272306,0.0005018040537834167
1690840281017295000,4.515295166015625,-0.0006972765550017357,0.0024955994449555874,-0.000020442530512809753
1690840281027335200,4.525335205078125,0.0007317513227462769,-0.0002632101532071829,-0.00022195838391780853
1690840281037375200,4.535375244140625,0.00047928374260663986,0.0012129801325500011,-0.0013354253023862839
1690840281047416300,4.545416259765625,0.0009560799226164818,0.002345067448914051,0.000006509944796562195
1690840281057456000,4.5554560546875,0.0007779146544635296,-0.002035033656284213,-0.0005668681114912033
1690840281067496000,4.565495849609375,0.001187276327982545,0.0013906684471294284,0.00008771009743213654
1690840281077537000,4.575537109375,0.001993415178731084,0.0036937701515853405,0.0024978704750537872
1690840281087577000,4.5855771484375,0.0005540563724935055,-0.001449313247576356,0.0018104612827301025
1690840281097617200,4.5956171875,0.0015831019263714552,0.0012780301040038466,-0.0019419323652982712
1690840281107657200,4.6056572265625,-0.0006550392135977745,0.0008936042431741953,0.0002985019236803055
1690840281117698300,4.6156982421875,0.0011479209642857313,0.00020491075702011585,-0.0007249526679515839
1690840281127738000,4.625738037109375,0.00000212155282497406,-0.00047932378947734833,0.0014871004968881607
1690840281137778000,4.63577783203125,0.0003741653636097908,0.0004908657865598798,-0.00003969110548496246
1690840281147849000,4.645848876953125,0.00047540292143821716,-0.00004142988473176956,0.00001683644950389862
1690840281157889000,4.655888916015625,0.00027380185201764107,0.0016251764027401805,0.0011263079941272736
1690840281167930000,4.66593017578125,0.0010986158158630133,0.00033171812538057566,0.000708436593413353
1690840281177970200,4.67597021484375,0.001205142354592681,0.0004723330494016409,-0.0006684176623821259
1690840281188010200,4.68601025390625,-0.0007543871179223061,0.0006357659585773945,-0.0013166889548301697
1690840281198050000,4.696050048828125,-0.00000710412859916687,-0.0022287298925220966,0.0005595069378614426
1690840281208091100,4.706091064453125,0.0012495694682002068,-0.0000237335916608572,0.00016819126904010773
1690840281218131000,4.716130859375,-0.002005346119403839,0.001925966702401638,-0.0001415349543094635
1690840281228171000,4.7261708984375,-0.0008185170590877533,-0.0011891487520188093,0.00025206059217453003
1690840281238212000,4.736212158203125,0.0002467473968863487,0.0012676173355430365,0.001238495111465454
1690840281248252200,4.746252197265625,0.001425412716343999,0.00015588896349072456,0.001201564446091652
1690840281258292200,4.756292236328125,0.0018565785139799118,0.0007084949174895883,-0.00011297129094600677
1690840281268332300,4.766332275390625,0.0007733693346381187,0.0018792490009218454,-0.00016180984675884247
1690840281278373000,4.776373046875,0.002052751835435629,-0.000537569634616375,0.0007663015276193619
1690840281288444200,4.786444091796875,0.00023651449009776115,0.0009056106209754944,-0.00020316801965236664
1690840281298484000,4.79648388671875,0.00042799580842256546,-0.0018835179507732391,-0.0008167605847120285
1690840281308524000,4.80652392578125,-0.00044821156188845634,0.0014005308039486408,0.0017555858939886093
1690840281318564000,4.816564208984375,0.00017363671213388443,0.0017382196383550763,-0.0014450009912252426
1690840281328605200,4.826605224609375,0.0009033966343849897,-0.0014119131956249475,-0.001034427434206009
1690840281338627600,4.836627685546875,0.000015764962881803513,0.0002842540852725506,0.0010284576565027237
1690840281348667600,4.846667724609375,0.0002819262444972992,-0.0014857405330985785,0.00015706010162830353
1690840281358708700,4.856708740234375,0.00010882038623094559,0.002254402730613947,0.0018766634166240692
1690840281368748500,4.86674853515625,-0.001114516519010067,-0.0008702278137207031,-0.0002731587737798691
1690840281378788600,4.87678857421875,0.001974217826500535,0.003128242213279009,0.000615803524851799
1690840281388828400,4.886828369140625,-0.0013560629449784756,0.00008008675649762154,0.0005183517932891846
1690840281398869500,4.896869384765625,-0.0008005276322364807,-0.001257086405530572,0.0004523061215877533
1690840281408909600,4.90690966796875,0.0005155745893716812,0.0006173582514747977,0.00010947510600090027
1690840281418980600,4.916980712890625,-0.0010125474072992802,-0.00030436180531978607,0.0008088201284408569
1690840281429020700,4.927020751953125,0.0007904067169874907,-0.0005975898820906878,0.0007689408957958221
1690840281439060700,4.937060791015625,0.0017001426313072443,-0.0013017295859754086,0.0001300480216741562
1690840281449101600,4.9471015625,0.000327075831592083,-0.0004973839968442917,-0.0026020128279924393
1690840281459141600,4.9571416015625,-0.0007949140854179859,0.0010770768858492374,0.001429745927453041
1690840281469181400,4.967181396484375,0.0006223036907613277,0.0009218198247253895,-0.0014796052128076553
1690840281479221500,4.977221435546875,-0.0033111851662397385,0.288492351770401,-0.13622942566871643
1690840281489262600,4.9872626953125,-0.02293725498020649,0.39165306091308594,-0.010822001844644547
1690840281499302700,4.997302734375,-0.013303270563483238,-0.01370987854897976,-0.03377179428935051
1690840281509342700,5.0073427734375,0.0008790211286395788,-0.02981969341635704,-0.04999246448278427
1690840281519383600,5.017383544921875,0.0035198116675019264,0.009730913676321507,-0.07837830483913422
1690840281529423600,5.027423583984375,0.008645812049508095,0.015534433536231518,-0.05335838347673416
1690840281539463400,5.03746337890625,0.005902756005525589,0.01109813991934061,-0.02350727841258049
1690840281549503500,5.04750341796875,0.003604128025472164,0.006239909678697586,-0.00298144668340683
1690840281559574500,5.057574462890625,-0.001140825916081667,0.006059080362319946,0.006187817081809044
1690840281569615600,5.06761572265625,-0.0017437301576137543,0.007213815581053495,0.014941323548555374
1690840281579655700,5.07765576171875,-0.004463616292923689,0.0005156992701813579,0.02166074514389038
1690840281589695700,5.08769580078125,-0.0027955668047070503,-0.0019936447497457266,0.026825550943613052
1690840281599735800,5.09773583984375,-0.002345226239413023,-0.004703943617641926,0.0327145978808403
1690840281609776600,5.107776611328125,0.0012844607699662447,-0.006979537196457386,0.030539019033312798
1690840281619816400,5.11781640625,0.00283521949313581,-0.0018838450778275728,0.03001757152378559
1690840281629856500,5.1278564453125,0.0017375547904521227,-0.0014673382975161076,0.025579316541552544
1690840281639896600,5.137896484375,0.0004123658873140812,-0.0017022290267050266,0.020585888996720314
1690840281649937700,5.147937744140625,0.00002948986366391182,0.0041556875221431255,0.016130343079566956
1690840281659977700,5.157977783203125,-0.0016602855175733566,0.001628614030778408,0.010405345819890499
1690840281670017800,5.168017822265625,-0.0020729824900627136,0.003649997990578413,0.0027952585369348526
1690840281680058600,5.17805859375,-0.002000011969357729,0.0012542181648314,-0.0043337587267160416
1690840281690098400,5.188098388671875,0.0002088099718093872,-0.00182179338298738,-0.011958908289670944
1690840281700169500,5.19816943359375,0.0015172210987657309,-0.0005085887387394905,-0.016302522271871567
1690840281710209500,5.20820947265625,0.0014605335891246796,0.00006505369674414396,-0.02035003900527954
1690840281720249600,5.21824951171875,0.0023819871712476015,-0.003852722467854619,-0.022043809294700623
1690840281730290700,5.228290771484375,-0.0004756399430334568,-0.000713754678145051,-0.021708985790610313
1690840281740330800,5.238330810546875,-0.001765675377100706,-0.0007411851547658443,-0.021734287962317467
1690840281750370800,5.248370849609375,-0.0015726489946246147,0.0028162221424281597,-0.020739009603857994
1690840281760410600,5.25841064453125,-0.0010227062739431858,0.0013512172736227512,-0.016599657014012337
1690840281770451500,5.268451416015625,-0.0005133668892085552,0.0029851477593183517,-0.012881500646471977
1690840281780491500,5.278491455078125,0.0012264761608093977,0.0012367824092507362,-0.006356224417686462
1690840281790531600,5.288531494140625,0.000035047996789216995,-0.00135379983112216,-0.0013966821134090424
1690840281800572700,5.29857275390625,0.0021197705063968897,0.0011311955749988556,0.0029471982270479202
1690840281810612700,5.30861279296875,-0.00004889443516731262,-0.000778330722823739,0.0076932646334171295
1690840281820652800,5.31865283203125,-0.000736788846552372,-0.0008603560272604227,0.009572657756507397
1690840281830692600,5.328692626953125,-0.00021287472918629646,-0.0002463532146066427,0.013489835895597935
1690840281840763600,5.338763671875,-0.0007729376666247845,0.000175757915712893,0.014886930584907532
1690840281850803700,5.3488037109375,-0.002183255273848772,0.0021824962459504604,0.017643993720412254
1690840281860844500,5.358844482421875,0.0018325254786759615,0.0004304025787860155,0.014438079670071602
1690840281870884600,5.368884521484375,0.0010117909405380487,-0.0014225880149751902,0.013724574819207191
1690840281880924700,5.378924560546875,0.001450147246941924,-0.0017179325222969055,0.011438783258199692
1690840281890965800,5.3889658203125,0.0005917907692492008,-0.0007726687472313643,0.0101663488894701
1690840281901005800,5.399005859375,0.000815762672573328,0.000837744795717299,0.006601174362003803
1690840281911045600,5.409045654296875,0.0004749847576022148,0.00047702190931886435,0.0005746055394411087
1690840281921085700,5.419085693359375,-0.00040652183815836906,0.000455450383014977,-0.0035431738942861557
1690840281931126500,5.42912646484375,-0.0014064507558941841,-0.0012149026151746511,-0.007581679150462151
1690840281941166600,5.43916650390625,0.0006002411246299744,-0.00027906778268516064,-0.006757697090506554
1690840281951206700,5.44920654296875,0.0017330446280539036,-0.0008472029585391283,-0.010221835225820541
1690840281961247700,5.459247802734375,0.00044567277655005455,-0.0016373628750443459,-0.010177625343203545
1690840281971287800,5.469287841796875,0.001025299308821559,-0.0007157241925597191,-0.01111225038766861
1690840281981358600,5.479358642578125,-0.0002647358924150467,-0.0001660478301346302,-0.012574326246976852
1690840281991398700,5.489398681640625,0.0019179286900907755,0.0016922380309551954,-0.009739624336361885
1690840282001438700,5.499438720703125,0.0002659698948264122,-0.002313156146556139,-0.007864227518439293
1690840282011479600,5.5094794921875,-0.001958843320608139,0.00012409256305545568,-0.0064780134707689285
1690840282021519600,5.51951953125,-0.00047146808356046677,-0.0001773773692548275,-0.0036697089672088623
1690840282031559700,5.5295595703125,0.00045183300971984863,0.0004691338399425149,0.00011252984404563904
1690840282041599500,5.539599609375,0.0007125562988221645,0.001304833684116602,0.002034533768892288
1690840282051640800,5.549640869140625,0.000021525193005800247,0.000053527066484093666,0.0049716513603925705
1690840282061680600,5.5596806640625,-0.0006855442188680172,0.00042850011959671974,0.008251866325736046
1690840282071720700,5.569720703125,0.0017914373893290758,0.0011369944550096989,0.009240212850272655
1690840282081761500,5.579761474609375,0.00008275313302874565,-0.0004308084025979042,0.009317710995674133
1690840282091801600,5.589801513671875,0.0008329655975103378,0.0006429781205952168,0.010329445824027061
1690840282101841700,5.599841552734375,-0.00045999884605407715,-0.00021322816610336304,0.009291612543165684
1690840282111881700,5.6098818359375,0.00019981013610959053,0.00028379959985613823,0.008911960758268833
1690840282121952500,5.619952392578125,-0.0009631919674575329,-0.00003817654214799404,0.005059432238340378
1690840282131992600,5.62999267578125,-0.000014857854694128036,0.0011383076198399067,0.0030144061893224716
1690840282142033700,5.64003369140625,-0.0014292625710368156,0.00011219165753573179,0.0016854889690876007
1690840282152073700,5.65007373046875,0.0002850126475095749,-0.00164901209063828,0.0005054492503404617
1690840282162113800,5.66011376953125,0.0008711745031177998,0.0008495656074956059,-0.0036424249410629272
1690840282172154600,5.670154541015625,-0.0011178255081176758,-0.0015297560021281242,-0.0051453933119773865
1690840282182194700,5.680194580078125,0.0015013935044407845,0.0022591231390833855,-0.007860485464334488
1690840282192234500,5.690234375,0.0015929082874208689,0.0012879979331046343,-0.005355490371584892
1690840282202274600,5.700274658203125,-0.0019142082892358303,-0.0014633138198405504,-0.008039424195885658
1690840282212315600,5.710315673828125,-0.0010231141932308674,0.0017663210164755583,-0.00695640966296196
1690840282222355700,5.720355712890625,-0.000031087081879377365,0.0016952145379036665,-0.008373476564884186
1690840282232395800,5.730395751953125,0.0008340098429471254,-0.0007710123900324106,-0.006118752062320709
1690840282242436600,5.7404365234375,0.0005647642537951469,-0.0017936660442501307,-0.0022182874381542206
1690840282252476700,5.7504765625,0.00006222911179065704,-0.00031947088427841663,-0.0014750342816114426
1690840282262547700,5.760547607421875,0.0007930002175271511,-0.0008009704761207104,0.00008078478276729584
1690840282272587500,5.77058740234375,-0.0000017299316823482513,0.00041456182952970266,0.0014315582811832428
1690840282282627600,5.780627685546875,0.0006608646363019943,0.002251077676191926,0.004510173574090004
1690840282292667600,5.790667724609375,-0.00034240446984767914,-0.0006107615772634745,0.004321547225117683
1690840282302708700,5.800708740234375,0.00014921464025974274,0.0010438605677336454,0.006934109143912792
1690840282312748500,5.81074853515625,0.00011657364666461945,0.0011408515274524689,0.003598572686314583
1690840282322788600,5.82078857421875,0.001585040707141161,-0.00024585635401308537,0.004734411835670471
1690840282332823800,5.83082373046875,0.00022718124091625214,0.00008984631858766079,0.0033798515796661377
1690840282342864000,5.84086376953125,0.0007451660931110382,-0.0015892765950411558,0.003370264545083046
1690840282352904000,5.850904052734375,-0.0002929144538938999,0.00010428321547806263,0.0036877524107694626
1690840282362943700,5.86094384765625,-0.00009184610098600388,0.000492305844090879,0.002044316381216049
1690840282372984600,5.870984619140625,-0.0007130801677703857,0.002799415960907936,0.0006193108856678009
1690840282383024600,5.881024658203125,0.00018360605463385582,-0.0010970551520586014,-0.00009308382868766785
1690840282393064700,5.891064697265625,-0.0006325524300336838,-0.001093839993700385,-0.0026493538171052933
1690840282403135700,5.9011357421875,-0.00003627035766839981,0.00006809714250266552,-0.00244988314807415
1690840282413175800,5.91117578125,-0.0018923073075711727,0.00013009237591177225,-0.004306357353925705
1690840282423217000,5.921216796875,-0.0010539442300796509,0.0016560836229473352,-0.0036616064608097076
1690840282433257000,5.931257080078125,0.0008319076150655746,-0.0005557609256356955,-0.004601450636982918
1690840282443296800,5.941296875,-0.0007801037281751633,-0.000673206290230155,-0.004461368545889854
1690840282453337600,5.951337646484375,-0.0008219163864850998,0.0002225642092525959,-0.003423726186156273
1690840282463377700,5.961377685546875,0.0005466821603477001,0.0012649254640564322,-0.0030471552163362503
1690840282473417700,5.971417724609375,0.0006479215808212757,0.00019279902335256338,-0.0021294821053743362
1690840282483457800,5.981457763671875,-0.0008053653873503208,0.0009661810472607613,-0.001708436757326126
1690840282493499000,5.991498779296875,0.00006904639303684235,0.001331542618572712,0.001463303342461586
1690840282503539000,6.0015390625,0.00009541166946291924,-0.0014570534694939852,0.0013812761753797531
1690840282513578800,6.011578857421875,0.001034011598676443,0.0023908342700451612,0.0028801709413528442
1690840282523619600,6.02161962890625,0.001595672219991684,-0.0014526396989822388,0.0028633922338485718
1690840282533659600,6.03165966796875,0.0009261311497539282,0.001293427194468677,0.00300535187125206
1690840282543730700,6.041730712890625,-0.0014464790001511574,0.00183804368134588,0.004398183897137642
1690840282553770800,6.051770751953125,0.00027569476515054703,-0.0009692299645394087,0.0025182589888572693
1690840282563810800,6.061810791015625,0.0007745050825178623,-0.0005860012024641037,0.0020170528441667557
1690840282573851000,6.071850830078125,0.0011267787776887417,0.003223809879273176,0.003462335094809532
1690840282583892000,6.08189208984375,-0.0005643283948302269,-0.000812743091955781,0.0000710655003786087
1690840282593931800,6.091931884765625,0.000956451054662466,0.0002745415549725294,0.0006102044135332108
1690840282603971800,6.101971923828125,-0.0006550275720655918,0.00027081312146037817,-0.00023588165640830994
1690840282614012700,6.1120126953125,-0.000034829601645469666,0.0010754914255812764,0.0015924964100122452
1690840282624052700,6.122052734375,-0.0019192826002836227,0.00024644937366247177,-0.001351362094283104
1690840282634092800,6.1320927734375,0.00040011806413531303,-0.0004305676557123661,-0.0009490065276622772
1690840282644132900,6.1421328125,0.0003974549472332001,0.0026584328152239323,-0.0020491573959589005
1690840282654174000,6.152174072265625,0.0001439778134226799,-0.00008136383257806301,-0.002587616443634033
1690840282664213800,6.1622138671875,-0.00020915735512971878,-0.001720539527013898,-0.0017234217375516891
1690840282674253800,6.17225390625,0.001985896611586213,0.0019338784040883183,-0.001578027382493019
1690840282684324900,6.182324951171875,-0.0004756632260978222,0.0010363931069150567,-0.0013873446732759476
1690840282694364700,6.19236474609375,-0.00028073275461792946,0.00020849867723882198,-0.002133173868060112
1690840282704405800,6.20240576171875,-0.00028472766280174255,0.0015288939466699958,0.0022184308618307114
1690840282714445800,6.21244580078125,0.0005708057433366776,0.00016272265929728746,0.0020410381257534027
1690840282724486000,6.22248583984375,0.00023391563445329666,-0.000019703758880496025,0.0003640446811914444
1690840282734527000,6.23252685546875,0.00020222272723913193,-0.0005294315051287413,0.0004588216543197632
1690840282744566800,6.24256689453125,-0.000904587097465992,0.00020027474965900183,0.0013533774763345718
1690840282754606800,6.25260693359375,-0.0011515826918184757,0.0003181253559887409,0.0016921143978834152
1690840282764646700,6.262646728515625,-0.0007324009202420712,-0.0015162599738687277,0.0015562940388917923
1690840282774687700,6.272687744140625,-0.00030122091993689537,0.00006303191184997559,0.0036186445504426956
1690840282784727800,6.282727783203125,0.0008426068816334009,0.0008103149011731148,0.002256438136100769
1690840282794768000,6.292767822265625,-0.0015207459218800068,-0.0025826720520853996,0.0011628810316324234
1690840282804807700,6.3028076171875,0.00026756664738059044,0.0007071307627484202,0.0013074912130832672
1690840282814848800,6.312848876953125,0.0009198666084557772,-0.00010447157546877861,0.0023451391607522964
1690840282824919800,6.322919921875,0.0009211981669068336,0.0004281607689335942,0.0029105283319950104
1690840282834960000,6.3329599609375,-0.0021626832894980907,-0.0007974551990628242,0.0007330793887376785
1690840282844999700,6.342999755859375,0.001103151123970747,0.0010947207920253277,0.0015093907713890076
1690840282855039700,6.353039794921875,-0.0008662929758429527,-0.0010546981357038021,-0.0004116147756576538
1690840282865080800,6.363080810546875,-0.0007091667503118515,0.0011250992538407445,-0.0010877922177314758
1690840282875120600,6.37312060546875,0.000020254869014024734,-0.00044236984103918076,-0.0034398436546325684
1690840282885160700,6.38316064453125,-0.0010173125192523003,0.0014681818429380655,-0.002267785370349884
1690840282895201800,6.393201904296875,-0.0012406404130160809,-0.00009320490062236786,-0.002930242568254471
1690840282905241600,6.40324169921875,0.00004513375461101532,-0.0008135898970067501,-0.0007874630391597748
1690840282915281700,6.41328173828125,0.0006659342907369137,-0.0013193762861192226,-0.001940002664923668
1690840282925321700,6.42332177734375,-0.0005865502171218395,0.0018862707074731588,-0.0014832708984613419
1690840282935362800,6.43336279296875,-0.0009297854267060757,0.001002572476863861,-0.0010118559002876282
1690840282945403000,6.44340283203125,-0.000004869885742664337,0.0007644857978448272,-0.0019226577132940292
1690840282955442700,6.453442626953125,0.0018903396558016539,0.0007163796108216047,-0.0003925468772649765
1690840282965513700,6.463513671875,0.0003291945904493332,-0.0006178640760481358,0.000024238601326942444
1690840282975553800,6.4735537109375,0.000018641352653503418,0.0016590235754847527,-0.0008285064250230789
1690840282985594600,6.4835947265625,-0.0018250653520226479,0.000630777096375823,0.0006301067769527435
1690840282995634700,6.493634765625,0.00017463089898228645,0.0007227782625705004,0.00015448220074176788
1690840283005674800,6.5036748046875,-0.0015955721028149128,0.0007078645285218954,0.0011747386306524277
1690840283015714600,6.513714599609375,-0.000502114649862051,0.0004468024708330631,0.00007479451596736908
1690840283025755600,6.523755615234375,-0.0009684339165687561,0.00047316774725914,-0.0012868810445070267
1690840283035795700,6.533795654296875,0.0007796643767505884,-0.00031233089976012707,-0.0008573457598686218
1690840283045835800,6.543835693359375,0.0006654146127402782,-0.0005432269535958767,0.00041617825627326965
1690840283055876600,6.553876708984375,-0.00009347451850771904,0.0031776209361851215,0.0005453117191791534
1690840283065916700,6.563916748046875,-0.0006724456325173378,-0.0012163284700363874,-0.0011718962341547012
1690840283075956700,6.573956787109375,-0.0008092392235994339,0.0000927214277908206,0.0006290171295404434
1690840283085996800,6.583996826171875,-0.00101110665127635,0.0011894111521542072,0.0006452631205320358
1690840283096038000,6.594037841796875,0.0014275223948061466,-0.0008933537174016237,-0.0014226008206605911
1690840283106108700,6.604108642578125,-0.0013032830320298672,0.0007945578545331955,0.00007223151624202728
1690840283116148700,6.614148681640625,0.0008645451162010431,-0.00015357928350567818,-0.0025253966450691223
1690840283126188800,6.624188720703125,-0.00036450382322072983,0.0016488480614498258,0.000018188729882240295
1690840283136228900,6.634228759765625,-0.0011151665821671486,-0.0009429407073184848,-0.0007796268910169601
1690840283146269700,6.644269775390625,0.0017898096702992916,0.000535380095243454,0.0011093523353338242
1690840283156309800,6.654309814453125,-0.0008421270176768303,-0.000248958938755095,0.000059003010392189026
1690840283166349600,6.664349609375,0.0007552369497716427,0.0021324397530406713,-0.0007154438644647598
1690840283176390700,6.674390625,0.0009841988794505596,0.0009478890569880605,0.0015903357416391373
1690840283186430700,6.6844306640625,0.0016451955307275057,-0.002341647632420063,-0.0008403323590755463
1690840283196470800,6.694470703125,0.0008819396607577801,-0.002011385979130864,0.0023700296878814697
1690840283206510800,6.7045107421875,0.0007921911310404539,0.0001146155409514904,0.002708250656723976
1690840283216551700,6.7145517578125,0.0008739735931158066,-0.00007616821676492691,0.0013415738940238953
1690840283226591700,6.724591796875,0.00004013814032077789,-0.0006785751320421696,0.001708025112748146
1690840283236631800,6.7346318359375,0.0004956861957907677,-0.0002630740636959672,0.0007413998246192932
1690840283246702600,6.74470263671875,-0.0007205791771411896,-0.00006999482866376638,0.0006713587790727615
1690840283256742700,6.75474267578125,0.0007160394452512264,0.00015957234427332878,-0.0005782954394817352
1690840283266783700,6.76478369140625,0.0008113805670291185,-0.0008324549999088049,0.00015407241880893707
1690840283276823800,6.77482373046875,0.0002857004292309284,-0.00024150207173079252,0.0022417157888412476
1690840283286864000,6.78486376953125,-0.0008578607812523842,0.0016711801290512085,0.00030719488859176636
1690840283296904000,6.794904052734375,-0.0007332754321396351,-0.0009361783741042018,0.00004484690725803375
1690840283306944800,6.80494482421875,0.00003185076639056206,-0.0003430923679843545,-0.0008361265063285828
1690840283316984600,6.814984619140625,0.001983275171369314,0.0009200882632285357,0.0007559694349765778
1690840283327024600,6.825024658203125,-0.0002636336721479893,-0.00011614768300205469,0.0012502521276474
1690840283337059300,6.835059326171875,0.000893161166459322,0.0016731290379539132,-0.00003322400152683258
1690840283347099400,6.845099365234375,-0.0005468102172017097,0.00022969581186771393,0.0008996818214654922
1690840283357139500,6.855139404296875,-0.00008994573727250099,-0.0011072199558839202,-0.0012900140136480331
1690840283367179300,6.86517919921875,-0.0011658626608550549,-0.0005546141183003783,0.0006469041109085083
1690840283377220000,6.87522021484375,0.0007628817111253738,0.0005882069235667586,-0.0005616974085569382
1690840283387291100,6.885291015625,0.0015871298965066671,-0.0003921026363968849,-0.00002267397940158844
1690840283397331200,6.895331298828125,-0.000946361105889082,-0.0028848107904195786,-0.0018392335623502731
1690840283407371300,6.905371337890625,0.0006643189117312431,-0.000653880531899631,-0.0009193792939186096
1690840283417411300,6.915411376953125,-0.00031568948179483414,0.00009311875328421593,0.002367420122027397
1690840283427452400,6.925452392578125,-0.00039238855242729187,-0.0015114358393475413,-0.000051528215408325195
1690840283437492500,6.935492431640625,-0.0005493694916367531,-0.00031657726503908634,-0.0009432602673768997
1690840283447532300,6.9455322265625,0.0004104333929717541,-0.0006923491600900888,0.00016115233302116394
1690840283457572000,6.955572021484375,0.00031725456938147545,0.0004374639829620719,0.0012657716870307922
1690840283467613200,6.96561328125,-0.00009926408529281616,-0.0013521803775802255,-0.001326281577348709
1690840283477653200,6.9756533203125,0.0010001580230891705,-0.0008963701548054814,0.000309208407998085
1690840283487693300,6.985693359375,-0.0004475363530218601,-0.0012039652792736888,0.00016779452562332153
1690840283497734400,6.995734375,-0.0000993204303085804,-0.00030629290267825127,-0.00009599700570106506
1690840283507774500,7.0057744140625,0.001933204010128975,0.00011901382822543383,0.0001317039132118225
1690840283517814300,7.015814208984375,-0.00046305544674396515,0.0003671242156997323,-0.00027173571288585663
1690840283527885300,7.02588525390625,0.0007281764410436153,0.0001580661628395319,0.00009658001363277435
1690840283537925000,7.035925048828125,0.000005145557224750519,-0.0006575986044481397,-0.00135880708694458
1690840283547966200,7.04596630859375,0.00016520125791430473,0.00021005934104323387,-0.001960946246981621
1690840283558006300,7.05600634765625,0.000918971374630928,-0.0009409617632627487,-0.0010386239737272263
1690840283568046300,7.06604638671875,0.000687276478856802,-0.0029990526381880045,-0.0014753807336091995
1690840283578086100,7.076086181640625,0.0006676823832094669,-0.0009611452696844935,-0.000625142827630043
1690840283588127500,7.08612744140625,-0.000682540237903595,-0.00024928234051913023,0.0009133648127317429
1690840283598167300,7.096167236328125,-0.0005829827859997749,0.00003430945798754692,-0.0011883880943059921
1690840283608207000,7.10620703125,0.0007240967825055122,-0.001065842341631651,-0.0003817174583673477
1690840283618248200,7.116248291015625,-0.00001540733501315117,0.0003852121299132705,-0.0011095907539129257
1690840283628288300,7.126288330078125,0.0017481378745287657,0.0007466031238436699,0.003603406250476837
1690840283638328300,7.136328369140625,0.00042252708226442337,0.00004552723839879036,-0.000768464058637619
1690840283648368400,7.146368408203125,0.0007311874069273472,-0.0019347993656992912,0.000192936509847641
1690840283658409500,7.156409423828125,0.00014813663437962532,0.0007248750189319253,-0.00032668933272361755
1690840283668479200,7.166479248046875,0.00018302397802472115,0.0011887976434081793,-0.0024452339857816696
1690840283678520300,7.176520263671875,0.002003530040383339,-0.0007327661151066422,-0.00039628706872463226
1690840283688560000,7.18656005859375,0.00008312473073601723,0.0019788644276559353,-0.0010378416627645493
1690840283698600200,7.19660009765625,-0.0007998473010957241,0.000951780064497143,0.002314826473593712
1690840283708641300,7.206641357421875,-0.0015809526666998863,-0.0001419801265001297,-0.0002737678587436676
1690840283718681300,7.216681396484375,0.0006052050739526749,-0.002453146269544959,0.00010851770639419556
1690840283728721200,7.22672119140625,-0.0009958869777619839,-0.0031594166066497564,-0.0003564693033695221
1690840283738761200,7.23676123046875,-0.0014376398175954819,-0.004051093477755785,-0.00057230144739151
1690840283748802300,7.24680224609375,0.0011155325919389725,0.0031740625854581594,-0.0012908224016427994
1690840283758842000,7.256842041015625,0.000028528738766908646,0.007125799544155598,0.0014935042709112167
1690840283768882200,7.266882080078125,0.00026981113478541374,0.007973483763635159,0.0007187910377979279
1690840283778923300,7.27692333984375,0.0004916777834296227,0.004517848137766123,0.0006331168115139008
1690840283788963300,7.28696337890625,-0.002016487531363964,-0.00028889114037156105,0.0006067529320716858
1690840283799003400,7.29700341796875,-0.0003053145483136177,-0.005930550862103701,-0.0003208499401807785
1690840283809074200,7.30707421875,0.0008374478202313185,-0.008754833601415157,-0.0008492209017276764
1690840283819114200,7.3171142578125,0.0008932750206440687,-0.008009983226656914,-0.0003287307918071747
1690840283829155300,7.3271552734375,0.0013633230701088905,-0.0038221627473831177,0.0011466611176729202
1690840283839195100,7.337195068359375,0.000390476081520319,0.0030738424975425005,0.0028026849031448364
1690840283849235200,7.347235107421875,-0.0007048817351460457,0.002750800922513008,0.00001994706690311432
1690840283859275300,7.357275146484375,-0.0015744860284030437,0.003941982518881559,0.0004582032561302185
1690840283869316400,7.36731640625,-0.0022336184047162533,0.0038799308240413666,-0.0013559404760599136
1690840283879356200,7.377356201171875,-0.0009350175969302654,-0.0007831986295059323,-0.00041406042873859406
1690840283889396200,7.387396240234375,0.0003715292550623417,-0.00034111400600522757,0.0002341531217098236
1690840283899436300,7.397436279296875,0.0013315929099917412,0.0010104081593453884,0.0014575812965631485
1690840283909477000,7.40747705078125,0.0021718202624469995,0.0015659434720873833,0.00003332272171974182
1690840283919517200,7.41751708984375,0.0019246807787567377,0.00036649685353040695,0.003112800419330597
1690840283929557200,7.42755712890625,-0.000015698373317718506,-0.0028950762934982777,-0.0001602228730916977
1690840283939598300,7.437598388671875,-0.0019016321748495102,-0.0049441782757639885,0.00040534697473049164
1690840283949668000,7.447668212890625,-0.0031250882893800735,-0.005539927631616592,0.00002930872142314911
1690840283959709200,7.457709228515625,-0.001361927017569542,-0.0026783347129821777,-0.0008483007550239563
1690840283969749200,7.467749267578125,0.000527585856616497,-0.0007177157094702125,-0.0019937269389629364
1690840283979789300,7.477789306640625,0.001986576709896326,0.004335963167250156,0.0004240162670612335
1690840283989830100,7.487830078125,0.0024422435089945793,0.004460599273443222,-0.0011610984802246094
1690840283999870200,7.4978701171875,0.002556106774136424,0.003724310314282775,-0.0013563763350248337
1690840284009910300,7.50791015625,-0.0007632570341229439,0.0002392977476119995,0.00008146464824676514
1690840284019950000,7.5179501953125,-0.0009540379978716373,-0.0021932958625257015,-0.0005295146256685257
1690840284029991200,7.5279912109375,-0.0009364611469209194,-0.005434629041701555,-0.0011652112007141113
1690840284040031200,7.53803125,-0.001023626420646906,-0.0025017932057380676,0.00017231516540050507
1690840284050071300,7.5480712890625,-0.0010614432394504547,-0.0014892596518620849,-0.0021952353417873383
1690840284060112100,7.558112060546875,-0.0018790550529956818,0.00043906201608479023,-0.0012161247432231903
1690840284070152200,7.568152099609375,0.0018384517170488834,0.003199428552761674,-0.0017892364412546158
1690840284080192300,7.578192138671875,0.00021532783284783363,0.00712989829480648,-0.0014379043132066727
1690840284090263300,7.58826318359375,-0.0008342242799699306,0.008020992390811443,-0.0015505552291870117
1690840284100303000,7.59830322265625,-0.0007519559003412724,0.005358817521482706,0.0006545465439558029
1690840284110343200,7.60834326171875,0.00007069436833262444,-0.0022647473961114883,-0.00017982162535190582
1690840284120384300,7.61838427734375,-0.00011772848665714264,-0.00709320604801178,0.0033320337533950806
1690840284130424300,7.62842431640625,-0.00026952894404530525,-0.00865941122174263,0.003124574199318886
1690840284140464400,7.63846435546875,0.000040477607399225235,-0.005912079010158777,0.002330256626009941
1690840284150505200,7.648505126953125,0.0003781663253903389,-0.0026025683619081974,0.003219218924641609
1690840284160545300,7.658545166015625,0.0012922354508191347,0.005630564410239458,0.0002987273037433624
1690840284170585000,7.668585205078125,0.0003220457583665848,0.007013810332864523,-0.002084268257021904
1690840284180625200,7.678625244140625,-0.0001342245377600193,0.0069434563629329205,-0.00462242029607296
1690840284190666200,7.688666259765625,-0.002022405620664358,0.004748744890093803,-0.004517491906881332
1690840284200706300,7.698706298828125,0.0009233970195055008,0.0032519041560590267,-0.0029227249324321747
1690840284210746400,7.708746337890625,-0.00007528858259320259,0.00028594175819307566,-0.0015093851834535599
1690840284220787200,7.718787109375,0.0009377012029290199,-0.004406956024467945,-0.0010166354477405548
1690840284230827300,7.7288271484375,0.0012594109866768122,-0.007495424244552851,0.0019285548478364944
1690840284240898300,7.738898193359375,-0.00010180054232478142,-0.00814737193286419,0.001941181719303131
1690840284250938000,7.748938232421875,-0.0026935888454318047,-0.006363852880895138,0.0017478354275226593
1690840284260978200,7.758978271484375,0.0003603985533118248,-0.002516624517738819,-0.002606406807899475
1690840284271019300,7.769019287109375,-0.0006220419891178608,0.005506414454430342,-0.004835207015275955
1690840284281059300,7.779059326171875,0.0019264996517449617,0.01217361818999052,-0.004111761227250099
1690840284291099400,7.789099365234375,0.0017270289827138186,0.012137399055063725,-0.0009175669401884079
1690840284301139500,7.799139404296875,0.0017218489665538073,0.005472269840538502,0.0016457699239253998
1690840284311180300,7.80918017578125,-0.000037435442209243774,-0.005864008329808712,0.0022726766765117645
1690840284321220000,7.81922021484375,-0.0031292918138206005,-0.010523704811930656,0.005380809307098389
1690840284331260200,7.82926025390625,-0.0005737221799790859,-0.012961296364665031,0.005842868238687515
1690840284341300700,7.83930078125,-0.0006284359842538834,-0.007388134952634573,0.0036769621074199677
1690840284351340800,7.8493408203125,0.00040700146928429604,-0.0005813617026433349,-0.0023178141564130783
1690840284361380900,7.859380859375,0.0009921900928020477,0.010853630490601063,-0.004538465291261673
1690840284371421000,7.8694208984375,0.002423639176413417,0.0167597234249115,-0.007175793871283531
1690840284381492000,7.879491943359375,0.0011337627656757832,0.011585353873670101,-0.006238223984837532
1690840284391531800,7.88953173828125,0.0026749339886009693,-0.00023535254877060652,-0.005182547494769096
1690840284401572600,7.899572509765625,0.0009439080022275448,-0.008713027462363243,0.00030040740966796875
1690840284411612700,7.90961279296875,-0.0013344259932637215,-0.014696883969008923,0.002642391249537468
1690840284421652700,7.91965283203125,-0.0015904130414128304,-0.013939344324171543,0.007449076510965824
1690840284431693800,7.92969384765625,0.0018027203623205423,-0.005274217110127211,0.006835483945906162
1690840284441734000,7.93973388671875,0.000325650442391634,0.0032901118975132704,0.005652185529470444
1690840284451774000,7.94977392578125,0.0006827805191278458,0.008585541509091854,0.0021487977355718613
1690840284461813800,7.959813720703125,-0.0006924648769199848,0.010327186435461044,-0.005465477705001831
1690840284471854600,7.9698544921875,0.0015800106339156628,0.007034453563392162,-0.004922192543745041
1690840284481894700,7.979894775390625,0.0012427857145667076,0.005441940389573574,-0.005661610513925552
1690840284491934700,7.989934814453125,0.0013857975136488676,-0.000494245789013803,-0.003009902313351631
1690840284501975800,7.999975830078125,-0.0004967548884451389,-0.007709977682679892,0.00013297609984874725
1690840284512016000,8.010015869140625,-0.0018807994201779366,-0.00855393335223198,0.0017830710858106613
1690840284522087000,8.0200869140625,-0.002897821366786957,-0.006450053304433823,0.0010898299515247345
1690840284532127000,8.030126953125,-0.0005864636041224003,-0.0013860521139577031,0.0017143413424491882
1690840284542166800,8.040166748046875,0.0018723455723375082,0.006305637303739786,0.000041775405406951904
1690840284552206800,8.050206787109374,0.0011916416697204113,0.011066303588449955,-0.003439774736762047
1690840284562247700,8.06024755859375,0.0028092344291508198,0.008007130585610867,-0.0016056559979915619
1690840284572287700,8.070287841796874,0.001843039644882083,0.0036291603464633226,-0.0033841151744127274
1690840284582327800,8.080327880859375,0.0014673110563308,-0.0033324728719890118,-0.002399550750851631
1690840284592369000,8.090368896484375,-0.00020435499027371407,-0.011577620171010494,0.00015042535960674286
1690840284602409000,8.100408935546875,-0.0022519296035170555,-0.011937849223613739,0.0002846941351890564
1690840284612448800,8.11044873046875,-0.0008875918574631214,-0.0059012616984546185,0.0025672893971204758
1690840284622488800,8.12048876953125,-0.0009802868589758873,0.0013700531562790275,0.0037055853754281998
1690840284632529700,8.13052978515625,0.0022237622179090977,0.008394407108426094,0.0031093042343854904
1690840284642569700,8.14056982421875,0.0022011769469827414,0.011975704692304134,0.003273284062743187
1690840284652609800,8.15060986328125,0.0025050435215234756,0.011326692998409271,0.0016391687095165253
1690840284662680800,8.160680908203124,0.0016040978953242302,0.0031402562744915485,-0.0019610878080129623
1690840284672721000,8.170720947265625,-0.0009807664901018143,-0.0042849029414355755,-0.0018028970807790756
1690840284682762000,8.180761962890625,-0.00104081304743886,-0.009272986091673374,-0.0029674749821424484
1690840284692801800,8.1908017578125,-0.0005747596733272076,-0.010927608236670494,-0.0011029969900846481
1690840284702841900,8.200841796875,-0.0005067433230578899,-0.008990236558020115,-0.0014197025448083878
1690840284712882700,8.210882568359375,0.00010791420936584473,-0.0026753488928079605,-0.00026788562536239624
1690840284722922800,8.2209228515625,0.0011919660028070211,0.0043619717471301556,0.0014691278338432312
1690840284732962800,8.230962890625,0.000053464435040950775,0.010710947215557098,0.00012582913041114807
1690840284743003000,8.2410029296875,0.0002551390789449215,0.011804891750216484,0.00035687536001205444
1690840284753044000,8.2510439453125,-0.00004340102896094322,0.009583815932273865,0.0009821858257055283
1690840284763083800,8.261083740234374,0.0014958034735172987,0.004886019974946976,-0.0004198867827653885
1690840284773123800,8.271123779296875,0.0020212449599057436,0.00007768254727125168,-0.0024968869984149933
1690840284783164700,8.28116455078125,-0.0003820061683654785,-0.008253825828433037,-0.0031133145093917847
1690840284793204700,8.291204833984375,-0.0020568682812154293,-0.009844265878200531,-0.0003625359386205673
1690840284803275800,8.30127587890625,-0.0018921713344752789,-0.009665963239967823,0.0016462262719869614
1690840284813315800,8.31131591796875,-0.0011739167384803295,-0.006366039626300335,0.0003087874501943588
1690840284823356000,8.32135595703125,0.0008085763547569513,0.0015844192821532488,0.003443710505962372
1690840284833395700,8.331395751953124,-0.0009560342878103256,0.008426612243056297,0.003826938569545746
1690840284843436800,8.341436767578125,0.00040080584585666656,0.008475390262901783,0.004111796617507935
1690840284853476900,8.351476806640624,0.0004327641800045967,0.011573711410164833,0.0035682450979948044
1690840284863517000,8.361516845703125,0.00035608187317848206,0.00598799018189311,0.00004073604941368103
1690840284873557800,8.371557861328125,0.0005832496099174023,0.001583920675329864,-0.0009520910680294037
1690840284883597800,8.381597900390625,0.0006095203571021557,-0.003726990893483162,-0.0013185013085603714
1690840284893638000,8.391637939453124,-0.001039508730173111,-0.010346277616918087,-0.0015358161181211472
1690840284903677700,8.401677734375,-0.0006238697096705437,-0.009348125196993351,0.00034410879015922546
1690840284913718800,8.41171875,-0.001050508115440607,-0.005321159027516842,0.0006833970546722412
1690840284923758800,8.4217587890625,0.0009460560977458954,-0.0013826704816892743,0.001075543463230133
1690840284933799000,8.431798828125,-0.00029630865901708603,0.0063221207819879055,0.0009290687739849091
1690840284943870000,8.441869873046874,0.0020117817912250757,0.006605726666748524,0.001964159309864044
1690840284953909800,8.45190966796875,0.0002650143578648567,0.0077114710584282875,0.0008437689393758774
1690840284963950800,8.461950927734375,0.00019146688282489777,0.006353573873639107,0.001630350947380066
1690840284973990700,8.47199072265625,-0.0005355761386454105,0.0009713256731629372,-0.0014618448913097382
1690840284984030700,8.48203076171875,-0.0002812161110341549,-0.0025473334826529026,-0.0016510318964719772
1690840284994071800,8.49207177734375,-0.001048739068210125,-0.008281651884317398,-0.002041717991232872
1690840285004112000,8.50211181640625,-0.0008643274195492268,-0.007510400377213955,-0.003568241372704506
1690840285014152000,8.51215185546875,0.00042277853935956955,-0.00621530506759882,-0.00106753408908844
1690840285024191700,8.522191650390624,0.0008545652963221073,-0.0017552057979628444,-0.0008718091994524002
1690840285034232800,8.53223291015625,-0.0011396096087992191,0.0026384773664176464,0.00274023599922657
1690840285044273000,8.54227294921875,0.0004299064166843891,0.0036750806029886007,0.00026774220168590546
1690840285054312700,8.552312744140625,0.0009689303115010262,0.007819491438567638,0.000890389084815979
1690840285064352800,8.562352783203124,-0.00025349901989102364,0.0053911758586764336,0.0017675291746854782
1690840285074393900,8.572393798828125,-0.0003741402179002762,0.003383418545126915,-0.00045381300151348114
1690840285084465000,8.58246484375,-0.0005564647726714611,0.0008302461355924606,-0.0004918966442346573
1690840285094505000,8.5925048828125,0.00034235231578350067,-0.0028193495236337185,-0.0013939086347818375
1690840285104544800,8.602544677734375,-0.0008475347422063351,-0.0035263937897980213,0.0005030818283557892
1690840285114584600,8.61258447265625,-0.00027495482936501503,-0.003786318004131317,0.0017206799238920212
1690840285124625700,8.622625732421875,-0.0014601401053369045,-0.0031359652057290077,0.0013776011765003204
1690840285134665700,8.632665771484374,-0.000302197877317667,0.000971161643974483,0.001321941614151001
1690840285144705800,8.642705810546875,-0.0008422434329986572,0.002802415983751416,0.0008673667907714844
1690840285154747000,8.652746826171875,0.0011553934309631586,0.0033944365568459034,0.0012785587459802628
1690840285164786700,8.66278662109375,-0.0007913638837635517,0.004001890309154987,0.00014439038932323456
1690840285174826800,8.67282666015625,0.001440098974853754,0.00406447472050786,-0.00020688027143478394
1690840285184866800,8.68286669921875,0.0012927381321787834,0.0015922444872558117,0.00045588985085487366
1690840285194908000,8.692907958984375,-0.00009104050695896149,-0.0001907417317852378,-0.000038392841815948486
1690840285204947700,8.70294775390625,0.00028265872970223427,-0.003738740924745798,-0.0001169499009847641
1690840285214987800,8.71298779296875,-0.0008766152895987034,-0.004828506615012884,-0.0009598396718502045
1690840285225058800,8.723058837890624,-0.0011538118124008179,-0.0014614801621064544,0.0007212124764919281
1690840285235099000,8.733098876953125,0.0006749806925654411,-0.0011741252383217216,-0.0008532479405403137
1690840285245139700,8.7431396484375,-0.00023661600425839424,0.001694807200692594,0.0009531211107969284
1690840285255179800,8.7531796875,0.0008571441285312176,0.003684454830363393,0.0021259766072034836
1690840285265219600,8.763219482421874,-0.00030622538179159164,0.002662665443494916,0.001744372770190239
1690840285275259600,8.773259765625,0.0002450486645102501,0.0032030208967626095,-0.0007126592099666595
1690840285285300700,8.78330078125,-0.00019126618281006813,0.00033775961492210627,-0.00038539618253707886
1690840285295340800,8.7933408203125,0.00027585215866565704,0.00015959411393851042,-0.0011736918240785599
1690840285305380900,8.803380859375,-0.00017830077558755875,-0.0016442135674878955,-0.0008433442562818527
1690840285315421700,8.813421630859375,-0.00024115154519677162,-0.00381282577291131,0.0007335133850574493
1690840285325461800,8.823461669921874,-0.0003287121653556824,-0.002057521604001522,-0.0010833702981472015
1690840285335495400,8.833495361328126,0.0004984657280147076,-0.000755768152885139,0.001742776483297348
1690840285345535500,8.843535400390625,-0.0008604316972196102,0.002169284736737609,0.0017228834331035614
1690840285355576600,8.85357666015625,-0.0014207609929144382,0.0009247895795851946,0.0015519093722105026
1690840285365647600,8.863647705078124,-0.00030168332159519196,0.0032393839210271835,0.001507483422756195
1690840285375687700,8.873687744140625,0.0005814209580421448,0.0024817148223519325,0.0005375593900680542
1690840285385727500,8.8837275390625,0.0003333035856485367,-0.00035042932722717524,-0.0011199656873941422
1690840285395767600,8.893767578125,-0.0009910864755511284,0.0014184422325342894,-0.001091470941901207
1690840285405808400,8.903808349609376,0.00002115778625011444,-0.00048268528189510107,0.00025793537497520447
1690840285415848400,8.913848388671875,0.0020334424916654825,-0.00306808203458786,-0.0023306570947170258
1690840285425888500,8.923888427734376,0.0002655712887644768,-0.0015871409559622407,-0.0011235587298870087
1690840285435929600,8.9339296875,-0.000611407682299614,0.00011168955825269222,-0.0022817663848400116
1690840285445969700,8.9439697265625,0.000051262788474559784,0.0005077716195955873,0.0012039635330438614
1690840285456009500,8.954009521484375,0.0014086761511862278,0.0014388127019628882,0.0017326008528470993
1690840285466049500,8.964049560546876,-0.0005589383654296398,0.002714806469157338,-0.0006207078695297241
1690840285476090400,8.97409033203125,0.0008085947483778,0.0019241138361394405,0.00031699053943157196
1690840285486130400,8.98413037109375,0.00043611228466033936,0.0006416785763576627,0.0013613495975732803
1690840285496170500,8.99417041015625,0.001465424196794629,0.0007860219338908792,-0.0007191132754087448
1690840285506241500,9.004241455078125,-0.0014126147143542767,-0.0018800528487190604,0.0006904508918523788
1690840285516281600,9.014281494140626,0.0006792983040213585,-0.002689653541892767,0.0002054888755083084
1690840285526322700,9.02432275390625,0.0017092814669013023,-0.001813105889596045,0.0003614276647567749
1690840285536362500,9.034362548828126,0.0006168526597321033,-0.0013438569149002433,0.0009683612734079361
1690840285546402600,9.044402587890625,0.00022685900330543518,0.00020793103612959385,0.0005132481455802917
1690840285556442600,9.054442626953126,0.001957380911335349,0.0009368382161483169,0.0010858271270990372
1690840285566483500,9.0644833984375,-0.0007189060561358929,0.0021834324579685926,-0.0009536333382129669
1690840285576523500,9.0745234375,-0.00034393323585391045,0.0014904780546203256,-0.0010018367320299149
1690840285586563600,9.0845634765625,-0.0005428511649370193,-0.0003785284934565425,0.0007057599723339081
1690840285596604700,9.094604736328124,0.0008204211480915546,-0.0009873270755633712,0.0006032288074493408
1690840285606644500,9.10464453125,-0.00006360607221722603,-0.0026757982559502125,-0.0023696627467870712
1690840285616684500,9.1146845703125,-0.0007544299587607384,-0.001315189409069717,-0.0005006548017263412
1690840285626724600,9.124724609375,-0.0006918557919561863,-0.0006541997427120805,-0.0020264219492673874
1690840285636765400,9.134765380859376,-0.0003203446976840496,-0.0016899030888453126,-0.0014098994433879852
1690840285646836500,9.14483642578125,0.0008794164750725031,-0.0009024421451613307,-0.0011665206402540207
1690840285656876500,9.15487646484375,0.0010945997200906277,0.0007918608607724309,0.00007584504783153534
1690840285666916600,9.16491650390625,-0.00008765188977122307,0.0009006686741486192,-0.0001724734902381897
1690840285676956400,9.174956298828125,-0.0013244240544736385,0.000537413521669805,-0.00017487071454524994
1690840285686997500,9.18499755859375,0.0018555878195911646,0.0010057941544800997,-0.0010329727083444595
1690840285697037600,9.19503759765625,-0.00006801355630159378,-0.0002272493438795209,0.0006741117686033249
1690840285707077400,9.205077392578126,-0.0006057219579815865,0.0005445546703413129,0.00008384697139263153
1690840285717117400,9.215117431640625,0.0008414397016167641,-0.00005012925248593092,-0.0007883384823799133
1690840285727158500,9.225158447265626,0.0002389298751950264,-0.001041293260641396,-0.0010109543800354004
1690840285737198600,9.235198486328125,-0.0010503064841032028,-0.002395244315266609,0.0005528554320335388
1690840285747238400,9.24523828125,0.0005744174122810364,-0.00007409544195979834,0.00002017989754676819
1690840285757279500,9.255279541015625,0.00030543794855475426,-0.0003337535308673978,0.00043430179357528687
1690840285767319600,9.265319580078126,0.000022460240870714188,0.0011601566802710295,0.0007475391030311584
1690840285777359400,9.275359375,0.001530075678601861,-0.00030032091308385134,0.0012889597564935684
1690840285787430400,9.285430419921875,-0.0011741146445274353,0.0019414949929341674,-0.0002820044755935669
1690840285797470500,9.295470458984376,0.0005084704607725143,0.001654672552831471,-0.0005288794636726379
1690840285807511600,9.305511474609375,0.0004899133928120136,-0.0009130446705967188,0.0011190567165613174
1690840285817551600,9.315551513671876,-0.00023100432008504868,0.00011040817480534315,0.0003539305180311203
1690840285827591400,9.32559130859375,0.0007855438161641359,-0.0011992239160463214,-0.001844869926571846
1690840285837631500,9.335631591796876,0.002835911465808749,0.16190367937088013,-0.1643027514219284
1690840285847672600,9.345672607421875,0.009650297462940216,0.07845041900873184,-0.14877110719680786
1690840285857712400,9.35571240234375,0.016138555482029915,0.07626183331012726,-0.09434247761964798
1690840285867752400,9.36575244140625,0.010433798655867577,0.02813771739602089,-0.07193224132061005
1690840285877793500,9.37579345703125,-0.0003605256788432598,-0.11635315418243408,-0.04908338934183121
1690840285887833600,9.38583349609375,-0.005926415789872408,-0.13941729068756104,-0.03344253450632095
1690840285897873400,9.395873291015626,-0.014482885599136353,-0.19091324508190155,-0.04003385454416275
1690840285907913500,9.40591357421875,-0.011528441682457924,-0.028960686177015305,-0.01959451101720333
1690840285917954600,9.41595458984375,-0.01474900171160698,-0.029162820428609848,0.033332351595163345
1690840285928024600,9.426024658203126,-0.013869840651750565,-0.03722044453024864,0.06723648309707642
1690840285938065400,9.4360654296875,-0.01035207137465477,0.0733281672000885,0.07054785639047623
1690840285948105500,9.44610546875,-0.0025023403577506542,0.10155381262302399,0.07048515975475311
1690840285958145500,9.4561455078125,0.005563309416174889,0.08787315338850021,0.07279013097286224
1690840285968186600,9.4661865234375,0.01018626056611538,0.052271027117967606,0.07138751447200775
1690840285978226400,9.476226318359375,0.011912521906197071,0.002358060795813799,0.07006366550922394
1690840285988266500,9.4862666015625,0.011156931519508362,-0.041640859097242355,0.06080043315887451
1690840285998306600,9.496306640625,0.00528173241764307,-0.06918247044086456,0.048001281917095184
1690840286008347400,9.506347412109376,-0.000046244822442531586,-0.07473393529653549,0.03278324753046036
1690840286018387500,9.516387451171875,-0.006499351002275944,-0.06301762163639069,0.02046320028603077
1690840286028427500,9.526427490234376,-0.008315054699778557,-0.031230663880705833,0.005961699411273003
1690840286038468600,9.536468505859375,-0.005874533671885729,0.0003192736767232418,-0.011947792023420334
1690840286048508400,9.54650830078125,-0.0015922212041914463,0.031144259497523308,-0.02144644409418106
1690840286058548500,9.556548583984375,0.0035745776258409023,0.05117469280958176,-0.03184209391474724
1690840286068619500,9.56661962890625,0.0054366709664464,0.05501100793480873,-0.04205131158232689
1690840286078659600,9.57665966796875,0.006847879849374294,0.04182649776339531,-0.04914437606930733
1690840286088700400,9.586700439453125,0.0060682944022119045,0.020823577418923378,-0.052876222878694534
1690840286098740500,9.596740478515626,0.0031140497885644436,-0.0027286186814308167,-0.053004052489995956
1690840286108780500,9.606780517578125,-0.00041904812678694725,-0.020211568102240562,-0.051846202462911606
1690840286118820400,9.6168203125,-0.003697399515658617,-0.03350500389933586,-0.04690497741103172
1690840286128861400,9.626861328125,-0.005155694670975208,-0.034630950540304184,-0.03949291259050369
1690840286138901500,9.636901611328126,-0.0043516866862773895,-0.026978356763720512,-0.0302573349326849
1690840286148941600,9.646941650390625,-0.0020313765853643417,-0.0142376022413373,-0.021709032356739044
1690840286158981600,9.656981689453126,0.0009042259771376848,0.00045612198300659657,-0.009073931723833084
1690840286169022500,9.6670224609375,0.003231029724702239,0.014881666749715805,-0.00029721856117248535
1690840286179062500,9.6770625,0.003463790053501725,0.023047184571623802,0.010673940181732178
1690840286189102300,9.687102294921875,0.005150852259248495,0.024482859298586845,0.01933990605175495
1690840286199143400,9.697143310546876,0.0013726255856454372,0.019549354910850525,0.02751261368393898
1690840286209213400,9.70721337890625,0.0007960512302815914,0.011347085237503052,0.03294439613819122
1690840286219254500,9.717254638671875,-0.0018074549734592438,-0.0004286140901967883,0.03635697066783905
1690840286229294600,9.727294677734376,-0.001973353326320648,-0.01115678995847702,0.03771224245429039
1690840286239334700,9.737334716796875,-0.002800264395773411,-0.01711907610297203,0.040268342941999435
1690840286249375500,9.74737548828125,-0.002214585430920124,-0.022456016391515732,0.037029631435871124
1690840286259415300,9.757415283203125,-0.0023429496213793755,-0.016568299382925034,0.03477686643600464
1690840286269455400,9.767455322265626,0.0009829883929342031,-0.009694648906588554,0.02687826193869114
1690840286279495400,9.777495361328125,0.0006487616337835789,-0.0009970314567908645,0.021898683160543442
1690840286289536500,9.78753662109375,0.0012018035631626844,0.007542602252215147,0.013156184926629066
1690840286299576600,9.79757666015625,0.0010121865198016167,0.01241698581725359,0.006159261800348759
1690840286309616600,9.80761669921875,0.0005918312817811966,0.013664000667631626,-0.0008002594113349915
1690840286319657500,9.817657470703125,-0.0001983288675546646,0.012175293639302254,-0.011413488537073135
1690840286329697500,9.827697509765626,-0.000428901519626379,0.0060187047347426414,-0.020677633583545685
1690840286339730000,9.83772998046875,0.0002573947422206402,-0.000727614969946444,-0.02522232010960579
1690840286349801000,9.847801025390625,0.0006653405725955963,-0.003701338544487953,-0.02801673114299774
1690840286359841000,9.857841064453124,0.0006642751395702362,-0.008059335872530937,-0.028805825859308243
1690840286369880800,9.867880859375,-0.00018945010378956795,-0.00722526153549552,-0.029022742062807083
1690840286379922000,9.877921875,-0.0005255411379039288,-0.007573070470243692,-0.027942299842834473
1690840286389962000,9.8879619140625,0.0005380921065807343,-0.003164940048009157,-0.0235903337597847
1690840286400002000,9.898001953125,-0.0009005474857985973,-0.0009148350218310952,-0.018641114234924316
1690840286410043000,9.90804296875,-0.0009629665873944759,0.004954433534294367,-0.015662021934986115
1690840286420083000,9.9180830078125,-0.000014881137758493423,0.007553412578999996,-0.01207926869392395
1690840286430123000,9.928123046875,-0.0009497981518507004,0.008057454600930214,-0.006522681564092636
1690840286440162800,9.938162841796874,0.0018912618979811668,0.007475554011762142,0.001704622060060501
1690840286450204000,9.948203857421875,0.00041888561099767685,0.0033867782913148403,0.006622603163123131
1690840286460244000,9.958243896484374,0.001735019963234663,0.0015009938506409526,0.009524649940431118
1690840286470284000,9.968283935546875,0.0009561073966324329,-0.003346373327076435,0.016605371609330177
1690840286480324900,9.978324951171874,0.0000932430848479271,-0.004307774361222982,0.020972955971956253
1690840286490395100,9.98839501953125,-0.002049536444246769,-0.0067120762541890144,0.01926187425851822
1690840286500436000,9.99843603515625,-0.0007749474607408047,-0.006198884919285774,0.021998805925250053
1690840286510476000,10.00847607421875,-0.0012476081028580666,-0.0031090518459677696,0.01995132863521576
1690840286520515800,10.018515869140625,-0.00016077235341072083,-0.0010094154858961701,0.01922561600804329
1690840286530557000,10.028556884765624,-0.0010243328288197517,0.0015787193551659584,0.015779664739966393
1690840286540597000,10.038596923828125,-0.00022858008742332458,0.0008146584732457995,0.012482138350605965
1690840286550637000,10.048636962890624,0.00029594358056783676,0.003739433828741312,0.010618290863931179
1690840286560677000,10.058677001953125,0.00039581209421157837,0.004609222523868084,0.005472265183925629
1690840286570718000,10.068718017578124,-0.0011413311585783958,0.00017605966422706842,-0.00023118779063224792
1690840286580758000,10.078758056640625,0.000011284835636615753,0.0017776847817003727,-0.002926040440797806
1690840286590797800,10.0887978515625,-0.001492250245064497,-0.0010439614998176694,-0.008269213140010834
1690840286600839000,10.0988388671875,-0.0011210055090487003,-0.00010359950829297304,-0.009407714009284973
1690840286610879000,10.10887890625,-0.0014621219597756863,-0.003997202962636948,-0.01331833004951477
1690840286620919000,10.1189189453125,-0.000787010882049799,-0.0009827710455283523,-0.015154581516981125
1690840286630990000,10.128989990234375,0.0005345023237168789,-0.002542545087635517,-0.01583506539463997
1690840286641030100,10.139030029296874,0.00016219262033700943,-0.0005177437560632825,-0.016535475850105286
1690840286651070200,10.1490703125,-0.0008963537402451038,0.0006014312384650111,-0.014157628640532494
1690840286661111000,10.159111083984374,-0.0025991788133978844,-0.0007573134498670697,-0.012805277481675148
1690840286671150800,10.16915087890625,0.00038640713319182396,0.0017961586127057672,-0.008154002949595451
1690840286681191000,10.17919091796875,-0.0010993704199790955,0.003233466763049364,-0.007640546187758446
1690840286691232000,10.18923193359375,0.00010309694334864616,0.0005881809629499912,-0.0032250583171844482
1690840286701272000,10.19927197265625,-0.0010095718316733837,0.000372997485101223,-0.0003448501229286194
1690840286711312100,10.20931201171875,0.000019446946680545807,0.00025670346803963184,0.002925572916865349
1690840286721352200,10.219352294921874,0.0003531412221491337,0.00024178973399102688,0.0069783711805939674
1690840286731393000,10.22939306640625,0.0000037606805562973022,-0.0008467301959171891,0.006886964663863182
1690840286741432800,10.239432861328124,-0.00035709748044610023,-0.0029122778214514256,0.011207410134375095
1690840286751473000,10.249472900390625,-0.0006905742920935154,-0.0009558108868077397,0.010774519294500351
1690840286761514000,10.259513916015624,0.0008884137496352196,-0.001700164400972426,0.012961241416633129
1690840286771584000,10.269583984375,0.00023992778733372688,-0.000981018994934857,0.012906212359666824
1690840286781625000,10.279625,-0.0007960419170558453,-0.00005104311276227236,0.011954132467508316
1690840286791665200,10.2896650390625,-0.00027667777612805367,-0.0000584915978834033,0.011886640451848507
1690840286801705200,10.299705322265625,0.001801919424906373,0.002552471589297056,0.007986973971128464
1690840286811745000,10.3097451171875,0.00004181964322924614,0.000890558585524559,0.0071672676131129265
1690840286821785900,10.319785888671875,0.00018776115030050278,0.0023140180855989456,0.0035570859909057617
1690840286831826000,10.329825927734374,-0.0006876159459352493,-0.0004362905165180564,0.0012350454926490784
1690840286841866000,10.339865966796875,-0.0005693715065717697,-0.0006900896551087499,-0.0030265450477600098
1690840286851907000,10.349906982421874,-0.0015852334909141064,-0.0004238990368321538,-0.004636488854885101
1690840286861947100,10.359947021484375,-0.0002243579365313053,-0.0019557494670152664,-0.007455445826053619
1690840286871987200,10.3699873046875,-0.0005380748771131039,-0.0020055659115314484,-0.0076899453997612
1690840286882027000,10.380027099609375,0.0008989670313894749,-0.0022335322573781013,-0.007004180923104286
1690840286892067800,10.39006787109375,0.000838978448882699,-0.0016566939884796739,-0.0090694110840559
1690840286902108000,10.40010791015625,-0.001123771071434021,-0.0004548094002529979,-0.009556503966450691
1690840286912179000,10.410178955078125,-0.00016025034710764885,0.00011996645480394363,-0.006063789129257202
1690840286922219000,10.420218994140624,0.0008871708996593952,0.0017450273735448718,-0.007450496777892113
1690840286932259000,10.430259033203125,-0.0003048316575586796,0.00023954093921929598,-0.006659969687461853
1690840286942300200,10.440300048828124,0.00103979860432446,0.0017671301029622555,-0.004530506208539009
1690840286952340000,10.450340087890625,0.0002595488913357258,0.0009588141110725701,-0.002733128145337105
1690840286962380000,10.460380126953124,0.0008851252496242523,0.0012083523906767368,-0.0014617349952459335
1690840286972420900,10.4704208984375,-0.0008181123994290829,0.0008134273812174797,-0.0007902719080448151
1690840286982461000,10.4804609375,-0.0005539269186556339,-0.0014816847397014499,0.004402359947562218
1690840286992501000,10.4905009765625,0.0008896116632968187,-0.0013293257215991616,0.0054392023012042046
1690840287002541000,10.500541015625,0.00002248631790280342,-0.00215730257332325,0.00616677850484848
1690840287012582100,10.51058203125,-0.0003906209021806717,-0.0006819794652983546,0.0074576931074261665
1690840287022622200,10.520622314453124,-0.0004825000651180744,-0.00038956443313509226,0.006224649026989937
1690840287032662000,10.530662109375,-0.0010648863390088081,0.0021016232203692198,0.007028145715594292
1690840287042702800,10.540702880859374,0.00032262038439512253,0.0018097406718879938,0.006821484304964542
1690840287052773000,10.550773193359374,-0.00018413877114653587,0.0016227003652602434,0.005661468021571636
1690840287062814000,10.56081396484375,-0.0008595166727900505,-0.0003371200291439891,0.00469474121928215
1690840287072854000,10.57085400390625,-0.0011074435897171497,0.0012453502276912332,0.002939373254776001
1690840287082894000,10.58089404296875,0.001321625430136919,-0.0002928915200755,0.0021082013845443726
1690840287092934000,10.590933837890624,-0.00029818154871463776,0.00025262264534831047,-0.0009544473141431808
1690840287102975000,10.60097509765625,-0.0020308340899646282,0.0008166801417246461,0.0017854124307632446
1690840287113015000,10.61101513671875,-0.00002792850136756897,-0.0017095886869356036,-0.00182248093187809
1690840287123055000,10.62105517578125,-0.0007925224490463734,-0.00015243852976709604,-0.0009295232594013214
1690840287133096000,10.631095947265624,0.0006580576300621033,-0.00013423163909465075,-0.005029534921050072
1690840287143136000,10.641135986328125,0.0009075957350432873,-0.0023806076496839523,-0.005623152479529381
1690840287153176000,10.651176025390624,-0.00029988959431648254,-0.0009371415944769979,-0.003924725577235222
1690840287163216100,10.661216064453125,0.0006806859746575356,0.0014346695970743895,-0.003557741641998291
1690840287173257200,10.67125732421875,-0.0009574149735271931,0.002254490042105317,-0.0033217985183000565
1690840287183297000,10.681297119140625,0.00015685195103287697,0.00037376570980995893,-0.0041343290358781815
1690840287193368000,10.6913681640625,0.00001534959301352501,0.0005836873315274715,-0.003321770578622818
1690840287203408100,10.701408203125,0.00029364973306655884,0.00048195465933531523,-0.0012295916676521301
1690840287213448000,10.711447998046875,0.0019969234708696604,0.0005717554595321417,-0.001235615462064743
1690840287223489000,10.721489013671874,0.00029676174744963646,0.0002577687846496701,0.0005297940224409103
1690840287233529000,10.731529052734375,-0.0007651187479496002,-0.0023922566324472427,0.0029030442237854004
1690840287243569000,10.74156884765625,0.0015997679438441992,-0.00047717790585011244,0.0025738775730133057
1690840287253610000,10.75160986328125,-0.0009691240265965462,-0.0015946760540828109,0.0033278614282608032
1690840287263650000,10.761650146484374,0.0006423546001315117,-0.0017691132379695773,0.002559805288910866
1690840287273690000,10.771690185546875,0.000020488165318965912,-0.0010741642909124494,0.0059745656326413155
1690840287283730000,10.78172998046875,-0.0010695434175431728,0.001503775711171329,0.0023252349346876144
1690840287293771000,10.79177099609375,0.0006582485511898994,0.001755378907546401,0.003594469279050827
1690840287303811000,10.80181103515625,0.0007706340402364731,0.0010448475368320942,0.0026301387697458267
1690840287313851100,10.81185107421875,0.00008408632129430771,-0.0017645183252170682,0.0028675254434347153
1690840287323891000,10.821890869140624,0.00003162212669849396,0.0010970481671392918,0.0037671420723199844
1690840287333962000,10.8319619140625,-0.00036496296525001526,-0.0011452451581135392,0.0025819893926382065
1690840287343995000,10.841994873046875,0.00015515228733420372,-0.0015303381951525807,-0.00025933608412742615
1690840287354035000,10.852034912109374,0.00005425885319709778,-0.00024291081354022026,-0.000784536823630333
1690840287364074800,10.86207470703125,0.0005405517295002937,-0.00112867821007967,-0.0016162432730197906
1690840287374114800,10.87211474609375,-0.00047314492985606194,-0.0006503610638901591,-0.0023755766451358795
1690840287384155600,10.88215576171875,-0.0005889926105737686,0.0024674017913639545,-0.0031231269240379333
1690840287394195700,10.89219580078125,-0.0006226217374205589,0.006986792199313641,-0.00132773257791996
1690840287404235800,10.90223583984375,0.0006809956394135952,0.007343655452132225,0.0005599167197942734
1690840287414276900,10.91227685546875,0.0014427723363041878,-0.0011866275453940034,-0.005430223420262337
1690840287424317000,10.92231689453125,-0.00018628360703587532,0.0019340646686032414,-0.003477061167359352
1690840287434356700,10.932356689453124,0.0013350164517760277,-0.0014034725027158856,-0.004153266549110413
1690840287444396800,10.942396728515625,0.0005794777534902096,-0.0009597897296771407,-0.0035636425018310547
1690840287454437600,10.952437744140624,-0.0001638326793909073,-0.000793671584688127,-0.00325128436088562
1690840287464477700,10.962477783203125,0.0012140870094299316,0.0006202005315572023,-0.00046588480472564697
1690840287474548700,10.972548828125,-0.0008450341410934925,-0.0006804486038163304,0.00046377629041671753
1690840287484588800,10.9825888671875,-0.0005185301415622234,-0.0019537056796252728,0.0016414262354373932
1690840287494628900,10.99262890625,-0.0006169476546347141,-0.0011771280551329255,0.000973772257566452
1690840287504670000,11.002669921875,-0.0008118911646306515,0.0006226360565051436,0.001121310517191887
1690840287514709800,11.012709716796875,-0.001182429026812315,0.0007925856625661254,0.0023340675979852676
1690840287524749800,11.022749755859374,0.001839725999161601,0.001985149225220084,0.0025681592524051666
1690840287534790000,11.032789794921875,0.0003729304298758507,0.001792284892871976,0.0006652325391769409
1690840287544830700,11.042830810546874,-0.0011621154844760895,0.0013813591795042157,0.0021086670458316803
1690840287554870800,11.052870849609375,-0.0009077317081391811,-0.0005041229305788875,0.0030646976083517075
1690840287564910800,11.062910888671874,-0.0010803043842315674,-0.0017568737966939807,0.00005026720464229584
1690840287574952000,11.072951904296875,0.00041348952800035477,-0.004446436185389757,0.0007437970489263535
1690840287584991700,11.08299169921875,-0.0008539087139070034,-0.0033372296020388603,0.0001416560262441635
1690840287595031800,11.09303173828125,0.00029043806716799736,-0.00397805031388998,-0.0006487984210252762
1690840287605072000,11.10307177734375,-0.0005247555673122406,0.0009181714849546552,0.00028011202812194824
1690840287615143000,11.113142822265624,0.0018346048891544342,0.0015583953354507685,-0.0021556150168180466
1690840287625183700,11.123183837890625,-0.0006226939149200916,0.0004577109357342124,-0.001262923702597618
1690840287635223800,11.133223876953124,0.0017651470843702555,0.0015928789507597685,-0.00023728609085083008
1690840287645264000,11.143263916015625,-0.00066765071824193,0.001647740020416677,-0.001295093446969986
1690840287655303700,11.1533037109375,0.0019033534917980433,0.0015065190382301807,-0.0011238157749176025
1690840287665344800,11.1633447265625,0.0007917501498013735,0.003176321042701602,0.0021904874593019485
1690840287675384800,11.173384765625,0.0009326108265668154,0.0002659379970282316,-0.0009391605854034424
1690840287685425000,11.1834248046875,0.0012042534071952105,-0.0011924089631065726,-0.0011218525469303131
1690840287695465700,11.1934658203125,0.00023935316130518913,0.002616202924400568,0.003415452316403389
1690840287705505800,11.203505859375,0.0001565287820994854,-0.0003220626385882497,0.0004273839294910431
1690840287715545900,11.2135458984375,0.0010755343828350306,-0.0000031534582376480103,0.00046232715249061584
1690840287725585700,11.223585693359375,0.0004840465262532234,-0.0036306451074779034,0.00001944229006767273
1690840287735626800,11.233626708984374,-0.0008360366337001324,-0.004137877840548754,0.0015249159187078476
1690840287745666800,11.243666748046875,0.0008010086603462696,-0.00351523095741868,0.002258084714412689
1690840287755737900,11.25373779296875,-0.0008393712341785431,-0.0010138762881979346,-0.0008153393864631653
1690840287765778000,11.26377783203125,0.0008530677296221256,0.002293769735842943,0.0026651453226804733
1690840287775818000,11.27381787109375,0.0018441148567944765,0.00464276596903801,0.002630632370710373
1690840287785858800,11.28385888671875,0.000549019780009985,0.005302164237946272,0.00249667651951313
1690840287795899000,11.29389892578125,0.00025492021813988686,0.005609163083136082,0.001703556627035141
1690840287805938700,11.303938720703124,0.00024959398433566093,0.0032714405097067356,0.00011578015983104706
1690840287815978800,11.313978759765625,-0.0008083260618150234,-0.00239726435393095,0.000629158690571785
1690840287826019800,11.324019775390624,0.0003842376172542572,-0.004609285853803158,-0.0004102736711502075
1690840287836060000,11.334059814453125,-0.000306176021695137,-0.005921854171901941,0.000654241070151329
1690840287846100000,11.344099853515624,0.0010919834021478891,-0.007093911524862051,-0.0012318100780248642
1690840287856140800,11.354140869140625,0.0011670433450490236,-0.005178095772862434,-0.000517580658197403
1690840287866180900,11.364180908203124,0.00028580334037542343,-0.002567931544035673,0.0011436976492404938
1690840287876220700,11.374220703125,-0.0007561193779110909,0.0008167049381881952,-0.0004445333033800125
1690840287886260700,11.3842607421875,-0.0010780957527458668,0.003006356069818139,0.00040954165160655975
1690840287896331800,11.394331787109374,0.0004155207425355911,0.005599285010248423,-0.0017759408801794052
1690840287906372900,11.404372802734375,-0.001133906189352274,0.00588317820802331,0.00013727322220802307
1690840287916413000,11.414412841796874,0.00004898617044091225,0.006087467074394226,-0.0007420238107442856
1690840287926453000,11.424452880859375,0.003003497142344713,0.0015920511214062572,-0.0016155410557985306
1690840287936492800,11.434492919921874,0.00039824657142162323,-0.0002237622393295169,0.001057291403412819
1690840287946533600,11.44453369140625,0.00009704288095235825,-0.004648338072001934,0.0015057679265737534
1690840287956573700,11.45457373046875,-0.0004137917421758175,-0.006050256080925465,0.0014998391270637512
1690840287966613800,11.46461376953125,-0.00029821088537573814,-0.00776479858905077,0.00018530339002609253
1690840287976653800,11.47465380859375,-0.0020827329717576504,-0.00460463110357523,0.000039225444197654724
1690840287986695000,11.48469482421875,-0.00009494926780462265,-0.000994183705188334,0.0004176609218120575
1690840287996735000,11.49473486328125,-0.00008488167077302933,0.001498919795267284,0.0016419440507888794
1690840288006774800,11.50477490234375,0.00037398096174001694,0.006144804414361715,-0.000038776546716690063
1690840288016815900,11.51481591796875,0.0019331141375005245,0.006208108272403479,0.0025112926959991455
1690840288026855700,11.524855712890625,0.000500866211950779,0.0049196709878742695,0.0009426921606063843
1690840288036926700,11.5349267578125,-0.0018666582182049751,0.0030997609719634056,0.00013878010213375092
1690840288046966800,11.544966796875,-0.0007633105851709843,-0.0015637004980817437,0.0015358738601207733
1690840288057006800,11.5550068359375,-0.00020082015544176102,-0.0024681095965206623,0.001764768734574318
1690840288067048000,11.5650478515625,0.000581616535782814,-0.004550169222056866,0.0007397178560495377
1690840288077088000,11.575087890625,0.0004331846721470356,-0.003596123307943344,0.0014111083000898361
1690840288087127800,11.5851279296875,0.000345833133906126,-0.006118403282016516,-0.0012722928076982498
1690840288097167600,11.595167724609375,-0.0007855119183659554,-0.001101438538171351,-0.0002773404121398926
1690840288107208700,11.605208740234374,-0.0006957636214792728,0.0016671838238835335,-0.0007974561303853989
1690840288117248800,11.615248779296875,0.0006228797137737274,0.002310466021299362,-0.000003958120942115784
1690840288127288800,11.625288818359374,-0.000853310339152813,0.0035118181258440018,0.000508701428771019
1690840288137330000,11.635329833984375,-0.0011760005727410316,0.008842483162879944,0.0024632494896650314
1690840288147370000,11.645369873046874,0.00013161171227693558,0.004128421191126108,-0.00026329420506954193
1690840288157409800,11.655409912109375,0.0018347124569118023,0.000352653325535357,0.0011714529246091843
1690840288167449600,11.66544970703125,0.0010208503808826208,-0.0003024843754246831,-0.001207549124956131
1690840288177520600,11.675520751953124,0.00025676097720861435,-0.0012391553027555346,0.0005907900631427765
1690840288187560700,11.685560791015625,-0.0013802843168377876,-0.004530822392553091,-0.002293946221470833
1690840288197601800,11.695601806640624,-0.00045303022488951683,-0.0021032229997217655,0.0005171820521354675
1690840288207641900,11.705641845703125,-0.0010391920804977417,-0.003085929434746504,-0.0003893580287694931
1690840288217682000,11.715681884765624,0.0002755178138613701,0.0008132797665894032,-0.0013713669031858444
1690840288227723000,11.725722900390625,0.0009141438640654087,0.00032911705784499645,-0.002239024266600609
1690840288237762800,11.7357626953125,0.0001168535090982914,0.003300596959888935,0.001947076991200447
1690840288247802600,11.745802734375,-5.918554961681366e-7,0.004198614973574877,0.0023358985781669617
1690840288257842700,11.7558427734375,-0.00025807367637753487,0.002409339416772127,0.0008513014763593674
1690840288267883800,11.7658837890625,-0.0008721989579498768,0.0018953492399305105,0.0006001666188240051
1690840288277923800,11.775923828125,0.00025076093152165413,-0.0010905222734436393,0.002524895593523979
1690840288287964000,11.7859638671875,0.0007663490250706673,-0.0012396591482684016,-0.0006309505552053452
