time,seconds_elapsed,z,y,x
1690841542540264400,0.047264404296875,0.11545943982601165,-0.1215045652091503,0.0231437240970321
1690841542550304500,0.057304443359375,0.1102683009237051,-0.16697983850380405,0.013482230281061491
1690841542560344600,0.067344482421875,0.11101531989872455,-0.19966858586370945,-0.0019932561764493583
1690841542570385400,0.077385498046875,0.11456336776912211,-0.20072414106493813,-0.010340128296473993
1690841542580425500,0.087425537109375,0.1248030222326517,-0.1653394326193258,-0.013521756290562915
1690841542590465500,0.097465576171875,0.13934826493561267,-0.11715940301115624,-0.00636382681033574
1690841542600536300,0.107536376953125,0.15970248617827892,-0.046853557644225656,0.005653893009270541
1690841542610576400,0.117576416015625,0.18528116407096384,0.017567083875322714,0.004802550576673821
1690841542620617500,0.127617431640625,0.2107154650568962,0.0751464811979793,0.004785224982537329
1690841542630657500,0.137657470703125,0.22449966025948523,0.12512878358829765,0.0021029773283516985
1690841542640697600,0.147697509765625,0.2422124270826578,0.15979476757161318,-0.013829444275045533
1690841542650738400,0.157738525390625,0.24395780944526194,0.18001681380197404,-0.03449097447628155
1690841542660778500,0.167778564453125,0.2397679565399885,0.18425295353438703,-0.04345982355270535
1690841542670818600,0.177818603515625,0.2404132687062025,0.18235502922488375,-0.04519860264458693
1690841542680858400,0.1878583984375,0.22867782272696494,0.1729499624219723,-0.05116535642873495
1690841542690899500,0.1978994140625,0.2258002214640379,0.14173198173437268,-0.0440273349420866
1690841542700939500,0.207939453125,0.2144061362683773,0.11215871778018772,-0.03696375323140528
1690841542710979600,0.2179794921875,0.20315876606702804,0.06959439089563675,-0.020911165572260505
1690841542721020400,0.2280205078125,0.16780512861311433,0.018307727908482774,-0.003172757417755201
1690841542731090400,0.23809033203125,0.1577162807971239,-0.021643018944188953,0.007350773754762485
1690841542741131500,0.248131591796875,0.15208791952133177,-0.05029082948337309,0.02021719424201874
1690841542751171300,0.25817138671875,0.12981880456805228,-0.07554682389348745,0.029361655613675246
1690841542761211400,0.26821142578125,0.134603116235137,-0.08917338084895163,0.02440072928764857
1690841542771251500,0.27825146484375,0.13921090229153632,-0.09089572939584031,0.010835099606029689
1690841542781292500,0.28829248046875,0.14992928018271923,-0.0747496547669638,0.009302139005510253
1690841542791332600,0.29833251953125,0.15853344239890574,-0.041797927355626596,0.008043941367405933
1690841542801372400,0.308372314453125,0.1707183857113123,-0.005176608053455129,-0.007752395091904327
1690841542811413500,0.31841357421875,0.19547171869575977,0.028062996388552707,-0.01972865952311549
1690841542821453600,0.32845361328125,0.20332360123991966,0.05740658890586346,-0.0210938240962103
1690841542831493400,0.338493408203125,0.2119406229376793,0.08281009289473294,-0.02905180649650283
1690841542841533400,0.348533447265625,0.21683891637325287,0.11585670464844443,-0.02072333311627153
1690841542851574500,0.358574462890625,0.21458149283528327,0.12896943033025599,-0.021345867195096797
1690841542861645600,0.3686455078125,0.21758710439205167,0.12362563988319597,-0.022750788389844817
1690841542871685600,0.378685546875,0.2173252385854721,0.11960028422409667,-0.02188375063119456
1690841542881725400,0.388725341796875,0.20720482658743858,0.10511591399605386,-0.02293345604694914
1690841542891765200,0.39876513671875,0.20143559553623197,0.08012645243448205,-0.018142937259719473
1690841542901806300,0.408806396484375,0.1950689831137657,0.053012792660016565,-0.016791848019394092
1690841542911846400,0.418846435546875,0.18690262779295444,0.027043188354140147,-0.011589000412984751
1690841542921886500,0.428886474609375,0.16435820302963255,0.007343421565368771,-0.01799526670911582
1690841542931927600,0.438927490234375,0.17441782475113868,-0.017900836741179225,-0.017688089039642363
1690841542941967400,0.44896728515625,0.16530512849092482,-0.03151094488534145,-0.0032665937306475823
1690841542952007400,0.45900732421875,0.1555775152027607,-0.03674950312594883,0.005614897293553803
1690841542962047500,0.469047607421875,0.16977321381568908,-0.03947460810774937,0.009192910473130178
1690841542972088600,0.479088623046875,0.17737024481594563,-0.010058845403371378,0.013338748423452488
1690841542982158300,0.489158447265625,0.17328677489459512,0.0010496734497137366,0.001954737668056623
1690841542992199400,0.499199462890625,0.1793751548975706,0.01730414948966354,-0.0008068457037443295
1690841543002239500,0.509239501953125,0.19205109659731387,0.037911039452301336,-0.018325094601814633
1690841543012279600,0.519279541015625,0.20353402912020682,0.046275757756270464,-0.0272853037140565
1690841543022320400,0.5293203125,0.20126199253499508,0.06789619954247027,-0.026717107338085768
1690841543032360400,0.5393603515625,0.21112404585778713,0.07411811539777555,-0.031885363121726545
1690841543042400300,0.549400146484375,0.20394202539920805,0.08373526318194344,-0.03231442502164282
1690841543052440300,0.5594404296875,0.20200784246623515,0.08565360922496765,-0.02173156031074468
1690841543062481400,0.5694814453125,0.1917056441605091,0.07984189073890448,-0.018759809924382715
1690841543072521500,0.579521484375,0.20744623412787913,0.06999275169661268,0.0005545560096856207
1690841543082561500,0.5895615234375,0.20508768830299376,0.055117281525442374,-0.0033655120732117207
1690841543092602400,0.599602294921875,0.1629226172685623,0.043566005607228724,-0.011957281169528142
1690841543102642400,0.609642333984375,0.1943769091963768,0.01977492351736873,-0.0054367796598700805
1690841543112713500,0.61971337890625,0.16507190425693988,0.013757882584398612,-0.010192326456774026
1690841543122753300,0.629753173828125,0.186185419434309,0.002595094527117908,-0.0052633547551464285
1690841543132793300,0.63979345703125,0.16733517301380632,-0.005474604619340971,-0.015936445899610407
1690841543142834400,0.64983447265625,0.17870061663687228,-0.003612144348863512,-0.01614701991037
1690841543152874500,0.65987451171875,0.17165128264725207,0.006063620021054521,-0.007060942229023203
1690841543162914600,0.66991455078125,0.17327333089113234,0.009510180278355256,-0.0072996874549193305
1690841543172954600,0.67995458984375,0.19045242922902106,0.018754247833276165,-0.0025338201934006063
1690841543182995500,0.689995361328125,0.20374153439104556,0.025238933677459136,-0.0001506879165302962
1690841543193035300,0.70003515625,0.18142215055525301,0.04154451885013841,-0.004096931620300165
1690841543203075300,0.710075439453125,0.19592063150703906,0.05314777155076153,-0.011600630343629745
1690841543213115400,0.720115478515625,0.18977789096832273,0.05671828698129393,-0.005703540837275796
1690841543223156500,0.730156494140625,0.21312252619862554,0.06262106301798485,-0.014550502258323831
1690841543233196500,0.740196533203125,0.19726736994087696,0.059639499057084315,-0.025169996627094224
1690841543243267600,0.750267578125,0.20910101559758185,0.06052225497467443,-0.025012107218219896
1690841543253307600,0.7603076171875,0.18802023364603518,0.058763583872234446,-0.016090261921565978
1690841543263347500,0.770347412109375,0.20389993982315063,0.04685302792126313,-0.004204265023116022
1690841543273388300,0.78038818359375,0.19269640876352787,0.037158622782956806,-0.0006670810400275513
1690841543283428400,0.790428466796875,0.19181670331954956,0.024823959668399766,-0.006642963412124663
1690841543293468400,0.800468505859375,0.16998071908652782,0.01668508600955829,-0.0013297325001098215
1690841543303509500,0.810509521484375,0.18300562035441398,0.013737789644440635,-0.013646585963340476
1690841543313549600,0.820549560546875,0.1879448303222656,0.012023889265488832,-0.01382277364730835
1690841543323589600,0.830589599609375,0.1812052929341793,0.010243773516220972,-0.018017680611967807
1690841543333629400,0.84062939453125,0.18523323327600955,0.01714288538019173,-0.03217042257422581
1690841543343670300,0.850670166015625,0.20152911903858184,0.02354814931261353,-0.03129506451180204
1690841543353710300,0.86071044921875,0.1944815386146307,0.03712996294405311,-0.012047151410067453
1690841543363781400,0.870781494140625,0.19207272390723226,0.03396528836805373,-0.008296361208916641
1690841543373821400,0.880821533203125,0.19250877723693846,0.04680303303338587,0.0011560661376133793
1690841543383861500,0.890861572265625,0.1924988403648138,0.05361217419211752,0.008544335487461648
1690841543393902600,0.900902587890625,0.19204700494408605,0.06210621796417981,0.007028315176122123
1690841543403942400,0.9109423828125,0.18995558562278747,0.053004371891543264,-0.010328200396662577
1690841543413982500,0.920982421875,0.19579846643209456,0.046015316721796984,-0.018106911531690275
1690841543424022500,0.9310224609375,0.19939853675067423,0.05533760061208159,-0.028511041550152
1690841543434063400,0.9410634765625,0.1898316669821739,0.04613310701572336,-0.03835212058357428
1690841543444103400,0.951103515625,0.1937315970301628,0.03781883112420328,-0.025095008861855603
1690841543454143500,0.9611435546875,0.1905991442233324,0.03607352182683535,-0.019531520382664164
1690841543464184600,0.9711845703125,0.1825251433610916,0.029467748619941992,-0.010804626835952512
1690841543474224600,0.981224609375,0.18686755647957323,0.023384766311291605,-0.0034669271918945014
1690841543484264400,0.991264404296875,0.18686872552335262,0.026145810256153344,0.014350980506185442
1690841543494335500,1.00133544921875,0.18013386431038378,0.02428861981583759,0.009157599985264823
1690841543504391400,1.011391357421875,0.18192600842416284,0.02811968587869778,-0.003050327481329441
1690841543514432500,1.0214326171875,0.19119944820404053,0.025164324938133358,-0.009226212237821892
1690841543524472300,1.031472412109375,0.19403788650035858,0.022622029177332297,-0.02649097043201327
1690841543534512400,1.041512451171875,0.2007645644068718,0.03241507238452323,-0.03723840545432176
1690841543544552400,1.051552490234375,0.18489421057999134,0.03778188751414418,-0.03445161971342749
1690841543554593300,1.06159326171875,0.1818938597202301,0.04218304508253932,-0.02321915938684251
1690841543564633300,1.07163330078125,0.18996902962625026,0.04582438812642358,-0.02112010474835988
1690841543574673400,1.08167333984375,0.19670096822977065,0.04853859725487418,-0.011641073093516752
1690841543584714500,1.091714599609375,0.1872743837147951,0.04691745319329202,-0.006199946052092127
1690841543594754600,1.101754638671875,0.1895224549025297,0.04402402417357079,0.005231059920741245
1690841543604794400,1.11179443359375,0.19461597864925861,0.03577978131095878,0.004114084255322814
1690841543614834400,1.12183447265625,0.18669336895644664,0.03800832581431605,-0.007305481299821986
1690841543624905500,1.131905517578125,0.1870002429485321,0.03936353981555439,-0.003972616258286871
1690841543634945300,1.1419453125,0.1790747106462717,0.02822381297345273,-0.011092599764745682
1690841543644986400,1.151986328125,0.1847644467204809,0.02726334304399788,-0.01980226361544337
1690841543655026400,1.1620263671875,0.18072481594085693,0.028479194240318608,-0.020983582354499958
1690841543665066200,1.172066162109375,0.1856616878211498,0.02584831601376645,-0.011928114440548233
1690841543675107300,1.182107421875,0.1868558660417795,0.031934896785300225,-0.010284100960032082
1690841543685147400,1.1921474609375,0.18311024977266788,0.03295201053912751,-0.004375840464048087
1690841543695187500,1.2021875,0.18400456826388834,0.03285120791262015,0.0014954307561041787
1690841543705227300,1.212227294921875,0.19043489357233045,0.035534802707098426,-0.006642263584159081
1690841543715268400,1.222268310546875,0.18414485351741314,0.03549563974048942,-0.006858190765115432
1690841543725308400,1.232308349609375,0.18938041608333586,0.030583299513254312,-0.015418760434747672
1690841543735348200,1.24234814453125,0.1862374418824911,0.042688099394692106,-0.01652684954081196
1690841543745389300,1.252389404296875,0.1874357117563486,0.04364424020890146,-0.014606004438380477
1690841543755459300,1.262459228515625,0.18683716134130954,0.0430684952807147,-0.018540842544613405
1690841543765500400,1.27250048828125,0.19551848044693468,0.03841343601648695,-0.013468083024700171
1690841543775540200,1.282540283203125,0.19207856912612914,0.04181821209182963,-0.01255239637682098
1690841543785580300,1.292580322265625,0.1850479398369789,0.04035635024518706,-0.007812518648151308
1690841543795621400,1.302621337890625,0.18924071535170078,0.03666652841707691,-0.0033524556579941417
1690841543805661400,1.312661376953125,0.18520400718152522,0.04006017117705196,-0.007368039983394556
1690841543815701200,1.322701171875,0.1920890905201435,0.03701915038018487,-0.010744050046912161
1690841543825741300,1.3327412109375,0.1898456955075264,0.03264225047021173,-0.006406656738487072
1690841543835782400,1.342782470703125,0.18431085773408412,0.025868418086878953,-0.013842893986729905
1690841543845822200,1.352822265625,0.18490823910534382,0.026983996379654852,-0.0009359656758606434
1690841543855862300,1.3628623046875,0.1843079351246357,0.030430045180302113,-0.005558719830884365
1690841543865902300,1.37290234375,0.17607377526462076,0.03344884501220658,-0.009088639531191437
1690841543875973000,1.38297314453125,0.17651918094456195,0.037652772108605126,-0.017882226797187466
1690841543886014200,1.39301416015625,0.1838455783098936,0.03592390248938464,-0.010720423717796803
1690841543896054300,1.40305419921875,0.1871358520269394,0.04028283748440444,-0.01596716069828253
1690841543906094300,1.41309423828125,0.18982874437272548,0.04039944046824239,-0.013965383288660085
1690841543916134400,1.423134521484375,0.185040341052413,0.03904060973781161,-0.016488781411101806
1690841543926175200,1.43317529296875,0.20464286714494226,0.03258521392019465,-0.016520391258917515
1690841543936215300,1.44321533203125,0.18504209461808205,0.03824094726010226,-0.005141028708353405
1690841543946255400,1.45325537109375,0.18055355102717877,0.04171765606049448,-0.00295876304062549
1690841543956296400,1.46329638671875,0.18788754717707634,0.03796705308901146,-0.004779119468736462
1690841543966336300,1.473336181640625,0.1856453212082386,0.038268045329581946,0.0002295401477778796
1690841543976376300,1.483376220703125,0.18130699974298475,0.033289042207458985,0.000900602101534605
1690841543986416400,1.49341650390625,0.18819032951593398,0.028921933039138092,-0.012459009871789021
1690841543996457200,1.503457275390625,0.18953589890599248,0.03293011836772784,-0.01061182137732394
1690841544006527500,1.513527587890625,0.19417466462254523,0.02963939712611027,-0.012177002034545876
1690841544016568300,1.523568359375,0.19222762220799922,0.025019555305736137,-0.012972846853663213
1690841544026608000,1.533608154296875,0.18294833720922468,0.026672994201723484,-0.012741498341289115
1690841544036648200,1.543648193359375,0.19177637130916117,0.0290254573456943,-0.011547819019225426
1690841544046689300,1.553689208984375,0.18713643654882905,0.0368834773696959,-0.005462772617652081
1690841544056729300,1.563729248046875,0.18369477166235446,0.03205129883973859,-0.005675998668157262
1690841544066769400,1.573769287109375,0.18728607415258883,0.040424291781708595,-0.0003288609199633356
1690841544076809500,1.5838095703125,0.17576339414119718,0.03307189232544042,-0.00894623081923928
1690841544086850300,1.593850341796875,0.18818214620947837,0.03868114704196341,-0.019226162494230082
1690841544096890400,1.603890380859375,0.18084990362524986,0.035687600382324304,-0.010413639915612293
1690841544106930200,1.61393017578125,0.18429098398983476,0.031338766656210645,-0.010125745760276913
1690841544116971300,1.62397119140625,0.1901286041021347,0.028590189467277375,-0.012992121234646764
1690841544127011300,1.63401123046875,0.1910299368560314,0.028690919028548523,-0.014571486822492442
1690841544137082400,1.644082275390625,0.18294950625300407,0.0310928930032067,-0.02063077772830147
1690841544147122400,1.654122314453125,0.19028233335912226,0.03365300754848868,-0.021062812470016068
1690841544157162500,1.66416259765625,0.19148177227675914,0.030094648346630854,-0.00542835432481952
1690841544167203300,1.674203369140625,0.18684476012587548,0.03379725659107789,-0.0040963431026553735
1690841544177243100,1.6842431640625,0.18310265098810194,0.036407694817800075,-0.01291742230542004
1690841544187283200,1.694283203125,0.17741525300145147,0.031539476860081773,-0.013967945138504727
1690841544197323300,1.7043232421875,0.18624445614516735,0.033949698073277246,-0.006101293141831411
1690841544207364400,1.7143642578125,0.18594284285008905,0.034123346740286796,-0.005436596996779553
1690841544217404400,1.724404296875,0.18818682238459586,0.033498200579266994,-0.017018943906691855
1690841544227444500,1.734444580078125,0.18639117113947867,0.036922649469459425,-0.013377947922679595
1690841544237485300,1.7444853515625,0.18040683603286742,0.03552978860526346,-0.015935491484962403
1690841544247525400,1.754525390625,0.18908640157282353,0.028206012455280868,-0.009927127048792317
1690841544257565200,1.764565185546875,0.19357552968561648,0.040193369102664286,-0.013853241850808261
1690841544267636200,1.77463623046875,0.18594284285008905,0.039645599026791746,-0.01035284621415194
1690841544277676300,1.78467626953125,0.18818740690648555,0.037695031214598565,-0.0004603749202098697
1690841544287716400,1.79471630859375,0.19013211123347282,0.041106666288990526,-0.004294523422722705
1690841544297757400,1.80475732421875,0.18594342737197875,0.03698746746713295,-0.0076738727958640075
1690841544307797500,1.814797607421875,0.18744038793146608,0.037904034322779626,-0.008876402144663734
1690841544317837300,1.82483740234375,0.18684242203831672,0.03510924337194301,-0.010001666147814831
1690841544327878100,1.834878173828125,0.17741525300145147,0.03525315448781475,-0.014232184423616854
1690841544337918200,1.844918212890625,0.18444763585627078,0.032832046554423865,-0.006604453466064296
1690841544347958300,1.854958251953125,0.187888131698966,0.03018436332354322,-0.007867120070842793
1690841544357998300,1.864998291015625,0.18848668211400507,0.02737809199746698,-0.014228258308814837
1690841544368039400,1.875039306640625,0.19596914682388306,0.033813047815253953,-0.006782782303946441
1690841544378079500,1.88507958984375,0.18908581705093383,0.045643725196737796,-0.007023834222182631
1690841544388119600,1.89511962890625,0.18759061005711555,0.03418512339750305,-0.01740964199102018
1690841544398190300,1.9051904296875,0.1851952393531799,0.03650084386081435,-0.008254316161232417
1690841544408230400,1.91523046875,0.18100538644790648,0.033980385472485795,-0.00998982615461573
1690841544418271200,1.925271240234375,0.18504560174942017,0.03397975528482348,-0.0181716210731538
1690841544428311300,1.935311279296875,0.18714169724583624,0.027759328133706,-0.017411820248374715
1690841544438351400,1.945351318359375,0.18609481854140758,0.03289912957441993,-0.005230031299212714
1690841544448392400,1.955392333984375,0.18968553650975226,0.03136996551207267,-0.008223748063854872
1690841544458432500,1.9654326171875,0.19387655845880508,0.0327965003170073,-0.013398072828678413
1690841544468472300,1.975472412109375,0.18759177910089492,0.02993624291452579,-0.008496422958816401
1690841544478512400,1.985512451171875,0.18923779274225233,0.035030743908789005,-0.012308099334617144
1690841544488553200,1.99555322265625,0.1845990270256996,0.038896077567432075,-0.009225298351547099
1690841544498593300,2.00559326171875,0.1813058306992054,0.03013936427119188,-0.013080704842042178
1690841544508626700,2.015626708984375,0.18399872304499149,0.040123610068392004,-0.01655317129215691
1690841544518697500,2.025697509765625,0.17950901041030884,0.03802464676145464,-0.009027150568342766
1690841544528737500,2.035737548828125,0.18639292470514773,0.039114688754174856,-0.009583409911347552
1690841544538778600,2.045778564453125,0.18714228176772593,0.03663415138428099,-0.010759148292988538
1690841544548818700,2.055818603515625,0.18549802169203758,0.036615309686493125,-0.00755370331518352
1690841544558858800,2.065858642578125,0.1865466539621353,0.03642071869615465,-0.013136910274997353
1690841544568898600,2.075898681640625,0.18190847276747227,0.02777017832128331,-0.009062829236499965
1690841544578939600,2.085939697265625,0.1855003597795963,0.034861506555415686,-0.008188576285773888
1690841544588979500,2.0959794921875,0.18998948789238929,0.03175382286366075,-0.006896581980166956
1690841544599019500,2.10601953125,0.18699732033908367,0.035688933822885155,-0.005220364996790886
1690841544609060600,2.116060546875,0.18505203149020671,0.03955815820535644,-0.010986832127108936
1690841544619100700,2.1261005859375,0.19717326191663742,0.037528177614556624,-0.015487711184844374
1690841544629140700,2.136140625,0.18879297158420086,0.020433679687045514,-0.009723982859239913
1690841544639180500,2.1461806640625,0.1877449238359928,0.03038311903234571,-0.015566451534949009
1690841544649251600,2.15625146484375,0.17712123849093914,0.032396614279225466,-0.01506196462002117
1690841544659291400,2.16629150390625,0.17487725895643233,0.035261584389442574,-0.0062538818961475045
1690841544669332500,2.17633251953125,0.18490297840833664,0.03947072651707567,-0.00767137487810105
1690841544679372500,2.18637255859375,0.19013971001803873,0.03850347065380774,-0.010890294683765386
1690841544689412600,2.19641259765625,0.18490297840833664,0.038701888435892756,-0.006719261785037815
1690841544699453700,2.20645361328125,0.18759587075412273,0.033117786426935344,-0.011144840266992105
1690841544709493800,2.21649365234375,0.18220774797499178,0.030673553346283734,-0.010597203763504513
1690841544719533600,2.226533447265625,0.17921499589979648,0.040115755555499344,-0.003454401070461608
1690841544729573400,2.236573486328125,0.1828074674338102,0.03658046670197509,-0.013842098260641795
1690841544739614500,2.246614501953125,0.18250994579195975,0.03701690362417139,-0.010961359759134938
1690841544749654500,2.256654541015625,0.1801157441318035,0.0425574404860381,-0.013975241387326968
1690841544759694600,2.266694580078125,0.18595277972221375,0.04249551769834943,-0.006902818783064139
1690841544769735700,2.276735595703125,0.18879706323742865,0.03644739664052613,-0.0004409167344914749
1690841544779805700,2.2868056640625,0.18475567889213562,0.0386208042900078,-0.004177619044785388
1690841544789846800,2.2968466796875,0.18745032480359075,0.031211304351640864,-0.004856294624484144
1690841544799886600,2.306886474609375,0.1904430768787861,0.03374626618935726,-0.004609789642173564
1690841544809926400,2.316926513671875,0.18655249918103217,0.03660516275181435,-0.002832967536756769
1690841544819967500,2.326967529296875,0.18311024977266788,0.03597609846750274,-0.004210667364438996
1690841544830007600,2.337007568359375,0.18714871150851248,0.034793446287885305,-0.009752642698143608
1690841544840047600,2.347047607421875,0.17936755611300467,0.03914112010337412,-0.003923543819016777
1690841544850087700,2.357087646484375,0.1838584377914667,0.03148775580599904,-0.010389867456024512
1690841544860128800,2.367128662109375,0.18430968869030476,0.029093444547988474,-0.005551216944440966
1690841544870168600,2.37716845703125,0.1826648440927267,0.024837732465425505,-0.002622320460760966
1690841544880208400,2.38720849609375,0.17503391082286834,0.029669399538729338,-0.008940842258068732
1690841544890249500,2.39724951171875,0.17563363028168677,0.03527724774945527,-0.006351779037871165
1690841544900289500,2.40728955078125,0.17039456058442592,0.036812448826944455,-0.008508568912692135
1690841544910360600,2.417360595703125,0.17997019818127155,0.03719621484698728,-0.003323596031335182
1690841544920400600,2.427400634765625,0.18819909734427928,0.03384884978099726,-0.007493803521222434
1690841544930440700,2.437440673828125,0.1884983725517988,0.034418502895114944,-0.012726067876716842
1690841544940480800,2.447480712890625,0.1955307554066181,0.032882461567409337,-0.0045107862471078985
1690841544950521600,2.457521484375,0.1778723491191864,0.031926485149981455,-0.0029063296004896984
1690841544960561400,2.4675615234375,0.1844552346408367,0.03481719248965382,-0.007165822809026576
1690841544970601500,2.4776015625,0.1862497168421745,0.037897321454202756,-0.00916670516950544
1690841544980642600,2.487642578125,0.18924246891736984,0.03444962868574075,-0.008021887082513422
1690841544990682600,2.4976826171875,0.18400456826388834,0.03995439098132774,-0.01531428171354346
1690841545000722700,2.50772265625,0.18131167591810227,0.032803277117665855,-0.002804010870330967
1690841545010762800,2.5177626953125,0.17966566227674483,0.03087945118192583,-0.007880464751250111
1690841545020803600,2.527803466796875,0.1745779837489128,0.04164642658834345,-0.012008408568566664
1690841545030843400,2.537843505859375,0.17293313915133476,0.0502309799217619,-0.00886062462021946
1690841545040914400,2.54791455078125,0.17876842117607591,0.03822577709043398,-0.011112112749391235
1690841545050954500,2.55795458984375,0.18580080403089522,0.03429643828487024,-0.0110778771196492
1690841545060994600,2.56799462890625,0.1831055735975504,0.03296061397069134,-0.019820328995096496
1690841545071035600,2.57803564453125,0.18400398374199867,0.033293426121631636,-0.014842905908706598
1690841545081075700,2.58807568359375,0.1922334674268961,0.03205995707022957,-0.004706273428234271
1690841545091115500,2.598115478515625,0.18370470853447912,0.02656940596308559,-0.005503200526162982
1690841545101156400,2.60815625,0.18669804513156413,0.03364935428667813,-0.0037914601382566613
1690841545111196400,2.618196533203125,0.19283435592949388,0.04058440511371009,-0.006240993873466504
1690841545121236500,2.628236572265625,0.17966390871107576,0.033700134625844654,-0.006443800136301433
1690841545131276500,2.638276611328125,0.1760720216989517,0.03519315879573114,-0.009850317219225689
1690841545141317600,2.648317626953125,0.193130708527565,0.039970858058938755,-0.010899537436146056
1690841545151357700,2.658357666015625,0.19432722483575343,0.035462605120567606,-0.012230051962612195
1690841545161428700,2.6684287109375,0.19088555994927883,0.03261204712819308,-0.020671356333862058
1690841545171468500,2.678468505859375,0.1845990270256996,0.0319053966961801,-0.01159096860778518
1690841545181508600,2.688508544921875,0.18714228176772593,0.03047948294575326,-0.012015805282088694
1690841545191549400,2.698549560546875,0.18504677079319953,0.037466994612384584,-0.009763510010385652
1690841545201589500,2.708589599609375,0.18265315365493295,0.03781485820198431,-0.006068177465163171
1690841545211629600,2.718629638671875,0.1808569178879261,0.03345635246522725,-0.008272432344057596
1690841545221669600,2.728669677734375,0.18624445614516735,0.03423935606908053,-0.003776335634361021
1690841545231710700,2.738710693359375,0.18235154035985468,0.030357838460616765,-0.0037897842044010755
1690841545241750500,2.74875048828125,0.1787602378696203,0.0309582155065611,-0.0089687988440739
1690841545251790600,2.75879052734375,0.18220131823420524,0.030476487271068615,-0.005676940524717793
1690841545261831400,2.76883154296875,0.1807043576747179,0.03179659342630766,-0.014532054427824913
1690841545271871500,2.77887158203125,0.17965630992650986,0.024412036132952196,-0.009859056506463093
1690841545281911600,2.78891162109375,0.18698738346695898,0.03823776892232708,-0.0008562001291604246
1690841545291982600,2.798982666015625,0.1832446898072958,0.03216148121594451,-0.007300308509427122
1690841545302022700,2.809022705078125,0.17980244039893148,0.028500428824592382,-0.006962339551112381
1690841545312062500,2.8190625,0.1796533873170614,0.033351019794074815,-0.001991205783258192
1690841545322103600,2.829103515625,0.18339374288916588,0.03271153458044864,-0.005822234171855962
1690841545332143600,2.8391435546875,0.1838409021347761,0.03424200468389317,-0.00752138564789202
1690841545342183700,2.84918359375,0.17456337070167063,0.03361962586869485,-0.0018943110052437985
1690841545352224500,2.859224609375,0.1829442455559969,0.03285529043269343,-0.0005964954552706331
1690841545362264600,2.8692646484375,0.19297054952979087,0.03915860096113756,-0.001066323190415278
1690841545372304600,2.8793046875,0.18578794454932213,0.03857487365589477,-0.00842405184234958
1690841545382344400,2.889344482421875,0.17830547983944414,0.033579987978050486,-0.006719886264478555
1690841545392385500,2.899385498046875,0.18189619780778885,0.029078603171883148,-0.005141481941146776
1690841545402425600,2.909425537109375,0.182194303971529,0.029123739221552387,-0.013966857151471775
1690841545412465700,2.919465576171875,0.18219255040585994,0.03154494761964306,-0.010203240576433016
1690841545422536700,2.92953662109375,0.18353870431780814,0.03463226437680423,-0.009935432511189718
1690841545432576800,2.93957666015625,0.1793494359344244,0.02943442173907533,-0.01102448812322109
1690841545442617600,2.94961767578125,0.1741121198028326,0.03272633942393586,-0.0035010109829425344
1690841545452657700,2.95965771484375,0.1793488514125347,0.03239109785389155,-0.008772947478410788
1690841545462697500,2.969697509765625,0.1862333502292633,0.031576694464776664,-0.005447747436811914
1690841545472738600,2.979738525390625,0.18847908332943916,0.030160735852783543,0.0017995613768987822
1690841545482778600,2.989778564453125,0.17815350414812564,0.03611262999451719,-0.005004611345770535
1690841545492818700,2.999818603515625,0.18817863907814025,0.04208521073125303,-0.003097719420166686
1690841545502853000,3.00985302734375,0.17486030782163142,0.035616654037963595,-0.001539954884420149
1690841545512894200,3.019894287109375,0.1735153229534626,0.031064498025784266,-0.008597187911061337
1690841545522934300,3.029934326171875,0.1778553979843855,0.03262851420580409,-0.006805136270471848
1690841545532974300,3.039974365234375,0.1795019961476326,0.037282258295780045,-0.0020114482786215376
1690841545543015200,3.05001513671875,0.18608663523495197,0.035107873398764054,-0.002062553986418061
1690841545553085400,3.06008544921875,0.18069909697771072,0.03356781348306685,-0.007208817133959382
1690841545563126300,3.070126220703125,0.1902764881402254,0.036763239390356466,-0.01162629108291585
1690841545573166000,3.080166015625,0.18518822509050367,0.038074093660060315,-0.015439478995790705
1690841545583206100,3.0902060546875,0.18608546619117258,0.03127313580778427,-0.008698442628717749
1690841545593246200,3.10024609375,0.18009937751889227,0.036165510959224774,-0.0030468740072741637
1690841545603287300,3.110287353515625,0.18473697419166563,0.036390487954672424,-0.0024047036462172397
1690841545613327400,3.120327392578125,0.183387897670269,0.03488293293593451,0.0021103032599261496
1690841545623367400,3.130367431640625,0.18802607886493206,0.030669890951318664,-0.006110158009943552
1690841545633408300,3.140408203125,0.17635434577167033,0.03170759083544835,-0.008751661520142806
1690841545643448000,3.150447998046875,0.17979601065814493,0.03153450842401944,-0.007378450637910282
1690841545653488000,3.160488037109375,0.17560440418720244,0.03261623924612068,-0.008636542673915391
1690841545663528200,3.170528076171875,0.18952011681497097,0.03066186290849,-0.007330954809440299
1690841545673569300,3.1805693359375,0.18263678704202174,0.0296198613085784,-0.006669613957032561
1690841545683640300,3.190640380859375,0.17829671201109884,0.03360590787059627,-0.0009827456933446227
1690841545693680400,3.200680419921875,0.17874504030048846,0.035061933631496504,-0.0063801523240515955
1690841545703720400,3.210720458984375,0.17934242167174816,0.03077737904693931,-0.010975949973490787
1690841545713760300,3.22076025390625,0.186224582400918,0.032500019854772834,-0.00717802013689652
1690841545723801000,3.230801025390625,0.18786942699849604,0.029906980287423356,-0.010574891466996632
1690841545733841200,3.240841064453125,0.18801731103658675,0.030519705358287318,-0.010998897024238249
1690841545743881200,3.250881103515625,0.18427461737692355,0.031016850358620285,-0.0019993616902502253
1690841545753921300,3.26092138671875,0.18427520189881325,0.034780897333566096,-0.007321094427484786
1690841545763962400,3.27096240234375,0.17978665830790996,0.03634775392464362,-0.0019060710833407938
1690841545774002400,3.28100244140625,0.18981296228170394,0.03098035427313298,-0.0024561004733142907
1690841545784042200,3.291042236328125,0.18636954382956028,0.03193726227232255,-0.00019576003411784766
1690841545794083000,3.3010830078125,0.18621756813824175,0.0338523295128718,-0.00880118719220627
1690841545804153000,3.311153076171875,0.17843465917706489,0.025964800266595554,-0.003982712960615754
1690841545814194200,3.321194091796875,0.18501871374249457,0.024026105555286628,-0.005031435420614434
1690841545824234200,3.331234130859375,0.18875848479270935,0.030692011451581493,-0.009216211433615534
1690841545834274300,3.3412744140625,0.17723463573753834,0.028040145235927773,-0.004800669146841392
1690841545844315400,3.3513154296875,0.17588789730370044,0.025644372673192993,-0.00641175760529004
1690841545854355200,3.361355224609375,0.19025135369896887,0.0321215875969734,-0.003943591093202121
1690841545864395300,3.371395263671875,0.18546411942243574,0.03654938657712191,-0.003984484792593866
1690841545874435000,3.38143505859375,0.1809744067877531,0.026341332828253506,0.004332257050648331
1690841545884476200,3.39147607421875,0.18217092309594154,0.03109749611308798,-0.0008925740587059408
1690841545894516200,3.40151611328125,0.18516367517113685,0.031121443244256076,-0.007081551192211918
1690841545904556300,3.411556396484375,0.19429332256615162,0.031215158542850983,-0.006203561639640247
1690841545914597400,3.421597412109375,0.17499007168114183,0.040048919130675494,-0.010025951205700403
1690841545924637400,3.431637451171875,0.17888006485700605,0.03269881209619343,-0.0031023670541762837
1690841545934708200,3.441708251953125,0.18022680329084395,0.026281355402478945,-0.00038643746774178
1690841545944748300,3.451748291015625,0.18352058413922787,0.029843568795546886,0.00006757621034048497
1690841545954788000,3.4617880859375,0.1754407380580902,0.030319524877378715,0.001005661919695558
1690841545964828200,3.471828125,0.1806786387115717,0.031877193515002726,-0.013040838622534646
1690841545974869200,3.481869140625,0.18666472738385198,0.02922099818410352,-0.008173642436478985
1690841545984909300,3.491909423828125,0.18217443022727967,0.026623729966208338,-0.005882710496196523
1690841545994949000,3.50194921875,0.17738602690696714,0.03770418263543397,0.00046639366904273626
1690841546004990200,3.511990234375,0.18531623538434505,0.037827005297504365,-0.0023429909210826733
1690841546015030300,3.5220302734375,0.18262275851666926,0.0342315472219605,-0.011492744955787202
1690841546025070000,3.532070068359375,0.18112638247907162,0.03080187416737899,-0.008785971356765367
1690841546035110100,3.542110107421875,0.17469079647362232,0.028921786908665672,-0.004665484760119579
1690841546045151200,3.552151123046875,0.1836708062648773,0.03337390747931786,0.0037859128885262177
1690841546055191300,3.56219140625,0.18516659778058528,0.029911966989794744,-0.004518628201913088
1690841546065262300,3.572262451171875,0.18950375020205973,0.032614640944078566,0.002561580416583456
1690841546075302100,3.58230224609375,0.18426584954857825,0.03777984168753028,-0.002033935246709734
1690841546085342200,3.59234228515625,0.17798048566877842,0.030581262819794935,-0.012108380078012123
1690841546095383000,3.602383056640625,0.1838145986497402,0.03360829162392765,-0.0034400939838960766
1690841546105423000,3.612423095703125,0.18710662593245506,0.03016605134871788,-0.0011322177586785983
1690841546115463200,3.622463134765625,0.18755612326562404,0.026464192022942003,-0.006137191005697241
1690841546125504300,3.632504150390625,0.18860241744816303,0.03026662564636208,-0.007131261810654541
1690841546135544300,3.64254443359375,0.1776794568955898,0.03104677970600314,-0.006555704112135572
1690841546145584000,3.652584228515625,0.18201836288273335,0.029536786135006696,-0.007817318120854906
1690841546155624200,3.662624267578125,0.18590718701481818,0.033621626029536125,-0.0017794261961011214
1690841546165665000,3.6726650390625,0.17992168286442756,0.026744041010783984,-0.0035581628390355035
1690841546175705000,3.682705078125,0.18111878369450568,0.02852359050447121,0.0014555919360602274
1690841546185745200,3.6927451171875,0.19278934774398804,0.03470390484090894,0.006312216495751636
1690841546195816200,3.702816162109375,0.18096680800318718,0.03581888947864063,0.005123632332269335
1690841546205856300,3.712856201171875,0.17677578605413435,0.03157404584996402,-0.001056591814267449
1690841546215897300,3.7228974609375,0.17662790201604364,0.035582569105271245,-0.002491381849249592
1690841546225937200,3.732937255859375,0.18755144709050653,0.03156935140853748,-0.012024195226165465
1690841546235977200,3.742977294921875,0.19563187769353388,0.02335544888526201,-0.005239814049354754
1690841546246017300,3.753017333984375,0.18949848950505255,0.036493875263910736,-0.0004244039911078289
1690841546256058000,3.76305810546875,0.6140291391998529,0.23132439171299338,-0.22352772822109981
1690841546266098200,3.77309814453125,0.04178805441558361,0.2465659826496616,0.5525034610699862
1690841546276138200,3.78313818359375,0.026918402063846585,-0.3665573668168857,0.6072237335013225
1690841546286179300,3.793179443359375,0.3589320961028337,0.14151127905524336,-0.6570739156782627
1690841546296219100,3.80321923828125,0.17128011124730108,-0.06250884394831956,-0.19095444220071658
1690841546306259200,3.81325927734375,0.22079963669776914,-0.13449618526194243,-0.31937907073032107
1690841546316299300,3.82329931640625,0.07097966210842133,-0.17047321531120688,-0.09266288519883528
1690841546326370300,3.833370361328125,0.08282967437803745,-0.06101559144956991,0.26436056427108123
1690841546336411100,3.8434111328125,0.2092635126829147,-0.00043737763711251316,0.08962660450916737
1690841546346451200,3.853451171875,0.08909048833847046,0.11981345205074176,0.2922447791597806
1690841546356491300,3.8634912109375,0.2170376538157463,0.13688196615362538,0.18328913173722103
1690841546366531000,3.873531005859375,0.2226104855120182,0.18539063406111672,0.08499889904274605
1690841546376572200,3.883572265625,0.2213502563178539,0.2126836050583981,0.023380039903824215
1690841546386612200,3.8936123046875,0.23361411008536814,0.2128014410180971,-0.03796281530531123
1690841546396652300,3.90365234375,0.29007658654153345,0.19665307396743445,-0.08224542648298665
1690841546406692400,3.9136923828125,0.21326047336459159,0.17759404363445935,-0.1066546404711902
1690841546416733200,3.923733154296875,0.25364684428870676,0.14749147684285416,-0.12142070458428933
1690841546426773200,3.933773193359375,0.25125848784744736,0.11578826992157847,-0.11379742489792406
1690841546436813000,3.94381298828125,0.16746902852654455,0.08275904769408517,-0.08172522026747464
1690841546446884000,3.953884033203125,0.19469605814814567,0.04731148487902246,-0.00855338187702
1690841546456924200,3.963924072265625,0.14108780207931995,0.010800329686747863,0.07654769433198962
1690841546466965200,3.97396533203125,0.11123685369491576,-0.015388972651259972,0.13603790741176344
1690841546477005300,3.98400537109375,0.12938275123834608,-0.05364283419186249,0.15776967321848495
1690841546487045400,3.99404541015625,0.0807534526258707,-0.0714729620506987,0.1575360288593918
1690841546497086200,4.004086181640625,0.15404489880800246,-0.07499562888466753,0.09718317563487217
1690841546507099400,4.014099365234375,0.11552841340899467,-0.07653167021237313,0.035446704298537225
1690841546517139500,4.024139404296875,0.14133447031676769,-0.05563936917078681,-0.017827776071545665
1690841546527179500,4.034179443359375,0.20633447349369524,-0.02635104137151502,-0.056912074254034085
1690841546537220400,4.044220458984375,0.1682294915050268,0.009914769890718161,-0.061374497022992
1690841546547260400,4.054260498046875,0.18100538644790648,0.04849146104436367,-0.04389223732033279
1690841546557300500,4.064300537109375,0.22057868742346762,0.08874237815369851,-0.015135276451404205
1690841546567341600,4.074341552734375,0.18774667740166187,0.12630846749269403,0.027173381471913307
1690841546577411300,4.084411376953125,0.22197686378359793,0.14780744745684787,0.05081813672652934
1690841546587452400,4.094452392578125,0.21328736137151716,0.1585591430957429,0.0663885897248052
1690841546597492500,4.104492431640625,0.20387655894756315,0.15687603058069943,0.056634855614695695
1690841546607532500,4.114532470703125,0.218731598252058,0.14599486334323883,0.046110744486865585
1690841546617572600,4.124572509765625,0.20308219369947908,0.12101812426592222,0.021081106178532354
1690841546627613400,4.134613525390625,0.21617256141901015,0.09911259106118231,-0.0009161649968475103
1690841546637653500,4.144653564453125,0.20667408071160315,0.07179159041265956,-0.02866867979727685
1690841546647693300,4.154693359375,0.15886428178846834,0.04415917659425177,-0.026981238166987893
1690841546657734400,4.164734375,0.19813304685950278,0.016596695340052245,-0.02384835610189475
1690841546667774500,4.1747744140625,0.16930033560693264,0.000356804947881028,0.0014172144207404925
1690841546677814500,4.184814453125,0.14598375742733477,-0.017590382552519438,0.028481130469078197
1690841546687854600,4.1948544921875,0.1643956124305725,-0.02336066391649656,0.0498762299336493
1690841546697895400,4.2048955078125,0.13370529061257838,-0.019111673835664988,0.07258168591100256
1690841546707966500,4.214966552734375,0.14743980145454405,-0.008853195940656587,0.0708126943439478
1690841546718006500,4.225006591796875,0.17387948009073734,0.0002307217496447265,0.05194349206122569
1690841546728046300,4.23504638671875,0.166043379637599,0.02451009881310165,0.03213082578277681
1690841546738086400,4.24508642578125,0.18543956950306892,0.04081831433428451,0.015403138173930346
1690841546748127500,4.25512744140625,0.1762602377474308,0.048416039454285055,-0.004393243689998052
1690841546758167600,4.26516748046875,0.19357377611994742,0.06635103419339283,-0.011257325339782982
1690841546768207600,4.27520751953125,0.20297055001854894,0.08741423482247627,-0.008794163796375504
1690841546778248400,4.28524853515625,0.20026070653796194,0.10323393617435359,-0.0004648410327732563
1690841546788288500,4.29528857421875,0.20669629254341124,0.10703225074508227,0.009806076218700036
1690841546798328300,4.305328369140625,0.2071598184019327,0.102925116820354,0.022208954864414408
1690841546808368400,4.315368408203125,0.19745967764258385,0.10235672408156096,0.02596885995378252
1690841546818409500,4.325409423828125,0.1997404820561409,0.08983952574064023,0.024079694339470006
1690841546828449500,4.335449462890625,0.18945523488521576,0.07696922137942165,0.023514420572947708
1690841546838520600,4.3455205078125,0.19009411731064318,0.06370081194555387,0.03178116752831265
1690841546848560600,4.355560546875,0.18938450773656368,0.03881664652251638,0.019482639739639124
1690841546858600700,4.3656005859375,0.16397475666999817,0.03046089697629213,0.016572588378679937
1690841546868641500,4.3756416015625,0.17566519446372986,0.013100277192192152,0.014657854498270898
1690841546878681300,4.385681396484375,0.17866379175782202,0.005012850592797622,0.013790451413439585
1690841546888721400,4.395721435546875,0.16279694506227968,0.00891376702147536,0.018425527335563675
1690841546898761500,4.405761474609375,0.1774450636178255,0.0055674066024832426,0.028515329566202126
1690841546908802600,4.415802490234375,0.17263269490003585,0.014618362738098948,0.02939518570723012
1690841546918842600,4.425842529296875,0.17514613902568815,0.032370228595798835,0.024293044829205607
1690841546928882700,4.435882568359375,0.1926198363959789,0.042499454087950285,0.024125396644719875
1690841546938923500,4.445923583984375,0.18570669600665568,0.052912218362372365,0.02627303509870544
1690841546948963300,4.45596337890625,0.18642799601852894,0.0635656229922548,0.01659222922748886
1690841546959034400,4.466034423828125,0.19553718514740465,0.06699868444716557,0.01330883277580142
1690841546969074400,4.476074462890625,0.2022626940101385,0.0760038652122952,0.01565928662577644
1690841546979114500,4.486114501953125,0.20585399650037287,0.08210494943321682,0.021991435089637523
1690841546989155600,4.496155517578125,0.2001753663420677,0.0791583928536158,0.011485544605087487
1690841546999195600,4.506195556640625,0.19525310750901698,0.08451164524876512,0.014489443695382215
1690841547009235700,4.516235595703125,0.19542144981324672,0.07606747763357125,0.01583009031515103
1690841547019275500,4.526275634765625,0.1846685851305723,0.06509022047733888,0.014271033438039012
1690841547029316400,4.53631640625,0.1834919425666332,0.051887368826661256,0.017834219512064008
1690841547039356400,4.5463564453125,0.18410978220403193,0.04199581541474908,0.01363185875166673
1690841547049396500,4.556396484375,0.17155542105734348,0.030751002496667203,0.015809791879216207
1690841547059436500,4.5664365234375,0.18114099552631377,0.023380309331882742,0.02266788217963185
1690841547069477600,4.5764775390625,0.17246435259580611,0.027524532997142522,0.017699222355009987
1690841547079517700,4.586517578125,0.17335925560891627,0.03086996183437295,0.01927588795404881
1690841547089588500,4.59658837890625,0.17738953403830526,0.0232394121570047,0.02631917122879531
1690841547099628500,4.606628662109375,0.17812193996608255,0.036047903328388926,0.028200441231019793
1690841547109668600,4.616668701171875,0.17945055822134018,0.03821274407892488,0.02892222073350567
1690841547119709400,4.62670947265625,0.18182547065913676,0.045785809681704266,0.02552977898335084
1690841547129749500,4.63674951171875,0.18510054680705068,0.055070857700984924,0.026016818148200397
1690841547139789600,4.64678955078125,0.19496376917362213,0.0554062271351926,0.012565421396819874
1690841547149830700,4.65683056640625,0.19076631748378275,0.05988436806309037,0.01341343479459174
1690841547159870700,4.66687060546875,0.19001345328986644,0.06409540988686493,0.01053526727608405
1690841547169910500,4.67691064453125,0.1916612204968929,0.06318679800881072,0.004437443591328337
1690841547179950600,4.68695068359375,0.18538228635787962,0.0656376343601849,0.012090515627758577
1690841547189991400,4.696991455078125,0.18823650674521922,0.06753632585466839,0.020241874308837577
1690841547200031500,4.707031494140625,0.1803168196618557,0.05589728945461102,0.022316616489971054
1690841547210071600,4.717071533203125,0.17793255487382412,0.05329399335472844,0.024132611836795693
1690841547220142600,4.727142578125,0.18587386926710606,0.04749547227695584,0.03238622074937448
1690841547230182400,4.737182373046875,0.18004560150504112,0.04159239484616555,0.02993016023361124
1690841547240223500,4.747223388671875,0.18648352559804915,0.03844637930486351,0.02549299063691869
1690841547250263600,4.757263671875,0.1843897681891918,0.03411531869745813,0.011382029431685805
1690841547260303600,4.7673037109375,0.1733142474234104,0.02916780669214204,0.005626918237376958
1690841547270343400,4.777343505859375,0.17675298970043657,0.028338771989475934,0.012434703122661449
1690841547280384500,4.787384521484375,0.17749533250033855,0.03475158904069103,0.0173975359946955
1690841547290424600,4.797424560546875,0.19050503619909284,0.049155021253321315,0.016300064180768094
1690841547300464400,4.80746435546875,0.18585691813230512,0.04476184606198221,0.020502671536337582
1690841547310505500,4.81750537109375,0.1734276446700096,0.050419022440304974,0.013299338861671275
1690841547320545500,4.827545654296875,0.18703706782758234,0.05915770688951015,0.018351334154768847
1690841547330585600,4.837585693359375,0.1862818655461073,0.06754625359363854,0.01993474002184812
1690841547340625400,4.84762548828125,0.19435995806157588,0.0579555371586699,0.023902259979909284
1690841547350696400,4.857696533203125,0.19406009833216667,0.05404397147181444,0.020997999038919805
1690841547360737500,4.867737548828125,0.18239187237024307,0.05720317528825253,0.020398288713255896
1690841547370777600,4.877777587890625,0.1930214029341936,0.052484850662620736,0.01034673613377381
1690841547380817400,4.8878173828125,0.18255436945557593,0.04566685947715304,0.010765153342089615
1690841547390857500,4.897857421875,0.1818143647432327,0.04938957892786711,0.013209327057236805
1690841547400898600,4.907898681640625,0.18690905753374099,0.04459632590250112,0.019756584143079816
1690841547410938600,4.917938720703125,0.18451777848303316,0.04166426363913342,0.020336808883561753
1690841547420978400,4.927978515625,0.1744943971186876,0.04567868691226467,0.0222213074559113
1690841547431019500,4.93801953125,0.175541860345006,0.04525488114277832,0.027049293867941013
1690841547441059600,4.9480595703125,0.18586568596065042,0.04012088838834315,0.025240239718556403
1690841547451099400,4.958099365234375,0.1840671121060848,0.0401164679415524,0.022312100145057773
1690841547461139500,4.968139404296875,0.18630875355303286,0.04814799050209112,0.020977782801375723
1690841547471180500,4.9781806640625,0.18390987571775913,0.048603378719929605,0.02016903740148991
1690841547481250600,4.98825048828125,0.18539982201457023,0.04713446607799269,0.024970756861101836
1690841547491291600,4.998291748046875,0.1800076075822115,0.04520422866777517,0.01614263599619735
1690841547501331500,5.00833154296875,0.18119886319339273,0.0528890110167209,0.015677731031342408
1690841547511369200,5.018369140625,0.18164368435144423,0.04924669072530232,0.02004085357771255
1690841547521410300,5.028410400390625,0.17954758885502814,0.05944559305333532,0.018928038064180874
1690841547531450400,5.038450439453125,0.19256664490401743,0.05961589898578822,0.018657468361337668
1690841547541490400,5.048490478515625,0.1913707131177187,0.0522326386003755,0.019395879338216036
1690841547551530200,5.0585302734375,0.19032617250084877,0.04841891639796085,0.013688712638593278
1690841547561571000,5.068571044921875,0.18838497530519963,0.05528459178321063,0.016437020399468018
1690841547571611100,5.078611083984375,0.18629530954957008,0.0517367631085217,0.020518800687231123
1690841547581651200,5.088651123046875,0.1699900714367628,0.0498406380304601,0.020866970237507484
1690841547591692300,5.0986923828125,0.18301205009520052,0.04452053898624144,0.015687818600516764
1690841547601762300,5.10876220703125,0.18196575591266154,0.047608093205420296,0.020051543935085646
1690841547611803400,5.118803466796875,0.19064356788694858,0.05617397837098687,0.013174379041441716
1690841547621843200,5.12884326171875,0.18690145874917505,0.04685340238059871,0.01570277870763093
1690841547631883300,5.13888330078125,0.17313304563760756,0.03867838882929645,0.015545889379177242
1690841547641924000,5.148924072265625,0.20350714111328125,0.0410418848239351,0.017202241751458496
1690841547651964200,5.158964111328125,0.161906718224287,0.039140992239210755,0.023408037589024752
1690841547662004200,5.169004150390625,0.19721943914592266,0.04019263845030218,0.02126250432715751
1690841547672044300,5.179044189453125,0.1749216826200485,0.050506216666568064,0.02097595160389319
1690841547682085400,5.18908544921875,0.19108020573854445,0.04316832065968774,0.025380123113282024
1690841547692125400,5.19912548828125,0.1716232255965471,0.054571292414702474,0.02739084188118577
1690841547702165200,5.209165283203125,0.19391396785974502,0.04871818247232586,0.023879331195470876
1690841547712205000,5.219205078125,0.18179098386764525,0.04562626260528341,0.022286856105946936
1690841547722246100,5.22924609375,0.19645371547043322,0.05215708914613351,0.01248091231798753
1690841547732317200,5.239317138671875,0.1831359687358141,0.054736282851221035,0.018726989933592265
1690841547742357200,5.249357177734375,0.19570611197352408,0.05235548866190947,0.022393202557251787
1690841547752397300,5.259397216796875,0.18837503843307493,0.05318171035298146,0.012894872546894476
1690841547762437000,5.26943701171875,0.19361586169600487,0.04677295755553059,0.02020035955493804
1690841547772478200,5.279478271484375,0.19301906484663486,0.04086461029457859,0.01610668333340436
1690841547782518300,5.289518310546875,0.19361995334923265,0.05188821821003221,0.026641101226117462
1690841547792558000,5.29955810546875,0.17925591243207453,0.04560056190844625,0.030590231577539814
1690841547802599200,5.30959912109375,0.19511632938683032,0.05162139310054481,0.03503399987837765
1690841547812639200,5.31963916015625,0.18374270245730875,0.04973215442099608,0.029169528291770254
1690841547822679300,5.32967919921875,0.19391630594730377,0.04814799050209112,0.02029233955417294
1690841547832719400,5.33971923828125,0.1865811407536268,0.04620949672018178,0.009607507739565334
1690841547842760400,5.349760498046875,0.1796943038493395,0.042644753443310035,0.01753126364327036
1690841547852800300,5.35980029296875,0.19046645775437354,0.036415147471893575,0.02127245033243671
1690841547862871300,5.369871337890625,0.19226093995571136,0.033802864347957075,0.009540214657015166
1690841547872911000,5.3799111328125,0.181783969604969,0.038409837553603575,0.008688251169910654
1690841547882951200,5.389951171875,0.19390461550951002,0.050147091897437344,0.010657377552101388
1690841547892992300,5.3999921875,0.17729659505784512,0.05515389634193852,0.02644029055754654
1690841547903032300,5.4100322265625,0.1832826837301254,0.054658194380020717,0.030439045904087834
1690841547913072000,5.420072021484375,0.1816372546106577,0.057599426330532874,0.032930497393640686
1690841547923112200,5.4301123046875,0.18388123414516447,0.056140231365012,0.02847545421354007
1690841547933153300,5.4401533203125,0.18672376409471034,0.040192337056202815,0.030312606512825004
1690841547943193000,5.450193115234375,0.17819149807095527,0.0477343134009745,0.022583482698653824
1690841547953233200,5.460233154296875,0.19046295062303542,0.046986399376811455,0.013804269876237958
1690841547963274200,5.470274169921875,0.19540216059088705,0.05694303564787842,0.013920881993230431
1690841547973314300,5.480314208984375,0.17879355561733246,0.04335055449195206,0.008522479848680086
1690841547983354400,5.490354248046875,0.19525486107468604,0.03561113761262968,0.011642319769109599
1690841547993425200,5.500425048828125,0.19061726440191268,0.04675881029916927,0.017643564911326393
1690841548003465200,5.51046533203125,0.18956980117559433,0.042024466120498254,0.016279418684961272
1690841548013506000,5.520506103515625,0.19211247139573095,0.04598053766936064,0.027591908278083426
1690841548023546000,5.530546142578125,0.18881869054734707,0.04123390026469715,0.029023667247407136
1690841548033586200,5.540586181640625,0.17819325163662433,0.04966634090947918,0.026161784143419936
1690841548043626200,5.550626220703125,0.18657061935961244,0.04252120926203206,0.024684478132473302
1690841548053667300,5.560667236328125,0.18043313951790332,0.042889028794271866,0.01695532235226128
1690841548063707100,5.57070703125,0.1765390546888113,0.054860265423916275,0.01082079708604142
1690841548073747200,5.580747314453125,0.18297288712859153,0.046586449406947936,0.002498529684310779
1690841548083788000,5.5907880859375,0.18147768013477325,0.047561934242444114,0.00840202724020928
1690841548093828000,5.600828125,0.18731530024707316,0.05225690539195202,0.014061518873204476
1690841548103868200,5.6108681640625,0.17564473619759083,0.04969747583325952,0.014828384193009697
1690841548113939200,5.620939208984375,0.1769926436752081,0.0438947900370229,0.023487934424821284
1690841548123979300,5.630979248046875,0.1820803222030401,0.04925400638207793,0.02476384524530731
1690841548134019000,5.64101904296875,0.18447335481941698,0.04529900341229513,0.02970985941328108
1690841548144060200,5.65106005859375,0.1849210985869169,0.05154274750691838,0.03215396006319206
1690841548154100200,5.661100341796875,0.18611586132943628,0.048008253237837924,0.02685504993747454
1690841548164140300,5.671140380859375,0.18626257632374763,0.03951761613241397,0.022135487769404424
1690841548174181000,5.68118115234375,0.19179975218474865,0.04449294772641733,0.014040772912697865
1690841548184221200,5.69122119140625,0.1877589523613453,0.05538833528547547,0.0035055193363456054
1690841548194261200,5.70126123046875,0.19299626849293708,0.045232404449488964,0.013112465386907569
1690841548204301000,5.711301025390625,0.2006283708065748,0.04582215963671915,0.017060792020731606
1690841548214342100,5.721342041015625,0.18671090461313725,0.04136285127345472,0.01886733455262147
1690841548224382200,5.73138232421875,0.19254443307220934,0.04745161486892029,0.019935137314070015
1690841548234422300,5.74142236328125,0.18626023823618887,0.05417367139924317,0.018505291740619576
1690841548244493300,5.751493408203125,0.18057167120575904,0.0535828111003153,0.019965884078782983
1690841548254533400,5.761533447265625,0.1935878046452999,0.05361035669436678,0.026516251003742216
1690841548264574200,5.77157421875,0.18655659083426,0.046148651644727215,0.019670339764887464
1690841548274614300,5.7816142578125,0.18715572577118872,0.038102068512374535,0.024821507416409438
1690841548284654000,5.791654052734375,0.18880290845632552,0.040441142451809714,0.024517259206250308
1690841548294694100,5.801694091796875,0.18775719879567623,0.0435592744723428,0.01254157929692883
1690841548304735200,5.8117353515625,0.18895546866953372,0.05246117752608843,0.014604854802554473
1690841548314775300,5.821775390625,0.1877583678394556,0.04972387064984068,0.021967561023705638
1690841548324815400,5.8318154296875,0.1870084262549877,0.03825190704553388,0.02507007534999866
1690841548334856200,5.841856201171875,0.1838636984884739,0.039768759615579616,0.01857861270515714
1690841548344896300,5.851896240234375,0.18969781146943568,0.04701151555175893,0.020025404846831223
1690841548354936000,5.86193603515625,0.18505963027477262,0.04034276924440637,0.019283194477669893
1690841548364976000,5.87197607421875,0.1959837598711252,0.04499380992064252,0.027877620751131323
1690841548375047200,5.882047119140625,0.18670505939424037,0.04580556469494477,0.02698571341270581
1690841548385088300,5.892088134765625,0.18296295025646686,0.04827094102832488,0.024510441306396385
1690841548395128300,5.90212841796875,0.18146482065320013,0.046375300007453185,0.021658211946743538
1690841548405168400,5.91216845703125,0.1877496000111103,0.04577172635742463,0.02560684910782147
1690841548415208200,5.922208251953125,0.18610183280408382,0.048847252212092275,0.02240470576537773
1690841548425249000,5.9322490234375,0.18370646210014818,0.04756736846938729,0.020297942744474856
1690841548435289000,5.9422890625,0.1760731907427311,0.04547494450109079,0.021181630243826657
1690841548445329200,5.9523291015625,0.18190730372369288,0.0470059260611888,0.014947672324278391
1690841548455370200,5.962370361328125,0.17771686629652975,0.050724489926593376,0.01912132757999934
1690841548465410300,5.972410400390625,0.1907335842579603,0.042498979163914916,0.020027131013036704
1690841548475450400,5.982450439453125,0.1872907503277063,0.04153123924345709,0.018113287615193985
1690841548485490400,5.992490478515625,0.18579554333388804,0.04714548066235147,0.010247225848631933
1690841548495531300,6.00253125,0.1878893007427454,0.0431473052711226,0.009102480826876126
1690841548505612300,6.0126123046875,0.18504560174942017,0.04430176340271719,0.012714967669034375
1690841548515653400,6.0226533203125,0.18235212488174438,0.052976159577211364,0.019207576524768954
1690841548525693200,6.032693115234375,0.18040683603286742,0.04297896296689287,0.02533770874366164
1690841548535733200,6.042733154296875,0.17905834403336046,0.04051617131624371,0.018942660244577563
1690841548545774300,6.0527744140625,0.19342238495051858,0.040296829477138814,0.017971865283930674
1690841548555814100,6.062814208984375,0.1813005700021982,0.041285621318779886,0.018364166236878372
1690841548565854200,6.072854248046875,0.18474048132300375,0.03940276671424508,0.022595867256191556
1690841548575894300,6.082894287109375,0.17920330546200275,0.04904270171895623,0.02097099230098538
1690841548585935400,6.092935302734375,0.18743162010312078,0.04550139411659911,0.021760754439188165
1690841548595975200,6.10297509765625,0.18713234489560127,0.04321054323306307,0.02137886528240051
1690841548606015200,6.11301513671875,0.18039982177019118,0.049541116227768356,0.024243182372068985
1690841548616056300,6.123056396484375,0.18144786951839922,0.04382603564974852,0.026043327129213138
1690841548626126300,6.133126220703125,0.1944669255673885,0.03952328782137483,0.03014402218000032
1690841548636167200,6.143167236328125,0.1964110453724861,0.045266909507289524,0.02625800192635506
1690841548646207200,6.153207275390625,0.17979951778948305,0.045172554887877775,0.018144372306624426
1690841548656247000,6.1632470703125,0.173214294180274,0.04063531331703998,0.02078995034538675
1690841548666288400,6.173288330078125,0.17246552163958548,0.047461095083318645,0.021744177763722835
1690841548676328200,6.183328125,0.18652911830544472,0.04825525026884861,0.010110561890876852
1690841548686368300,6.1933681640625,0.19386077636778354,0.04405075691686943,0.013320669344067573
1690841548696408300,6.203408203125,0.18817513194680213,0.040870775173883885,0.01483642593557015
1690841548706449200,6.21344921875,0.18592939884662626,0.03746234583673067,0.01659920695754699
1690841548716489200,6.2234892578125,0.1893710637331009,0.04608803489813581,0.015040465174266136
1690841548726529300,6.233529296875,0.19161738135516643,0.048097675953805444,0.019387376371352003
1690841548736570400,6.2435703125,0.19416005157530306,0.04200982567379251,0.018204057471454142
1690841548746610200,6.253610107421875,0.18203882114887238,0.045834270199621094,0.018911771915969437
1690841548756681200,6.26368115234375,0.171864048615098,0.04453604708262719,0.0256571819224162
1690841548766721300,6.27372119140625,0.16662497891783715,0.04383593598925508,0.023359700368694027
1690841548776761300,6.28376123046875,0.18547873246967791,0.051603008060483256,0.02025209887532983
1690841548786801400,6.293801513671875,0.1836848347902298,0.047833654722757635,0.018026476981421
1690841548796842200,6.30384228515625,0.18308453080952167,0.041586248233169316,0.012764423700794577
1690841548806882000,6.313882080078125,0.1842816316395998,0.04616796826655045,0.020737603670218957
1690841548816922000,6.323922119140625,0.18502806609272957,0.04152637127209455,0.01482350252191536
1690841548826963200,6.333963134765625,0.18906769687235353,0.042082680847449226,0.026750402252911587
1690841548837003300,6.344003173828125,0.1901151600986719,0.04010928928209469,0.030085273163509552
1690841548847043300,6.354043212890625,0.17844225796163082,0.03851419297722168,0.015438944706250913
1690841548857083400,6.36408349609375,0.1860726067095995,0.03859648269950412,0.018174982074019498
1690841548867124200,6.374124267578125,0.16886252871155738,0.04371597200455144,0.027985168212256394
1690841548877164300,6.384164306640625,0.18068331488668918,0.05224372624997049,0.03123551177771296
1690841548887235000,6.394235107421875,0.1817284400254488,0.040898247702699154,0.016673021112428976
1690841548897275100,6.404275146484375,0.18023089494407177,0.049552897997107354,0.010302874159161
1690841548907315200,6.414315185546875,0.1830740094155073,0.048922217144444585,0.02368943921313621
1690841548917356300,6.424356201171875,0.19444705182313918,0.04847943267985247,0.02596448973934166
1690841548927396400,6.434396240234375,0.18606617696881292,0.04945862557608634,0.01854228558302857
1690841548937436400,6.4444365234375,0.17918109363019466,0.044402328567206856,0.023597166952956466
1690841548947476200,6.454476318359375,0.1892044749945402,0.044129968766076486,0.022274275185586882
1690841548957517000,6.46451708984375,0.18995090944766999,0.04715257712341845,0.024477173791034146
1690841548967557000,6.47455712890625,0.18097323774397372,0.04446552086337469,0.019036119814845733
1690841548977597200,6.48459716796875,0.18306816419661043,0.04120351425958797,0.025932624163199216
1690841548987638300,6.49463818359375,0.1875567077875137,0.049080120253050696,0.020463787130941637
1690841548997678300,6.50467822265625,0.1814186434239149,0.04371526875165291,0.0168378928179387
1690841549007718400,6.514718505859375,0.1761813272923231,0.04148431309550069,0.02199375947746448
1690841549017789400,6.52478955078125,0.17782675641179083,0.04332553878170438,0.02694492931116838
1690841549027829200,6.534829345703125,0.19533435605168342,0.047657485305098814,0.016551550157228485
1690841549037870000,6.5448701171875,0.1830646570652723,0.04436370445671491,0.019413218632084315
1690841549047910100,6.55491015625,0.17887480415999887,0.04686732130809687,0.02709485917587299
1690841549057950200,6.5649501953125,0.18844985723495483,0.0486507889250759,0.019481790356268174
1690841549067990300,6.574990234375,0.19203940615952014,0.03925381409707479,0.021431257623340933
1690841549078031400,6.58503125,0.18635376173853874,0.039743643440632144,0.022619686523196285
1690841549088071400,6.595071533203125,0.18171324245631693,0.04202629275140352,0.020440899445698595
1690841549098111200,6.605111328125,0.18440555028021335,0.038965699604386464,0.030350773965590633
1690841549108152000,6.615152099609375,0.18874504078924656,0.04647930837119929,0.02040784199289046
1690841549118192000,6.625192138671875,0.18889292482733724,0.042026831607520576,0.016616285956511274
1690841549128232200,6.635232177734375,0.18335633348822591,0.0399208997036796,0.024065305054513736
1690841549138303200,6.64530322265625,0.18590017275214193,0.03600762611692771,0.02056948969485238
1690841549148343300,6.65534326171875,0.18934242216050623,0.04348921404397115,0.016299402027064935
1690841549158383400,6.66538330078125,0.18350655561387538,0.037496175041096286,0.018461343001038768
1690841549168424400,6.675424560546875,0.18560148206651209,0.03928526868126355,0.019124565283278935
1690841549178464300,6.68546435546875,0.18230887026190756,0.041508068430423734,0.016633027028758077
1690841549188504300,6.69550439453125,0.1817097353249788,0.04793896912760101,0.024456062504346482
1690841549198545200,6.705545166015625,0.18410452150702475,0.040343390298914164,0.009523249822482467
1690841549208585200,6.715585205078125,0.18844459653794765,0.04171525404085405,0.010373509976267814
1690841549218625300,6.725625244140625,0.18081249422430992,0.041860827390849585,0.013553889011475256
1690841549228665300,6.735665283203125,0.1830570582807064,0.038694965504761786,0.027499809547839683
1690841549238706400,6.74570654296875,0.1917354547768831,0.03821030552666634,0.030032168436516075
1690841549248746200,6.755746337890625,0.18829378989040851,0.04915851011835038,0.0206646297655534
1690841549258786300,6.765786376953125,0.17707038508653639,0.04706606788374483,0.023772687916643918
1690841549268857300,6.775857421875,0.1861982789158821,0.04273073296002112,0.019902700915769674
1690841549278897400,6.7858974609375,0.1885907270103693,0.050244953648187214,0.018420915092527867
1690841549288938200,6.795938232421875,0.19158406360745428,0.04530820963205769,0.017013363549276253
1690841549298978300,6.805978271484375,0.1775181288540363,0.04214960860381834,0.015310838514287025
1690841549309018400,6.816018310546875,0.19128361935615537,0.03835880148611031,0.024078936287644317
1690841549319059500,6.8260595703125,0.18335165731310843,0.03961977959894575,0.02170857216080185
1690841549329099300,6.836099365234375,0.17901450489163398,0.04315996382329613,0.018261943404842166
1690841549339139300,6.846139404296875,0.17407587944567202,0.042515912032406775,0.01064948650659062
1690841549349179400,6.856179443359375,0.17901392036974428,0.046108118704939256,0.01530417587806005
1690841549359220200,6.86622021484375,0.18469781122505663,0.04445520953191444,0.018852744338265618
1690841549369260300,6.87626025390625,0.1769178248733282,0.048967681987676766,0.013961798525508492
1690841549379300400,6.88630029296875,0.17542027979195116,0.043391361426375806,0.019100038196798414
1690841549389341400,6.896341552734375,0.18769173234403133,0.03855719186873175,0.02933144085521344
1690841549399411200,6.9064111328125,0.1854489218533039,0.047620943553838876,0.025169133543991484
1690841549409452300,6.916452392578125,0.19023790969550608,0.04538291883608326,0.020060590324644
1690841549419492400,6.926492431640625,0.1760194147288799,0.047344172439072275,0.023789100195327772
1690841549429532400,6.936532470703125,0.17617080589830875,0.04224407282108441,0.011026818219269626
1690841549439572200,6.946572265625,0.18006196811795233,0.04841574719334021,0.014608307134965434
1690841549449613300,6.95661328125,0.18948855263292788,0.04865483491253107,0.018033212682884187
1690841549459653000,6.966653076171875,0.17631927445828913,0.045905965462652965,0.02828045679782517
1690841549469693200,6.976693115234375,0.18349954135119914,0.04115530946999788,0.021142065418418496
1690841549479734300,6.986734375,0.19172960955798624,0.03591857786029577,0.02206168731425423
1690841549489774300,6.9967744140625,0.18439736697375772,0.04235173444664105,0.025033414867729878
1690841549499814100,7.006814208984375,0.18394845416247843,0.0381467296380084,0.019979903470980935
1690841549509844000,7.016843994140625,0.18798750042021273,0.03654819013387896,0.020950725831091404
1690841549519885000,7.026885009765625,0.1851449704706669,0.04040577887748368,0.017438068934483453
1690841549529956000,7.0369560546875,0.1785603313833475,0.04383103148527443,0.018928010664717294
1690841549539996200,7.04699609375,0.18095511756539343,0.04175961377238854,0.021796688835672103
1690841549550036200,7.0570361328125,0.18469605765938757,0.04073101964332163,0.022252022254583424
1690841549560076000,7.067075927734375,0.17960721008777616,0.043947963262675326,0.013476558592100627
1690841549570117000,7.0771171875,0.1779600274026394,0.0417692675167229,0.017203853753232395
1690841549580157000,7.087156982421875,0.1873871964395046,0.038953643840411674,0.019627952794730664
1690841549590197000,7.097197021484375,0.18514263238310813,0.036545367989130315,0.019367854253551923
1690841549600237000,7.107237060546875,0.1872358052700758,0.04648419460887089,0.018720121801388448
1690841549610278100,7.117278076171875,0.1852911009430885,0.042668326115142555,0.009657525460328905
1690841549620318200,7.127318115234375,0.18334639661610125,0.03681439418885857,0.015675525374524293
1690841549630358000,7.13735791015625,0.18095102591216564,0.037046613775845616,0.021170309698791242
1690841549640399000,7.147399169921875,0.1831955899685621,0.03953947177119553,0.023781757139088585
1690841549650469000,7.15746923828125,0.18738485835194588,0.04857892013210803,0.021890271703526375
1690841549660510000,7.167510009765625,0.17556407217681408,0.04592315405947156,0.020745193321630356
1690841549670550000,7.177550048828125,0.18169862940907477,0.044201664029108356,0.016549129871279
1690841549680590000,7.187590087890625,0.18873101226389408,0.04355882694777101,0.01716163574643433
1690841549690631200,7.197631103515625,0.19351883106231688,0.0433818994782865,0.010635037856129929
1690841549700671200,7.207671142578125,0.17601473855376243,0.04527768662963062,0.017812560236104762
1690841549710711000,7.2177109375,0.17227379845976828,0.04454671460711397,0.022085173221118748
1690841549720751000,7.227751220703125,0.19037819494903085,0.045139191474393006,0.01723055909706745
1690841549730792000,7.2377919921875,0.18394319346547125,0.0470759682232514,0.01848081488648895
1690841549740832000,7.24783203125,0.18244740194976328,0.03979435984771699,0.01972750417906791
1690841549750872000,7.2578720703125,0.18394260894358158,0.04075440051890909,0.018590106780128554
1690841549760913200,7.2679130859375,0.19815642773509023,0.043761473380401726,0.01977501941549126
1690841549770953200,7.277953125,0.18588614422678945,0.04646061280388385,0.017676503633125683
1690841549781024000,7.28802392578125,0.19112346035838126,0.04465557267591357,0.016653540093824266
1690841549791064000,7.29806396484375,0.18723229813873768,0.037438946694834156,0.016676555643230676
1690841549801104100,7.308104248046875,0.19082418515086172,0.03987165373447351,0.012746417686645872
1690841549811144200,7.318144287109375,0.1839414398998022,0.04272074128896929,0.013748215140332467
1690841549821185000,7.32818505859375,0.16882862644195556,0.046809362309472635,0.01279285064425785
1690841549831225000,7.33822509765625,0.1737672518879175,0.04247682213103399,0.02190626385710202
1690841549841265200,7.34826513671875,0.18468962791860102,0.040639925560075785,0.021039216965297237
1690841549851306200,7.35830615234375,0.18783084855377674,0.04026120104133151,0.02210680053103715
1690841549861346000,7.368345947265625,0.1870820760130882,0.04378572190566919,0.019377804825408382
1690841549871386000,7.37838623046875,0.18259294790029526,0.04029709433862008,0.02388027191038709
1690841549881426200,7.38842626953125,0.18289163858592508,0.038648002824187275,0.022879237075103444
1690841549891467000,7.398467041015625,0.18782909498810768,0.04262858775979839,0.01195444989162497
1690841549901507000,7.408507080078125,0.18737784408926964,0.0407097302601207,0.022141702881059606
1690841549911578000,7.418578125,0.19500936188101767,0.043958594254544,0.021663769471272826
1690841549921618000,7.428617919921875,0.18438392297029493,0.04885601090728305,0.011868840267672202
1690841549931658000,7.438657958984375,0.18438333844840527,0.04205546404696069,0.01868731551032979
1690841549941699000,7.448698974609375,0.18363398138582707,0.045559599710395554,0.02209101844001561
1690841549951739100,7.4587392578125,0.4813625439852476,-0.20819493360333144,0.039062127449875694
1690841549961779200,7.468779296875,-0.8997159663498401,-0.8964433744199574,-0.02866454704485368
1690841549971820000,7.478820068359375,0.6976455800414085,0.5600303494434803,0.1578793076054193
1690841549981860000,7.488860107421875,0.16495792248845098,0.0380766874759458,0.10242127721775322
1690841549991900200,7.498900146484375,0.22015315548777578,0.39078378985039885,0.15290293483179992
1690841550001940000,7.50893994140625,0.3745616269111633,0.4503412366472184,0.1152880744476337
1690841550011981000,7.51898095703125,0.29225509962439533,0.3883185687806457,0.04473810899336822
1690841550022021000,7.529021240234375,0.496302338963747,0.6302073899321258,-0.08237968385452404
1690841550032061200,7.539061279296875,0.05386719926595687,0.20642343041878192,-0.19288404029011724
1690841550042132200,7.54913232421875,0.42456922813951964,-0.14460876101339235,-0.21818715264443306
1690841550052172300,7.55917236328125,0.1055184760481119,-0.10387039831383153,-0.19333549211835488
1690841550062213000,7.569213134765625,0.1510802037835121,-0.1103404893770814,-0.12103424428366123
1690841550072253000,7.5792529296875,0.09841770413219929,-0.009133702515624464,0.2114520357031375
1690841550082293000,7.58929296875,0.1435562380194664,-0.08149005067157558,0.2304126106303185
1690841550092333000,7.5993330078125,0.07745733368992805,-0.16816917615253477,0.1827328130287118
1690841550102374100,7.6093740234375,0.07354805129170418,-0.17167393287047744,0.18127108817938714
1690841550112414200,7.619414306640625,0.08754384341835975,-0.1406322220652364,0.2030796364162117
1690841550122454300,7.629454345703125,0.20369360359609126,-0.15990555273601784,0.10216513789906166
1690841550132495000,7.6394951171875,0.03982698347568512,-0.11218890285589732,0.008713960999902338
1690841550142535000,7.649534912109375,0.22249475017786025,-0.06632990920697339,-0.031264523243065924
1690841550152575000,7.659574951171875,0.15225976895689963,-0.005573781544342637,-0.048423314011865295
1690841550162615000,7.669614990234375,0.23765666347444056,0.05039534017061814,-0.06679607454715296
1690841550172686000,7.67968603515625,0.16834990301430225,0.08721294922986998,-0.05567368699891958
1690841550182727200,7.68972705078125,0.2644289350658655,0.1343946976488456,-0.03135665850592777
1690841550192767200,7.699767333984375,0.23814999994933603,0.16007787709562107,-0.006640794287924655
1690841550202807300,7.709807373046875,0.207433374646306,0.17776960113076493,0.023475563567015342
1690841550212847000,7.71984716796875,0.23557985720038413,0.19353291438659653,0.049890797315118834
1690841550222888000,7.729887939453125,0.26482348734140393,0.17940220730127765,0.062440993743343276
1690841550232928000,7.739927978515625,0.17768997828960417,0.1708420851562172,0.06913086503711528
1690841550242968000,7.749968017578125,0.22900340141952036,0.14886486582159994,0.05656058023551013
1690841550253008100,7.760008056640625,0.2225748296767473,0.12453786849044263,0.04080247287775855
1690841550263049200,7.77004931640625,0.20208207674622536,0.08705974969584494,0.013386176894907838
1690841550273089300,7.78008935546875,0.1664694960951805,0.040756026220414784,0.0019017237017862497
1690841550283129000,7.790129150390625,0.19727730681300162,-0.0014481164490804076,-0.011974049641238525
1690841550293200100,7.8002001953125,0.15698095225989817,-0.04118189608282409,-0.013703316552680917
1690841550303240000,7.810239990234375,0.13460779241025447,-0.06784173854202963,-0.0028341822463087735
1690841550313281000,7.820281005859375,0.12985796753466128,-0.09065972868287936,0.020515914610400796
1690841550323321000,7.830321044921875,0.1527536899536848,-0.09544636930436827,0.038745846308628096
1690841550333361200,7.840361083984375,0.12054594931006431,-0.07916373574901371,0.06674667331431992
1690841550343402200,7.85040234375,0.12810849351882933,-0.0624980485596694,0.09335575370066798
1690841550353442300,7.8604423828125,0.16736965980529783,-0.030097963681723922,0.08258444917900487
1690841550363482000,7.870482177734375,0.1530447818547487,-0.0055748318571131675,0.07273613668719772
1690841550373522000,7.88052197265625,0.15951251656413076,0.02046294231414795,0.06296737853789236
1690841550383563000,7.89056298828125,0.20728432156443594,0.051706605432275676,0.03394602654515765
1690841550393603000,7.90060302734375,0.19581132591366768,0.0808648405784741,0.011044705502409487
1690841550403643100,7.91064306640625,0.20980010377764702,0.0914577289264649,-0.010575215693982317
1690841550413684200,7.920684326171875,0.2115472397059202,0.1154456304963678,-0.011675664916285314
1690841550423754000,7.93075390625,0.2254460011988878,0.11419473538612947,-0.015638481299765406
1690841550433795000,7.940795166015625,0.21573300095796583,0.11704806072432547,-0.011623012280440888
1690841550443835100,7.950835205078125,0.20500117906332016,0.12078121937066316,0.012119604724925011
1690841550453875000,7.960875,0.21943127095401285,0.1137085775706917,0.024054623830295167
1690841550463915000,7.9709150390625,0.1976660138696432,0.10060105778696014,0.03568652723666746
1690841550473956000,7.9809560546875,0.18069617436826227,0.08351429564133286,0.05180679157085251
1690841550483996200,7.99099609375,0.20203063881993294,0.05723039208874106,0.055477972630574364
1690841550494036200,8.0010361328125,0.17292963201999664,0.033993655946012585,0.04913738969850819
1690841550504077300,8.011077392578125,0.15474106437861918,0.008755480320379138,0.04325042315230239
1690841550514095400,8.021095458984375,0.1643658018141985,-0.009421853540930896,0.031470256681926545
1690841550524135400,8.031135498046876,0.163197342556715,-0.028225009416695684,0.01809868826768361
1690841550534175500,8.041175537109375,0.15228139626681803,-0.03831140041411854,0.0124082078413805
1690841550544216300,8.05121630859375,0.16723054359555242,-0.03655258318120613,0.01756452202547807
1690841550554287400,8.061287353515626,0.17078969738185404,-0.02672822238714434,0.020654391499329357
1690841550564327200,8.0713271484375,0.16759996142983435,-0.01536471499283798,0.02781462938436307
1690841550574367200,8.0813671875,0.16948796713352202,0.0027939598337747154,0.03729137318399735
1690841550584407300,8.0914072265625,0.1818453444033861,0.03099549704333767,0.040894845602638084
1690841550594448400,8.101448486328126,0.18522446544766424,0.03530168807096779,0.04052103472102899
1690841550604488400,8.111488525390625,0.17559212922751902,0.053973308255244046,0.04509237035771366
1690841550614528500,8.121528564453126,0.20263211184442043,0.06680314360875636,0.03205536309350282
1690841550624569300,8.1315693359375,0.20574293734133242,0.07561893928162754,0.020317985452082937
1690841550634609200,8.141609130859376,0.19719898087978363,0.09437940679313614,0.014889653960149735
1690841550644649200,8.151649169921875,0.19929799898564815,0.09018469504965469,0.010736265174322761
1690841550654689300,8.161689208984376,0.19422960968017577,0.08077613938171416,0.005980905607086606
1690841550664730400,8.17173046875,0.20324176817536352,0.07624289813255891,0.008904533402249216
1690841550674800400,8.18180029296875,0.19325988786518572,0.07074870289675891,0.005941687841550447
1690841550684841500,8.191841552734376,0.17998890288174152,0.053997638978902245,0.01997884859163314
1690841550694881500,8.201881591796875,0.1893137805879116,0.038385150636918844,0.027917619401379486
1690841550704921300,8.21192138671875,0.17888474103212357,0.032102225309377536,0.029191173867997713
1690841550714962200,8.221962158203125,0.1694932278305292,0.023244864650256932,0.040679157025343735
1690841550725002200,8.232002197265626,0.16892039637863634,0.004009829296404496,0.03989335867620539
1690841550735042300,8.242042236328125,0.15785715057253838,0.0027672270904760808,0.04634244348404463
1690841550745082400,8.252082275390626,0.15964929468631744,-0.0027694555801805105,0.044783541870559565
1690841550755123500,8.26212353515625,0.16247779611051083,0.004414391509303823,0.03284126647391822
1690841550765163500,8.27216357421875,0.16769290041029453,0.004859440996218473,0.02730960247167386
1690841550775203300,8.282203369140625,0.17499416333436965,0.0013060958961956203,0.026256015465245582
1690841550785244200,8.292244140625,0.17750410032868386,0.011952194002456963,0.018955026535806246
1690841550795284200,8.3022841796875,0.18390695310831068,0.02355055133225396,0.019791532158874907
1690841550805355300,8.312355224609375,0.19599603483080863,0.031645704580377784,0.02378853393974714
1690841550815395300,8.322395263671876,0.1816056904286146,0.0453561769596301,0.025375510870246216
1690841550825435400,8.332435302734375,0.18966858537495135,0.05911372161731124,0.0321893236375181
1690841550835476500,8.3424765625,0.19055764316916465,0.06316257688300683,0.03344454329642467
1690841550845516500,8.3525166015625,0.19370003284811974,0.073078387953341,0.02408883206057362
1690841550855556400,8.362556396484376,0.18727555275857447,0.07249315367760137,0.02214180791233666
1690841550865596400,8.372596435546875,0.19043489357233045,0.06618276495439931,0.03223229512956459
1690841550875637200,8.38263720703125,0.19270108493864535,0.05760760963698849,0.02626088800318539
1690841550885677300,8.39267724609375,0.1892833854496479,0.04893779830606654,0.025931834145332684
1690841550895717400,8.40271728515625,0.18571780192255974,0.04304559846231713,0.023355184023780746
1690841550905757400,8.41275732421875,0.1860416270494461,0.03404338597240857,0.021569803010928444
1690841550915798500,8.422798583984376,0.17633739463686943,0.018586435252008957,0.029233003715728408
1690841550925838300,8.43283837890625,0.17560381966531274,0.010933326682960614,0.026504674730380064
1690841550935909400,8.442909423828125,0.18383973309099674,0.01879332860149443,0.02849683492828626
1690841550945949400,8.452949462890626,0.1835404578834772,0.01931976362839341,0.027592017875937742
1690841550955989200,8.4629892578125,0.1736550236850977,0.011267810201179236,0.03394019959256984
1690841550966030300,8.4730302734375,0.17334230447411536,0.01876230327556841,0.03323101014359854
1690841550976070400,8.4830703125,0.17272563388049603,0.020958626009756696,0.032539123455877415
1690841550986110500,8.4931103515625,0.17659692235589025,0.023846520337834954,0.028909151189378462
1690841550996151600,8.503151611328125,0.18735095608234403,0.03346333019528538,0.027061066504125483
1690841551006191400,8.51319140625,0.18374211793541906,0.03994759591436013,0.016264928935305213
1690841551016231400,8.5232314453125,0.19375322434008121,0.044883371816109865,0.024767420875304376
1690841551026271200,8.533271240234376,0.2022720463603735,0.04647858685199171,0.024990123715274967
1690841551036312300,8.543312255859375,0.19643033459484577,0.04125747293652966,0.02816206828227732
1690841551046352400,8.553352294921876,0.1852092678785324,0.050447326086182145,0.02524257780611515
1690841551056392400,8.563392333984375,0.18835750277638436,0.0495295901867561,0.02658072194154374
1690841551066463200,8.573463134765625,0.1967471454590559,0.044339602061919864,0.02485924561091233
1690841551076503300,8.58350341796875,0.19705928014814852,0.047148448937572536,0.028760696329129858
1690841551086544400,8.59354443359375,0.19303367789387701,0.040359318520408125,0.029113962179631924
1690841551096584400,8.60358447265625,0.1896048724889755,0.03711684773415327,0.0308192225944018
1690841551106624300,8.613624267578125,0.1815361323237419,0.02979160114629194,0.02857636643790174
1690841551116664300,8.623664306640626,0.17929975157380104,0.02538010484697297,0.02664036600717809
1690841551126705400,8.633705322265625,0.1897796445339918,0.02018217087769881,0.021284250368084758
1690841551136745500,8.643745361328126,0.18349895682930945,0.0248766853694804,0.02278099629844073
1690841551146785300,8.653785400390625,0.17721242390573025,0.022227011110913006,0.028721168036339804
1690841551156826400,8.663826416015626,0.18274492359161376,0.025383392782602456,0.02402500957674347
1690841551166866200,8.6738662109375,0.1794447130024433,0.026804338096966966,0.017717936188634483
1690841551176906200,8.68390625,0.17958324469029902,0.030730745159927755,0.02357147082269657
1690841551186946300,8.6939462890625,0.17867606671750544,0.032044220644980664,0.029670198689750394
1690841551197017300,8.704017333984375,0.1939279963850975,0.03276941138068214,0.027905760000227018
1690841551207058400,8.714058349609376,0.18359423389732837,0.03645085810609162,0.03206061922393273
1690841551217098200,8.72409814453125,0.1801467237919569,0.04414972377931699,0.03085094204007182
1690841551227138300,8.73413818359375,0.19331191031336784,0.04219749373300001,0.029127214386849662
1690841551237178400,8.744178466796875,0.196006556224823,0.049578945753816515,0.027145201123622245
1690841551247219200,8.75421923828125,0.19900281543135642,0.050230778992362314,0.02412096249819733
1690841551257259300,8.76425927734375,0.19406828163862228,0.04459618890518322,0.021163423300278372
1690841551267299300,8.77429931640625,0.19227672204673288,0.0503906457291916,0.01978561844131909
1690841551277340400,8.78434033203125,0.1867477294921875,0.043490310022514314,0.023459365917462855
1690841551287380500,8.79438037109375,0.18615619333982467,0.038948666271194816,0.02369285957950633
1690841551297420300,8.804420166015625,0.18541618862748144,0.027573486705403775,0.02456984791001305
1690841551307460400,8.81446044921875,0.18168284731805323,0.027709844702482223,0.025930669668130575
1690841551317531400,8.824531494140626,0.1905155575931072,0.02436435193317011,0.026429540834669023
1690841551327571500,8.834571533203125,0.1924637690514326,0.023323227116093036,0.028607254766509868
1690841551337612300,8.8446123046875,0.17151450452506542,0.019426228810707106,0.023680739883449858
1690841551347652400,8.85465234375,0.18018939388990401,0.029690725454548372,0.02426380503498949
1690841551357692200,8.864692138671876,0.18796411954462527,0.031083832913916556,0.033718190872343255
1690841551367733200,8.874733154296875,0.18287118031978605,0.03166413528621197,0.021177269162540324
1690841551377773300,8.884773193359376,0.17867255958616732,0.04000641342950985,0.01899958719674032
1690841551387813400,8.8948134765625,0.1916846013724804,0.04367803288064897,0.02610223140933085
1690841551397853400,8.904853515625,0.18764087893962858,0.03802066470608115,0.02844668934335932
1690841551407894300,8.914894287109375,0.18658815501630305,0.03607504706364125,0.019187223289906977
1690841551417934300,8.924934326171876,0.18733283590376376,0.028225886199530214,0.020298746462073174
1690841551427974100,8.93497412109375,0.19256898299157618,0.04433311752220615,0.022538218784821217
1690841551438015200,8.94501513671875,0.1840419776648283,0.037715069355629384,0.025605976891564203
1690841551448085200,8.955085205078126,0.1967640965938568,0.03813059135396033,0.022612608328438363
1690841551458126300,8.965126220703125,0.19167992519736288,0.04360315927984193,0.026528914122493006
1690841551468166400,8.97516650390625,0.18494974015951154,0.03216273245811462,0.023997806475986726
1690841551478206500,8.98520654296875,0.18764672415852546,0.028045725593343375,0.019380412341025655
1690841551488246500,8.99524658203125,0.18136545193195341,0.03274378374908119,0.022296665113908237
1690841551498287400,9.005287353515625,0.1810702683776617,0.030715437992941585,0.020971558556566013
1690841551508333600,9.01533349609375,0.18586100978553294,0.031738259968347844,0.02295483219511807
1690841551518373400,9.025373291015624,0.19139935469031333,0.032860213202983136,0.025095314822532234
1690841551528414500,9.03541455078125,0.18526421293616294,0.031336291571334,0.02868920656207483
1690841551538454500,9.04545458984375,0.19708090745806692,0.03097198830358684,0.025262026858679017
1690841551548494600,9.05549462890625,0.18675299018919467,0.03478747320482507,0.03189024022624362
1690841551558534700,9.06553466796875,0.18375497741699218,0.03386665029916912,0.03062918448159471
1690841551568575700,9.07557568359375,0.1900368341654539,0.03130105586117133,0.02086185110439546
1690841551578646800,9.085646728515625,0.18958558326661587,0.029528420165460555,0.024252110030618494
1690841551588686600,9.0956865234375,0.18763503372073173,0.03549816049113869,0.022190364328376014
1690841551598726400,9.105726318359375,0.18942834687829016,0.032800993829034265,0.02746094340875279
1690841551608766500,9.115766357421874,0.18583470630049703,0.03430608289605006,0.02776414130614139
1690841551618807600,9.1258076171875,0.18957330830693245,0.02998231967911124,0.020482902823365293
1690841551628847600,9.13584765625,0.1864291650623083,0.035283695756550874,0.019455596469086595
1690841551638887700,9.1458876953125,0.19301438867151735,0.03529155026944354,0.019195831288048065
1690841551648928800,9.1559287109375,0.1840373014897108,0.04014457979118451,0.0311996550130425
1690841551658968600,9.165968505859375,0.1829915918290615,0.03890245250929147,0.027745660367957316
1690841551669008400,9.17600830078125,0.1829915918290615,0.030244623877108096,0.017111974218697285
1690841551679048400,9.18604833984375,0.18179624456465243,0.03036088893422857,0.027443581281998194
1690841551689089500,9.196089599609374,0.18538637801110744,0.036271556016430256,0.02856986819845624
1690841551699129600,9.206129638671875,0.19002631277143955,0.036157044524978844,0.024752419668994843
1690841551709200600,9.21620068359375,0.18613515055179594,0.025334384275414047,0.023495524076232684
1690841551719240700,9.22624072265625,0.18149404674768446,0.02710433482369408,0.02207044144286774
1690841551729280500,9.236280517578125,0.17700258054733276,0.021723847361747175,0.01925637496940326
1690841551739321600,9.246321533203124,0.19061726440191268,0.03651192237725481,0.02281094391213264
1690841551749361400,9.256361328125,0.19974398918747902,0.036416608776617794,0.02660842279922217
1690841551759401500,9.2664013671875,0.1961503486096859,0.035270452682487664,0.026310193337895905
1690841551769441500,9.276441650390625,0.18687106361091135,0.03424909201180562,0.02448770431820303
1690841551779482600,9.286482666015624,0.1855237406551838,0.03030196182122454,0.0258554033416789
1690841551789522700,9.296522705078125,0.18447452386319635,0.03987776381485164,0.026176104929717257
1690841551799562800,9.306562744140624,0.18956337143480775,0.0297207826660946,0.02707690339407418
1690841551809603600,9.316603515625,0.1936041712582111,0.02807418450284749,0.029789048429601825
1690841551819643400,9.326643310546874,0.18402794913947582,0.038423984809964895,0.03077444273775909
1690841551829714400,9.33671435546875,0.1970470051884651,0.028207729488331824,0.022200588894868267
1690841551839754500,9.34675439453125,0.19555121367275713,0.03079190076263621,0.023813892143289557
1690841551849794600,9.356794677734374,0.18747195211350917,0.030658337510842827,0.031143591143982484
1690841551859835600,9.366835693359375,0.18597791416347026,0.03242744780890643,0.0272470951620955
1690841551869875700,9.376875732421874,0.18313655325770378,0.032635738531034436,0.03015816943636164
1690841551879915500,9.38691552734375,0.18164193078577517,0.029287542347982524,0.02466981028630398
1690841551889955600,9.39695556640625,0.18822598535120486,0.030034195996820924,0.014214631642261518
1690841551899996400,9.406996337890625,0.19301438867151735,0.0332184520561248,0.022012984767742452
1690841551910036500,9.417036376953124,0.17655425225794313,0.03053129533138126,0.028858882306865414
1690841551920076500,9.42707666015625,0.1858317836910486,0.027244327816274016,0.015779456106456927
1690841551930117600,9.43711767578125,0.1921148094832897,0.02730842429473996,0.023331807714770548
1690841551940157700,9.44715771484375,0.18582886108160018,0.031195038203429427,0.03488052178313956
1690841551950197800,9.45719775390625,0.17774784595668314,0.030131153565272687,0.027128277388284914
1690841551960268500,9.4672685546875,0.18867139103114605,0.029965131082292644,0.030615306653291915
1690841551970308600,9.47730859375,0.19166472762823103,0.0365911798922345,0.020877108039031735
1690841551980348700,9.4873486328125,0.1876221742391586,0.036940541319176554,0.017082935353880748
1690841551990389500,9.497389404296875,0.19106267008185385,0.03549419670207426,0.019064706588513218
1690841552000429600,9.5074296875,0.18657471101284026,0.03223985281493515,0.023004703785409218
1690841552010469600,9.5174697265625,0.1928600748926401,0.03746409026924521,0.026485860432055777
1690841552020510700,9.5275107421875,0.19570435840785502,0.034632520105130966,0.021296826721867546
1690841552030550500,9.537550537109375,0.189570385697484,0.034688469809759405,0.026095924966130404
1690841552040590600,9.547590576171874,0.18149170866012573,0.02969345626775175,0.01880599172024522
1690841552050630700,9.557630615234375,0.1835883886784315,0.02901517341369763,0.022911655207094737
1690841552060671500,9.56767138671875,0.19466157135665416,0.02913191339485347,0.027561714069219305
1690841552070711600,9.577711669921875,0.1933136638790369,0.02729116263268515,0.025526189653621984
1690841552080751600,9.587751708984374,0.19136662146449088,0.027487452389765528,0.01940474306468386
1690841552090822700,9.59782275390625,0.18552841683030127,0.03601759952167049,0.03154517594850622
1690841552100862500,9.607862548828125,0.19465689518153667,0.030644601246435192,0.030340604198025537
1690841552110903600,9.617903564453124,0.197200149923563,0.034962793239112944,0.028280237602116537
1690841552120943600,9.627943603515625,0.19136311433315276,0.02819571025697514,0.020112398143694733
1690841552130983700,9.637983642578124,0.18717326142787932,0.026707974183559417,0.025902475620107723
1690841552141023700,9.648023681640625,0.1838806496232748,0.02919003679025918,0.031375367772975005
1690841552151064600,9.658064697265624,0.18537644113898277,0.02754687269311398,0.026387747519556432
1690841552161104600,9.668104736328125,0.17864041088223456,0.03747742467485368,0.025509037589421496
1690841552171144400,9.67814453125,0.182380766454339,0.03737018317440524,0.022892923107161185
1690841552181185500,9.688185546875,0.18477496811449526,0.0339627128184773,0.025947954163071697
1690841552191225600,9.6982255859375,0.18088497493863104,0.0315465550548397,0.01609187392333988
1690841552201265700,9.708265625,0.18791677327156064,0.03167288484824821,0.030954598777368662
1690841552211305700,9.7183056640625,0.17893734800219535,0.038826044538524,0.02358586010765284
1690841552221376800,9.728376708984374,0.17534604551196098,0.03940674876961857,0.02580683779248502
1690841552231417600,9.73841748046875,0.1748959636569023,0.031862142076343296,0.02358306536236778
1690841552241457700,9.748457763671874,0.1840244420081377,0.032143735496699806,0.016037668651225977
1690841552251497500,9.75849755859375,0.18955869525969027,0.03216622132314369,0.023407037508604116
1690841552261537500,9.76853759765625,0.1913531774610281,0.03985586251029744,0.024272897090320475
1690841552271578600,9.77857861328125,0.19269816232919693,0.027951416639704255,0.025891036344063468
1690841552281618700,9.78861865234375,0.1775835953056812,0.02831573817376047,0.02449852710631676
1690841552291658800,9.79865869140625,0.1877583678394556,0.027838183789886534,0.027007235691347158
1690841552301699600,9.808699462890624,0.18835691825449466,0.03863890620227903,0.027093356771953403
1690841552311739600,9.81873974609375,0.1829693799972534,0.038636166255921124,0.03275493076418061
1690841552321779500,9.828779541015624,0.1751882246017456,0.025724717033561318,0.03836190675864927
1690841552331819500,9.838819580078125,0.18551205021739006,0.03286362900277599,0.03271637971892487
1690841552341890600,9.848890625,0.18042378716766833,0.039715887784026564,0.024231446268502623
1690841552351930600,9.8589306640625,0.18820318899750707,0.031102829875331372,0.022175682782474903
1690841552361971700,9.8689716796875,0.19149696984589099,0.03196127333557233,0.026259887922764753
1690841552372011800,9.87901171875,0.18536065904796123,0.032940530163887885,0.02464011840093881
1690841552382051600,9.889051513671875,0.1781768850237131,0.026561478384956715,0.022848056485550477
1690841552392092700,9.8990927734375,0.1804202800363302,0.02557791070770472,0.01997026799295563
1690841552402132500,9.909132568359375,0.18954700482189654,0.029646420521941035,0.02469430540674366
1690841552412172500,9.919172607421874,0.18879764775931834,0.02509615507274866,0.025115088102081788
1690841552422212600,9.929212646484375,0.18939736721813677,0.02814566057017073,0.03222810301163699
1690841552432253700,9.939253662109374,0.18341244758963585,0.03549542054478079,0.021025645097671075
1690841552442293800,9.949293701171875,0.18715104959607123,0.034929859083890916,0.019813817055919208
1690841552452333600,9.95933349609375,0.18535539835095405,0.03504309193370864,0.019151005765632726
1690841552462374700,9.969374755859375,0.184756847935915,0.033100049840845164,0.019772991855186408
1690841552472444400,9.9794443359375,0.18221417771577833,0.02313888352513313,0.01932482339600101
1690841552482485500,9.989485595703124,0.18251462196707724,0.0321676095626317,0.016724486438184975
1690841552492525600,9.999525634765625,0.17503391082286834,0.029099289766885337,0.022405751511570995
1690841552502565600,10.009565673828124,0.18430851964652537,0.03326641938369721,0.015786739797191692
1690841552512587000,10.0195869140625,0.19508359616100787,0.029551015589758752,0.020550547532364724
1690841552522627000,10.029626953125,0.19194237552583215,0.03259821953224018,0.03260052565375809
1690841552532667000,10.0396669921875,0.19284137019217013,0.026823873914498836,0.027055207585496826
1690841552542707000,10.04970703125,0.1852098524004221,0.0223397142377682,0.023092213105503467
1690841552552748000,10.059748046875,0.1820680472433567,0.02763517203107476,0.018511159792402757
1690841552562788000,10.0697880859375,0.17892507304251193,0.029139201652165502,0.014548521505435928
1690841552572828200,10.079828125,0.1801210048288107,0.02343936430905014,0.025052946118684485
1690841552582869000,10.089868896484376,0.18356325423717498,0.033914106170088054,0.028906612172420135
1690841552592909000,10.099908935546875,0.18281565074026584,0.03018816271582618,0.025562863835622555
1690841552602979800,10.109979736328125,0.1879021602243185,0.02534068615203723,0.024232154087978415
1690841552613020000,10.12002001953125,0.1780249093323946,0.02737626536656171,0.026452446786221114
1690841552623060000,10.13006005859375,0.19373861129283904,0.028496465035527944,0.025430008403304963
1690841552633100000,10.14010009765625,0.1862549775391817,0.02793234661305323,0.02423538265810348
1690841552643141000,10.15014111328125,0.17907061899304388,0.030249080856516956,0.02543033719686791
1690841552653181200,10.16018115234375,0.17816987076103685,0.03236517796134576,0.03127350113396533
1690841552663221200,10.17022119140625,0.18505553862154484,0.028724720833450554,0.02324798362252768
1690841552673262000,10.180261962890626,0.18535481382906435,0.02753101753685623,0.030787192621477878
1690841552683302000,10.190302001953125,0.1795183627605438,0.03959582333462312,0.02567328367384616
1690841552693342000,10.200342041015626,0.18265841435194013,0.030990747802983967,0.029339646994555366
1690841552703382000,10.210382080078125,0.19013795645236967,0.032225349365547294,0.018055753308255224
1690841552713423000,10.220423095703126,0.1910340285092592,0.029002770589850842,0.02561147505058907
1690841552723463200,10.230463134765625,0.18938859938979147,0.03230754775628447,0.028108625628566367
1690841552733534200,10.2405341796875,0.19821663348972796,0.039616592128016055,0.023995217226678505
1690841552743574000,10.250573974609376,0.19402619606256483,0.0359556036687456,0.018082344487658702
1690841552753613800,10.26061376953125,0.1778641658127308,0.036502003771439195,0.022251761959679425
1690841552763655000,10.270655029296876,0.18369769427180288,0.028538605410512535,0.025220580603438427
1690841552773695000,10.280695068359375,0.18609248045384882,0.03502783956564963,0.02495561409089714
1690841552783735000,10.290735107421876,0.18025778295099734,0.03922045068359002,0.029537388923205433
1690841552793775000,10.300775146484375,0.17621873669326305,0.03149466047082096,0.024856373233813792
1690841552803816200,10.310816162109376,0.1889385175347328,0.031089769464358687,0.018827650996204464
1690841552813856000,10.32085595703125,0.1820546032398939,0.03465849479660391,0.025794494334142652
1690841552823895800,10.330895751953125,0.18624445614516735,0.03019504911433905,0.02564537732019089
1690841552833937000,10.34093701171875,0.18414894517064093,0.03162745653763413,0.018614017378678543
1690841552843977000,10.35097705078125,0.18564415216445923,0.03427099331635981,0.020992578511708417
1690841552854048000,10.361048095703126,0.1813052461773157,0.03501333611626178,0.024299803363555108
1690841552864088000,10.371088134765625,0.1802589519947767,0.02879734767824411,0.02932609339323826
1690841552874128100,10.381128173828126,0.1811567776173353,0.024071853526309132,0.0281177861825563
1690841552884169200,10.391169189453125,0.17636837429702282,0.03167058329330757,0.023665857408149166
1690841552894209000,10.401208984375,0.17576982388198376,0.03526362108290195,0.01870001059512142
1690841552904248800,10.411248779296875,0.18040975864231584,0.024985552571434526,0.022447343897284006
1690841552914289000,10.421288818359375,0.19058277761042117,0.0353483402242884,0.024039216198609208
1690841552924330000,10.431330078125,0.182800453171134,0.030180819659586994,0.024881434609834104
1690841552934370000,10.4413701171875,0.18369769427180288,0.03599728738600388,0.02088690334726125
1690841552944410000,10.45141015625,0.18429682920873164,0.029471703275851902,0.02856480386427138
1690841552954451200,10.461451171875,0.18684183751642702,0.03190928742000833,0.01911224009124562
1690841552964491000,10.471490966796875,0.1851952393531799,0.03770851175067946,0.023031025536754166
1690841552974530800,10.48153076171875,0.1832481969386339,0.02772650357633829,0.02315203526765108
1690841552984601900,10.491601806640626,0.17905834403336046,0.028047132099140434,0.025537966856383716
1690841552994642000,10.501641845703125,0.18324995050430296,0.02993223345968872,0.025397617670777254
1690841553004682000,10.511681884765625,0.19417408010065554,0.03458957601254806,0.024733737801411186
1690841553014723000,10.52172314453125,0.1904337245285511,0.037437805050518365,0.015356038496037944
1690841553024763100,10.53176318359375,0.18908640157282353,0.03679857556521892,0.020856243347516283
1690841553034803000,10.541802978515625,0.18235212488174438,0.03526871738312766,0.025321447162027468
1690841553044844000,10.551843994140626,0.17891104451715945,0.030672274704650043,0.026080873527470974
1690841553054883800,10.5618837890625,0.17352233721613883,0.030870902549289165,0.02685321417341474
1690841553064924000,10.571923828125,0.18220073371231554,0.02931782788839191,0.01400971105415374
1690841553074964000,10.5819638671875,0.1845955198943615,0.03100358901824802,0.014930027069733478
1690841553085005000,10.592005126953126,0.1886339816302061,0.03543707795366645,0.021468525460385718
1690841553095045000,10.602045166015625,0.17920622807145117,0.03789901108779013,0.03545905689003411
1690841553105085000,10.6120849609375,0.18070260410904884,0.03398450452517718,0.028344507610518484
1690841553115156000,10.622156005859376,0.19686346531510351,0.04030293042436242,0.025821893797721714
1690841553125196000,10.632196044921875,0.18638883305191992,0.03385948990602046,0.020897447574161922
1690841553135236900,10.64223681640625,0.17860709313452242,0.023961506753321735,0.025677343361033125
1690841553145277000,10.65227685546875,0.1833960809767246,0.032855354364775116,0.02910423537006136
1690841553155317000,10.66231689453125,0.17740940778255462,0.034474589597061275,0.02474705394071061
1690841553165358000,10.672358154296875,0.18040040629208087,0.03213032802585512,0.025399563032691367
1690841553175398100,10.682398193359376,0.17979951778948305,0.03376393884336576,0.03286086622353177
1690841553185438000,10.69243798828125,0.18847791428565977,0.028720190788805482,0.023913461793935855
1690841553195478000,10.70247802734375,0.17306524109840393,0.027055308050196618,0.028380396341229786
1690841553205518800,10.712518798828125,0.1841378392547369,0.02653219749154523,0.021436431555380112
1690841553215559000,10.722558837890626,0.18593290597796439,0.028886286337021738,0.025571718428935856
1690841553225599000,10.732598876953125,0.18712883776426315,0.027038265583850443,0.029026941483304834
1690841553235670000,10.742669921875,0.18368600383400915,0.0280168648250401,0.028809403442218898
1690841553245709800,10.752709716796875,0.18263678704202174,0.027327969245426357,0.030620809378894043
1690841553255751000,10.7627509765625,0.18054010702371595,0.027391919593419876,0.024057825000956653
1690841553265791000,10.772791015625,0.18173837689757347,0.03657704176902771,0.02156784394928254
1690841553275831000,10.7828310546875,0.17350772416889668,0.03370994363380596,0.021882047297875396
1690841553285871000,10.79287109375,0.17934183714985846,0.026271409397199748,0.023467562923650254
1690841553295912000,10.802911865234375,0.18128712599873542,0.024368863711506126,0.030071043708757496
1690841553305952000,10.812951904296876,0.18427870903015137,0.031202308194432406,0.020253532780590465
1690841553315992000,10.822991943359375,0.18727087658345698,0.02369702886454761,0.0178241136765806
1690841553326033200,10.833033203125,0.19071078790426252,0.031597956448514014,0.024724892341252414
1690841553336073000,10.843072998046875,0.1860714376658201,0.0316785291377455,0.02137719848169945
1690841553346113000,10.853113037109376,0.1796364361822605,0.03241215890822932,0.023175877367542123
1690841553356153000,10.863153076171875,0.18113222769796847,0.030402335189469158,0.02585150805127341
1690841553366224100,10.87322412109375,0.17619126416444778,0.030224384806677697,0.023933687164634464
1690841553376265000,10.883264892578126,0.17708908978700635,0.029662019949872043,0.019815798950451425
1690841553386305000,10.893304931640625,0.18860943171083927,0.026301786269154397,0.02110466515063308
1690841553396344800,10.9033447265625,0.17080314138531683,0.02853836794849485,0.02070782958646305
1690841553406385000,10.913385009765625,0.18726327779889107,0.030791480637528002,0.017838197000860236
1690841553416426000,10.923426025390626,0.19070611172914503,0.03234362371666357,0.026799118499155155
1690841553426466000,10.933466064453125,0.17529402306377886,0.030668986769020554,0.018521530489367433
1690841553436506000,10.943506103515626,0.17888532555401324,0.030648674633353946,0.024735400035534982
1690841553446546200,10.953546142578125,0.1808306144028902,0.02506207014005631,0.02604327233028598
1690841553456587000,10.9635869140625,0.18128128077983854,0.02881840873258188,0.02429403577647172
1690841553466627000,10.973626953125,0.18307576298117637,0.025434191388078033,0.02701978921224363
1690841553476667000,10.9836669921875,0.18562077128887175,0.02290299241002649,0.020758125868439673
1690841553486708000,10.9937080078125,0.18412322620749472,0.02688481032149866,0.021760768138919955
1690841553496778000,11.003778076171875,0.1845727235406637,0.03035866044452414,0.02674131933073513
1690841553506819000,11.013819091796876,0.19235563250184057,0.028103246200550346,0.027495471299439668
1690841553516854500,11.0238544921875,0.18502338991761205,0.029019265066925433,0.0282706066906685
1690841553526894600,11.03389453125,0.18053601537048816,0.029699575481284407,0.025183194035384802
1690841553536935700,11.043935791015626,0.17155717462301254,0.022163115561846643,0.021036974775861018
1690841553546975500,11.0539755859375,0.1835275984019041,0.02674342908943072,0.025661223343294112
1690841553557015300,11.064015380859376,0.181881000238657,0.03303399886731058,0.032010012414702214
1690841553567055400,11.074055419921875,0.18607026862204074,0.027016090284660458,0.030090967685356733
1690841553577096400,11.084096435546876,0.18232757496237753,0.029430896341428158,0.01824896519226022
1690841553587136500,11.094136474609375,0.1787351034283638,0.02666850068969652,0.024939475806849076
1690841553597176600,11.104176513671876,0.17618775703310965,0.03093350119041279,0.03616562969023362
1690841553607217700,11.1142177734375,0.17633681011497973,0.03329140769448131,0.03344985879235901
1690841553617257500,11.124257568359376,0.18277064255475997,0.0289474784723483,0.02485806743397843
1690841553627328500,11.13432861328125,0.17858078964948654,0.02666601647166535,0.018594440461951307
1690841553637368300,11.144368408203125,0.17783377067446707,0.02265752974897623,0.024837590901530347
1690841553647408400,11.154408447265626,0.180228556856513,0.023282968170940874,0.02697666245657019
1690841553657448400,11.164448486328125,0.1842670185923576,0.03320931890159845,0.03391432993237395
1690841553667489500,11.174489501953126,0.1872574325799942,0.028430578458774832,0.023635841295798307
1690841553677529600,11.184529541015625,0.18321721727848053,0.03592924538478255,0.02557533515812829
1690841553687569700,11.194569580078126,0.18082301561832426,0.03207341020684689,0.018333761965460143
1690841553697610500,11.204610595703125,0.18695932641625404,0.0325477314540185,0.018056835587066597
1690841553707650300,11.214650390625,0.18710837949812412,0.03220739358374849,0.020478304280061272
1690841553717690400,11.2246904296875,0.18501403756737708,0.028369349790830164,0.023508356158342212
1690841553727730400,11.23473046875,0.1845651247560978,0.02983900221828371,0.011704174058139323
1690841553737771500,11.244771484375,0.17872925820946692,0.026242676493059842,0.016489764366857708
1690841553747842600,11.254842529296875,0.18306933324038982,0.026530498724803328,0.027780206524953246
1690841553757882600,11.264882568359376,0.18411621194481848,0.03604909063847735,0.023005174142867325
1690841553767922400,11.27492236328125,0.18740882374942303,0.032178587614372374,0.02008732306794263
1690841553777962500,11.28496240234375,0.17962591478824613,0.028641773524042218,0.012384539271425455
1690841553788003300,11.29500341796875,0.18665829764306544,0.022617124673351644,0.027637793246423823
1690841553798043400,11.30504345703125,0.1921937199383974,0.027372940898314116,0.028474399334192275
1690841553808083500,11.31508349609375,0.1848608928322792,0.02480261548627168,0.02699743124996312
1690841553818124500,11.32512451171875,0.17243980267643927,0.030116303056012837,0.028794032343151046
1690841553828164600,11.33516455078125,0.18037176471948624,0.02431148923477158,0.03170406087122392
1690841553838204700,11.34520458984375,0.187104872366786,0.027233276699297128,0.0236185796337435
1690841553848244500,11.355244384765625,0.18276655090153215,0.033416422313638026,0.01694183724960312
1690841553858285300,11.365285400390626,0.18126959034204482,0.028454854383505878,0.024671285290759987
1690841553868325400,11.375325439453125,0.1733399663865566,0.02942260343711823,0.017318287612870336
1690841553878396400,11.385396484375,0.17663257819116115,0.02600833801422268,0.019112833746289835
1690841553888436500,11.3954365234375,0.18665946668684483,0.02638097071889788,0.020622594421845858
1690841553898476500,11.4054765625,0.18815584272444247,0.023666104003321378,0.027860573718207885
1690841553908517600,11.415517578125,0.18875439313948153,0.029068565835058686,0.024332477223873137
1690841553918557400,11.425557373046875,0.1890560064345598,0.035767241489794106,0.018212071814551017
1690841553928597500,11.435597412109376,0.18277239612042903,0.023734876656904814,0.024527059081057085
1690841553938637600,11.445637451171875,0.17977730595767497,0.021185411369800566,0.02255556264526676
1690841553948678400,11.455678466796876,0.18261983590722083,0.025915161571744828,0.02558214849140495
1690841553958718500,11.465718505859375,0.18381635221540926,0.03483260925449431,0.030534149442170744
1690841553968758500,11.475758544921876,0.17438859865665435,0.02628748374916613,0.02663201373736374
1690841553978799600,11.485799560546875,0.17782967902123928,0.028193920158687977,0.020197971235029397
1690841553988839400,11.49583935546875,0.1892003833413124,0.02612966283895075,0.025162717502936718
1690841553998879500,11.50587939453125,0.18815233559310435,0.02672669715033844,0.025686426283209583
1690841554008950500,11.515950439453125,0.1802197890281677,0.027213402955047785,0.025311665553529747
1690841554018990600,11.525990478515626,0.18276304377019403,0.029248470712918785,0.030725141969625835
1690841554029030700,11.53603076171875,0.1818628800600767,0.03018544103577733,0.02525019485699013
1690841554039071500,11.546071533203126,0.18245675429999827,0.029465072605665773,0.023585134021867998
1690841554049111600,11.556111572265625,0.18619652535021303,0.025749358284473417,0.024244556911825203
1690841554059151400,11.5661513671875,0.18873861104846,0.02565890352204442,0.02721657672624569
1690841554069192400,11.5761923828125,0.18619477178454397,0.02595474466346204,0.021712677513761446
1690841554079232500,11.586232421875,0.17392507279813288,0.03494582383800298,0.020392895585508084
1690841554089272600,11.5962724609375,0.17721593103706837,0.030375319318380205,0.024159230415662748
1690841554099312600,11.606312744140626,0.18424714484810828,0.032068934961128975,0.027939064048207365
1690841554109353500,11.616353515625,0.18933540789783,0.028355869254749266,0.020119859930942764
1690841554119393500,11.6263935546875,0.18364684086740016,0.016672591854166238,0.02560112261993345
1690841554129433300,11.636433349609375,0.18080197283029556,0.02044986363686621,0.031221556317596693
1690841554139504400,11.64650439453125,0.18543840045928953,0.02720931130181998,0.026157751855696548
1690841554149544400,11.65654443359375,0.17885317685008048,0.02277627902412787,0.027468482827814295
1690841554159585500,11.66658544921875,0.17570961812734603,0.03093519995715469,0.01770112661772873
1690841554169625600,11.67662548828125,0.182742585504055,0.023570023217704145,0.02288542478729505
1690841554179665700,11.686665771484375,0.17660510566234588,0.024334632648341355,0.021130854471237397
1690841554189706500,11.69670654296875,0.18244038768708704,0.02519013523282483,0.02474712700594682
1690841554199746600,11.70674658203125,0.189022104164958,0.027000436057802286,0.02147344823067542
1690841554209786400,11.716786376953126,0.18019173197746277,0.031513237307127566,0.030719068421865812
1690841554219826400,11.726826416015625,0.17480360919833182,0.026213852257374673,0.03184820031595882
1690841554229867500,11.736867431640626,0.18183599205315112,0.02816847519017756,0.02357233390579931
1690841554239907600,11.746907470703125,0.17914251518547533,0.025941391991544514,0.01805825122601818
1690841554249947600,11.75694775390625,0.17196049472689628,0.031776436554268,0.030693408824224024
1690841554260018700,11.767018798828126,0.17345628624260426,0.029033147461805492,0.028681004989310165
1690841554270058500,11.77705859375,0.18871990634799002,0.020464969874452798,0.02574212939266581
1690841554280099300,11.787099365234376,0.1833306145250797,0.019238368955254555,0.025815514289285055
1690841554290139400,11.797139404296875,0.17569909673333167,0.025918997496645897,0.02429345125458203
1690841554300179500,11.807179443359376,0.18063713765740394,0.02411423136331141,0.025508302370482124
1690841554310219500,11.817219482421875,0.18557576310336588,0.028019111581053583,0.022048553838045337
1690841554320260600,11.827260498046876,0.18453005344271659,0.030979039098881184,0.011248995902854948
1690841554330300700,11.83730078125,0.18812135593295096,0.02587256453903392,0.02460781899995636
1690841554340340700,11.8473408203125,0.17824527408480642,0.021798921891953794,0.025400211486662737
1690841554350381600,11.857381591796875,0.18213585178256034,0.027938648489676414,0.019934991183597595
1690841554360421400,11.86742138671875,0.18797054928541182,0.025147282471787182,0.019070012951293028
1690841554370461400,11.87746142578125,0.17944003682732582,0.019998795401118694,0.029031439561909064
1690841554380501500,11.88750146484375,0.1893143651098013,0.021703918818570672,0.025133747136779128
1690841554390572500,11.897572509765626,0.18871523017287253,0.024035028647258875,0.024818283412861637
1690841554400613600,11.907613525390625,0.19469839623570442,0.027046649819705632,0.021883234607963823
1690841554410653700,11.91765380859375,0.18362521355748176,0.020778346672561017,0.025195172167546114
1690841554420693500,11.927693603515625,0.1806307079166174,0.02349774343278259,0.018379267907887697
1690841554430733600,11.937733642578126,0.18092764503657816,0.02546447692848742,0.031131096988590432
1690841554440774400,11.9477744140625,0.18092939860224722,0.0221162442128174,0.028881829357612878
1690841554450814500,11.957814453125,0.18556524170935154,0.02647712456975132,0.02213009007507935
1690841554460854500,11.9678544921875,0.18511632889807222,0.02121885698167607,0.030359706190717404
1690841554470895600,11.9778955078125,0.1879594433695078,0.029175880400743332,0.033951401406596415
1690841554480935700,11.987935791015625,0.1860153235644102,0.018757179575879124,0.024610810108063742
1690841554490975700,11.997975830078126,0.18362053738236425,0.029778997393045573,0.01818125198460184
1690841554501015600,12.008015625,0.181675833055377,0.02546489705359563,0.025517910449043845
1690841554511068400,12.018068359375,0.18452011657059192,0.021050642541609703,0.016655928413732906
1690841554521138400,12.028138427734374,0.18257424319982526,0.020601309605222193,0.024513299983763136
1690841554531179500,12.038179443359375,0.18407003471553324,0.023241320986300707,0.02648973288957495
1690841554541219300,12.04821923828125,0.18601356999874114,0.03138414930105209,0.022706506290123798
1690841554551259400,12.05825927734375,0.18182196352779864,0.025741083646472544,0.024196525652171112
1690841554561300200,12.06830029296875,0.1816717414021492,0.025664072887506335,0.021706238639820366
1690841554571340300,12.07834033203125,0.1738888324409723,0.02736006315043196,0.02334818802741356
1690841554581380400,12.08838037109375,0.16954817288815974,0.023679858534038065,0.02252741426301654
1690841554591420400,12.09842041015625,0.18615794690549373,0.01753854276742786,0.019875744410185144
1690841554601461500,12.10846142578125,0.195586869508028,0.024248689664248375,0.0223174293407239
1690841554611501600,12.11850146484375,0.17807985439002513,0.026340583909582344,0.019656891194847412
1690841554621541400,12.128541259765624,0.19364158065915107,0.024177688520960507,0.023273529055737888
1690841554631582200,12.138582275390625,0.18630875355303286,0.033278000223636625,0.012784808901697397
1690841554641622300,12.148622314453124,0.18002280515134333,0.0236500661839731,0.015701025141961873
1690841554651693300,12.158693359375,0.182115978038311,0.028149167701508847,0.01815267434408888
1690841554661733400,12.1687333984375,0.1828641660571098,0.0311604052814655,0.01640648826388642
1690841554671773400,12.1787734375,0.1873532941699028,0.021597280106320976,0.026346776188351212
1690841554681813200,12.188813232421875,0.19034312363564967,0.028777254738286136,0.030868080404540522
1690841554691854300,12.198854248046874,0.17492869688272475,0.021765768541023134,0.024415771593153474
1690841554701894400,12.208894287109375,0.17627601983845234,0.018037925390619783,0.02673235970614478
1690841554711934200,12.218934326171874,0.18480477873086928,0.02336913035074249,0.02036797577338293
1690841554721975300,12.228975341796875,0.19632745874226093,0.023819540999364106,0.031447063036006875
1690841554732015400,12.239015380859374,0.19438392345905303,0.024554047552682458,0.026736606622999533
1690841554742055400,12.249055419921875,0.19468319866657255,0.027697094818763434,0.027827164638950488
1690841554752095200,12.25909521484375,0.18480536325275898,0.020739713428914546,0.022053211746853776
1690841554762136600,12.269136474609375,0.18749825559854508,0.02250854973234236,0.023650518275122157
1690841554772207400,12.279207275390625,0.18016718205809593,0.028548286554310468,0.025238047761470078
1690841554782247400,12.289247314453124,0.19093992048501968,0.025648363861721007,0.02791723580888938
