time,seconds_elapsed,z,y,x
1690841542525191400,0.03219140625,-0.004432831425219774,0.010122941806912422,0.10884818434715271
1690841542535232500,0.042232421875,-0.002807770622894168,0.00042876892257481813,0.07408647984266281
1690841542545272300,0.052272216796875,-0.0012237224727869034,-0.005270928610116243,0.028776520863175392
1690841542555343400,0.06234326171875,-0.0034703651908785105,-0.009100819937884808,-0.020298346877098083
1690841542565383400,0.072383544921875,-0.0027720844373106956,-0.007790811359882355,-0.06414942443370819
1690841542575423500,0.082423583984375,-0.0062757390551269054,-0.007387342397123575,-0.10316633433103561
1690841542585464600,0.092464599609375,-0.008184959180653095,-0.008035555481910706,-0.12642771005630493
1690841542595504600,0.102504638671875,-0.007816644385457039,-0.009801497682929039,-0.1394772082567215
1690841542605544400,0.11254443359375,-0.006774548906832933,-0.015145130455493927,-0.13859117031097412
1690841542615584300,0.122584228515625,-0.007178550586104393,-0.021622471511363983,-0.12493447959423065
1690841542625625300,0.132625244140625,-0.00529596209526062,-0.020534569397568703,-0.10520099103450775
1690841542635665400,0.14266552734375,-0.004020041786134243,-0.016955813392996788,-0.07779919356107712
1690841542645705500,0.15270556640625,-0.0038370825350284576,-0.015665778890252113,-0.05090738832950592
1690841542655746600,0.16274658203125,-0.006601976230740547,-0.008155664429068565,-0.021923141553997993
1690841542665786600,0.17278662109375,-0.005151352379471064,-0.0022386531345546246,0.005811017472296953
1690841542675857700,0.182857666015625,-0.003867975203320384,0.007152451667934656,0.030481742694973946
1690841542685897500,0.1928974609375,-0.0029473204631358385,0.014209561981260777,0.05127623677253723
1690841542695937300,0.202937255859375,-0.0038402783684432507,0.017168600112199783,0.06281944364309311
1690841542705977300,0.212977294921875,-0.003585413796827197,0.01630626805126667,0.06742378324270248
1690841542716018400,0.223018310546875,-0.005929528269916773,0.014653244987130165,0.06442133337259293
1690841542726058500,0.23305859375,-0.002581934677436948,0.011438010260462761,0.049246110022068024
1690841542736098600,0.2430986328125,-0.003308444982394576,0.004897020757198334,0.02875574864447117
1690841542746139600,0.2531396484375,-0.004034422803670168,0.0001901497016660869,0.004012584686279297
1690841542756179500,0.263179443359375,-0.0029952572658658028,-0.004698082339018583,-0.022830480709671974
1690841542766219300,0.27321923828125,-0.0036629117093980312,-0.010974087752401829,-0.047516118735075
1690841542776259300,0.28325927734375,-0.005426190793514252,-0.012240953743457794,-0.06729967892169952
1690841542786300400,0.293300537109375,-0.005662146955728531,-0.014342986978590488,-0.07948070764541626
1690841542796340500,0.303340576171875,-0.005302620120346546,-0.014051103964447975,-0.08492687344551086
1690841542806411500,0.31341162109375,-0.00449727987870574,-0.012230567634105682,-0.08336546272039413
1690841542816451600,0.32345166015625,-0.005203816574066877,-0.011699266731739044,-0.07678505778312683
1690841542826491400,0.333491455078125,-0.003581951605156064,-0.008041947148740292,-0.06320639699697495
1690841542836532500,0.343532470703125,-0.0041553303599357605,-0.005802761763334274,-0.04766605421900749
1690841542846572300,0.353572265625,-0.005282113794237375,-0.003935619257390499,-0.028655612841248512
1690841542856612400,0.3636123046875,-0.004923652391880751,-0.0005664543714374304,-0.013140569441020489
1690841542866653400,0.3736533203125,-0.0046602655202150345,0.0009632653673179448,0.0038107172586023808
1690841542876693500,0.383693603515625,-0.006931142881512642,0.0020335898734629154,0.016397349536418915
1690841542886733600,0.393733642578125,-0.0037233654875308275,0.0029696908313781023,0.025837456807494164
1690841542896773600,0.403773681640625,-0.002989664673805237,0.005746036302298307,0.02883111499249935
1690841542906814500,0.413814453125,-0.003192064817994833,0.0070552462711930275,0.026391128078103065
1690841542916854300,0.423854248046875,-0.004199272487312555,0.0030447919853031635,0.018305771052837372
1690841542926894300,0.433894287109375,-0.00401711231097579,0.0036448021419346333,0.006360427476465702
1690841542936965400,0.44396533203125,-0.0046386937610805035,0.001639441936276853,-0.008744755759835243
1690841542947005400,0.45400537109375,-0.005461610853672028,0.001885784324258566,-0.02239026129245758
1690841542957046500,0.464046630859375,-0.005510080140084028,-0.004209392238408327,-0.03663257881999016
1690841542967086600,0.474086669921875,-0.0049556102603673935,-0.00692049041390419,-0.046418096870183945
1690841542977126400,0.48412646484375,-0.0054357778280973434,-0.007879228331148624,-0.053825147449970245
1690841542987166500,0.49416650390625,-0.004707403481006622,-0.008622783236205578,-0.05583423748612404
1690841542997207300,0.504207275390625,-0.007201720029115677,-0.011549596674740314,-0.051477305591106415
1690841543007247400,0.514247314453125,-0.005035771057009697,-0.009873935952782631,-0.04857286065816879
1690841543017287400,0.524287353515625,-0.00512818293645978,-0.006422212813049555,-0.039684031158685684
1690841543027328500,0.53432861328125,-0.004887965973466635,-0.002974750939756632,-0.03183889016509056
1690841543037368600,0.54436865234375,-0.004797950852662325,0.000811997801065445,-0.0203380286693573
1690841543047408600,0.55440869140625,-0.0026181535795331,0.0016567525453865528,-0.014150972478091717
1690841543057479400,0.5644794921875,-0.005213404074311256,0.006358829792588949,-0.004628574009984732
1690841543067519500,0.57451953125,-0.005110339727252722,0.0016386429779231548,-0.001511876587755978
1690841543077559600,0.5845595703125,-0.00538464542478323,0.001205080421641469,0.004322843160480261
1690841543087600400,0.594600341796875,-0.005252819042652845,-0.0013403689954429865,0.0018871158827096224
1690841543097640400,0.604640380859375,-0.003023753175511956,-0.002740659052506089,0.001877262257039547
1690841543107680500,0.614680419921875,-0.004604339133948088,-0.002804841147735715,-0.0032706281635910273
1690841543117721600,0.6247216796875,-0.004107659682631493,-0.0019236012594774365,-0.00830879621207714
1690841543127761400,0.634761474609375,-0.003951332066208124,-0.001698830397799611,-0.016462862491607666
1690841543137801500,0.644801513671875,-0.005399026442319155,0.000645550258923322,-0.02576075680553913
1690841543147841500,0.654841552734375,-0.0067633637227118015,0.0007107976707629859,-0.033659160137176514
1690841543157882400,0.66488232421875,-0.0051715923473238945,-0.002320145955309272,-0.03928934782743454
1690841543167922400,0.67492236328125,-0.004024835303425789,-0.0029385320376604795,-0.04325506091117859
1690841543177962500,0.68496240234375,-0.002645317930728197,-0.005652293097227812,-0.04237835109233856
1690841543188033500,0.695033447265625,-0.005140433553606272,-0.007024087477475405,-0.037390246987342834
1690841543198073300,0.7050732421875,-0.004017910920083523,-0.007573231123387814,-0.032669797539711
1690841543208114400,0.715114501953125,-0.006173207424581051,-0.007327155210077763,-0.025422802194952965
1690841543218154500,0.725154541015625,-0.003981692250818014,-0.004472779110074043,-0.019028285518288612
1690841543228194600,0.735194580078125,-0.005398227367550135,-0.0019094864837825298,-0.016260195523500443
1690841543238235400,0.7452353515625,-0.005307946354150772,-0.0005898901727050543,-0.012104599736630917
1690841543248275500,0.755275390625,-0.00401471508666873,0.003989415243268013,-0.007107444107532501
1690841543258315500,0.7653154296875,-0.004346811678260565,0.0025361282750964165,-0.008770322427153587
1690841543268355300,0.775355224609375,-0.004634965676814318,0.0006652576266787946,-0.006888266187161207
1690841543278396400,0.785396484375,-0.005718073341995478,0.0010543455136939883,-0.006479470990598202
1690841543288436500,0.7954365234375,-0.005982258822768927,-0.004163053352385759,-0.012207131832838058
1690841543298476500,0.8054765625,-0.0037470676470547915,-0.004372377879917622,-0.014997857622802258
1690841543308517400,0.815517333984375,-0.004534564446657896,-0.004030960611999035,-0.018847458064556122
1690841543318587600,0.825587646484375,-0.004869590047746897,-0.003063700394704938,-0.025072596967220306
1690841543328628500,0.83562841796875,-0.004762797150760889,-0.0039015309885144234,-0.03032328374683857
1690841543338668300,0.845668212890625,-0.0038128476589918137,0.0018500980222597718,-0.03139147907495499
1690841543348708400,0.855708251953125,-0.004197940696030855,0.0022011026740074158,-0.030705980956554413
1690841543358748400,0.86574853515625,-0.005213137716054916,-0.0003203782835043967,-0.031096667051315308
1690841543368789500,0.87578955078125,-0.0036996633280068636,-0.002401372417807579,-0.029878802597522736
1690841543378829600,0.88582958984375,-0.00495188171043992,-0.005824599415063858,-0.0274468045681715
1690841543388869600,0.89586962890625,-0.003970240708440542,-0.007744206115603447,-0.022415559738874435
1690841543398910500,0.905910400390625,-0.0054304515942931175,-0.00760998297482729,-0.017298029735684395
1690841543408950500,0.915950439453125,-0.006535663735121489,-0.004006459377706051,-0.01648549921810627
1690841543418990300,0.925990234375,-0.003038400551304221,-0.0007265103631652892,-0.01441249530762434
1690841543429030400,0.936030517578125,-0.004534031730145216,-0.00028522455249913037,-0.013770407065749168
1690841543439101400,0.946101318359375,-0.0038432078436017036,0.0020354539155960083,-0.013689447194337845
1690841543449142500,0.956142578125,-0.0059873186983168125,0.00555322365835309,-0.013442838564515114
1690841543459182600,0.9661826171875,-0.004534298088401556,0.002843723399564624,-0.01606152392923832
1690841543469222700,0.97622265625,-0.003768372815102339,0.0004189152386970818,-0.018458636477589607
1690841543479262500,0.986262451171875,-0.004003529902547598,-0.0023007048293948174,-0.01937582902610302
1690841543489303300,0.99630322265625,-0.005197957623749971,-0.005056277383118868,-0.02093617431819439
1690841543499359500,1.006359375,-0.0033009881153702736,-0.005859486758708954,-0.02269412763416767
1690841543509399300,1.0163994140625,-0.0057103498838841915,-0.005309810396283865,-0.02359320968389511
1690841543519440400,1.0264404296875,-0.004369981121271849,-0.006628075148910284,-0.023496538400650024
1690841543529480400,1.03648046875,-0.003856257302686572,-0.004086620640009642,-0.02605210617184639
1690841543539520300,1.046520263671875,-0.005691708065569401,-0.002323608146980405,-0.02702549286186695
1690841543549560300,1.056560302734375,-0.005804093088954687,-0.0024343954864889383,-0.02558125928044319
1690841543559601400,1.066601318359375,-0.003010969841852784,0.0005968143814243376,-0.025001490488648415
1690841543569671400,1.07667138671875,-0.002603506203740835,-0.0017124125733971596,-0.021927669644355774
1690841543579712500,1.08671240234375,-0.0041428133845329285,-0.0004942826926708221,-0.02051273174583912
1690841543589752300,1.09675244140625,-0.006443518213927746,-0.003031742526218295,-0.017908159643411636
1690841543599792000,1.106792236328125,-0.00532445777207613,-0.005139368120580912,-0.015489744022488594
1690841543609833200,1.116833251953125,-0.004865861497819424,-0.004209392238408327,-0.013546701520681381
1690841543619873300,1.126873291015625,-0.007339671719819307,-0.005850432440638542,-0.013582920655608177
1690841543629913300,1.136913330078125,-0.005134308245033026,-0.0031499869655817747,-0.01666206680238247
1690841543639953400,1.146953369140625,-0.0033595776185393333,-0.0026969832833856344,-0.017232516780495644
1690841543649994500,1.156994384765625,-0.005400358233600855,-0.0003784351865760982,-0.02050873637199402
1690841543660034300,1.167034423828125,-0.00657641002908349,0.0009930927772074938,-0.021949240937829018
1690841543670074000,1.17707421875,-0.006768157705664635,-0.0025331987999379635,-0.022044848650693893
1690841543680115200,1.187115234375,-0.004179032519459724,-0.003543602069839835,-0.023558855056762695
1690841543690155300,1.1971552734375,-0.005440838169306517,-0.004776113200932741,-0.0220325980335474
1690841543700226300,1.207226318359375,-0.003968642558902502,-0.0030096382834017277,-0.023553263396024704
1690841543710266400,1.217266357421875,-0.0030282805673778057,-0.0059902481734752655,-0.02533917874097824
1690841543720306400,1.227306396484375,-0.005564675200730562,-0.003352919826284051,-0.02219904586672783
1690841543730346500,1.237346435546875,-0.005603823345154524,-0.003489806316792965,-0.02166161872446537
1690841543740387300,1.24738720703125,-0.005560680292546749,-0.0011076086666435003,-0.020306870341300964
1690841543750427100,1.25742724609375,-0.0043686493299901485,-0.002359827049076557,-0.020045081153512
1690841543760467200,1.26746728515625,-0.004641090985387564,-0.0007970841252245009,-0.01882481947541237
1690841543770508300,1.27750830078125,-0.0037915424909442663,-0.0032615733798593283,-0.01979900524020195
1690841543780548400,1.28754833984375,-0.005875199567526579,-0.0017507621087133884,-0.017887920141220093
1690841543790588400,1.29758837890625,-0.0041060615330934525,-0.002481799805536866,-0.01901017688214779
1690841543800628500,1.30762841796875,-0.003952663857489824,-0.00042557314736768603,-0.01852255128324032
1690841543810669300,1.31766943359375,-0.004805940669029951,-0.0013845774810761213,-0.019754528999328613
1690841543820709000,1.327709228515625,-0.00392896169796586,0.0007275756215676665,-0.01848020777106285
1690841543830780200,1.3377802734375,-0.005654956214129925,0.0008892294717952609,-0.018576880916953087
1690841543840820200,1.3478203125,-0.004044010303914547,-0.0016128103015944362,-0.022165223956108093
1690841543850860300,1.3578603515625,-0.0039007319137454033,-0.002394448034465313,-0.021979866549372673
1690841543860901400,1.3679013671875,-0.004260791465640068,-0.0017446368001401424,-0.02394874207675457
1690841543870941400,1.37794140625,-0.002671683207154274,-0.0036019254475831985,-0.02424728311598301
1690841543880981500,1.3879814453125,-0.005453088786453009,-0.0033577135764062405,-0.026079270988702774
1690841543891022300,1.398022216796875,-0.004334827419370413,-0.0020959076937288046,-0.021745508536696434
1690841543901062100,1.408062255859375,-0.005335643421858549,-0.0005110605852678418,-0.021036310121417046
1690841543911102200,1.418102294921875,-0.004324707202613354,-0.002017078222706914,-0.020229104906320572
1690841543921142300,1.428142333984375,-0.004923119675368071,0.0000876179983606562,-0.02113031968474388
1690841543931183400,1.438183349609375,-0.005397428758442402,-0.000996554852463305,-0.019454658031463623
1690841543941223400,1.448223388671875,-0.004446680191904306,0.0012125372886657715,-0.020748421549797058
1690841543951263500,1.458263427734375,-0.00421418622136116,-0.0005643238546326756,-0.01937343180179596
1690841543961334300,1.468334228515625,-0.0046602655202150345,-0.002189651131629944,-0.01949167624115944
1690841543971374300,1.478374267578125,-0.004509264137595892,-0.0002990729990415275,-0.01997237652540207
1690841543981415200,1.488415283203125,-0.0057284594513475895,-0.003653324441984296,-0.02173112891614437
1690841543991455200,1.498455322265625,-0.005620601586997509,-0.004659466445446014,-0.020800886675715446
1690841544001495300,1.508495361328125,-0.004485296085476875,-0.005696501582860947,-0.020135095342993736
1690841544011535400,1.518535400390625,-0.005450425669550896,0.0012431635987013578,-0.02274046652019024
1690841544021576400,1.528576416015625,-0.005164135713130236,-0.003156644757837057,-0.022650716826319695
1690841544031616500,1.538616455078125,-0.003748132847249508,-0.0014623417519032955,-0.021082116290926933
1690841544041656300,1.54865625,-0.004424309358000755,0.00007217166421469301,-0.022347116842865944
1690841544051697200,1.558697265625,-0.003367300843819976,0.0011502192355692387,-0.02130848355591297
1690841544061737200,1.5687373046875,-0.004474110435694456,-0.0019204054260626435,-0.02081739716231823
1690841544071777300,1.57877734375,-0.004251203965395689,-0.003070624778047204,-0.020208066329360008
1690841544081848300,1.588848388671875,-0.005080245900899172,-0.004549478180706501,-0.021204886958003044
1690841544091888400,1.598888427734375,-0.005345763172954321,-0.004838963504880667,-0.020141754299402237
1690841544101929500,1.608929443359375,-0.005577458068728447,-0.0027110979426652193,-0.019932162016630173
1690841544111969300,1.61896923828125,-0.006810235325247049,-0.00236222380772233,-0.018910041078925133
1690841544122009300,1.62900927734375,-0.005512743256986141,-0.0011004181578755379,-0.016688698902726173
1690841544132049400,1.63904931640625,-0.0032703618053346872,-0.0008165251929312944,-0.021166006103157997
1690841544142090200,1.64909033203125,-0.0036575854755938053,-0.0008082693675532937,-0.021152956411242485
1690841544152130300,1.65913037109375,-0.005650694947689772,-0.0018437063554301858,-0.018675949424505234
1690841544162170400,1.66917041015625,-0.004029895178973675,-0.002779274946078658,-0.019389942288398743
1690841544172211500,1.67921142578125,-0.003746002446860075,0.0007371630053967237,-0.021285846829414368
1690841544182251500,1.68925146484375,-0.003942543640732765,-0.0017608820926398039,-0.02057691477239132
1690841544192291300,1.699291259765625,-0.005029113497585058,-0.0018362496048212051,-0.02021712064743042
1690841544202331400,1.709331298828125,-0.004683701321482658,-0.0036663739010691643,-0.02244671992957592
1690841544212402400,1.71940234375,-0.005705822724848986,-0.0020927118603140116,-0.01998143084347248
1690841544222442500,1.7294423828125,-0.004425108432769775,-0.001255680457688868,-0.020904216915369034
1690841544232483300,1.7394833984375,-0.0044381581246852875,-0.0007605988066643476,-0.017976338043808937
1690841544242523400,1.7495234375,-0.005350823048502207,0.00016671388584654778,-0.020008062943816185
1690841544252563200,1.759563232421875,-0.004483697935938835,-0.0020607539918273687,-0.020864535123109818
1690841544262604300,1.769604248046875,-0.005661347880959511,-0.0011446266435086727,-0.02185230143368244
1690841544272644400,1.779644287109375,-0.005005944054573774,-0.003317766124382615,-0.019999008625745773
1690841544282684400,1.789684326171875,-0.0030719563364982605,-2.6631610694494157e-7,-0.021250959485769272
1690841544292724500,1.799724365234375,-0.003620301140472293,-0.00019281286222394556,-0.019056782126426697
1690841544302765300,1.809765380859375,-0.005570267792791128,-0.0009976201690733433,-0.020004067569971085
1690841544312805400,1.819805419921875,-0.005212604999542236,-0.0021558289881795645,-0.0195529293268919
1690841544322845400,1.829845458984375,-0.004922853317111731,-0.002067412016913295,-0.021190505474805832
1690841544332886500,1.839886474609375,-0.00455800024792552,0.0002364887041039765,-0.020865067839622498
1690841544342956300,1.849956298828125,-0.004746818449348211,-0.002674612682312727,-0.02183978445827961
1690841544352997400,1.859997314453125,-0.0037768951151520014,-0.0035265579354017973,-0.019511649385094643
1690841544363037400,1.870037353515625,-0.004632302559912205,0.0006495449924841523,-0.02167227305471897
1690841544373077500,1.880077392578125,-0.0029981867410242558,-0.0011787151452153921,-0.021164674311876297
1690841544383117300,1.890117431640625,-0.004005128052085638,-0.0010016148444265127,-0.018789133056998253
1690841544393158400,1.900158447265625,-0.003911118488758802,-0.001814411603845656,-0.02160942181944847
1690841544403198200,1.9101982421875,-0.003988349810242653,-0.002712962217628956,-0.02040860243141651
1690841544413238300,1.92023828125,-0.004079962614923716,-0.0033185649663209915,-0.0210695993155241
1690841544423279400,1.930279296875,-0.005595567636191845,-0.0019358517602086067,-0.019341740757226944
1690841544433319400,1.9403193359375,-0.003975566942244768,-0.002373941708356142,-0.020067185163497925
1690841544443359500,1.950359375,-0.005103948060423136,0.0006687197601422668,-0.021563615649938583
1690841544453399300,1.9603994140625,-0.005258944351226091,-0.00038003307417966425,-0.018754778429865837
1690841544463440400,1.9704404296875,-0.004828577395528555,-0.001246892032213509,-0.020188359543681145
1690841544473511400,1.980511474609375,-0.005404086317867041,0.0021544971968978643,-0.01919686421751976
1690841544483551200,1.99055126953125,-0.004748416133224964,-0.0032413334120064974,-0.019477294757962227
1690841544493591300,2.00059130859375,-0.004673315212130547,-0.002098038326948881,-0.020788902416825294
1690841544503624700,2.010624755859375,-0.004486094694584608,-0.0028101676143705845,-0.021286379545927048
1690841544513665800,2.020665771484375,-0.005016862880438566,-0.001731853699311614,-0.0203406922519207
1690841544523705600,2.03070556640625,-0.005134041886776686,-0.0031140341889113188,-0.019953468814492226
1690841544533745400,2.040745361328125,-0.0038306908681988716,-0.0017124125733971596,-0.020566793158650398
1690841544543786500,2.050786376953125,-0.005686914082616568,-0.001710548298433423,-0.018812835216522217
1690841544553826600,2.06082666015625,-0.006540190894156694,-0.0036160401068627834,-0.019179552793502808
1690841544563866600,2.07086669921875,-0.0067844027653336525,-0.00307595101185143,-0.021446170285344124
1690841544573906700,2.08090673828125,-0.003713245503604412,-0.002124669961631298,-0.020721523091197014
1690841544583947800,2.09094775390625,-0.004228034522384405,-0.0036400086246430874,-0.02057238668203354
1690841544593987600,2.100987548828125,-0.004924184642732143,-0.0032866070978343487,-0.019454658031463623
1690841544604058600,2.11105859375,-0.004628840368241072,-0.0012756541837006807,-0.020422184839844704
1690841544614098400,2.121098388671875,-0.004703408572822809,-0.0014809839194640517,-0.020171847194433212
1690841544624138500,2.131138427734375,-0.0057284594513475895,-0.00039760995423421264,-0.02141421101987362
1690841544634179600,2.1411796875,-0.004333229269832373,-0.0007701861904934049,-0.020965736359357834
1690841544644219600,2.1512197265625,-0.005364139098674059,-0.002796052722260356,-0.01896144077181816
1690841544654259700,2.161259765625,-0.005101551301777363,0.0012125372886657715,-0.020364394411444664
1690841544664299500,2.171299560546875,-0.0051683965139091015,-0.000713993504177779,-0.020445886999368668
1690841544674340600,2.181340576171875,-0.004171841777861118,-0.0029979203827679157,-0.021819012239575386
1690841544684380400,2.19138037109375,-0.005693039391189814,-0.0013432984706014395,-0.019633889198303223
1690841544694420500,2.20142041015625,-0.005287173669785261,-0.002566488226875663,-0.02063656970858574
1690841544704461600,2.211461669921875,-0.004817924462258816,-0.0031617048662155867,-0.02099529653787613
1690841544714501600,2.221501708984375,-0.00390312890522182,-0.0034530546981841326,-0.020003534853458405
1690841544724572700,2.23157275390625,-0.00544403400272131,-0.002630670554935932,-0.019302858039736748
1690841544734612700,2.24161279296875,-0.0049287122674286366,-0.002722017001360655,-0.019193135201931
1690841544744652500,2.251652587890625,-0.004736964590847492,-0.004220843780785799,-0.021695442497730255
1690841544754693600,2.261693603515625,-0.005288771353662014,-0.002494050422683358,-0.02034229040145874
1690841544764733400,2.2717333984375,-0.0049707903526723385,0.0002620550512801856,-0.019540678709745407
1690841544774773500,2.2817734375,-0.0043803672306239605,-0.0018993664998561144,-0.022612102329730988
1690841544784813600,2.2918134765625,-0.006477074231952429,-0.0004546015989035368,-0.01986798085272312
1690841544794854700,2.301854736328125,-0.004978246986865997,-0.0032735576387494802,-0.02057265304028988
1690841544804894700,2.311894775390625,-0.005155880004167557,-0.0005560680292546749,-0.019721506163477898
1690841544814934500,2.3219345703125,-0.003655987558886409,-0.0018346516881138086,-0.020174244418740273
1690841544824974600,2.331974609375,-0.0037292244378477335,-0.004830441437661648,-0.022241922095417976
1690841544835015400,2.342015380859375,-0.0032836776226758957,-0.0026343988720327616,-0.01962110586464405
1690841544845055500,2.352055419921875,-0.003337473375722766,-0.002936667762696743,-0.018374213948845863
1690841544855126500,2.36212646484375,-0.004780107643455267,-0.0038426751270890236,-0.017895642668008804
1690841544865166600,2.37216650390625,-0.005438175052404404,-0.0010756507981568575,-0.019997410476207733
1690841544875206700,2.38220654296875,-0.005046956706792116,-0.0012855078093707561,-0.021769743412733078
1690841544885247700,2.392247802734375,-0.004691424313932657,-0.0034136399626731873,-0.019046396017074585
1690841544895287600,2.40228759765625,-0.003683418035507202,-0.003376888344064355,-0.021154021844267845
1690841544905327600,2.41232763671875,-0.0068331388756632805,-0.0022333269007503986,-0.02106640301644802
1690841544915368400,2.422368408203125,-0.004472779110074043,-0.0036719664931297302,-0.021191837266087532
1690841544925408500,2.432408447265625,-0.0052168662659823895,-0.0012751214671880007,-0.020962806418538094
1690841544935448600,2.442448486328125,-0.0038751657120883465,-0.0016594156622886658,-0.021196365356445312
1690841544945488600,2.452488525390625,-0.005029646214097738,-0.004250937607139349,-0.020986774936318398
1690841544955529700,2.46252978515625,-0.003790477057918906,-0.001190166687592864,-0.022347915917634964
1690841544965569500,2.472569580078125,-0.005366269499063492,-0.004452539142221212,-0.02149357460439205
1690841544975609600,2.482609619140625,-0.003344131400808692,-0.0037257622461766005,-0.02008742466568947
1690841544985680600,2.4926806640625,-0.0052320463582873344,-0.002838130807504058,-0.020970528945326805
1690841544995720700,2.502720703125,-0.004364122170954943,-0.0013289173366501927,-0.01968209259212017
1690841545005761500,2.512761474609375,-0.006147374864667654,-0.001913214917294681,-0.02010180614888668
1690841545015801600,2.522801513671875,-0.003988616168498993,-0.003665574826300144,-0.020891699939966202
1690841545025841400,2.53284130859375,-0.005032309330999851,-0.0011891013709828258,-0.020302342250943184
1690841545035881500,2.542881591796875,-0.004314054735004902,-0.0032650355715304613,-0.021862687543034554
1690841545045922600,2.552922607421875,-0.004864530172199011,-0.000803209375590086,-0.020145747810602188
1690841545055962600,2.562962646484375,-0.004416053649038076,-0.00199284334667027,-0.021949507296085358
1690841545066002700,2.573002685546875,-0.005559881217777729,0.0006538060260936618,-0.02020966447889805
1690841545076043500,2.58304345703125,-0.004768922459334135,-0.0005720470217056572,-0.022295452654361725
1690841545086083600,2.59308349609375,-0.004926847759634256,-0.0012381036067381501,-0.02015347220003605
1690841545096123600,2.60312353515625,-0.005691708065569401,-0.0028565065003931522,-0.020232301205396652
1690841545106163500,2.61316357421875,-0.005075718741863966,-0.003153448924422264,-0.02022484503686428
1690841545116234500,2.623234375,-0.004739094991236925,-0.002825880190357566,-0.024052072316408157
1690841545126275600,2.633275634765625,-0.005426723510026932,-0.0044349622912704945,-0.02111220918595791
1690841545136315600,2.643315673828125,-0.0038573225028812885,-0.003447994589805603,-0.01973615400493145
1690841545146355700,2.653355712890625,-0.004232295788824558,-0.0011640676530078053,-0.020006464794278145
1690841545156395800,2.663395751953125,-0.005893841851502657,-0.003480751533061266,-0.020492758601903915
1690841545166436600,2.6734365234375,-0.005026716738939285,0.00016964336100500077,-0.021825404837727547
1690841545176476400,2.683476318359375,-0.006380667444318533,-0.003376355627551675,-0.021808093413710594
1690841545186516500,2.6935166015625,-0.005691175349056721,0.00008149272616719827,-0.021094100549817085
1690841545196557600,2.7035576171875,-0.00586721021682024,-0.0009861685102805495,-0.018799521028995514
1690841545206597600,2.71359765625,-0.005363606382161379,-0.002413090318441391,-0.019874904304742813
1690841545216637700,2.7236376953125,-0.005724464543163776,-0.0033222935162484646,-0.018988072872161865
1690841545226677800,2.733677734375,-0.003909253980964422,-0.003404052462428808,-0.02268853411078453
1690841545236718600,2.743718505859375,-0.004543885588645935,-0.002338788006454706,-0.02051139995455742
1690841545246788600,2.75378857421875,-0.004826446995139122,-0.0036847495939582586,-0.02117053233087063
1690841545256829400,2.763829345703125,-0.003094060579314828,-0.003154247999191284,-0.02105388604104519
1690841545266869500,2.773869384765625,-0.005400624126195908,-0.004009388852864504,-0.021373199298977852
1690841545276909600,2.78390966796875,-0.003721234854310751,-0.0009038768475875258,-0.020672786980867386
1690841545286950700,2.79395068359375,-0.004761998075991869,-0.002569684060290456,-0.021105552092194557
1690841545296990700,2.80399072265625,-0.005724464543163776,-0.003162770066410303,-0.02171221934258938
1690841545307030800,2.81403076171875,-0.004294081125408411,-0.0021971079986542463,-0.01859765313565731
1690841545317070600,2.824070556640625,-0.005058674607425928,-0.006455236114561558,-0.019602196291089058
1690841545327111400,2.834111328125,-0.0036799560766667128,-0.0011408982099965215,-0.021759090945124626
1690841545337151500,2.8441513671875,-0.0043806335888803005,0.0001691107318038121,-0.020376645028591156
1690841545347191600,2.854191650390625,-0.005751096177846193,-0.002633866388350725,-0.017960358411073685
1690841545357232600,2.864232666015625,-0.00387330143712461,-0.0011094729416072369,-0.020603278651833534
1690841545367302700,2.874302734375,-0.0036970002111047506,-0.0037681066896766424,-0.020482372492551804
1690841545377343700,2.88434375,-0.005694104824215174,-0.0014708638191223145,-0.02189597859978676
1690841545387383800,2.8943837890625,-0.004144411068409681,-0.0023758059833198786,-0.02069648914039135
1690841545397423600,2.904423583984375,-0.004208327271044254,-0.0018759306985884905,-0.02171248570084572
1690841545407464400,2.91446435546875,-0.004354534670710564,-0.00007376955909421667,-0.021576931700110435
1690841545417504500,2.92450439453125,-0.004964132327586412,-0.0015267902053892612,-0.021620074287056923
1690841545427544600,2.934544677734375,-0.004674113821238279,-0.000013315805517777335,-0.02046213112771511
1690841545437584600,2.944584716796875,-0.0038842204958200455,-0.0015936355339363217,-0.02020833268761635
1690841545447625700,2.954625732421875,-0.004512726329267025,-0.001868207473307848,-0.02099955826997757
1690841545457665800,2.964665771484375,-0.00421258807182312,-0.0033683660440146923,-0.019356919452548027
1690841545467705600,2.97470556640625,-0.005657885689288378,-0.0029643645975738764,-0.020305804908275604
1690841545477745400,2.984745361328125,-0.0059257997199893,-0.002897519152611494,-0.02172686718404293
1690841545487786500,2.994786376953125,-0.003918575122952461,-0.0007203850545920432,-0.019277557730674744
1690841545497857500,3.004857421875,-0.0054791877046227455,-0.003936951048672199,-0.019637083634734154
1690841545507892200,3.014892333984375,-0.004283428192138672,-0.0005150553770363331,-0.01811082661151886
1690841545517932300,3.024932373046875,-0.00509888818487525,-0.0007803061744198203,-0.01950152963399887
1690841545527972000,3.03497216796875,-0.005333778914064169,-0.0021784657146781683,-0.020618725568056107
1690841545538013200,3.04501318359375,-0.0076334187760949135,-0.0008492820779792964,-0.019996611401438713
1690841545548053200,3.05505322265625,-0.004306331276893616,-0.0038061898667365313,-0.021731393411755562
1690841545558093300,3.06509326171875,-0.004008856136351824,-0.0027270768769085407,-0.020329773426055908
1690841545568134400,3.075134521484375,-0.0037055222783237696,-0.0030125677585601807,-0.021691979840397835
1690841545578174200,3.08517431640625,-0.0067931911908090115,-0.0025358619168400764,-0.02148132398724556
1690841545588214300,3.09521435546875,-0.004834436345845461,-0.0025648903101682663,-0.020605409517884254
1690841545598254000,3.105254150390625,-0.005532983224838972,-0.0027808728627860546,-0.01985812745988369
1690841545608295200,3.115295166015625,-0.005712214391678572,-0.001847967505455017,-0.022306637838482857
1690841545618335200,3.125335205078125,-0.005154015496373177,-0.0011968245962634683,-0.02046932280063629
1690841545628406300,3.13540625,-0.005676794331520796,-0.002900448627769947,-0.02107013203203678
1690841545638446300,3.1454462890625,-0.005265069659799337,-0.0007566040731035173,-0.020359866321086884
1690841545648486100,3.155486083984375,-0.006839796435087919,-0.0034562505315989256,-0.021805962547659874
1690841545658527200,3.16552734375,-0.005684517323970795,-0.002861832967028022,-0.020481307059526443
1690841545668567300,3.1755673828125,-0.0037848844658583403,0.0003510046226438135,-0.019598735496401787
1690841545678607000,3.185607177734375,-0.0038605183362960815,-0.002579271560534835,-0.020385699346661568
1690841545688647200,3.195647216796875,-0.005988650489598513,-0.0013560815714299679,-0.01992044411599636
1690841545698688300,3.205688232421875,-0.004318315535783768,-0.0017787253018468618,-0.02118491381406784
1690841545708728300,3.215728271484375,-0.004072772338986397,-0.002267681760713458,-0.02081872895359993
1690841545718768000,3.22576806640625,-0.004546282347291708,-0.002781671704724431,-0.019953735172748566
1690841545728809200,3.235809326171875,-0.005249090492725372,-0.002570749493315816,-0.021098893135786057
1690841545738849300,3.245849365234375,-0.00413482403382659,-0.0025015072897076607,-0.02154657058417797
1690841545748889000,3.25588916015625,-0.003977164626121521,-0.0029795446898788214,-0.019953735172748566
1690841545758960000,3.265960205078125,-0.0049614692106842995,-0.0018122810870409012,-0.019181683659553528
1690841545769000200,3.276000244140625,-0.005045624915510416,-0.0020365193486213684,-0.02021286077797413
1690841545779041300,3.286041259765625,-0.0068214209750294685,-0.0010841728653758764,-0.021755894646048546
1690841545789081000,3.2960810546875,-0.00512818293645978,-0.002596848411485553,-0.022849388420581818
1690841545799121200,3.30612109375,-0.004353735595941544,-0.0032088428270071745,-0.021276259794831276
1690841545809161200,3.3161611328125,-0.005363073665648699,-0.0026575683150440454,-0.01985626295208931
1690841545819202300,3.326202392578125,-0.004847751930356026,-0.0009036105475388467,-0.02057957649230957
1690841545829242000,3.3362421875,-0.005654956214129925,-0.002552639925852418,-0.021107150241732597
1690841545839282200,3.3462822265625,-0.0036943370942026377,-0.002776345470920205,-0.019998209550976753
1690841545849323300,3.3563232421875,-0.005064799915999174,-0.002433330286294222,-0.022522618994116783
1690841545859363300,3.36636328125,-0.0038570561446249485,-0.0027947211638092995,-0.019819511100649834
1690841545869403100,3.376403076171875,-0.006098905112594366,-0.0027744811959564686,-0.021793978288769722
1690841545879474200,3.38647412109375,-0.004066114313900471,-0.00452817277982831,-0.02094256691634655
1690841545889514200,3.39651416015625,-0.002856240142136812,-0.004341751337051392,-0.020358534529805183
1690841545899554300,3.40655419921875,-0.004546282347291708,-0.0019180085510015488,-0.018907111138105392
1690841545909595100,3.41659521484375,-0.004344148561358452,-0.002013349672779441,-0.021094633266329765
1690841545919635200,3.42663525390625,-0.005574794951826334,-0.004793423693627119,-0.021350296214222908
1690841545929675000,3.436675048828125,-0.004248540848493576,-0.0031470574904233217,-0.019878100603818893
1690841545939716000,3.446716064453125,-0.004551342222839594,-0.003817375050857663,-0.018081266433000565
1690841545949756200,3.456756103515625,-0.005404619034379721,-0.0041310954838991165,-0.020774787291884422
1690841545959796200,3.466796142578125,-0.003768905531615019,-0.0022564963437616825,-0.019585685804486275
1690841545969836300,3.476836181640625,-0.005411809775978327,-0.00267727579921484,-0.019297797232866287
1690841545979877000,3.486877197265625,-0.004827778320759535,-0.003724430687725544,-0.020709006115794182
1690841545989917200,3.496917236328125,-0.004554005339741707,-0.0017725999932736158,-0.019991284236311913
1690841545999957200,3.506957275390625,-0.005281581077724695,-0.005542038008570671,-0.020808076485991478
1690841546010028000,3.517028076171875,-0.004655738361179829,-0.0027166905347257853,-0.020913271233439445
1690841546020068000,3.527068115234375,-0.005426457151770592,-0.0031878037843853235,-0.020620590075850487
1690841546030109200,3.537109130859375,-0.004267715383321047,-0.000278300343779847,-0.021581724286079407
1690841546040149200,3.547149169921875,-0.004999818746000528,-0.002002697205170989,-0.01900884509086609
1690841546050189300,3.557189208984375,-0.005143629387021065,-0.0022743395529687405,-0.020857611671090126
1690841546060230100,3.567230224609375,-0.0037891454994678497,-0.0025569009594619274,-0.021562283858656883
1690841546070270200,3.577270263671875,-0.0057194046676158905,0.0002993392990902066,-0.021450430154800415
1690841546080310000,3.58731005859375,-0.003997404593974352,-0.0027393274940550327,-0.019710320979356766
1690841546090350000,3.59735009765625,-0.00558278476819396,-0.0017281252657994628,-0.02165709249675274
1690841546100391200,3.60739111328125,-0.006087187211960554,-0.00484402384608984,-0.02118304930627346
1690841546110431200,3.61743115234375,-0.004114849958568811,-0.0012801815755665302,-0.01986877992749214
1690841546120471300,3.62747119140625,-0.004199006129056215,-0.0008226504432968795,-0.021808626130223274
1690841546130511400,3.637511474609375,-0.004191282670944929,-0.001175252953544259,-0.01986025646328926
1690841546140582400,3.64758251953125,-0.004324174486100674,-0.003573429537937045,-0.020085560157895088
1690841546150623200,3.657623291015625,-0.005057342816144228,-0.002031192881986499,-0.0222131609916687
1690841546160663000,3.6676630859375,-0.006376673001796007,0.0003448793722782284,-0.020178770646452904
1690841546170703000,3.677703125,-0.003748132847249508,-0.0028061727061867714,-0.020601149648427963
1690841546180743200,3.6877431640625,-0.004681038204580545,-0.0009779128013178706,-0.021563349291682243
1690841546190784300,3.6977841796875,-0.004584365524351597,-0.0012807141756638885,-0.021210746839642525
1690841546200824300,3.70782421875,-0.004072239622473717,-0.0033965955954045057,-0.022536734119057655
1690841546210864400,3.717864501953125,-0.004807538352906704,-0.002891660202294588,-0.018787536770105362
1690841546220905200,3.7279052734375,-0.005595567636191845,-0.002154231071472168,-0.020564131438732147
1690841546230945000,3.737945068359375,-0.004391818773001432,-0.0020961740519851446,-0.021033912897109985
1690841546240985000,3.747985107421875,-0.005004612263292074,-0.0010692591313272715,-0.01913774199783802
1690841546251025200,3.758025146484375,0.0021145499777048826,-0.041786327958106995,0.2728879749774933
1690841546261066200,3.768066162109375,0.06734681874513626,0.015692677348852158,0.31939050555229187
1690841546271136300,3.77813623046875,-0.010867561213672161,-0.04400154575705528,0.008102134801447392
1690841546281177300,3.78817724609375,0.006578007712960243,-0.0625976026058197,-0.01161511056125164
1690841546291217400,3.798217529296875,-0.006370281334966421,0.033244773745536804,-0.0421660952270031
1690841546301257200,3.80825732421875,-0.016691895201802254,0.09962698817253113,-0.08544086664915085
1690841546311298000,3.818298095703125,-0.03687918931245804,0.23200447857379913,-0.10654135793447495
1690841546321338000,3.828338134765625,-0.03142503276467323,0.044008202850818634,-0.11409701406955719
1690841546331378200,3.838378173828125,-0.018577678129076958,-0.017306020483374596,-0.12303803861141205
1690841546341418200,3.848418212890625,-0.011032410897314548,-0.019772373139858246,-0.11742196977138519
1690841546351459300,3.858459228515625,-0.0001691107318038121,-0.05817648768424988,-0.09639497846364975
1690841546361499400,3.86849951171875,0.008291752077639103,-0.07475706189870834,-0.06846880912780762
1690841546371539200,3.878539306640625,0.012417254969477654,-0.07369046658277512,-0.03934847190976143
1690841546381580000,3.888580078125,0.009939449839293957,-0.055033423006534576,-0.008205997757613659
1690841546391620000,3.8986201171875,0.005465871654450893,-0.03067775070667267,0.017737718299031258
1690841546401691100,3.908691162109375,-0.0013960290234535933,-0.0019473034190014005,0.0393652506172657
1690841546411731200,3.918731201171875,-0.009561547078192234,0.024808144196867943,0.05489387363195419
1690841546421771300,3.928771240234375,-0.012940566055476665,0.05166665464639664,0.0649784654378891
1690841546431812400,3.938812255859375,-0.014810903929173946,0.06831860542297363,0.0680679976940155
1690841546441852400,3.948852294921875,-0.010530139319598675,0.06832180172204971,0.06672070920467377
1690841546451892200,3.958892333984375,-0.006702111102640629,0.04947886988520622,0.05678631737828255
1690841546461932300,3.968932373046875,0.00015286543930415064,0.023089073598384857,0.04141109064221382
1690841546471973000,3.97897314453125,0.0028445222415030003,-0.006625145673751831,0.01798832230269909
1690841546482013200,3.98901318359375,0.0027891285717487335,-0.031986162066459656,-0.007196393795311451
1690841546492053200,3.99905322265625,-0.0014684670604765415,-0.04340260103344917,-0.03408020734786987
1690841546502067500,4.0090673828125,-0.004747084807604551,-0.04321671277284622,-0.058698199689388275
1690841546512107500,4.019107421875,-0.01158608216792345,-0.03151505067944527,-0.08039896935224533
1690841546522178300,4.02917822265625,-0.01152695994824171,-0.014638597145676613,-0.09211447834968567
1690841546532218400,4.03921826171875,-0.010403105989098549,-0.0017720673931762576,-0.09657234698534012
1690841546542258400,4.049258544921875,-0.006056827027350664,0.008670453913509846,-0.09319279342889786
1690841546552298500,4.059298583984375,-0.001431182725355029,0.013036440126597881,-0.08211031556129456
1690841546562339600,4.069339599609375,-0.0011893677292391658,0.011231615208089352,-0.06783710420131683
1690841546572379600,4.079379638671875,-0.00061279337387532,0.004569451790302992,-0.049554236233234406
1690841546582419500,4.08941943359375,-0.001365402713418007,-0.003754524514079094,-0.027726436033844948
1690841546592460300,4.099460205078125,-0.004447478801012039,-0.010307231917977333,-0.006666691042482853
1690841546602500400,4.109500244140625,-0.0067937239073216915,-0.01480584405362606,0.009434248320758343
1690841546612540400,4.11954052734375,-0.007211041171103716,-0.013914483599364758,0.025290708988904953
1690841546622580500,4.12958056640625,-0.007843275554478168,-0.00774820102378726,0.03159947320818901
1690841546632621600,4.13962158203125,-0.005042162723839283,-0.001032241270877421,0.037890657782554626
1690841546642661600,4.14966162109375,-0.004808603785932064,0.010289388708770275,0.03160559758543968
1690841546652732700,4.159732666015625,-0.002255697501823306,0.016800817102193832,0.024140490218997
1690841546662772500,4.1697724609375,-0.001076715998351574,0.018745990470051765,0.011597000993788242
1690841546672812500,4.1798125,-0.0021052288357168436,0.015424496494233608,-0.003179814200848341
1690841546682853400,4.189853271484375,-0.003820837242528796,0.008388158865272999,-0.017919344827532768
1690841546692893400,4.1998935546875,-0.005785717628896236,-0.00279072648845613,-0.03213609755039215
1690841546702933500,4.20993359375,-0.007564975414425135,-0.01230673398822546,-0.04375946521759033
1690841546712974600,4.219974609375,-0.006338323466479778,-0.015225025825202465,-0.053053099662065506
1690841546723014700,4.2300146484375,-0.0054243262857198715,-0.017227189615368843,-0.05896877869963646
1690841546733054500,4.240054443359375,-0.004883171990513802,-0.014907044358551502,-0.058821503072977066
1690841546743094500,4.250094482421875,-0.003923634998500347,-0.010104832239449024,-0.055572181940078735
1690841546753135400,4.26013525390625,-0.002996056107804179,-0.005277319811284542,-0.051475975662469864
1690841546763175400,4.270175537109375,-0.0067226174287498,-0.0018588864477351308,-0.041976746171712875
1690841546773215500,4.280215576171875,-0.004022172186523676,0.0011749867117032409,-0.03453826904296875
1690841546783286500,4.29028662109375,-0.005154015496373177,0.002319879597052932,-0.021768944337964058
1690841546793326600,4.30032666015625,-0.004505003336817026,0.004205930046737194,-0.011551993899047375
1690841546803367700,4.31036767578125,-0.004339088220149279,0.002436526119709015,-0.0031971249263733625
1690841546813407500,4.320407470703125,-0.004515389446169138,0.0004021373169962317,0.005403287708759308
1690841546823447600,4.330447509765625,-0.003338272450491786,0.00024980452144518495,0.009850500151515007
1690841546833487600,4.340487548828125,-0.004452272783964872,0.0007715177489444613,0.008279767818748951
1690841546843528400,4.350528564453125,-0.0035545211285352707,0.000511593243572861,0.008591890335083008
1690841546853568500,4.360568603515625,-0.005318066570907831,0.00008388957212446257,0.0016799219883978367
1690841546863608600,4.370608642578125,-0.004463191609829664,0.0003126551164314151,-0.006149238906800747
1690841546873649700,4.380649658203125,-0.004181961994618177,-0.0014138722326606512,-0.016503609716892242
1690841546883689500,4.390689453125,-0.005140699911862612,-0.002537193475291133,-0.02551627904176712
1690841546893729500,4.4007294921875,-0.00589543953537941,-0.004122573416680098,-0.033066339790821075
1690841546903769600,4.41076953125,-0.00512951472774148,-0.005846970248967409,-0.037164680659770966
1690841546913840600,4.420840576171875,-0.005595301277935505,-0.0054791877046227455,-0.04255038872361183
1690841546923880700,4.430880615234375,-0.006286924239248037,-0.007426224648952484,-0.04418423771858215
1690841546933921500,4.440921630859375,-0.004563326481729746,-0.006964166183024645,-0.04049469530582428
1690841546943961600,4.450961669921875,-0.0038575888611376286,-0.007957259193062782,-0.03954794257879257
1690841546954001400,4.46100146484375,-0.004926049150526524,-0.005371862091124058,-0.03340642526745796
1690841546964042500,4.47104248046875,-0.0049497513100504875,-0.0035241609439253807,-0.026138393208384514
1690841546974082600,4.48108251953125,-0.005239236634224653,-0.0014266553334891796,-0.021136177703738213
1690841546984122600,4.49112255859375,-0.0036738307680934668,-0.0003576625313144177,-0.015324361622333527
1690841546994162400,4.501162353515625,-0.0054703992791473866,0.0014788532862439752,-0.00959776621311903
1690841547004203500,4.51120361328125,-0.005792641546577215,-0.001038366463035345,-0.007180148735642433
1690841547014243600,4.52124365234375,-0.004279966000467539,0.0011140003334730864,-0.004215251188725233
1690841547024283400,4.531283447265625,-0.00498224189504981,0.0005973470397293568,-0.004233627114444971
1690841547034324500,4.541324462890625,-0.004882373381406069,-0.0011350392596796155,-0.0059811933897435665
1690841547044394500,4.55139453125,-0.003890878288075328,0.0019259981345385313,-0.009215869009494781
1690841547054435600,4.561435546875,-0.004021639470010996,0.0014375743921846151,-0.015045261941850185
1690841547064475600,4.5714755859375,-0.004180896561592817,-0.00025220136740244925,-0.01992124319076538
1690841547074515500,4.581515380859375,-0.004021373111754656,-0.0011973571963608265,-0.02177373878657818
1690841547084556500,4.591556640625,-0.004747617058455944,-0.0018929748330265284,-0.02822737768292427
1690841547094596600,4.6015966796875,-0.004824848845601082,-0.0023957795929163694,-0.032165393233299255
1690841547104636400,4.611636474609375,-0.0030160299502313137,-0.004007524810731411,-0.03331428021192551
1690841547114676500,4.621676513671875,-0.004485296085476875,-0.005595034919679165,-0.03296354413032532
1690841547124717600,4.631717529296875,-0.0054666707292199135,-0.0041193775832653046,-0.033115874975919724
1690841547134757600,4.641757568359375,-0.00520754512399435,-0.003236006945371628,-0.029504895210266113
1690841547144797400,4.65179736328125,-0.003665042342618108,-0.005422994960099459,-0.023921577259898186
1690841547154838500,4.661838623046875,-0.003728159237653017,-0.003656253917142749,-0.02442864328622818
1690841547164908300,4.671908203125,-0.004540956113487482,-0.0019827233627438545,-0.02028582990169525
1690841547174949400,4.681949462890625,-0.004358529578894377,-0.0002793656021822244,-0.017101222649216652
1690841547184989400,4.691989501953125,-0.0038956720381975174,-0.00013635384675581008,-0.012413259595632553
1690841547195029500,4.702029541015625,-0.004428304266184568,0.000023435817638528533,-0.012281167320907116
1690841547205069600,4.712069580078125,-0.004444549325853586,-0.0023465112317353487,-0.014038320630788803
1690841547215110700,4.722110595703125,-0.004282895475625992,-0.0025121597573161125,-0.012237491086125374
1690841547225150500,4.732150390625,-0.005091963801532984,-0.0022093583829700947,-0.014627411961555481
1690841547235190300,4.742190185546875,-0.005075985100120306,-0.0032344090286642313,-0.016442356631159782
1690841547245231400,4.7522314453125,-0.003094326937571168,-0.004834702704101801,-0.017587250098586082
1690841547255271400,4.762271484375,-0.005028580781072378,-0.003070891136303544,-0.022786805406212807
1690841547265311500,4.7723115234375,-0.004348942078649998,-0.0017496967921033502,-0.022234465926885605
1690841547275351600,4.7823515625,-0.004459995776414871,-0.000910268456209451,-0.02496207505464554
1690841547285392600,4.792392578125,-0.006012884899973869,-0.000218645524000749,-0.027604995295405388
1690841547295463700,4.802463623046875,-0.005021123681217432,-0.0026517093647271395,-0.026401780545711517
1690841547305503500,4.81250341796875,-0.003861050819978118,-0.0035201662685722113,-0.02732589654624462
1690841547315543300,4.822543212890625,-0.006389722228050232,-0.003120958572253585,-0.026553314179182053
1690841547325583400,4.832583251953125,-0.0044054011814296246,-0.0023646207991987467,-0.026029735803604126
1690841547335624400,4.84262451171875,-0.004965996369719505,-0.0027145601343363523,-0.022128738462924957
1690841547345664500,4.85266455078125,-0.004659466445446014,-0.003226952161639929,-0.02082325704395771
1690841547355704600,4.86270458984375,-0.005330849438905716,-0.003644269658252597,-0.015657790005207062
1690841547365745700,4.87274560546875,-0.004308462142944336,-0.000055660068028373644,-0.016705743968486786
1690841547375785500,4.882785400390625,-0.003802461316809058,-0.002320145955309272,-0.015615444630384445
1690841547385825300,4.8928251953125,-0.004384362138807774,-0.0016311861108988523,-0.014633537270128727
1690841547395865300,4.902865234375,-0.004518318921327591,0.0007480819476768374,-0.014851650223135948
1690841547405906400,4.912906494140625,-0.0051833102479577065,-0.002567553659901023,-0.018262626603245735
1690841547415946500,4.922946533203125,-0.0037499971222132444,-0.0017395768081769347,-0.019665313884615898
1690841547426017500,4.933017578125,-0.004341219086199999,-0.0026471822056919336,-0.020195549353957176
1690841547436057600,4.9430576171875,-0.004126567859202623,-0.0031467911321669817,-0.02063976414501667
1690841547446097700,4.95309765625,-0.0038152446504682302,-0.005330849438905716,-0.02184884063899517
1690841547456138500,4.963138427734375,-0.0043619913049042225,-0.0022274679504334927,-0.02209331840276718
1690841547466178300,4.97317822265625,-0.003965713083744049,-0.0031941954512149096,-0.023302659392356873
1690841547476218400,4.98321826171875,-0.004010987002402544,-0.003169161733239889,-0.024774855002760887
1690841547486258400,4.993258544921875,-0.003946804907172918,-0.006018477492034435,-0.022525548934936523
1690841547496299500,5.003299560546875,-0.0036911412607878447,-0.0020216056145727634,-0.024870462715625763
1690841547506337300,5.013337158203125,-0.004296211525797844,-0.0007933556917123497,-0.023734090849757195
1690841547516377000,5.023377197265625,-0.006144445389509201,-0.0012314456980675459,-0.021260282024741173
1690841547526418200,5.033418212890625,-0.0046661244705319405,0.0002713761059567332,-0.020005665719509125
1690841547536458200,5.043458251953125,-0.006493052933365107,-0.002080195117741823,-0.019305521622300148
1690841547546498300,5.053498291015625,-0.004708468914031982,-0.004890096373856068,-0.018136659637093544
1690841547556569000,5.063569091796875,-0.0026205505710095167,-0.0017976337112486362,-0.017530523240566254
1690841547566609200,5.073609130859375,-0.0046605318784713745,-0.0019377160351723433,-0.01678856648504734
1690841547576649200,5.083649169921875,-0.006024869158864021,-0.0011922972043976188,-0.016226373612880707
1690841547586690300,5.093690185546875,-0.0036735644098371267,-0.001178448786959052,-0.01858992874622345
1690841547596730000,5.103730224609375,-0.0049428269267082214,-0.002156095113605261,-0.019899671897292137
1690841547606770200,5.113770263671875,-0.005215800832957029,-0.0016082830261439085,-0.02165309712290764
1690841547616811300,5.123811279296875,-0.0059660132974386215,-0.004867193289101124,-0.020591028034687042
1690841547626851300,5.133851318359375,-0.005401156842708588,-0.001710548298433423,-0.021440576761960983
1690841547636891100,5.14389111328125,-0.005603556986898184,-0.002433863002806902,-0.02297908440232277
1690841547646931200,5.15393115234375,-0.004165183752775192,-0.0011792477453127503,-0.02153751626610756
1690841547656972300,5.16397216796875,-0.004861334338784218,-0.0020881847012788057,-0.02196282334625721
1690841547667012000,5.17401220703125,-0.0038453382439911366,0.0002918824611697346,-0.022478410974144936
1690841547677083100,5.184083251953125,-0.004278368316590786,-0.00321816373616457,-0.022484270855784416
1690841547687123200,5.194123291015625,-0.004014182835817337,-0.0029204224701970816,-0.02322569489479065
1690841547697163000,5.2041630859375,-0.00449941074475646,-0.004733236040920019,-0.02341051772236824
1690841547707204000,5.2142041015625,-0.005385976750403643,-0.0032892702147364616,-0.02111007831990719
1690841547717244200,5.224244140625,-0.004021373111754656,-0.004572913981974125,-0.020858677104115486
1690841547727284200,5.2342841796875,-0.0041646515019237995,-0.003977697342634201,-0.01955559104681015
1690841547737325300,5.2443251953125,-0.004061054438352585,-0.0011227887589484453,-0.020238425582647324
1690841547747365000,5.254365234375,-0.006454969756305218,-0.0008937568636611104,-0.018101505935192108
1690841547757405200,5.2644052734375,-0.003385144053027034,0.00010226538870483637,-0.017197895795106888
1690841547767445200,5.2744453125,-0.004846686962991953,0.00019520970818120986,-0.020078903064131737
1690841547777486300,5.284486328125,-0.004203266929835081,0.0008298410102725029,-0.019345201551914215
1690841547787526100,5.294526123046875,-0.004281830508261919,0.00034221619716845453,-0.02087811753153801
1690841547797566200,5.304566162109375,-0.003242664970457554,-0.0021310613956302404,-0.022612102329730988
1690841547807637200,5.31463720703125,-0.0031553131993860006,-0.0023491743486374617,-0.02171461656689644
1690841547817677300,5.32467724609375,-0.006016080733388662,-0.0037590519059449434,-0.021165739744901657
1690841547827718100,5.33471826171875,-0.006075469311326742,-0.004378769546747208,-0.022545788437128067
1690841547837758200,5.34475830078125,-0.006637129932641983,-0.006410494912415743,-0.021523667499423027
1690841547847798000,5.354798095703125,-0.005263471510261297,-0.003959055058658123,-0.02178945206105709
1690841547857838000,5.364838134765625,-0.004676776938140392,-0.003775563556700945,-0.02105175517499447
1690841547867879200,5.374879150390625,-0.0037356161046773195,-0.0017156084068119526,-0.021990785375237465
1690841547877919200,5.384919189453125,-0.005617938470095396,0.00025539714260958135,-0.021866682916879654
1690841547887959300,5.394959228515625,-0.004310858901590109,-0.0005858954391442239,-0.019933760166168213
1690841547898000100,5.405000244140625,-0.005766808986663818,0.0005017395596951246,-0.02112872153520584
1690841547908040200,5.415040283203125,-0.004751878324896097,-0.002999251941218972,-0.018683405593037605
1690841547918080300,5.425080322265625,-0.0062067629769444466,-0.005143895745277405,-0.020789435133337975
1690841547928120000,5.4351201171875,-0.005835252348333597,-0.004797684494405985,-0.018924156203866005
1690841547938191000,5.445191162109375,-0.0025158883072435856,-0.005339371506124735,-0.0218347255140543
1690841547948232200,5.455232177734375,-0.005399559158831835,-0.0036549223586916924,-0.018017616122961044
1690841547958272300,5.465272216796875,-0.003837881376966834,-0.001514806062914431,-0.019211778417229652
1690841547968312300,5.475312255859375,-0.005089034326374531,-0.0007709851488471031,-0.020073309540748596
1690841547978352400,5.485352294921875,-0.005285841878503561,-0.0017454357584938407,-0.01986398547887802
1690841547988393200,5.495393310546875,-0.004890629090368748,0.002460228279232979,-0.02190689742565155
1690841547998433000,5.50543310546875,-0.0052107409574091434,0.0019156117923557758,-0.02178199402987957
1690841548008473000,5.51547314453125,-0.006192914675921202,-0.0007667240570299327,-0.021262677386403084
1690841548018513200,5.52551318359375,-0.004196875728666782,-0.0025984463281929493,-0.02136973664164543
1690841548028554200,5.53555419921875,-0.00415399856865406,-0.0002790992730297148,-0.020613931119441986
1690841548038594300,5.54559423828125,-0.004304733593016863,-0.00449861166998744,-0.02117159776389599
1690841548048634400,5.55563427734375,-0.00436092633754015,-0.003953196108341217,-0.02053084224462509
1690841548058675200,5.56567529296875,-0.004728442523628473,-0.005520999431610107,-0.021831529214978218
1690841548068745200,5.5757451171875,-0.00544430036097765,-0.0019462381023913622,-0.020386764779686928
1690841548078786000,5.5857861328125,-0.00506932707503438,-0.001449025934562087,-0.018878350034356117
1690841548088826000,5.595826171875,-0.005221127066761255,-0.0018330537714064121,-0.02003123238682747
1690841548098866200,5.6058662109375,-0.004653075244277716,0.00044128578156232834,-0.020606474950909615
1690841548108907300,5.6159072265625,-0.005032841581851244,-0.00019494339358061552,-0.019845077767968178
1690841548118947300,5.625947265625,-0.0033862092532217503,-0.0017132115317508578,-0.020547086372971535
1690841548128987400,5.6359873046875,-0.005143629387021065,-0.002511094557121396,-0.020916733890771866
1690841548139027200,5.646027099609375,-0.0046658581122756,-0.004457865376025438,-0.021389711648225784
1690841548149068000,5.656068115234375,-0.003884486621245742,-0.0041638524271547794,-0.0216568261384964
1690841548159108000,5.666108154296875,-0.00532578956335783,-0.00475427508354187,-0.021192103624343872
1690841548169148200,5.676148193359375,-0.0056741307489573956,-0.000969923275988549,-0.01804158464074135
1690841548179189200,5.686189208984375,-0.006185191683471203,-0.002734001260250807,-0.020417390391230583
1690841548189259300,5.69625927734375,-0.0043835630640387535,-0.0013342436868697405,-0.019242404028773308
1690841548199300400,5.70630029296875,-0.0029643645975738764,-0.00011158645065734163,-0.01936624012887478
1690841548209340400,5.71634033203125,-0.00518810423091054,-0.0004727110790554434,-0.021893581375479698
1690841548219380200,5.726380126953125,-0.0031678301747888327,-0.00042876892257481813,-0.02281290479004383
1690841548229420300,5.736420166015625,-0.004277569241821766,-0.000702009245287627,-0.01991138979792595
1690841548239461000,5.746461181640625,-0.004715925548225641,-0.0017483652336522937,-0.022645657882094383
1690841548249501200,5.756501220703125,-0.00561074772849679,-0.0034874093253165483,-0.02298734150826931
1690841548259541200,5.766541259765625,-0.004968393128365278,-0.003894074121490121,-0.017763817682862282
1690841548269582300,5.776582275390625,-0.0033601103350520134,-0.0016972325975075364,-0.019657058641314507
1690841548279622400,5.786622314453125,-0.0051750545389950275,-0.0019520970527082682,-0.018687667325139046
1690841548289662200,5.796662109375,-0.003941744565963745,-0.0032743564806878567,-0.019043998792767525
1690841548299702300,5.806702392578125,-0.00538411270827055,-0.0024461133871227503,-0.019229620695114136
1690841548309743000,5.8167431640625,-0.005003546830266714,-0.0006077333819121122,-0.021327126771211624
1690841548319814100,5.826814208984375,-0.006426207721233368,-0.0046850331127643585,-0.022484004497528076
1690841548329854200,5.836854248046875,-0.0033182986080646515,-0.0032048479188233614,-0.02268880046904087
1690841548339894300,5.846894287109375,-0.003969707991927862,-0.0028099012561142445,-0.022529544308781624
1690841548349934000,5.85693408203125,-0.005751895252615213,-0.0023244069889187813,-0.018995795398950577
1690841548359975200,5.86697509765625,-0.0054640076123178005,-0.0012634035665541887,-0.02003762312233448
1690841548370015200,5.87701513671875,-0.005665608681738377,-0.0027164241764694452,-0.021502895280718803
1690841548380055300,5.88705517578125,-0.005116465035825968,-0.0027806065045297146,-0.02045494131743908
1690841548390096100,5.89709619140625,-0.004510329570621252,-0.0011704593198373914,-0.021764950826764107
1690841548400136200,5.90713623046875,-0.006253900937736034,-0.003070624778047204,-0.020806478336453438
1690841548410176300,5.91717626953125,-0.004817392211407423,-0.003976631909608841,-0.021194500848650932
1690841548420216300,5.92721630859375,-0.0057156761176884174,-0.001347825862467289,-0.020620323717594147
1690841548430257400,5.93725732421875,-0.003831756068393588,-0.0009512811084277928,-0.022053902968764305
1690841548440297200,5.947297119140625,-0.005101018585264683,-0.003355582943186164,-0.021866682916879654
1690841548450368300,5.9573681640625,-0.005244562868028879,-0.0010290454374626279,-0.0201026052236557
1690841548460408300,5.967408203125,-0.004832572303712368,-0.001796834752894938,-0.02159717120230198
1690841548470448000,5.9774482421875,-0.006835535634309053,-0.0028823392931371927,-0.020007796585559845
1690841548480489200,5.9874892578125,-0.004571582190692425,-0.0005467469454742968,-0.01781628094613552
1690841548490529300,5.997529296875,-0.004752677399665117,-0.0010567422723397613,-0.02118624560534954
1690841548500569000,6.007569091796875,-0.003719104453921318,-0.002671150490641594,-0.019956663250923157
1690841548510620400,6.017620361328125,-0.004017910920083523,-0.0026181535795331,-0.020443223416805267
1690841548520661200,6.0276611328125,-0.004288222175091505,-0.002400839701294899,-0.02099236659705639
1690841548530701000,6.037701171875,-0.005196892656385899,-0.0057401773519814014,-0.021640846505761147
1690841548540741000,6.0477412109375,-0.0046448190696537495,-0.0022825952619314194,-0.01967303641140461
1690841548550782200,6.0577822265625,-0.004432565066963434,-0.0037883466575294733,-0.02020913176238537
1690841548560822300,6.067822265625,-0.004249073565006256,-0.003200853243470192,-0.021630726754665375
1690841548570862300,6.0778623046875,-0.006222475785762072,-0.00039654469583183527,-0.020864535123109818
1690841548580933400,6.087933349609375,-0.003954527899622917,-0.003658917034044862,-0.021013937890529633
1690841548590973200,6.09797314453125,-0.004905276466161013,-0.0008783105295151472,-0.021099425852298737
1690841548601014300,6.10801416015625,-0.004220577888190746,-0.0008367652189917862,-0.01913374662399292
1690841548611054000,6.11805419921875,-0.0043681166134774685,0.0000798948312876746,-0.02105788141489029
1690841548621094100,6.12809423828125,-0.004494616761803627,-0.0015877765836194158,-0.02045467495918274
1690841548631134200,6.13813427734375,-0.004092745948582888,-0.002784334821626544,-0.021416075527668
1690841548641175300,6.14817529296875,-0.003960120491683483,-0.003465305082499981,-0.02106853388249874
1690841548651215400,6.15821533203125,-0.005632852204144001,-0.003540672594681382,-0.021866416558623314
1690841548661255400,6.16825537109375,-0.005590241402387619,0.0013845774810761213,-0.020863736048340797
1690841548671295200,6.178295166015625,-0.004739894066005945,-0.004562793765217066,-0.021251225844025612
1690841548681336000,6.188336181640625,-0.005298358853906393,-0.0044014062732458115,-0.021832594648003578
1690841548691376000,6.198376220703125,-0.004050934221595526,0.0011379687348380685,-0.021797440946102142
1690841548701416200,6.208416259765625,-0.005396629683673382,-0.003566771512851119,-0.02189517952501774
1690841548711487200,6.2184873046875,-0.004269047174602747,0.0001304948964389041,-0.021409951150417328
1690841548721527300,6.22852734375,-0.004051200579851866,-0.001210406655445695,-0.01894359663128853
1690841548731568400,6.238568359375,-0.004110855516046286,-0.000749679864384234,-0.021315408870577812
1690841548741608200,6.248608154296875,-0.004569185432046652,-0.0019430422689765692,-0.021038172766566277
1690841548751648300,6.258648193359375,-0.004941229242831469,-0.0018042916199192405,-0.01888580620288849
1690841548761689000,6.268689208984375,-0.005346295889467001,-0.003525758860632777,-0.020896226167678833
1690841548771729200,6.278729248046875,-0.005204349290579557,-0.0019350528018549085,-0.020131366327404976
1690841548781769200,6.288769287109375,-0.004066114313900471,-0.0009989517275243998,-0.0193135105073452
1690841548791809300,6.298809326171875,-0.002657302189618349,-0.001136104459874332,-0.022898124530911446
1690841548801850400,6.308850341796875,-0.00466532539576292,-0.00008841694943839684,-0.020018981769680977
1690841548811890400,6.318890380859375,-0.003049053018912673,-0.0011089402250945568,-0.02219238691031933
1690841548821930200,6.32893017578125,-0.004026699345558882,-0.0023097596131265163,-0.020294087007641792
1690841548832001300,6.339001220703125,-0.004534031730145216,-0.0006849650526419282,-0.02039129100739956
1690841548842041300,6.349041259765625,-0.0037593182642012835,-0.002373675350099802,-0.021706894040107727
1690841548852082200,6.359082275390625,-0.003750795964151621,-0.0025603631511330605,-0.02095108851790428
1690841548862122200,6.369122314453125,-0.003744937013834715,0.0001560612436151132,-0.021813951432704926
1690841548872162300,6.379162353515625,-0.004249872639775276,-0.003686880227178335,-0.019846675917506218
1690841548882202000,6.3892021484375,-0.005566539242863655,-0.0035425368696451187,-0.022523151710629463
1690841548892243200,6.3992431640625,-0.005065065808594227,-0.004603806417435408,-0.020913271233439445
1690841548902283300,6.409283203125,-0.005726861767470837,-0.0011086739832535386,-0.02177347242832184
1690841548912323300,6.4193232421875,-0.00407516909763217,-0.002356098499149084,-0.019871974363923073
1690841548922364200,6.4293642578125,-0.004538825247436762,-0.0040978058241307735,-0.02124297060072422
1690841548932404200,6.439404296875,-0.0036935380194336176,-0.0012514194240793586,-0.023003851994872093
1690841548942444300,6.4494443359375,-0.005452822428196669,-0.004604871850460768,-0.022111959755420685
1690841548952484400,6.459484375,-0.0046999468468129635,-0.0023401195649057627,-0.021886656060814857
1690841548962555100,6.46955517578125,-0.005252286326140165,-0.002371012233197689,-0.021152157336473465
1690841548972596200,6.47959619140625,-0.0052229915745556355,-0.0011688614031299949,-0.0200370904058218
1690841548982636300,6.48963623046875,-0.0030509172938764095,-0.002668221015483141,-0.020663732662796974
1690841548992676400,6.49967626953125,-0.005862150341272354,-0.003641606541350484,-0.022292256355285645
1690841549002716400,6.50971630859375,-0.004960936494171619,-0.003472229465842247,-0.019104985520243645
1690841549012757200,6.51975732421875,-0.003715375903993845,0.00031132352887652814,-0.021201690658926964
1690841549022797300,6.52979736328125,-0.003841609926894307,-0.0015281217638403177,-0.019878366962075233
1690841549032837000,6.539837158203125,-0.0030280142091214657,-0.0012900352012366056,-0.020351344719529152
1690841549042878200,6.549878173828125,-0.00523737259209156,-0.001088700257241726,-0.020865600556135178
1690841549052918300,6.559918212890625,-0.0037113812286406755,-0.0005363606614992023,-0.022915435954928398
1690841549062958300,6.569958251953125,-0.004519650712609291,-0.0030043120495975018,-0.022793462499976158
1690841549072998400,6.579998291015625,-0.005397162400186062,-0.0015928366919979453,-0.020197946578264236
1690841549083039200,6.590039306640625,-0.005536179058253765,-0.0036602485924959183,-0.022165756672620773
1690841549093109200,6.600109130859375,-0.003727360162883997,-0.0036514601670205593,-0.02160169929265976
1690841549103150300,6.610150390625,-0.004580370616167784,-0.003817108692601323,-0.0203406922519207
1690841549113190100,6.620190185546875,-0.00515827676281333,-0.0008356999605894089,-0.022399315610527992
1690841549123230200,6.630230224609375,-0.004462126176804304,-0.0027329358272254467,-0.020126307383179665
1690841549133271300,6.640271240234375,-0.004938299767673016,-0.0014980280539020896,-0.02093351073563099
1690841549143311400,6.650311279296875,-0.0065407236106693745,-0.0013643373968079686,-0.02034734934568405
1690841549153351400,6.660351318359375,-0.004600876942276955,-0.0021015002857893705,-0.019955065101385117
1690841549163391200,6.67039111328125,-0.005527124274522066,-0.0025688852183520794,-0.020005665719509125
1690841549173432300,6.680432373046875,-0.005419266410171986,-0.00253399764187634,-0.020258666947484016
1690841549183472000,6.69047216796875,-0.0033547841012477875,-0.0023158849216997623,-0.02028023824095726
1690841549193512200,6.70051220703125,-0.006331132724881172,-0.0017358483746647835,-0.020384633913636208
1690841549203553300,6.71055322265625,-0.003754790872335434,-0.0017209346406161785,-0.020305005833506584
1690841549213593300,6.72059326171875,-0.00580915343016386,-0.0035233621019870043,-0.02064695581793785
1690841549223664400,6.730664306640625,-0.005050152540206909,-0.003282346064224839,-0.020622720941901207
1690841549233704400,6.740704345703125,-0.004535363521426916,-0.0014865765115246177,-0.021448567509651184
1690841549243744300,6.750744140625,-0.003975300583988428,-0.0014287859667092562,-0.020374780520796776
1690841549253785300,6.760785400390625,-0.004621649626642466,-0.002650644164532423,-0.020376911386847496
1690841549263825200,6.7708251953125,-0.0036828855518251657,-0.003397394670173526,-0.02009887620806694
1690841549273865200,6.780865234375,-0.006345247384160757,-0.003594468580558896,-0.021734589710831642
1690841549283905300,6.7909052734375,-0.005688778590410948,-0.0009528790251351893,-0.019349196925759315
1690841549293946400,6.8009462890625,-0.005570001434534788,-0.0011587414192035794,-0.020861605182290077
1690841549303986400,6.810986328125,-0.004050934221595526,-0.00458756135776639,-0.02178066223859787
1690841549314026200,6.821026123046875,-0.0063154203817248344,-0.0008862999966368079,-0.021894114091992378
1690841549324066000,6.831066162109375,-0.005507949739694595,-0.000755805114749819,-0.01810683123767376
1690841549334107100,6.841107177734375,-0.004098604898899794,-0.003270095447078347,-0.020503677427768707
1690841549344178200,6.85117822265625,-0.005073588341474533,-0.001966478070244193,-0.019568108022212982
1690841549354218200,6.86121826171875,-0.0047060721553862095,-0.0017928400775417686,-0.02275085262954235
1690841549364258300,6.87125830078125,-0.005555354058742523,-0.0009451558580622077,-0.01912549138069153
1690841549374298400,6.88129833984375,-0.004747084807604551,-0.0036072516813874245,-0.020980915054678917
1690841549384339500,6.89133935546875,-0.005145759787410498,-0.0049196574836969376,-0.019034411758184433
1690841549394379300,6.901379150390625,-0.003871171036735177,-0.001686846255324781,-0.01979341171681881
1690841549404419000,6.911419189453125,-0.003992078360170126,-0.001928128651343286,-0.020370518788695335
1690841549414460200,6.921460205078125,-0.004202201962471008,-0.004372910596430302,-0.022457106038928032
1690841549424500200,6.931500244140625,-0.005369998048990965,-0.003703658003360033,-0.017896175384521484
1690841549434540300,6.941540283203125,-0.0043862261809408665,-0.002924949862062931,-0.020789701491594315
1690841549444580400,6.951580322265625,-0.005197691265493631,-0.003439206164330244,-0.021213144063949585
1690841549454621400,6.961621337890625,-0.0040735709480941296,-0.003802727675065398,-0.02009275183081627
1690841549464661200,6.9716611328125,-0.005291967187076807,-0.002805640222504735,-0.021446170285344124
1690841549474732300,6.981732177734375,-0.0054578823037445545,-0.002956641372293234,-0.020077304914593697
1690841549484772000,6.991772216796875,-0.004741225857287645,-0.0015933692920953035,-0.019815249368548393
1690841549494812200,7.001812255859375,-0.00407596817240119,-0.0021291973534971476,-0.019947875291109085
1690841549504843000,7.011843017578125,-0.0067633637227118015,-0.002341451123356819,-0.02155456133186817
1690841549514883000,7.021883056640625,-0.004988367203623056,-0.00021118867152836174,-0.020126840099692345
1690841549524923100,7.031923095703125,-0.0037886130157858133,-0.003142263740301132,-0.02081766352057457
1690841549534963200,7.041963134765625,-0.0051931641064584255,-0.003468767274171114,-0.02003762312233448
1690841549545004000,7.052004150390625,-0.006084524095058441,-0.0029254823457449675,-0.020564930513501167
1690841549555044000,7.062044189453125,-0.004277835600078106,-0.0035127094015479088,-0.021570272743701935
1690841549565084000,7.072083984375,-0.0038216360844671726,-0.0015981629258021712,-0.021083980798721313
1690841549575125000,7.082125,-0.004605670925229788,-0.0030067088082432747,-0.01985386572778225
1690841549585165000,7.0921650390625,-0.00526560191065073,-0.003227484878152609,-0.020954284816980362
1690841549595205000,7.102205078125,-0.003430684097111225,-0.003349457634612918,-0.022166820243000984
1690841549605276200,7.112276123046875,-0.003970507066696882,-0.00421391986310482,-0.01938168704509735
1690841549615316200,7.122316162109375,-0.005539907608181238,-0.0018072210950776935,-0.021143633872270584
1690841549625357000,7.132357177734375,-0.004022172186523676,-0.003507383167743683,-0.02076386846601963
1690841549635397000,7.142397216796875,-0.006667490117251873,-0.002039981307461858,-0.020614730194211006
1690841549645437000,7.15243701171875,-0.004563060123473406,-0.005769738461822271,-0.019936956465244293
1690841549655477000,7.16247705078125,-0.005351089406758547,-0.002603239845484495,-0.01992896758019924
1690841549665518000,7.17251806640625,-0.004090615548193455,0.00017310546536464244,-0.02190556563436985
1690841549675558100,7.18255810546875,-0.0054602790623903275,-0.002089516259729862,-0.02154337428510189
1690841549685598200,7.19259814453125,-0.00436145905405283,-0.0023094932548701763,-0.021768677979707718
1690841549695639000,7.20263916015625,-0.005339904222637415,-0.0019651465117931366,-0.016868729144334793
1690841549705679000,7.21267919921875,-0.005617139395326376,-0.004034156445413828,-0.01937263272702694
1690841549715719000,7.222718994140625,-0.0036722328513860703,-0.0019984361715614796,-0.021508220583200455
1690841549725759000,7.232759033203125,-0.0055215316824615,-0.003359045134857297,-0.019332418218255043
1690841549735830000,7.242830078125,-0.005182777531445026,-0.003231213428080082,-0.01883840188384056
1690841549745870000,7.2528701171875,-0.004370513837784529,-0.0009158611064776778,-0.02130395732820034
1690841549755911200,7.2629111328125,-0.004250937607139349,-0.0014985607704147696,-0.022046713158488274
1690841549765951200,7.272951171875,-0.004093012306839228,-0.0024714134633541107,-0.019631491973996162
1690841549775991300,7.2829912109375,-0.0028842033352702856,-0.003296460723504424,-0.01943468488752842
1690841549786032000,7.2930322265625,-0.005688245873898268,-0.0034935346338897943,-0.02088131383061409
1690841549796072000,7.303072021484375,-0.006672283634543419,-0.0022053637076169252,-0.019899139180779457
1690841549806112000,7.313112060546875,-0.005349758081138134,-0.0009488842915743589,-0.020059462636709213
1690841549816152000,7.323152099609375,-0.005505020264536142,-0.0010029464028775692,-0.02069595642387867
1690841549826193200,7.333193115234375,-0.0060022324323654175,-0.0009142631897702813,-0.020854149013757706
1690841549836233200,7.343233154296875,-0.0035116442013531923,-0.0021049624774605036,-0.02021019719541073
1690841549846273300,7.353273193359375,-0.004591555800288916,-0.0026959178503602743,-0.020924190059304237
1690841549856344000,7.363343994140625,-0.0038695731200277805,-0.002965163439512253,-0.021273329854011536
1690841549866384100,7.373384033203125,-0.004860801622271538,-0.0011965582380071282,-0.021831795573234558
1690841549876425000,7.383425048828125,-0.004780374001711607,-0.00284984870813787,-0.019963854923844337
1690841549886465000,7.393465087890625,-0.005873335525393486,-0.0022242721170186996,-0.019899671897292137
1690841549896505000,7.403505126953125,-0.005138036794960499,-0.0030634342692792416,-0.02124137245118618
1690841549906546200,7.413546142578125,-0.004869856406003237,-0.0017781927017495036,-0.020385166630148888
1690841549916586200,7.423586181640625,-0.004260791465640068,-0.0035989959724247456,-0.020551081746816635
1690841549926626300,7.433626220703125,-0.005117530468851328,-0.0016018913593143225,-0.020898623391985893
1690841549936666000,7.443666015625,-0.006358829792588949,-0.0028868666850030422,-0.021205686032772064
1690841549946707000,7.45370703125,0.020784907042980194,0.0652298703789711,-0.24105149507522583
1690841549956747000,7.4637470703125,0.023975906893610954,-0.03062155842781067,-0.30729150772094727
1690841549966787000,7.473787109375,0.007424626965075731,0.04476800560951233,-0.2090541422367096
1690841549976827100,7.4838271484375,-0.009181514382362366,-0.00478436890989542,-0.15258687734603882
1690841549986898200,7.493898193359375,-0.019226690754294395,-0.053160157054662704,-0.08575804531574249
1690841549996939300,7.503939208984375,-0.021558288484811783,-0.06895004212856293,-0.005047755315899849
1690841550006979000,7.51397900390625,-0.022961242124438286,-0.0613752081990242,0.06362052261829376
1690841550017019100,7.52401904296875,-0.02786412090063095,-0.1447124481201172,0.11766272038221359
1690841550027059200,7.53405908203125,-0.02310052514076233,0.00472391489893198,0.15673981606960297
1690841550037100000,7.54410009765625,-0.008068312890827656,0.11653034389019012,0.1527586579322815
1690841550047140000,7.55414013671875,0.004671450704336166,0.09237413853406906,0.13910143077373505
1690841550057180200,7.56418017578125,0.006689594127237797,0.1807253062725067,0.08727951347827911
1690841550067221200,7.57422119140625,0.008924252353608608,0.08634766936302185,0.08683289587497711
1690841550077261300,7.58426123046875,0.00002902845517382957,0.03717639669775963,0.05126265436410904
1690841550087301000,7.594301025390625,-0.00506852800026536,0.007641940843313932,0.01691560074687004
1690841550097341200,7.604341064453125,-0.007530886679887772,-0.022703714668750763,-0.03163569048047066
1690841550107382000,7.614382080078125,-0.008531702682375908,-0.058150652796030045,-0.06302983313798904
1690841550117452000,7.6244521484375,-0.008168447762727737,-0.06468072533607483,-0.0987449511885643
1690841550127493000,7.6344931640625,-0.006885603070259094,-0.059184495359659195,-0.12880484759807587
1690841550137533200,7.644533203125,-0.005407015793025494,-0.04655631631612778,-0.14108921587467194
1690841550147573000,7.654572998046875,-0.004570783115923405,-0.029220469295978546,-0.1490137130022049
1690841550157614000,7.664614013671875,-0.0014154701493680477,-0.00935328844934702,-0.1402585804462433
1690841550167654100,7.674654052734375,-0.0031380027066916227,0.00401711231097579,-0.12581998109817505
1690841550177694200,7.684694091796875,-0.003156378399580717,0.015209046192467213,-0.10448645800352097
1690841550187734000,7.694734130859375,-0.0016269250772893429,0.017667410895228386,-0.07579302787780762
1690841550197775000,7.704775146484375,-0.004357730504125357,0.015912387520074844,-0.04992494732141495
1690841550207815200,7.714815185546875,-0.004827778320759535,0.011109109967947006,-0.018581673502922058
1690841550217855000,7.72485498046875,-0.005653092171996832,0.005789712071418762,0.011227354407310486
1690841550227896000,7.73489599609375,-0.0062554990872740746,-0.00043276368523947895,0.03651140630245209
1690841550237936000,7.74493603515625,-0.004478638060390949,-0.008095210418105125,0.05883695185184479
1690841550248007200,7.755007080078125,-0.004847485572099686,-0.008800681680440903,0.07210002839565277
1690841550258047000,7.765046875,-0.003593669505789876,-0.00800040178000927,0.07800425589084625
1690841550268087000,7.775087158203125,-0.006135923322290182,-0.002573146251961589,0.079865001142025
1690841550278128000,7.785128173828125,-0.004752144683152437,0.0060919807292521,0.06952767819166183
1690841550288168200,7.795168212890625,-0.004268248099833727,0.014913436025381088,0.05181898921728134
1690841550298208000,7.8052080078125,-0.005717274267226458,0.019940685480833054,0.027287812903523445
1690841550308248000,7.815248046875,-0.003326288191601634,0.01878460682928562,0.003117762738838792
1690841550318289200,7.8252890625,-0.004251736681908369,0.017242636531591415,-0.026307238265872
1690841550328329000,7.835328857421875,-0.005900499876588583,0.007478688843548298,-0.05046530440449715
1690841550338369000,7.845369140625,-0.0039265644736588,-0.004914597608149052,-0.07193730771541595
1690841550348410000,7.85541015625,-0.005422728601843119,-0.01619095355272293,-0.08461954444646835
1690841550358450200,7.8654501953125,-0.004748682491481304,-0.0229955967515707,-0.08959486335515976
1690841550368521000,7.87552099609375,-0.006327670533210039,-0.026682477444410324,-0.08926889300346375
1690841550378561000,7.88556103515625,-0.006548446603119373,-0.025184182450175285,-0.08330421149730682
1690841550388601000,7.89560107421875,-0.005860818549990654,-0.02159876935184002,-0.07714352011680603
1690841550398641200,7.90564111328125,-0.005045092198997736,-0.015921974554657936,-0.06292703747749329
1690841550408682000,7.915681884765625,-0.004677309654653072,-0.006558566819876432,-0.04884370416402817
1690841550418722000,7.92572216796875,-0.004054130055010319,0.0017249294323846698,-0.032458074390888214
1690841550428762000,7.93576220703125,-0.005082376766949892,0.007154049351811409,-0.01624341867864132
1690841550438803200,7.94580322265625,-0.005609150044620037,0.011143730953335762,-0.001680454588495195
1690841550448843000,7.955843017578125,-0.003984089009463787,0.013006879016757011,0.0113400062546134
1690841550458883000,7.965883056640625,-0.0030360035598278046,0.012193283066153526,0.02377350628376007
1690841550468923100,7.975923095703125,-0.004531368613243103,0.009699765592813492,0.0309323500841856
1690841550478964000,7.9859638671875,-0.004178766161203384,0.0017025588313117623,0.03405037894845009
1690841550489004000,7.996004150390625,-0.005594236310571432,0.0015733955660834908,0.03197044879198074
1690841550499075000,8.006074951171875,-0.005771602503955364,-0.0036506610922515392,0.02695172280073166
1690841550509093400,8.01609326171875,-0.004441619850695133,-0.005219263024628162,0.014129933901131153
1690841550519133400,8.026133544921874,-0.006819023750722408,-0.0016924388473853469,0.0003616572648752481
1690841550529174300,8.03617431640625,-0.007220628671348095,-0.0026940538082271814,-0.01444205641746521
1690841550539214300,8.04621435546875,-0.005787048954516649,-0.0014500912511721253,-0.03212118521332741
1690841550549254400,8.05625439453125,-0.006648048758506775,-0.0003270361921750009,-0.04320313036441803
1690841550559294200,8.066294189453124,-0.005342833697795868,-0.0002825613773893565,-0.05398440361022949
1690841550569335300,8.076335205078125,-0.005570534151047468,-0.0020325244404375553,-0.05970114842057228
1690841550579375400,8.086375244140624,-0.00487145408987999,-0.0047090016305446625,-0.060921408236026764
1690841550589415400,8.09641552734375,-0.004578240215778351,-0.009721603244543076,-0.05974429100751877
1690841550599456300,8.106456298828125,-0.004991030320525169,-0.01041295938193798,-0.05343712493777275
1690841550609496300,8.116496337890625,-0.005115932319313288,-0.011668906547129154,-0.04543619230389595
1690841550619536400,8.126536376953124,-0.0067758806981146336,-0.009579923003911972,-0.037930071353912354
1690841550629607400,8.136607421875,-0.003772101365029812,-0.008587895892560482,-0.02816346101462841
1690841550639647200,8.146647216796875,-0.0038922098465263844,-0.004025101661682129,-0.017431987449526787
1690841550649688300,8.156688232421875,-0.004788896068930626,0.0007688545738346875,-0.010847854427993298
1690841550659728400,8.166728271484375,-0.003975034225732088,0.001669003046117723,-0.0017025588313117623
1690841550669768400,8.1767685546875,-0.005578523501753807,0.005450691562145948,0.003713511861860752
1690841550679808300,8.186808349609375,-0.005233377683907747,0.004869856406003237,0.006742058787494898
1690841550689849300,8.196849365234375,-0.00395799009129405,0.005434446502476931,0.008479504846036434
1690841550699889400,8.206889404296875,-0.0065678879618644714,0.0036224317736923695,0.007897604256868362
1690841550709929200,8.21692919921875,-0.005044825840741396,0.002924417145550251,0.0028573055751621723
1690841550719970300,8.22697021484375,-0.004381432663649321,0.001933454885147512,-0.004003796260803938
1690841550730010400,8.23701025390625,-0.003753991797566414,-0.0031286815647035837,-0.013220197521150112
1690841550740050400,8.247050537109375,-0.0031366711482405663,-0.004584631882607937,-0.02094709314405918
1690841550750090200,8.25709033203125,-0.006382531952112913,-0.00535375252366066,-0.029171466827392578
1690841550760161300,8.267161376953124,-0.005477323196828365,-0.004473578184843063,-0.03302505984902382
1690841550770201300,8.277201416015625,-0.00424348097294569,-0.005196892656385899,-0.039795082062482834
1690841550780242400,8.287242431640625,-0.004048537462949753,-0.004975850228220224,-0.0419519767165184
1690841550790282200,8.2972822265625,-0.005132976453751326,-0.0036991306114941835,-0.04088032245635986
1690841550800322300,8.307322265625,-0.005508216097950935,-0.0038655782118439674,-0.04060761258006096
1690841550810363400,8.31736328125,-0.004257329273968935,-0.003340935567393899,-0.03687945380806923
1690841550820403500,8.327403564453125,-0.00466559175401926,-0.0037670412566512823,-0.03062795102596283
1690841550830443300,8.337443359375,-0.004216316621750593,-0.0010697918478399515,-0.02659858763217926
1690841550840483300,8.3474833984375,-0.006138586439192295,-0.0035217641852796078,-0.0197281651198864
1690841550850524400,8.3575244140625,-0.0038099181838333607,-0.0019382486352697015,-0.013762683607637882
1690841550860564200,8.367564208984374,-0.002953711897134781,-0.001907089608721435,-0.010154632851481438
1690841550870604300,8.377604248046875,-0.0038157771341502666,-0.0009113337146118283,-0.00740119069814682
1690841550880675300,8.38767529296875,-0.004508199170231819,-0.0024431839119642973,-0.005821403581649065
1690841550890715400,8.39771533203125,-0.004960670135915279,-0.00043755737715400755,-0.004456267226487398
1690841550900756500,8.407756591796876,-0.005637379363179207,-0.00024288028362207115,-0.0062155514024198055
1690841550910796300,8.41779638671875,-0.004550543148070574,0.002118811011314392,-0.007199056912213564
1690841550920836400,8.42783642578125,-0.007300789933651686,-0.0010037453612312675,-0.010322146117687225
1690841550930877400,8.43787744140625,-0.0055034225806593895,-0.002255697501823306,-0.015562980435788631
1690841550940917200,8.447917236328125,-0.004795021377503872,-0.0007257114048115909,-0.020987840369343758
1690841550950957300,8.457957275390624,-0.004775846842676401,-0.0028855351265519857,-0.02618073672056198
1690841550960997400,8.467997314453125,-0.005089300684630871,-0.0008751147543080151,-0.028795428574085236
1690841550971038500,8.47803857421875,-0.005240834783762693,-0.0046360306441783905,-0.032461270689964294
1690841550981078300,8.488078369140625,-0.0038250982761383057,-0.004001133143901825,-0.03275102376937866
1690841550991118300,8.498118408203124,-0.004876248072832823,-0.005960687063634396,-0.032710008323192596
1690841551001159400,8.508159423828126,-0.004826446995139122,-0.005340436939150095,-0.031145136803388596
1690841551011229200,8.518229248046875,-0.004852545913308859,-0.0035601137205958366,-0.02997574210166931
1690841551021270300,8.528270263671875,-0.0054906392470002174,-0.002138518262654543,-0.026814304292201996
1690841551031310300,8.538310302734375,-0.0057316552847623825,-0.004328169394284487,-0.02353808283805847
1690841551041350400,8.548350341796874,-0.004576109815388918,-0.0022365227341651917,-0.019536683335900307
1690841551051390500,8.558390380859375,-0.0046698530204594135,0.000003994741746282671,-0.017917482182383537
1690841551061431300,8.568431396484375,-0.0044051348231732845,0.0020386497490108013,-0.016500679776072502
1690841551071471400,8.578471435546875,-0.003102849004790187,0.0009896307019516826,-0.013848970644176006
1690841551081511200,8.58851123046875,-0.0039009982720017433,0.00004420847471919842,-0.012108327820897102
1690841551091552300,8.59855224609375,-0.00567066902294755,-0.002418150193989277,-0.01272671390324831
1690841551101592300,8.60859228515625,-0.004505536053329706,-0.0032945964485406876,-0.0120087256655097
1690841551111632400,8.61863232421875,-0.0049012815579771996,-0.0031217574141919613,-0.014459899626672268
1690841551121672400,8.62867236328125,-0.0041822283528745174,-0.004624579101800919,-0.017249293625354767
1690841551131713300,8.63871337890625,-0.003871171036735177,-0.0018975022248923779,-0.0181659534573555
1690841551141784300,8.648784423828126,-0.0047090016305446625,-0.00281948852352798,-0.02160276286303997
1690841551151824100,8.65882421875,-0.003683950752019882,-0.001454618526622653,-0.022585203871130943
1690841551161864200,8.6688642578125,-0.003841077210381627,-0.00213612150400877,-0.02468191087245941
1690841551171904300,8.678904296875,-0.005055745132267475,-0.0035984632559120655,-0.027641480788588524
1690841551181945300,8.6889453125,-0.0035867453552782536,-0.0014508900931105018,-0.026129072532057762
1690841551191985400,8.6989853515625,-0.0025933862198144197,-0.0043984767980873585,-0.026756778359413147
1690841551202025500,8.709025390625,-0.0040442761965096,-0.002912965603172779,-0.02582174353301525
1690841551212065500,8.7190654296875,-0.005688512232154608,-0.0018042916199192405,-0.024645958095788956
1690841551222106400,8.7291064453125,-0.003716441337019205,-0.0052118063904345036,-0.021735655143857002
1690841551232146200,8.739146240234374,-0.005334311630576849,-0.0029443909879773855,-0.019483154639601707
1690841551242186200,8.749186279296875,-0.0026072347536683083,-0.002159557305276394,-0.018383268266916275
1690841551252227300,8.759227294921875,-0.004033890087157488,0.00010519486386328936,-0.01865917257964611
1690841551262267400,8.769267333984375,-0.004944158717989922,-0.0023611586075276136,-0.01854039542376995
1690841551272338400,8.77933837890625,-0.004800613969564438,-0.002621083054691553,-0.016079368069767952
1690841551282378500,8.78937841796875,-0.005589708685874939,-0.0006061354652047157,-0.01642797514796257
1690841551292418300,8.799418212890625,-0.004475175868719816,-0.0007281082216650248,-0.015247662551701069
1690841551302459100,8.809459228515625,-0.005164934787899256,-0.0018796591321006417,-0.014637266285717487
1690841551312499200,8.819499267578125,-0.0048975530080497265,-0.00236222380772233,-0.01708284579217434
1690841551322539300,8.829539306640624,-0.004062119405716658,-0.0007928230334073305,-0.017895109951496124
1690841551332579300,8.839579345703125,-0.004881041590124369,-0.0016735304379835725,-0.020071977749466896
1690841551342620400,8.849620361328125,-0.005404086317867041,-0.0027353328187018633,-0.021615546196699142
1690841551352660500,8.859660400390625,-0.005310609471052885,-0.0016876452136784792,-0.02485954388976097
1690841551362700300,8.8697001953125,-0.005114334635436535,-0.0031403994653373957,-0.023389212787151337
1690841551372741000,8.8797412109375,-0.004785700235515833,-0.005674397107213736,-0.02575995773077011
1690841551382781200,8.88978125,-0.0034296188969165087,-0.0029406624380499125,-0.024507207795977592
1690841551392852200,8.899852294921875,-0.0037819549906998873,-0.0020684772171080112,-0.02376098930835724
1690841551402892300,8.909892333984375,-0.005142031237483025,-0.0029648973140865564,-0.02401345781981945
1690841551412932400,8.919932373046874,-0.00549303600564599,-0.0030506509356200695,-0.022960975766181946
1690841551422972400,8.929972412109375,-0.005149754695594311,-0.002168345730751753,-0.02130289189517498
1690841551433013500,8.940013427734375,-0.005024319514632225,-0.0019126823171973228,-0.018982212990522385
1690841551443053300,8.95005322265625,-0.00475400872528553,-0.0004394215648062527,-0.02003123238682747
1690841551453093400,8.96009326171875,-0.004875182639807463,-0.0035060516092926264,-0.017829064279794693
1690841551463134200,8.97013427734375,-0.005105812568217516,-0.0024828650057315826,-0.017902301624417305
1690841551473174300,8.98017431640625,-0.005503954831510782,-0.0014421016676351428,-0.018763301894068718
1690841551483214300,8.99021435546875,-0.003060770919546485,-0.0003099919413216412,-0.01878220960497856
1690841551493254400,9.00025439453125,-0.004201136529445648,-0.000666322885081172,-0.01823519729077816
1690841551503295500,9.01029541015625,-0.004135356284677982,-0.0017246630741283298,-0.019330553710460663
1690841551513341700,9.020341796875,-0.00535614974796772,-0.0011150655336678028,-0.020061857998371124
1690841551523412700,9.030412841796876,-0.00449861166998744,-0.002900714986026287,-0.020497018471360207
1690841551533452500,9.04045263671875,-0.005474926438182592,-0.006512227933853865,-0.022905316203832626
1690841551543492600,9.05049267578125,-0.005368666257709265,-0.0016045545926317573,-0.022711170837283134
1690841551553533400,9.060533447265625,-0.005502357147634029,-0.0051628039218485355,-0.023856597021222115
1690841551563573500,9.070573486328126,-0.003959587775170803,-0.0009624664089642465,-0.02123977430164814
1690841551573613600,9.080613525390625,-0.0051628039218485355,-0.0035087147261947393,-0.020850153639912605
1690841551583654700,9.090654541015626,-0.005922337528318167,-0.0035294874105602503,-0.024033697322010994
1690841551593694700,9.10069482421875,-0.006686398293823004,-0.0036160401068627834,-0.02147306688129902
1690841551603734500,9.110734619140626,-0.003876763628795743,-0.0023939155507832766,-0.021674135699868202
1690841551613774600,9.120774658203125,-0.00561074772849679,-0.002406165935099125,-0.021980399265885353
1690841551623815400,9.1308154296875,-0.004996622912585735,-0.002255164785310626,-0.021644042804837227
1690841551633855500,9.14085546875,-0.0038211036007851362,-0.0006487460341304541,-0.019946543499827385
1690841551643895600,9.1508955078125,-0.0036735644098371267,0.00020213393145240843,-0.019626431167125702
1690841551653966600,9.160966552734376,-0.006131662055850029,-0.0026011094450950623,-0.01919127069413662
1690841551664006400,9.17100634765625,-0.00398648576810956,-0.005932191386818886,-0.021152690052986145
1690841551674047700,9.1810478515625,-0.005596100352704525,-0.0025278725661337376,-0.01889432966709137
1690841551684087600,9.191087646484375,-0.0029888655990362167,-0.002796851797029376,-0.02208639308810234
1690841551694127600,9.201127685546876,-0.005351888481527567,-0.0018636800814419985,-0.0199822299182415
1690841551704167700,9.211167724609375,-0.004325239919126034,-0.001056209672242403,-0.02063044346868992
1690841551714208500,9.22120849609375,-0.003938016481697559,-0.0017864484107121825,-0.023625968024134636
1690841551724248600,9.23124853515625,-0.005735650192946196,-0.0033902039285749197,-0.022659506648778915
1690841551734288600,9.24128857421875,-0.003996073268353939,-0.0027654264122247696,-0.022043250501155853
1690841551744329700,9.251329833984375,-0.004193946253508329,-0.0010253170039504766,-0.021331386640667915
1690841551754369500,9.26136962890625,-0.0037505298387259245,-0.004789428785443306,-0.02105148881673813
1690841551764409600,9.27140966796875,-0.00410419749096036,-0.002519882982596755,-0.021024325862526894
1690841551774449700,9.28144970703125,-0.005357747431844473,-0.0010607370641082525,-0.020854415372014046
1690841551784520700,9.291520751953126,-0.005592371802777052,-0.001107076066546142,-0.02340439148247242
1690841551794561500,9.3015615234375,-0.00558012118563056,-0.001770203118212521,-0.019766513258218765
1690841551804601600,9.3116015625,-0.004627774935215712,-0.0012032161466777325,-0.0207686610519886
1690841551814641400,9.321641357421875,-0.006256830412894487,-0.0009675264009274542,-0.02003469504415989
1690841551824681500,9.331681396484376,-0.0037766287568956614,0.0006977482116781175,-0.021636852994561195
1690841551834722600,9.34172265625,-0.005298092495650053,-0.0032570459879934788,-0.020426178351044655
1690841551844762600,9.3517626953125,-0.005105013493448496,-0.00038056570338085294,-0.02058277279138565
1690841551854802700,9.361802734375,-0.0046354979276657104,-0.0009547432418912649,-0.01931564137339592
1690841551864842800,9.3718427734375,-0.005075186025351286,-0.0025209481827914715,-0.02099822647869587
1690841551874883600,9.381883544921875,-0.005501824431121349,-0.001079645473510027,-0.019458919763565063
1690841551884923600,9.391923583984376,-0.004265318624675274,-0.002624545246362686,-0.020709538832306862
1690841551894963500,9.40196337890625,-0.004640558268874884,-0.005643504671752453,-0.01943575032055378
1690841551905034500,9.412034423828125,-0.00443869037553668,-0.0019025622168555856,-0.020532438531517982
1690841551915074600,9.422074462890626,-0.004309793468564749,-0.003591272747144103,-0.019933493807911873
1690841551925115600,9.43211572265625,-0.004613127559423447,-0.0024016385432332754,-0.021163608878850937
1690841551935155700,9.44215576171875,-0.005520733073353767,-0.003994741477072239,-0.020060526207089424
1690841551945195800,9.45219580078125,-0.00435986090451479,-0.0010812433902174234,-0.02033509872853756
1690841551955236600,9.462236572265626,-0.004307929426431656,-0.0032674323301762342,-0.021016601473093033
1690841551965276400,9.4722763671875,-0.005260808393359184,-0.00236195744946599,-0.020830979570746422
1690841551975316500,9.48231640625,-0.005483981221914291,-0.003695668652653694,-0.022061092779040337
1690841551985356500,9.4923564453125,-0.005146292503923178,-0.0010455570882186294,-0.021230187267065048
1690841551995397600,9.502397705078126,-0.005233377683907747,-0.0023273364640772343,-0.019881829619407654
1690841552005437700,9.512437744140625,-0.005535646807402372,-0.002805373864248395,-0.0210695993155241
1690841552015477800,9.522477783203126,-0.004560397006571293,0.001389104756526649,-0.020128970965743065
1690841552025518600,9.5325185546875,-0.004280498716980219,-0.0016554208705201745,-0.01985706202685833
1690841552035588600,9.542588623046875,-0.0030370689928531647,-0.0009121326729655266,-0.01906796731054783
1690841552045629400,9.55262939453125,-0.003466104157269001,-0.0018730012234300375,-0.01949780061841011
1690841552055669500,9.56266943359375,-0.005008607171475887,0.00027377295191399753,-0.021168934181332588
1690841552065709600,9.57270947265625,-0.006443518213927746,-0.003180613275617361,-0.02046053297817707
1690841552075749600,9.58274951171875,-0.005409146659076214,-0.0017670074012130499,-0.02227095142006874
1690841552085790700,9.592790771484376,-0.005090099759399891,-0.0017803232185542583,-0.022876819595694542
1690841552095830800,9.602830810546875,-0.00378994457423687,-0.0015433018561452627,-0.020205402746796608
1690841552105870600,9.61287060546875,-0.004091946873813868,-0.003659449517726898,-0.022219019010663033
1690841552115911400,9.622911376953125,-0.005649097263813019,-0.0031196267809718847,-0.022413961589336395
1690841552125951500,9.632951416015626,-0.0059785302728414536,-0.0029228192288428545,-0.02069782093167305
1690841552135991600,9.642991455078125,-0.006470948923379183,-0.000877511571161449,-0.022334866225719452
1690841552146031600,9.653031494140626,-0.004634166602045298,-0.0049036783166229725,-0.02068929933011532
1690841552156072700,9.66307275390625,-0.0052168662659823895,-0.004840828012675047,-0.021983861923217773
1690841552166143700,9.673143798828125,-0.0059598879888653755,-0.005805424880236387,-0.020442424342036247
1690841552176183800,9.683183837890626,-0.004727110732346773,-0.004367318004369736,-0.020436033606529236
1690841552186223600,9.6932236328125,-0.0037673076149076223,-0.00012729909212794155,-0.01990712806582451
1690841552196263400,9.703263427734376,-0.00535348616540432,-0.005074120592325926,-0.02021845243871212
1690841552206304500,9.713304443359375,-0.005674663465470076,-0.003859453136101365,-0.02221209555864334
1690841552216344600,9.723344482421876,-0.00407623453065753,-0.0013041499769315124,-0.02171941101551056
1690841552226384600,9.733384521484375,-0.003926032222807407,-0.0034261567052453756,-0.021832061931490898
1690841552236425700,9.74342578125,-0.0039084553718566895,-0.0002932140196207911,-0.02008689194917679
1690841552246465800,9.7534658203125,-0.005386775825172663,-0.0036602485924959183,-0.02148611657321453
1690841552256505600,9.763505615234376,-0.004328702110797167,-0.0009946906939148903,-0.02058463729918003
1690841552266545400,9.77354541015625,-0.00455800024792552,-0.004490622319281101,-0.020267721265554428
1690841552276586500,9.78358642578125,-0.006091714836657047,-0.0023694143164902925,-0.020858677104115486
1690841552286626600,9.79362646484375,-0.004765992984175682,-0.0020450414158403873,-0.019846942275762558
1690841552296697600,9.803697509765625,-0.005477323196828365,-0.0022743395529687405,-0.01907036453485489
1690841552306737700,9.813737548828126,-0.003858920419588685,-0.002799781272187829,-0.020019248127937317
1690841552316777700,9.82377783203125,-0.004259992390871048,-0.0008500810363329947,-0.020363328978419304
1690841552326818800,9.83381884765625,-0.006344981025904417,-0.0038866172544658184,-0.020845893770456314
1690841552336858600,9.843858642578125,-0.005964415613561869,-0.003736148588359356,-0.020611535757780075
1690841552346898400,9.8538984375,-0.003935352899134159,-0.0036064526066184044,-0.02154923416674137
1690841552356938500,9.8639384765625,-0.004656536970287561,-0.003742273896932602,-0.017768876627087593
1690841552366979600,9.8739794921875,-0.004270112607628107,-0.003469033632427454,-0.0214829221367836
1690841552377019600,9.88401953125,-0.005936452187597752,0.00009827064059209079,-0.022012358531355858
1690841552387059700,9.894059814453126,-0.004817924462258816,-0.002283926820382476,-0.02130129374563694
1690841552397100800,9.904100830078125,-0.004283161833882332,-0.0017891116440296173,-0.021155085414648056
1690841552407140600,9.914140625,-0.0041609229519963264,-0.002572613535448909,-0.020976655185222626
1690841552417211600,9.924211669921876,-0.005209143273532391,-0.0003787015157286078,-0.019906330853700638
1690841552427251500,9.93425146484375,-0.004372111521661282,-0.0023491743486374617,-0.02015799842774868
1690841552437291500,9.94429150390625,-0.0049074068665504456,-0.00299259414896369,-0.022188926115632057
1690841552447332600,9.95433251953125,-0.00373135507106781,-0.0020969731267541647,-0.02082059346139431
1690841552457372700,9.96437255859375,-0.0038546593859791756,-0.003096190979704261,-0.020963871851563454
1690841552467412500,9.97441259765625,-0.0057564228773117065,-0.002834934974089265,-0.02027091756463051
1690841552477452500,9.98445263671875,-0.0049646650440990925,-0.0021795309148728848,-0.02039794996380806
1690841552487493600,9.99449365234375,-0.005509547423571348,-0.002641589380800724,-0.01902269385755062
1690841552497533400,10.004533447265626,-0.003483681008219719,-0.0023126890882849693,-0.02274366095662117
1690841552507554000,10.014553955078124,-0.0038189729675650597,0.0009243832319043577,-0.019095662981271744
1690841552517594000,10.024593994140625,-0.005775597412139177,-0.0008735168376006186,-0.019108979031443596
1690841552527635200,10.03463525390625,-0.005769738461822271,-0.0012189288390800357,-0.01925678551197052
1690841552537675000,10.044675048828125,-0.006132194772362709,-0.0013901700731366873,-0.020897025242447853
1690841552547746000,10.05474609375,-0.005536179058253765,-0.0019084211671724916,-0.020157465711236
1690841552557786000,10.0647861328125,-0.003943076357245445,-0.0020357202738523483,-0.0215351190418005
1690841552567826000,10.074825927734375,-0.005144162103533745,-0.00421285443007946,-0.020716730505228043
1690841552577867000,10.084866943359375,-0.003910053055733442,-0.0021262678783386946,-0.01980672776699066
1690841552587907000,10.094906982421875,-0.004723382648080587,-0.001969407545402646,-0.020473582670092583
1690841552597947100,10.104947021484374,-0.003870105603709817,-0.0034117756877094507,-0.021641645580530167
1690841552607988200,10.11498828125,-0.006074403878301382,-0.002799781272187829,-0.021032048389315605
1690841552618028000,10.125028076171875,-0.005510612856596708,-0.001371527905575931,-0.018281536176800728
1690841552628068000,10.135068115234375,-0.005344964098185301,-0.0029728866647928953,-0.02184457890689373
1690841552638108000,10.14510791015625,-0.0036724992096424103,-0.003531351685523987,-0.020967599004507065
1690841552648149000,10.15514892578125,-0.0045572011731565,-0.0035380094777792692,-0.02273540571331978
1690841552658189000,10.16518896484375,-0.007626760751008987,0.0003051982494071126,-0.01973135955631733
1690841552668229000,10.17522900390625,-0.0039880839176476,-0.0011323761427775025,-0.020870395004749298
1690841552678300000,10.1852998046875,-0.005134574603289366,-0.001544100814498961,-0.021313011646270752
1690841552688340000,10.195340087890624,-0.005841111298650503,-0.004683967679738998,-0.022120214998722076
1690841552698381000,10.205381103515625,-0.0049375006929039955,-0.001826662220992148,-0.021821675822138786
1690841552708420900,10.2154208984375,-0.004863997455686331,-0.002686596941202879,-0.021509019657969475
1690841552718461000,10.2254609375,-0.00606401776894927,-0.0010538127971813083,-0.020234165713191032
1690841552728501000,10.2355009765625,-0.006286924239248037,-0.00330338510684669,-0.020797157660126686
1690841552738542000,10.2455419921875,-0.00418515782803297,-0.00022397184511646628,-0.021523933857679367
1690841552748582100,10.25558203125,-0.0051598744466900826,-0.0015590144321322441,-0.020727382972836494
1690841552758622000,10.2656220703125,-0.005401689559221268,-0.0003326288133393973,-0.023018766194581985
1690841552768663000,10.2756630859375,-0.004969724919646978,-0.0027209515683352947,-0.0191997941583395
1690841552778702800,10.285702880859375,-0.00538464542478323,0.00022796659322921187,-0.02101047709584236
1690841552788743000,10.295742919921874,-0.0041284323669970036,-0.0033329459838569164,-0.019347332417964935
1690841552798783000,10.305782958984375,-0.0041132522746920586,-0.00105328019708395,-0.02015666663646698
1690841552808854000,10.31585400390625,-0.0056919739581644535,-0.0033547841012477875,-0.021746041253209114
1690841552818895000,10.32589501953125,-0.005498362239450216,-0.0021201425697654486,-0.019840283319354057
1690841552828935000,10.335934814453125,-0.005537777207791805,-0.0017262609908357263,-0.02045813761651516
1690841552838975000,10.34597509765625,-0.003712979145348072,-0.0017022925894707441,-0.019991550594568253
1690841552849015000,10.35601513671875,-0.003762780223041773,0.00005246427463134751,-0.020314592868089676
1690841552859055900,10.366055908203125,-0.005524194799363613,-0.004147606901824474,-0.01996704936027527
1690841552869096000,10.376095947265625,-0.0036639769095927477,-0.004450940992683172,-0.020118851214647293
1690841552879136000,10.386135986328124,-0.003923901356756687,-0.0010061422362923622,-0.02104962430894375
1690841552889177000,10.396177001953125,-0.0054581486620008945,-0.001570998691022396,-0.020441092550754547
1690841552899217000,10.406216796875,-0.0046544065698981285,-0.001187503570690751,-0.018755044788122177
1690841552909257000,10.416257080078125,-0.004354001954197884,-0.003367833560332656,-0.022006232291460037
1690841552919297000,10.426297119140624,-0.005417402368038893,-0.0006559365428984165,-0.022278673946857452
1690841552929368000,10.4363681640625,-0.005594502668827772,-0.0036392095498740673,-0.020238425582647324
1690841552939408100,10.446408203125,-0.006637129932641983,-0.003950799349695444,-0.019949207082390785
1690841552949449000,10.456448974609375,-0.006167614832520485,-0.0017251957906410098,-0.02076360210776329
1690841552959489000,10.466489013671875,-0.003757720347493887,-0.002174204681068659,-0.020679179579019547
1690841552969528800,10.47652880859375,-0.006244313903152943,-0.0020269318483769894,-0.02154816873371601
1690841552979570000,10.48656982421875,-0.0038663772866129875,-0.0019832560792565346,-0.020115921273827553
1690841552989610000,10.49660986328125,-0.005066397599875927,-0.002284725895151496,-0.019934559240937233
1690841552999650000,10.506650146484375,-0.0038221688009798527,-0.0030269487760961056,-0.020230170339345932
1690841553009690000,10.516690185546874,-0.004312190227210522,-0.0016429040115326643,-0.02015267312526703
1690841553019731000,10.52673095703125,-0.0038959383964538574,-0.0011701929615810513,-0.021826468408107758
1690841553029771000,10.53677099609375,-0.003923102747648954,-0.002129996195435524,-0.021086642518639565
1690841553039810800,10.546810791015625,-0.003983023576438427,-0.003753725439310074,-0.01985839381814003
1690841553049852000,10.556851806640625,-0.005437908694148064,-0.002671416848897934,-0.02256070263683796
1690841553059922000,10.566921875,-0.004728975240141153,-0.0017787253018468618,-0.021930865943431854
1690841553069963000,10.576962890625,-0.005016596522182226,-0.0017054883064702153,-0.020190222188830376
1690841553080003000,10.587003173828125,-0.004733502399176359,-0.003355582943186164,-0.020731909200549126
1690841553090043100,10.597043212890625,-0.0057383133098483086,-0.0011803129455074668,-0.021282386034727097
1690841553100084000,10.607083984375,-0.004914331249892712,-0.001603489276021719,-0.02069622278213501
1690841553110124000,10.6171240234375,-0.004967061802744865,-0.002769687445834279,-0.020594224333763123
1690841553120163800,10.627163818359374,-0.005562810692936182,-0.0032080437522381544,-0.021506624296307564
1690841553130204000,10.637203857421875,-0.0044173854403197765,-0.0021497036796063185,-0.021411282941699028
1690841553140245000,10.647244873046875,-0.003692206460982561,-0.0038919434882700443,-0.01937050186097622
1690841553150285000,10.65728515625,-0.00512951472774148,-0.0032746228389441967,-0.02026958577334881
1690841553160325000,10.6673251953125,-0.003990480676293373,-0.0020807278342545033,-0.021134845912456512
1690841553170365200,10.677365234375,-0.004883438348770142,-0.0017398431664332747,-0.022217687219381332
1690841553180406000,10.687406005859375,-0.004741491749882698,-0.004801945760846138,-0.019224826246500015
1690841553190476800,10.697476806640625,-0.005800897255539894,-0.0010772485984489322,-0.021397966891527176
1690841553200516900,10.707516845703125,-0.004248274490237236,-0.0010759170399978757,-0.021814484149217606
1690841553210557000,10.717556884765624,-0.004693022463470697,-0.00021917815320193768,-0.02118358202278614
1690841553220597000,10.727596923828125,-0.00509915454313159,-0.002442651428282261,-0.021640313789248466
1690841553230638000,10.73763818359375,-0.006705573294311762,-0.00490181427448988,-0.02178572304546833
1690841553240678100,10.74767822265625,-0.003421362955123186,-0.002409628126770258,-0.022067485377192497
1690841553250718200,10.75771826171875,-0.004173972178250551,-0.0024487765040248632,-0.021852567791938782
1690841553260759000,10.767759033203125,-0.005063201766461134,-0.002939064521342516,-0.020137758925557137
1690841553270798800,10.777798828125,-0.006133526097983122,-0.0026999127585440874,-0.021268270909786224
1690841553280839000,10.7878388671875,-0.0062523032538592815,-0.0020005665719509125,-0.02149144373834133
1690841553290879000,10.79787890625,-0.0046424223110079765,-0.005281048361212015,-0.019232284277677536
1690841553300920000,10.807920166015625,-0.005527390632778406,-0.0017121462151408195,-0.021738052368164062
1690841553310960000,10.817960205078125,-0.005197159014642239,-0.0025502429343760014,-0.02027171663939953
1690841553321031200,10.82803125,-0.0036762275267392397,-0.0043649207800626755,-0.020016850903630257
1690841553331071000,10.838071044921875,-0.003834685543552041,-0.001097755040973425,-0.021793179214000702
1690841553341111000,10.848111083984374,-0.0028423918411135674,-0.0025036376900970936,-0.020743627101182938
1690841553351151900,10.85815185546875,-0.006013417616486549,-0.001580319833010435,-0.020556673407554626
1690841553361192000,10.86819189453125,-0.0054970309138298035,-0.0015478292480111122,-0.02279665879905224
1690841553371232000,10.87823193359375,-0.004230963997542858,-0.0026413232553750277,-0.018969429656863213
1690841553381272000,10.88827197265625,-0.005395830608904362,-0.004789162427186966,-0.02147999219596386
1690841553391313200,10.898313232421875,-0.003683684393763542,-0.0006378270918503404,-0.02028503082692623
1690841553401353200,10.908353271484375,-0.005148156546056271,-0.0025007082149386406,-0.020140156149864197
1690841553411393000,10.91839306640625,-0.0043803672306239605,-0.0023425165563821793,-0.019235746935009956
1690841553421433900,10.928433837890625,-0.005486644338816404,0.002373941708356142,-0.020536433905363083
1690841553431474000,10.938473876953125,-0.0038160434924066067,-0.0014982944121584296,-0.02081633172929287
1690841553441545000,10.948544921875,-0.003977164626121521,-0.00032410668791271746,-0.02149064466357231
1690841553451585000,10.9585849609375,-0.002907639369368553,0.0012871057260781527,-0.019646938890218735
1690841553461625000,10.968625,-0.003881557146087289,-0.00041758365114219487,-0.021947909146547318
1690841553471666200,10.978666259765625,-0.002855707658454776,-0.001073786523193121,-0.01992976665496826
1690841553481706000,10.9887060546875,-0.0075884112156927586,-0.0020245350897312164,-0.021470671519637108
1690841553491746000,10.99874609375,-0.005386775825172663,-0.0024051007349044085,-0.02021552249789238
1690841553501786000,11.0087861328125,-0.006312224548310041,-0.004692223388701677,-0.018665829673409462
1690841553511822300,11.018822265625,-0.004978779703378677,-0.002295911079272628,-0.021146031096577644
1690841553521862400,11.0288623046875,-0.004070109222084284,-0.0013672668719664216,-0.01901230774819851
1690841553531902500,11.03890234375,-0.004400873556733131,-0.001871403306722641,-0.021877868101000786
1690841553541943600,11.048943603515625,-0.005059739574790001,-0.002510828198865056,-0.02081393450498581
1690841553551983600,11.058983642578125,-0.004969724919646978,-0.0022716764360666275,-0.019303124397993088
1690841553562023400,11.0690234375,-0.004968925844877958,-0.0026194851379841566,-0.020491160452365875
1690841553572094500,11.079094482421874,-0.0038890140131115913,-0.0030429279431700706,-0.021273596212267876
1690841553582134500,11.089134521484375,-0.005850964691489935,-0.0018575548892840743,-0.020262926816940308
1690841553592174600,11.099174560546874,-0.004281297791749239,-0.0030085730832070112,-0.023849673569202423
1690841553602215400,11.10921533203125,-0.005365204066038132,-0.0009137305896729231,-0.021033646538853645
1690841553612255500,11.11925537109375,-0.0037265613209456205,-0.0026642263401299715,-0.02118624560534954
1690841553622295600,11.129295654296875,-0.00475320965051651,-0.00030413299100473523,-0.022222215309739113
1690841553632336600,11.139336669921875,-0.005045624915510416,-0.0022455775178968906,-0.02040620520710945
1690841553642376400,11.14937646484375,-0.0057412427850067616,-0.0003307645965833217,-0.01876569725573063
1690841553652416500,11.15941650390625,-0.004508199170231819,-0.003305249148979783,-0.02118171751499176
1690841553662456600,11.16945654296875,-0.0049255164340138435,-0.002261290093883872,-0.0229354090988636
1690841553672497400,11.179497314453124,-0.005687446799129248,-0.0015358449891209602,-0.019959859549999237
1690841553682537500,11.189537353515625,-0.004993693437427282,-0.003728159237653017,-0.02028796076774597
1690841553692577500,11.19957763671875,-0.004431500099599361,0.00008628641808172688,-0.020131099969148636
1690841553702648300,11.2096484375,-0.004794755019247532,-0.0024413196370005608,-0.021142570301890373
1690841553712688400,11.2196884765625,-0.005389971658587456,-0.0025395904667675495,-0.02034362033009529
1690841553722729500,11.2297294921875,-0.003756921272724867,-0.000773381965700537,-0.020747356116771698
1690841553732769500,11.23976953125,-0.005774265620857477,-0.002954244613647461,-0.01992177590727806
1690841553742809600,11.2498095703125,-0.004774781409651041,-0.0011518171522766352,-0.02131008170545101
1690841553752849700,11.259849609375,-0.0054269894026219845,-0.0002540655550546944,-0.022661369293928146
1690841553762890500,11.269890380859374,-0.005204082932323217,-0.0002468750171829015,-0.020311929285526276
1690841553772930600,11.2799306640625,-0.004629373084753752,-0.00287408335134387,-0.021442973986268044
1690841553782970400,11.289970458984374,-0.005088502075523138,-0.0011707255616784096,-0.02082538604736328
1690841553793011500,11.300011474609375,-0.0057130130007863045,-0.003157177474349737,-0.02040993422269821
1690841553803051500,11.310051513671874,-0.0054427022114396095,-0.0017534252256155014,-0.020204337313771248
1690841553813091600,11.320091552734375,-0.005770271178334951,-0.0016929714474827051,-0.021454159170389175
1690841553823131600,11.330131591796874,-0.006720753386616707,-0.0009334379574283957,-0.0188439954072237
1690841553833202700,11.34020263671875,-0.005465871654450893,0.00012010856153210625,-0.020610736683011055
1690841553843243500,11.350243408203125,-0.0030828751623630524,-0.0010010822443291545,-0.01883520744740963
1690841553853283300,11.360283447265624,-0.005351089406758547,-0.004810201469808817,-0.02063550427556038
1690841553863323400,11.370323486328125,-0.006615025922656059,-0.0019867182709276676,-0.01817500963807106
1690841553873363500,11.380363525390624,-0.003498861100524664,-0.001413073274306953,-0.019414443522691727
1690841553883404500,11.390404541015625,-0.0046091326512396336,-0.0027196200098842382,-0.019814183935523033
1690841553893444600,11.400444580078124,-0.005559614859521389,-0.0011885687708854675,-0.021207284182310104
1690841553903484700,11.410484619140625,-0.005119128152728081,-0.0035332157276570797,-0.020484235137701035
1690841553913525500,11.420525390625,-0.0043718451634049416,0.00014567491598427296,-0.019348930567502975
1690841553923565600,11.430565673828125,-0.0052951630204916,-0.0032567796297371387,-0.019466908648610115
1690841553933605400,11.44060546875,-0.005583583377301693,-0.0021470405627042055,-0.02328561432659626
1690841553943645400,11.4506455078125,-0.003719637170433998,-0.0007821703911758959,-0.020983045920729637
1690841553953716500,11.460716552734375,-0.005741775035858154,-0.002858903491869569,-0.02191302180290222
1690841553963756500,11.470756591796874,-0.005541771650314331,-0.0019419770687818527,-0.019877834245562553
1690841553973797600,11.480797607421875,-0.004983839578926563,-0.0020847225096076727,-0.019172895699739456
1690841553983837700,11.490837646484374,-0.0057194046676158905,-0.0029731530230492353,-0.021746307611465454
1690841553993877500,11.50087744140625,-0.006170011591166258,-0.004553206264972687,-0.019354522228240967
1690841554003918300,11.51091845703125,-0.005299690645188093,-0.0011704593198373914,-0.020738035440444946
1690841554013958400,11.52095849609375,-0.005456816870719194,-0.002430400811135769,-0.0202176533639431
1690841554023998500,11.53099853515625,-0.004588892683386803,-0.003765443339943886,-0.021625399589538574
1690841554034038500,11.54103857421875,-0.005901831202208996,-0.0028855351265519857,-0.023488814011216164
1690841554044079600,11.55107958984375,-0.0049220542423427105,-0.001406947965733707,-0.021167868748307228
1690841554054119700,11.56111962890625,-0.004643221385776997,-0.0017710020765662193,-0.021624868735671043
1690841554064159500,11.571159423828124,-0.00390259618870914,-0.0031041805632412434,-0.020176908001303673
1690841554074200300,11.581200439453125,-0.004032824654132128,-0.001258876291103661,-0.019833626225590706
1690841554084270600,11.5912705078125,-0.007098389323800802,-0.0021558289881795645,-0.021372400224208832
1690841554094311400,11.6013115234375,-0.004835501778870821,-0.0007600661483593285,-0.021770276129245758
1690841554104351500,11.6113515625,-0.004632302559912205,-0.0009009473724290729,-0.018994996324181557
1690841554114391600,11.6213916015625,-0.002067944500595331,-0.002811232814565301,-0.02286643348634243
1690841554124432600,11.6314326171875,-0.004562527406960726,-0.002139583695679903,-0.020862404257059097
1690841554134472700,11.64147265625,-0.004532167688012123,-0.0028852687682956457,-0.02142912521958351
1690841554144512500,11.651512451171875,-0.00643845833837986,-0.0028762139845639467,-0.021626465022563934
1690841554154552600,11.661552490234374,-0.005075452383607626,-0.0018381137633696198,-0.021284515038132668
1690841554164593400,11.671593505859375,-0.004327903036028147,-0.0006420881254598498,-0.019965453073382378
1690841554174633500,11.681633544921874,-0.005314604379236698,-0.0035659726709127426,-0.02178465761244297
1690841554184673500,11.691673583984375,-0.004936701618134975,0.00042504051816649735,-0.021387048065662384
1690841554194714600,11.701714599609375,-0.004421912599354982,-0.0026972496416419744,-0.022828616201877594
