time,seconds_elapsed,z,y,x
1690840569893640400,0.033640380859375,-0.0017707358347252011,0.015117966569960117,0.16924868524074554
1690840569903681500,0.043681640625,-0.0005733785801567137,0.007755924016237259,0.16455087065696716
1690840569913721600,0.0537216796875,-0.0006439523422159255,-0.0031321437563747168,0.15082812309265137
1690840569923761700,0.06376171875,-0.004776113200932741,-0.012441223487257957,0.1252942681312561
1690840569933801700,0.0738017578125,-0.004505802411586046,-0.016715331003069878,0.08689095824956894
1690840569943842600,0.083842529296875,-0.006567621603608131,-0.017100423574447632,0.041123732924461365
1690840569953882400,0.09388232421875,-0.006386792752891779,-0.01455923542380333,-0.010028133168816566
1690840569963922400,0.10392236328125,-0.0036770266015082598,-0.0017387778498232365,-0.05991553142666817
1690840569973963500,0.113963623046875,-0.003564907470718026,0.005754824727773666,-0.10056016594171524
1690840569984003600,0.124003662109375,-0.00458649592474103,0.011872904375195503,-0.13251276314258575
1690840569994074600,0.13407470703125,-0.00421418622136116,0.01031788531690836,-0.15392139554023743
1690840570004114700,0.14411474609375,-0.004644020460546017,0.005379052832722664,-0.16520467400550842
1690840570014154500,0.154154541015625,-0.0062400526367127895,-0.001017593895085156,-0.16406084597110748
1690840570024194600,0.164194580078125,-0.0054392400197684765,-0.003911118488758802,-0.15319886803627014
1690840570034235400,0.1742353515625,-0.0044165863655507565,-0.007511978503316641,-0.13523398339748383
1690840570044275500,0.184275390625,-0.005058408249169588,-0.009378055110573769,-0.10664788633584976
1690840570054315500,0.1943154296875,-0.004113784991204739,-0.005950300954282284,-0.07663033157587051
1690840570064356600,0.204356689453125,-0.0041212416253983974,-0.005013667047023773,-0.042995937168598175
1690840570074396700,0.214396728515625,-0.004071706905961037,-0.0018016285030171275,-0.009734386578202248
1690840570084436700,0.224436767578125,-0.0041492050513625145,0.004865861497819424,0.025418007746338844
1690840570094476500,0.2344765625,-0.002880475018173456,0.0043862261809408665,0.04884610325098038
1690840570104517400,0.244517333984375,-0.0044072652235627174,0.005672533065080643,0.0705130472779274
1690840570114557400,0.254557373046875,-0.005938050337135792,0.0008250473183579743,0.08369410037994385
1690840570124597500,0.264597412109375,-0.004911135416477919,-0.003775297198444605,0.08841508626937866
1690840570134668500,0.27466845703125,-0.004364122170954943,-0.008293350227177143,0.08599267154932022
1690840570144708600,0.28470849609375,-0.004472246393561363,-0.011050786823034286,0.0759778544306755
1690840570154749700,0.294749755859375,-0.00350418733432889,-0.010544519871473312,0.05742094665765762
1690840570164789500,0.30478955078125,-0.004078364931046963,-0.006803844124078751,0.037223268300294876
1690840570174829600,0.31482958984375,-0.004624845460057259,-0.003945473115891218,0.012942164205014706
1690840570184869600,0.32486962890625,-0.003757187630981207,0.0023694143164902925,-0.015534218400716782
1690840570194910500,0.334910400390625,-0.005146292503923178,0.003242398612201214,-0.04205663874745369
1690840570204950500,0.344950439453125,-0.004680505488067865,0.0032772859558463097,-0.06205005571246147
1690840570214990600,0.354990478515625,-0.006457100156694651,-0.000009853695701167453,-0.08381074666976929
1690840570225031700,0.36503173828125,-0.005052016582340002,-0.0019771307706832886,-0.09578591585159302
1690840570235071700,0.37507177734375,-0.005259476602077484,-0.004061587154865265,-0.10294768959283829
1690840570245111600,0.385111572265625,-0.004495149478316307,-0.005672799423336983,-0.09929702430963516
1690840570255151600,0.395151611328125,-0.004739894066005945,-0.0059899818152189255,-0.09495367854833603
1690840570265192400,0.4051923828125,-0.005314071662724018,-0.005368666257709265,-0.08251911401748657
1690840570275232500,0.415232421875,-0.005661347880959511,-0.001136637176387012,-0.06743789464235306
1690840570285303600,0.425303466796875,-0.003495132550597191,-0.0001483380765421316,-0.04735313355922699
1690840570295343600,0.435343505859375,-0.0046549392864108086,0.0032346753869205713,-0.028784776106476784
1690840570305383400,0.445383544921875,-0.0037412086967378855,0.0010998855577781796,-0.008413458243012428
1690840570315424500,0.455424560546875,-0.00566880451515317,0.0005305017111822963,0.007738879881799221
1690840570325464600,0.465464599609375,-0.004413124173879623,-0.002767290687188506,0.023566579446196556
1690840570335504600,0.475504638671875,-0.005398227367550135,-0.006967628374695778,0.03203063830733299
1690840570345545500,0.48554541015625,-0.005072256550192833,-0.0059835901483893394,0.03801795467734337
1690840570355585500,0.49558544921875,-0.004084490239620209,-0.009674465283751488,0.0386296845972538
1690840570365625600,0.50562548828125,-0.005404352676123381,-0.004477838985621929,0.033973414450883865
1690840570375665400,0.51566552734375,-0.005335377063602209,-0.003931624814867973,0.027539215981960297
1690840570385706500,0.52570654296875,-0.005167331546545029,-0.0010644654976204038,0.014768825843930244
1690840570395746600,0.53574658203125,-0.00458702864125371,0.00019334549142513424,0.0037462685722857714
1690840570405786600,0.54578662109375,-0.002785400254651904,-0.0007709851488471031,-0.01031602080911398
1690840570415827500,0.555827392578125,-0.004825914278626442,0.002700711600482464,-0.02623346820473671
1690840570425867500,0.565867431640625,-0.004199006129056215,-0.002662362065166235,-0.04183826223015785
1690840570435938600,0.5759384765625,-0.004904477391391993,-0.003777693957090378,-0.05194682255387306
1690840570445978600,0.585978515625,-0.005003546830266714,-0.0028578380588442087,-0.06251370906829834
1690840570456018400,0.596018310546875,-0.006318083498626947,-0.004207528196275234,-0.06312171369791031
1690840570466058500,0.60605859375,-0.004135356284677982,-0.001204814063385129,-0.06598221510648727
1690840570476099600,0.616099609375,-0.005242166109383106,-0.003918042406439781,-0.059602875262498856
1690840570486139600,0.6261396484375,-0.004026167094707489,-0.00018695391190703958,-0.054897602647542953
1690840570496179500,0.636179443359375,-0.003677825443446636,-0.0012990899849683046,-0.045640986412763596
1690840570506220500,0.646220458984375,-0.00475400872528553,-0.0007326356135308743,-0.03658171370625496
1690840570516260600,0.656260498046875,-0.0042733084410429,-0.0007065366371534765,-0.026087259873747826
1690840570526300400,0.666300537109375,-0.004143878817558289,-0.0006623281515203416,-0.014537929557263851
1690840570536340500,0.676340576171875,-0.0065199509263038635,-0.0018490327056497335,-0.0046754456125199795
1690840570546381600,0.686381591796875,-0.00637906976044178,-0.0034144388046115637,0.0034405377227813005
1690840570556421600,0.696421630859375,-0.004876514431089163,-0.0046570696868002415,0.008930377662181854
1690840570566461400,0.70646142578125,-0.004959338344633579,-0.005626194179058075,0.01073866430670023
1690840570576502500,0.71650244140625,-0.004883971065282822,-0.0027622305788099766,0.011393003165721893
1690840570586572500,0.726572509765625,-0.005137237720191479,-0.0027324033435434103,0.008509332314133644
1690840570596614000,0.73661376953125,-0.005379052832722664,-0.0031273500062525272,0.004749215207993984
1690840570606654000,0.746654052734375,-0.003993410151451826,-0.00030866035376675427,-0.0032373385038226843
1690840570616693800,0.75669384765625,-0.0031135017052292824,-0.0020184097811579704,-0.01092455256730318
1690840570626734800,0.76673486328125,-0.005253884010016918,-0.0014719291357323527,-0.017541443929076195
1690840570636774700,0.776774658203125,-0.004708468914031982,-0.002567820018157363,-0.027788221836090088
1690840570646814700,0.786814697265625,-0.0049129994586110115,-0.0022455775178968906,-0.03437421843409538
1690840570656854800,0.796854736328125,-0.004053330980241299,-0.0014434333425015211,-0.038185469806194305
1690840570666896000,0.806895751953125,-0.005350024439394474,-0.003999535460025072,-0.04309287667274475
1690840570676936000,0.81693603515625,-0.004413124173879623,-0.000022370553779182956,-0.04363935440778732
1690840570686975700,0.826975830078125,-0.0052384380251169205,-0.0027300063520669937,-0.04187820851802826
1690840570697015800,0.837015869140625,-0.0037768951151520014,-0.003722566645592451,-0.042813777923583984
1690840570707056600,0.847056640625,-0.005298358853906393,-0.0017209346406161785,-0.0386296845972538
1690840570717096700,0.8570966796875,-0.0054970309138298035,-0.0018229337874799967,-0.030479878187179565
1690840570727136800,0.86713671875,-0.004713795147836208,-0.0019976370967924595,-0.025178058072924614
1690840570737207800,0.877207763671875,-0.004157194402068853,-0.0019502328941598535,-0.020611535757780075
1690840570747247900,0.887247802734375,-0.004295412451028824,-0.00350418733432889,-0.01655048131942749
1690840570757289000,0.8972890625,-0.004542021080851555,-0.0015132081462070346,-0.009157279506325722
1690840570767328800,0.907328857421875,-0.004859469830989838,-0.0031212246976792812,-0.007435812149196863
1690840570777368800,0.917368896484375,-0.006690659560263157,-0.004234159830957651,-0.003305515507236123
1690840570787409700,0.92740966796875,-0.0043747746385633945,-0.0034914042335003614,-0.003299123840406537
1690840570797449700,0.93744970703125,-0.005118595436215401,-0.003195527009665966,-0.002758235903456807
1690840570807489800,0.94748974609375,-0.004554271697998047,-0.001746234716847539,-0.008176703006029129
1690840570817529900,0.95752978515625,-0.00577746145427227,-0.0010167949367314577,-0.010062221437692642
1690840570827571000,0.967571044921875,-0.004840295296162367,-0.0032674323301762342,-0.014023141004145145
1690840570837610800,0.97761083984375,-0.003787015099078417,-0.00005299690383253619,-0.019229620695114136
1690840570847650800,0.98765087890625,-0.004024302586913109,-0.0012040151050314307,-0.023733558133244514
1690840570857691600,0.997691650390625,-0.005584648810327053,-0.0016487629618495703,-0.027904601767659187
1690840570867731700,1.007731689453125,-0.004218447022140026,-0.0005155879771336913,-0.031329959630966187
1690840570877802800,1.017802734375,-0.004304999951273203,-0.0022562299855053425,-0.03307672590017319
1690840570887842800,1.0278427734375,-0.00449807895347476,-0.003973436541855335,-0.03394119068980217
1690840570897883000,1.0378828125,-0.006153766065835953,-0.0010578075889497995,-0.03381495550274849
1690840570907922700,1.047922607421875,-0.006612362805753946,-0.0024913870729506016,-0.030797859653830528
1690840570917963800,1.0579638671875,-0.0052291168831288815,-0.002320412313565612,-0.02997707389295101
1690840570928003800,1.06800390625,-0.004977980628609657,-0.002770752878859639,-0.025671008974313736
1690840570938044000,1.0780439453125,-0.005103681702166796,-0.0015273229219019413,-0.021328458562493324
1690840570948084700,1.088084716796875,-0.006814230233430862,-0.00387356779538095,-0.020050939172506332
1690840570958124800,1.098124755859375,-0.004939098376780748,-0.0007946872501634061,-0.014563496224582195
1690840570968164900,1.108164794921875,-0.005091963801532984,-0.0035417377948760986,-0.015221296809613705
1690840570978204700,1.11820458984375,-0.005587578285485506,-0.0007185208378359675,-0.011906460858881474
1690840570988245800,1.128245849609375,-0.005305549595504999,-0.002624278888106346,-0.010912834666669369
1690840570998285800,1.138285888671875,-0.0048978193663060665,-0.003312173532322049,-0.01131257601082325
1690840571008326000,1.148325927734375,-0.005579588934779167,-0.0016261261189356446,-0.010320281609892845
1690840571018366700,1.15836669921875,-0.002373941708356142,-0.000919323181733489,-0.013455620966851711
1690840571028437000,1.16843701171875,-0.004537227563560009,-0.002058623591437936,-0.014193849638104439
1690840571038477800,1.178477783203125,-0.006178533658385277,-0.003882356220856309,-0.01810869574546814
1690840571048518000,1.188517822265625,-0.004029628820717335,-0.002624278888106346,-0.020175576210021973
1690840571058557700,1.1985576171875,-0.005199822131544352,-0.0008873652550391853,-0.02508804202079773
1690840571068598800,1.208598876953125,-0.004874383565038443,-0.0012026835465803742,-0.025374332442879677
1690840571078638800,1.218638916015625,-0.005705290008336306,-0.0038991342298686504,-0.027573037892580032
1690840571088679000,1.228678955078125,-0.004024036228656769,-0.00310524576343596,-0.02803589589893818
1690840571098719000,1.238718994140625,-0.002725212834775448,-0.004475974943488836,-0.030071349814534187
1690840571108759800,1.248759765625,-0.006046973634511232,-0.0010074737947434187,-0.02725053019821644
1690840571118800000,1.2587998046875,-0.004185423720628023,-0.000678307143971324,-0.028739769011735916
1690840571128839700,1.268839599609375,-0.005294098053127527,-0.0011145329335704446,-0.025897908955812454
1690840571138880800,1.278880859375,-0.004969724919646978,-0.0032924660481512547,-0.02220969833433628
1690840571148920800,1.2889208984375,-0.005841644015163183,-0.0012937636347487569,-0.018632806837558746
1690840571158961000,1.2989609375,-0.005054946057498455,-0.00041864890954457223,-0.019271166995167732
1690840571169001000,1.3090009765625,-0.004425374791026115,-0.0016671388875693083,-0.015776565298438072
1690840571179072000,1.319072021484375,-0.006021939683705568,-0.0019038938917219639,-0.014660169370472431
1690840571189112000,1.329112060546875,-0.0029768813401460648,-0.0034173682797700167,-0.01569986715912819
1690840571199153000,1.33915283203125,-0.005732720717787743,-0.0011997540714219213,-0.015312910079956055
1690840571209192700,1.349192626953125,-0.004914331249892712,-0.002103364560753107,-0.015386945568025112
1690840571219232800,1.359232666015625,-0.0027984497137367725,-0.0021995047573000193,-0.016597086563706398
1690840571229273900,1.36927392578125,-0.003798999357968569,-0.0011518171522766352,-0.018617626279592514
1690840571239314000,1.37931396484375,-0.005613410845398903,-0.004583566449582577,-0.017766745761036873
1690840571249354000,1.38935400390625,-0.00307541829533875,-0.0027891285717487335,-0.020301276817917824
1690840571259394000,1.39939404296875,-0.0036522590089589357,-0.0018101505702361465,-0.020065853372216225
1690840571269435000,1.409434814453125,-0.005221926141530275,-0.003364105010405183,-0.023395603522658348
1690840571279474700,1.419474609375,-0.005057342816144228,-0.00043010051012970507,-0.025073129683732986
1690840571289514800,1.4295146484375,-0.005420065484941006,-0.001734516816213727,-0.022891467437148094
1690840571299555800,1.439555908203125,-0.005695702508091927,-0.0010950918076559901,-0.02508511394262314
1690840571309596000,1.449595947265625,-0.004581169690936804,-0.0008705873624421656,-0.02334553562104702
1690840571319636000,1.459635986328125,-0.005447229836136103,-0.0036429380998015404,-0.0234102513641119
1690840571329707000,1.46970703125,-0.004333229269832373,-0.001564873498864472,-0.02123711071908474
1690840571339747000,1.4797470703125,-0.004978513345122337,-0.000815193576272577,-0.02135429158806801
1690840571349787000,1.489786865234375,-0.003802461316809058,0.00033928672201000154,-0.019766513258218765
1690840571359827700,1.49982763671875,-0.0046450854279100895,-0.0013962953817099333,-0.019210180267691612
1690840571369867800,1.50986767578125,-0.004287156742066145,-0.0032570459879934788,-0.019158247858285904
1690840571379907800,1.519907958984375,-0.004713795147836208,-0.000913197931367904,-0.017765946686267853
1690840571389949000,1.529948974609375,-0.004281564150005579,-0.003034672001376748,-0.01781521551311016
1690840571399989000,1.539989013671875,-0.004532966297119856,-0.002332396572455764,-0.01762267015874386
1690840571410029000,1.550029052734375,-0.005540440324693918,-0.003949734382331371,-0.017065003514289856
1690840571420068900,1.56006884765625,-0.005649629980325699,-0.0001536643976578489,-0.018207233399152756
1690840571430109700,1.570109619140625,-0.005876265000551939,-0.0025774072855710983,-0.016748886555433273
1690840571440149800,1.580149658203125,-0.005284244194626808,-0.0023238742724061012,-0.01942909136414528
1690840571450189800,1.59018994140625,-0.006432865746319294,-0.002665557898581028,-0.020358534529805183
1690840571460231000,1.60023095703125,-0.0038890140131115913,-0.0025963156949728727,-0.020193152129650116
1690840571470271000,1.61027099609375,-0.004877845756709576,-0.003037601476535201,-0.021636320278048515
1690840571480342000,1.620342041015625,-0.0050687943585217,-0.0035502600949257612,-0.022889070212841034
1690840571490381800,1.6303818359375,-0.0038575888611376286,-0.0022413162514567375,-0.02316390909254551
1690840571500422000,1.640421875,-0.004974784795194864,-0.003716174978762865,-0.024326112121343613
1690840571510462700,1.650462646484375,-0.004253068007528782,-0.00173744629137218,-0.023984162136912346
1690840571520502800,1.660502685546875,-0.005037102848291397,-0.0013052152935415506,-0.021079452708363533
1690840571530542800,1.67054296875,-0.0037819549906998873,-0.0007637945818714797,-0.02075614407658577
1690840571540583000,1.6805830078125,-0.005379052832722664,-0.0007986819837242365,-0.022096512839198112
1690840571550624000,1.6906240234375,-0.006464823614805937,-0.0022687469609081745,-0.022962840273976326
1690840571560664000,1.7006640625,-0.003431216813623905,-0.0025419872254133224,-0.021260546520352364
1690840571570704000,1.710703857421875,-0.0040946099907159805,-0.0017773937433958054,-0.019634954631328583
1690840571580744700,1.72074462890625,-0.0039113848470151424,-0.001353152096271515,-0.01979580894112587
1690840571590784800,1.73078466796875,-0.004704740364104509,-0.0019971043802797794,-0.018159562721848488
1690840571600830200,1.740830322265625,-0.0037936728913336992,-0.0023821976501494646,-0.01780403032898903
1690840571610870300,1.750870361328125,-0.004881307948380709,-0.002767024328932166,-0.017367271706461906
1690840571620911400,1.760911376953125,-0.005134840961545706,-0.0008117315010167658,-0.018004832789301872
1690840571630981400,1.7709814453125,-0.005532717332243919,-0.0020967067684978247,-0.019406720995903015
1690840571641022500,1.7810224609375,-0.004516987595707178,-0.0015646071406081319,-0.019063439220190048
1690840571651062500,1.7910625,-0.005366269499063492,-0.0021382521372288465,-0.020436299964785576
1690840571661102600,1.8011025390625,-0.005270129535347223,0.00008921589324017987,-0.020378241315484047
1690840571671143400,1.811143310546875,-0.005087436642497778,-0.002700445242226124,-0.02010633423924446
1690840571681183200,1.821183349609375,-0.0037800907157361507,-0.0027321369852870703,-0.022667761892080307
1690840571691223300,1.831223388671875,-0.003980094101279974,-0.0019478360190987587,-0.02213246561586857
1690840571701263400,1.841263427734375,-0.004734834190458059,-0.0020271982066333294,-0.02136733941733837
1690840571711304400,1.851304443359375,-0.003920173272490501,-0.0009656621841713786,-0.021954035386443138
1690840571721344500,1.861344482421875,-0.005642971955239773,-0.0026999127585440874,-0.023024626076221466
1690840571731384600,1.871384521484375,-0.005306880921125412,-0.0004854942671954632,-0.02112525887787342
1690840571741425400,1.88142529296875,-0.002969424705952406,-0.0013068130938336253,-0.018971027806401253
1690840571751465200,1.89146533203125,-0.004596349783241749,-0.003163302782922983,-0.020968131721019745
1690840571761505300,1.90150537109375,-0.005173456855118275,-0.0013630058383569121,-0.021082915365695953
1690840571771545300,1.91154541015625,-0.003216033335775137,-0.0023965786676853895,-0.019905798137187958
1690840571781616400,1.921616455078125,-0.004866394214332104,-0.001954493811354041,-0.020304473116993904
1690840571791657500,1.931657470703125,-0.005515406373888254,-0.0010956244077533484,-0.020622720941901207
1690840571801697500,1.941697509765625,-0.005057076457887888,-0.0008514125947840512,-0.019061574712395668
1690840571811737300,1.9517373046875,-0.004101268015801907,-0.0028812738601118326,-0.020198212936520576
1690840571821777400,1.96177734375,-0.006434197071939707,-0.0011262508342042565,-0.020532971248030663
1690840571831818200,1.971818359375,-0.0032501218374818563,-0.003847202518954873,-0.01948448456823826
1690840571841858300,1.9818583984375,-0.004574778024107218,-0.0030245520174503326,-0.020014720037579536
1690840571851898400,1.9918984375,-0.005687446799129248,-0.0012594088912010193,-0.020416058599948883
1690840571861938400,2.0019384765625,-0.003931891173124313,-0.00108284130692482,-0.02286430262029171
1690840571871979500,2.0119794921875,-0.004810201469808817,-0.0022154836915433407,-0.02275404892861843
1690840571882019600,2.02201953125,-0.0052168662659823895,-0.0006261091912165284,-0.02190689742565155
1690840571892059400,2.032059326171875,-0.00440966198220849,-0.002644785214215517,-0.022233400493860245
1690840571902100200,2.042100341796875,-0.0036525253672152758,-0.001181111903861165,-0.021509818732738495
1690840571912140300,2.052140380859375,-0.003353186184540391,-0.0019971043802797794,-0.02129223942756653
1690840571922180400,2.062180419921875,-0.002862099092453718,-0.002017344580963254,-0.02183366008102894
1690840571932251400,2.07225146484375,-0.003890611929818988,-0.002710032742470503,-0.021647239103913307
1690840571942291500,2.08229150390625,-0.004502606578171253,-0.001960352761670947,-0.02286962978541851
1690840571952332500,2.09233251953125,-0.0057375142350792885,-0.002590989461168647,-0.020085560157895088
1690840571962372400,2.102372314453125,-0.006533000618219376,-0.0007603325066156685,-0.01888873614370823
1690840571972412400,2.112412353515625,-0.004562261048704386,-0.00307541829533875,-0.019751334562897682
1690840571982452500,2.122452392578125,-0.0036762275267392397,-0.0037787591572850943,-0.020203271880745888
1690840571992493300,2.132493408203125,-0.005638444796204567,-0.0020271982066333294,-0.01896064169704914
1690840572002533400,2.142533447265625,-0.005679191090166569,-0.004530036821961403,-0.020126840099692345
1690840572012573400,2.152573486328125,-0.004881574306637049,-0.0020900487434118986,-0.020231235772371292
1690840572022614500,2.162614501953125,-0.00378967821598053,-0.0013670006301254034,-0.01811455562710762
1690840572032654600,2.172654541015625,-0.006146043073385954,-0.0007363640470430255,-0.019113773480057716
1690840572042694400,2.1826943359375,-0.0033593112602829933,-0.002757703186944127,-0.021503427997231483
1690840572052734500,2.192734375,-0.00523710623383522,-0.003766242414712906,-0.02014974318444729
1690840572062775300,2.202775390625,-0.004216582980006933,-0.0000018642127770363004,-0.021822741255164146
1690840572072815400,2.2128154296875,-0.005050684791058302,-0.0012250541476532817,-0.019649600610136986
1690840572082886400,2.222886474609375,-0.004960670135915279,-0.002487925114110112,-0.01961924135684967
1690840572092926500,2.232926513671875,-0.00561181316152215,-0.0010034791193902493,-0.019882895052433014
1690840572102966300,2.24296630859375,-0.0051771849393844604,-0.002740126335993409,-0.019813917577266693
1690840572113007400,2.25300732421875,-0.0054999603889882565,-0.0019065570086240768,-0.02184138260781765
1690840572123047400,2.26304736328125,-0.004698082339018583,-0.0036852823104709387,-0.02184138260781765
1690840572133087500,2.27308740234375,-0.004637096077203751,-0.0026770094409585,-0.022404640913009644
1690840572143127600,2.28312744140625,-0.0051934304647147655,-0.0019467707024887204,-0.020258933305740356
1690840572153168400,2.29316845703125,-0.005234176758676767,-0.0009392969077453017,-0.01998542621731758
1690840572163208400,2.30320849609375,-0.004249073565006256,-0.0022770026698708534,-0.01901097595691681
1690840572173248500,2.31324853515625,-0.005572930909693241,-0.0019291938515380025,-0.020362796261906624
1690840572183289600,2.32328955078125,-0.003931092098355293,-0.003462375607341528,-0.0193670392036438
1690840572193329400,2.333329345703125,-0.005606486462056637,-0.002436526119709015,-0.02130289189517498
1690840572203369500,2.343369384765625,-0.004192081745713949,-0.00207726564258337,-0.020593425258994102
1690840572213409500,2.353409423828125,-0.004281830508261919,-0.002438656520098448,-0.021272266283631325
1690840572223450400,2.363450439453125,-0.004338555503636599,-0.002204564632847905,-0.02022324688732624
1690840572233521400,2.373521484375,-0.00378994457423687,-0.003727093804627657,-0.01950019784271717
1690840572243561500,2.3835615234375,-0.004836833104491234,-0.0037760960403829813,-0.02101100981235504
1690840572253601300,2.393601318359375,-0.00526613462716341,-0.0028533106669783592,-0.019535884261131287
1690840572263641300,2.403641357421875,-0.00495188171043992,-0.0038919434882700443,-0.021803032606840134
1690840572273682400,2.413682373046875,-0.0028328043408691883,-0.0017201356822624803,-0.02141714096069336
1690840572283722500,2.423722412109375,-0.004805141594260931,-0.002743322169408202,-0.021448034793138504
1690840572293762600,2.433762451171875,-0.004637895151972771,-0.0023190807551145554,-0.020302075892686844
1690840572303803400,2.443803466796875,-0.0037462685722857714,-0.0018961706664413214,-0.02245124615728855
1690840572313843500,2.453843505859375,-0.00433136522769928,-0.002258893335238099,-0.02082245796918869
1690840572323883500,2.463883544921875,-0.0068299430422484875,-0.0008998821140266955,-0.020140156149864197
1690840572333923300,2.47392333984375,-0.00452684098854661,-0.0018759306985884905,-0.021510884165763855
1690840572343964400,2.48396435546875,-0.005349491722881794,-0.002130795270204544,-0.020146813243627548
1690840572354004500,2.49400439453125,-0.0056983656249940395,-0.0029843382071703672,-0.01997157745063305
1690840572364044500,2.50404443359375,-0.0031670311000198126,-0.002168612089008093,-0.022706111893057823
1690840572374084400,2.51408447265625,-0.005393167492002249,-0.00213638786226511,-0.018866898491978645
1690840572384155400,2.5241552734375,-0.005301021970808506,-0.0007118629291653633,-0.01948794722557068
1690840572394196500,2.534196533203125,-0.0038077877834439278,-0.004339620936661959,-0.02160516008734703
1690840572404236300,2.544236328125,-0.003921770956367254,-0.0025070998817682266,-0.018028268590569496
1690840572414276400,2.5542763671875,-0.005397961009293795,-0.0035175031516700983,-0.018340392038226128
1690840572424316400,2.56431640625,-0.004285026341676712,-0.00035420042695477605,-0.02057158760726452
1690840572434357500,2.574357421875,-0.005299157928675413,-0.0004141215467825532,-0.02159290947020054
1690840572444397600,2.5843974609375,-0.006582268979400396,-0.002100701443850994,-0.021809158846735954
1690840572454437400,2.594437255859375,-0.004391286056488752,-0.002965962514281273,-0.0226760171353817
1690840572464478500,2.604478515625,-0.004552407655864954,-0.003477555699646473,-0.01884079910814762
1690840572474518300,2.614518310546875,-0.005372394807636738,-0.002207494108006358,-0.016710536554455757
1690840572484558300,2.624558349609375,-0.00669278996065259,0.00449887802824378,-0.01601518504321575
1690840572494598400,2.634598388671875,-0.004218979738652706,-0.005106078926473856,-0.021225128322839737
1690840572504639500,2.644639404296875,-0.004078631289303303,-0.0013662016717717052,-0.020668793469667435
1690840572514679600,2.654679443359375,-0.0043444144539535046,-0.0022474415600299835,-0.019594207406044006
1690840572524719400,2.66471923828125,-0.004673581570386887,-0.0035689021460711956,-0.0202805045992136
1690840572534790400,2.674790283203125,-0.0038133803755044937,-0.001157143502496183,-0.021864285692572594
1690840572544830200,2.684830322265625,-0.0033657029271125793,-0.003177151083946228,-0.023033147677779198
1690840572554871300,2.694871337890625,-0.004308462142944336,-0.0024461133871227503,-0.021642444655299187
1690840572564911400,2.704911376953125,-0.002924417145550251,-0.002213619416579604,-0.020232034847140312
1690840572574951400,2.714951416015625,-0.005568403284996748,-0.0044322991743683815,-0.01877475343644619
1690840572584991500,2.724991455078125,-0.0049127331003546715,-0.0025893915444612503,-0.02070394717156887
1690840572595024400,2.7350244140625,-0.005529255140572786,-0.001014398061670363,-0.02039475366473198
1690840572605064400,2.745064453125,-0.005221659783273935,-0.0015819176333025098,-0.020867465063929558
1690840572615104300,2.755104248046875,-0.003689276985824108,0.00025992453447543085,-0.022181201726198196
1690840572625145000,2.76514501953125,-0.003897536313161254,-0.000764593540225178,-0.021225392818450928
1690840572635185200,2.77518505859375,-0.004680505488067865,-0.002032258315011859,-0.021529527381062508
1690840572645225200,2.78522509765625,-0.00618199585005641,-0.0021965752821415663,-0.021827533841133118
1690840572655265300,2.795265380859375,-0.0043686493299901485,0.0003299656673334539,-0.020655743777751923
1690840572665306400,2.805306396484375,-0.004474110435694456,-0.00455666845664382,-0.021494373679161072
1690840572675377400,2.81537744140625,-0.004611529875546694,-0.0038655782118439674,-0.02155269682407379
1690840572685417200,2.825417236328125,-0.004165716469287872,-0.00022983079543337226,-0.020446419715881348
1690840572695457300,2.835457275390625,-0.003915379289537668,-0.002113218419253826,-0.020257068797945976
1690840572705497300,2.845497314453125,-0.004835501778870821,-0.0014349111588671803,-0.020428841933608055
1690840572715538200,2.8555380859375,-0.005440305452793837,-0.0020333235152065754,-0.020624319091439247
1690840572725578200,2.865578125,-0.004050934221595526,-0.003456516657024622,-0.02256602980196476
1690840572735618300,2.875618408203125,-0.004550010897219181,-0.0016189356101676822,-0.021618209779262543
1690840572745659400,2.885659423828125,-0.0035356127191334963,-0.001967277145013213,-0.022286130115389824
1690840572755699500,2.895699462890625,-0.004465055651962757,-0.0007475492893718183,-0.0205694567412138
1690840572765739300,2.9057392578125,-0.004070907831192017,-0.0030951257795095444,-0.02033456601202488
1690840572775779300,2.915779296875,-0.005166532471776009,-0.0036274916492402554,-0.019172895699739456
1690840572785820200,2.925820068359375,-0.005605954211205244,-0.0007486145477741957,-0.021197164431214333
1690840572795860200,2.935860107421875,-0.004576109815388918,-0.0004474110610317439,-0.020240822806954384
1690840572805900300,2.945900390625,-0.0040796962566673756,-0.001984587637707591,-0.022836606949567795
1690840572815940400,2.9559404296875,-0.006197442300617695,-0.004545749630779028,-0.020799288526177406
1690840572826011100,2.96601123046875,-0.004346012603491545,-0.002802977105602622,-0.019341740757226944
1690840572836052200,2.97605224609375,-0.006632336415350437,-0.0007065366371534765,-0.02257508412003517
1690840572846092300,2.98609228515625,-0.005321794655174017,-0.0010213222121819854,-0.019661318510770798
1690840572856132400,2.99613232421875,-0.005305549595504999,-0.0035582494456321,-0.02051486261188984
1690840572866172400,3.00617236328125,-0.003967044875025749,-0.00443869037553668,-0.0223857332020998
1690840572876213200,3.016213134765625,-0.005373726598918438,-0.0017667410429567099,-0.019813917577266693
1690840572886253300,3.02625341796875,-0.003117230022326112,-0.0023065637797117233,-0.021750835701823235
1690840572896293400,3.03629345703125,-0.003896470880135894,-0.001797101111151278,-0.018796324729919434
1690840572906334500,3.04633447265625,-0.004247741773724556,-0.0027145601343363523,-0.020959077402949333
1690840572916374300,3.056374267578125,-0.0044288369826972485,-0.001871403306722641,-0.022725552320480347
1690840572926414300,3.066414306640625,-0.004002731293439865,-0.001341434195637703,-0.019415508955717087
1690840572936454400,3.076454345703125,-0.005230181850492954,-0.0031012510880827904,-0.02070607803761959
1690840572946495200,3.0864951171875,-0.004752677399665117,-0.0012934972764924169,-0.02118251658976078
1690840572956535300,3.096535400390625,-0.004240551497787237,-0.0009494169498793781,-0.01926184445619583
1690840572966575400,3.106575439453125,-0.004036553204059601,-0.0019497001776471734,-0.02063763327896595
1690840572976646100,3.116646240234375,-0.004816326778382063,-0.003656253917142749,-0.02081233821809292
1690840572986686200,3.126686279296875,-0.003996073268353939,-0.0026224146131426096,-0.020179569721221924
1690840572996727300,3.136727294921875,-0.005072256550192833,-0.0008575378451496363,-0.019227756187319756
1690840573006767400,3.146767333984375,-0.00532472413033247,-0.0017156084068119526,-0.02117532677948475
1690840573016807400,3.156807373046875,-0.004073038697242737,-0.004477572627365589,-0.01907995156943798
1690840573026847500,3.166847412109375,-0.0028269453905522823,-0.00324799120426178,-0.01937476359307766
1690840573036888300,3.176888427734375,-0.004166515544056892,-0.0006458165589720011,-0.020648552104830742
1690840573046928400,3.186928466796875,-0.002814961364492774,-0.0016311861108988523,-0.01992816850543022
1690840573056968200,3.19696826171875,-0.0037001960445195436,-0.004777178168296814,-0.021687185391783714
1690840573067009300,3.20700927734375,-0.005536445416510105,-0.0016578177455812693,-0.021947110071778297
1690840573077049300,3.21704931640625,-0.0033800839446485043,-0.0022029669489711523,-0.020131366327404976
1690840573087089400,3.22708935546875,-0.005569202359765768,-0.0016386429779231548,-0.021410217508673668
1690840573097129500,3.23712939453125,-0.005535114090889692,-0.002162486780434847,-0.02167094126343727
1690840573107170300,3.24717041015625,-0.0036722328513860703,-0.0015683355741202831,-0.021017933264374733
1690840573117210400,3.25721044921875,-0.005256014876067638,-0.00221921200864017,-0.021074924618005753
1690840573127281200,3.26728125,-0.003710582386702299,-0.0021489046048372984,-0.020714333280920982
1690840573137321200,3.2773212890625,-0.005595034919679165,-0.0008591357618570328,-0.020377444103360176
1690840573147361300,3.287361328125,-0.00564084155485034,-0.00347435986623168,-0.022819029167294502
1690840573157402400,3.29740234375,-0.005358280148357153,-0.003500991500914097,-0.020176108926534653
1690840573167442400,3.3074423828125,-0.005833920557051897,-0.0028397287242114544,-0.02142086997628212
1690840573177482200,3.317482177734375,-0.004797950852662325,-0.0029883331153541803,-0.019949739798903465
1690840573187523300,3.3275234375,-0.004996889270842075,-0.003712446428835392,-0.02166321687400341
1690840573197563400,3.3375634765625,-0.003921504598110914,-0.0024711471050977707,-0.021765749901533127
1690840573207603200,3.347603271484375,-0.005126052536070347,-0.00344559783115983,-0.019207783043384552
1690840573217643300,3.357643310546875,-0.00381391285918653,-0.0018293253378942609,-0.018634937703609467
1690840573227684400,3.367684326171875,-0.0038842204958200455,-0.0009422263829037547,-0.01996598392724991
1690840573237724400,3.377724365234375,-0.005496231839060783,-0.0023872575256973505,-0.02178119495511055
1690840573247764200,3.38776416015625,-0.00443975580856204,-0.0008303736103698611,-0.018847191706299782
1690840573257805300,3.397805419921875,-0.0049311090260744095,-0.003707652911543846,-0.020175309851765633
1690840573267845400,3.407845458984375,-0.005215002223849297,-0.002425074577331543,-0.020061058923602104
1690840573277916200,3.417916259765625,-0.00538357999175787,-0.0018077536951750517,-0.01998196355998516
1690840573287956200,3.427956298828125,-0.005110339727252722,-0.003531617810949683,-0.020786771550774574
1690840573297996300,3.437996337890625,-0.004126301966607571,-0.00618119677528739,-0.019780362024903297
1690840573308036400,3.448036376953125,-0.005277852527797222,-0.0014215953415259719,-0.019281553104519844
1690840573318077400,3.458077392578125,-0.004404069390147924,0.0002897519152611494,-0.020062124356627464
1690840573328117200,3.4681171875,-0.003727626521140337,0.00012516857532318681,-0.01991831511259079
1690840573338157000,3.478156982421875,-0.005192098673433065,-0.0023284016642719507,-0.020294619724154472
1690840573348198100,3.4881982421875,-0.004860801622271538,-0.0012594088912010193,-0.02149250917136669
1690840573358238200,3.49823828125,-0.005648564547300339,-0.001344896387308836,-0.01907888613641262
1690840573368278300,3.5082783203125,-0.006772951222956181,-0.002028263406828046,-0.019870644435286522
1690840573378318300,3.518318359375,-0.006804642733186483,-0.0018708707066252828,-0.02052764594554901
1690840573388359400,3.528359375,-0.00333241350017488,-0.002490588231012225,-0.021631792187690735
1690840573398399200,3.538399169921875,-0.005567338317632675,-0.0008074704091995955,-0.01902429200708866
1690840573408439300,3.548439208984375,-0.004036553204059601,-0.0022514364682137966,-0.020809674635529518
1690840573418480400,3.55848046875,-0.004574511665850878,-0.003963049966841936,-0.02185017056763172
1690840573428550100,3.568550048828125,-0.004341484978795052,-0.0003081277245655656,-0.01913774199783802
1690840573438591200,3.57859130859375,-0.0025949841365218163,-0.0037433390971273184,-0.02064695581793785
1690840573448631300,3.58863134765625,-0.004733768757432699,-0.0019646140281111,-0.021630993112921715
1690840573458671400,3.59867138671875,-0.004207261838018894,-0.0018996327416971326,-0.020264258608222008
1690840573468711400,3.60871142578125,-0.004323641769587994,-0.002651176881045103,-0.01991511881351471
1690840573478752300,3.618752197265625,-0.005132976453751326,-0.0019915117882192135,-0.020475979894399643
1690840573488792000,3.6287919921875,-0.005258411634713411,-0.0016282566357403994,-0.022275211289525032
1690840573498832100,3.63883203125,-0.005085039883852005,-0.0024620923213660717,-0.021816615015268326
1690840573508873200,3.648873291015625,-0.005486377980560064,-0.001127848750911653,-0.021628329530358315
1690840573518913300,3.658913330078125,-0.006572415120899677,-0.004004861693829298,-0.022756444290280342
1690840573528953300,3.668953369140625,-0.00546240946277976,-0.0034815503749996424,-0.019900204613804817
1690840573538993400,3.678993408203125,-0.003822701284661889,-0.0016349145444110036,-0.020382503047585487
1690840573549034200,3.6890341796875,-0.004533499013632536,-0.0009800433181226254,-0.020252007991075516
1690840573559074300,3.69907421875,-0.004276504274457693,-0.003230947069823742,-0.02148052491247654
1690840573569114000,3.709114013671875,-0.004337756894528866,0.00012543488992378116,-0.021930066868662834
1690840573579185200,3.71918505859375,-0.003846669802442193,-0.0019893813878297806,-0.020447218790650368
1690840573589225200,3.72922509765625,-0.005332713946700096,-0.001936650718562305,-0.020265856757760048
1690840573599264800,3.7392646484375,-0.006688529159873724,-0.0014468954177573323,-0.021501829847693443
1690840573609304800,3.749304931640625,-0.004715392831712961,-0.0027683558873832226,-0.02015959657728672
1690840573619344600,3.7593447265625,-0.004576642066240311,-0.004262921866029501,-0.019123094156384468
1690840573629385700,3.7693857421875,-0.004369981121271849,-0.002528937766328454,-0.021097294986248016
1690840573639425800,3.77942578125,-0.004788629710674286,0.0012740562669932842,-0.02148664928972721
1690840573649465900,3.7894658203125,-0.004979046061635017,-0.001407214323990047,-0.02075481228530407
1690840573659506000,3.799505859375,-0.005595833994448185,-0.0019212043844163418,-0.02123924158513546
1690840573669546800,3.809546630859375,-0.005029379855841398,-0.0034554514568299055,-0.01931324414908886
1690840573679586800,3.8195869140625,-0.0041334922425448895,-0.0018988338997587562,-0.021643243730068207
1690840573689626600,3.829626708984375,-0.005312207154929638,-0.0008615325787104666,-0.02142912521958351
1690840573699667700,3.839667724609375,-0.005008340813219547,-0.0005661880713887513,-0.019356386736035347
1690840573709707800,3.849707763671875,-0.005657086614519358,-0.003855724586173892,-0.02010100707411766
1690840573719747800,3.859747802734375,-0.005620335228741169,-0.0036916739773005247,-0.021459752693772316
1690840573729819000,3.86981884765625,-0.0038373488932847977,-0.004376106429845095,-0.01919899508357048
1690840573739859000,3.87985888671875,-0.005664543714374304,-0.001222390914335847,-0.018024273216724396
1690840573749899000,3.88989892578125,-0.0051686628721654415,-0.0018104169284924865,-0.02050740458071232
1690840573759939800,3.89993994140625,-0.006626743823289871,-0.000571248063351959,-0.02261556312441826
1690840573769979600,3.909979736328125,-0.005078914575278759,-0.0024176177103072405,-0.021694110706448555
1690840573780019700,3.920019775390625,-0.004576908424496651,-0.002805640222504735,-0.021810490638017654
1690840573790060800,3.930060791015625,-0.0038163098506629467,-0.0007659250986762345,-0.020200077444314957
1690840573800100900,3.940100830078125,-0.0049372343346476555,-0.0032647692132741213,-0.020845361053943634
1690840573810141000,3.950140869140625,-0.005043494515120983,-0.00007190534961409867,-0.022174544632434845
1690840573820181000,3.960180908203125,-0.030821295455098152,0.6042057275772095,-0.24425208568572998
1690840573830221800,3.970221923828125,-0.043414320796728134,-0.002864762442186475,-0.06310147047042847
1690840573840261600,3.98026171875,-0.0057590859942138195,-0.00038589202449657023,-0.051603805273771286
1690840573850301700,3.9903017578125,-0.0030924626626074314,0.14387540519237518,-0.034685008227825165
1690840573860342800,4.0003427734375,0.0019883159548044205,-0.041844118386507034,-0.016234630718827248
1690840573870382800,4.0103828125,0.0054152715019881725,-0.01098474022001028,0.006130596622824669
1690840573880454000,4.020453857421875,0.002305498579517007,0.006449643522500992,0.012368785217404366
1690840573890494000,4.030493896484375,0.00023755396250635386,0.02112605795264244,0.018440792337059975
1690840573900533800,4.04053369140625,-0.007044061087071896,0.024154072627425194,0.016599217429757118
1690840573910574600,4.05057470703125,-0.009855027310550213,0.017732124775648117,0.01894599385559559
1690840573920614700,4.06061474609375,-0.010547716170549393,0.005464806687086821,0.014209029264748096
1690840573930654700,4.07065478515625,-0.007712514605373144,-0.010424677282571793,0.008276039734482765
1690840573940694800,4.08069482421875,-0.0030597057193517685,-0.019627496600151062,0.001323857344686985
1690840573950736000,4.09073583984375,-0.00017363809456583112,-0.020810740068554878,-0.01031495537608862
1690840573960776000,4.10077587890625,-0.0020301276817917824,-0.016218118369579315,-0.021734856069087982
1690840573970816000,4.11081591796875,-0.002368349116295576,-0.007438208907842636,-0.02924576960504055
1690840573980855800,4.120855712890625,-0.0054245926439762115,0.004802744835615158,-0.036316197365522385
1690840573990896600,4.130896728515625,-0.007616906892508268,0.012991432100534439,-0.04256024211645126
1690840574000936700,4.140936767578125,-0.008510131388902664,0.013099823147058487,-0.04710066691040993
1690840574010976800,4.150976806640625,-0.006311425473541021,0.008125570602715015,-0.04783223569393158
1690840574021017900,4.161017822265625,-0.004316185135394335,0.0004316983977332711,-0.04965117573738098
1690840574031087900,4.171087890625,-0.003266899613663554,-0.007452856283634901,-0.04578959196805954
1690840574041129000,4.18112890625,-0.0021369203459471464,-0.012326174415647984,-0.04218846559524536
1690840574051168800,4.191168701171875,-0.0039265644736588,-0.01215812936425209,-0.03458300977945328
1690840574061208800,4.201208740234375,-0.005110339727252722,-0.006533000618219376,-0.02647262066602707
1690840574071249700,4.211249755859375,-0.007378820329904556,-0.0038605183362960815,-0.018643459305167198
1690840574081289700,4.221289794921875,-0.007903995923697948,0.002846919232979417,-0.012794625014066696
1690840574091329800,4.231329833984375,-0.0052232579328119755,0.0036045885644853115,-0.006337790749967098
1690840574101369900,4.241369873046875,-0.00318940170109272,0.005428054835647345,-0.0031313446816056967
1690840574111411000,4.251410888671875,-0.0043713124468922615,-0.0003760383406188339,0.0014503574930131435
1690840574121451000,4.261450927734375,-0.003552923211827874,-0.0022205437999218702,0.0008535431115888059
1690840574131490800,4.27149072265625,-0.004506068304181099,-0.0049497513100504875,-0.0014759238110855222
1690840574141531600,4.28153173828125,-0.0067716194316744804,-0.007982824929058552,-0.002225337317213416
1690840574151571700,4.29157177734375,-0.006263222079724073,-0.00866273045539856,-0.007932491600513458
1690840574161611800,4.30161181640625,-0.005226986017078161,-0.003456783015280962,-0.013982927426695824
1690840574171651800,4.31165185546875,-0.006315686274319887,0.000041545314161339775,-0.019762253388762474
1690840574181723000,4.321722900390625,-0.004354801028966904,0.0018785938154906034,-0.024442492052912712
1690840574191762700,4.3317626953125,-0.0037561224307864904,0.003186205867677927,-0.028027107939124107
1690840574201803800,4.3418037109375,-0.0019230686593800783,0.0020756677258759737,-0.03256832808256149
1690840574211843800,4.35184375,-0.0027451864443719387,-0.0015281217638403177,-0.03618090599775314
1690840574221883600,4.361883544921875,-0.005191300064325333,-0.004635232035070658,-0.036314599215984344
1690840574231924700,4.3719248046875,-0.004661863669753075,-0.005221926141530275,-0.03560992702841759
1690840574241964800,4.38196484375,-0.005532717332243919,-0.0070619042962789536,-0.034691136330366135
1690840574252004900,4.3920048828125,-0.006405967753380537,-0.004788097459822893,-0.03194381669163704
1690840574262045000,4.402044921875,-0.005307413637638092,-0.003999002743512392,-0.02905641868710518
1690840574272086000,4.4120859375,-0.004463990684598684,-0.0017070862231776118,-0.025017201900482178
1690840574282125800,4.422125732421875,-0.0033686324022710323,-0.0002671150432433933,-0.02058463729918003
1690840574292165600,4.43216552734375,-0.004647482186555862,0.0002790992730297148,-0.013618607074022293
1690840574302206700,4.442206787109375,-0.003713778220117092,0.0018642127979546785,-0.010714163072407246
1690840574312246800,4.452246826171875,-0.003950532991439104,-0.00310497940517962,-0.011366371065378189
1690840574322286800,4.462286865234375,-0.006381999235600233,-0.003665308468043804,-0.01007979828864336
1690840574332358000,4.47235791015625,-0.005577458068728447,-0.006902380846440792,-0.00956820510327816
1690840574342397700,4.482397705078125,-0.003955593332648277,-0.005945773329585791,-0.010689395479857922
1690840574352438800,4.492438720703125,-0.004628041293472052,-0.00367170013487339,-0.01182097289711237
1690840574362478800,4.502478759765625,-0.0043987431563436985,-0.0024714134633541107,-0.013589845038950443
1690840574372518700,4.5125185546875,-0.0050701261498034,-0.0016058861510828137,-0.01786874607205391
1690840574382558700,4.522558837890625,-0.004256263840943575,-0.00004500742215896025,-0.021751102060079575
1690840574392599800,4.532599853515625,-0.004141481593251228,0.0018367822049185634,-0.021982263773679733
1690840574402640000,4.542639892578125,-0.004667988512665033,-0.0014325142838060856,-0.025425465777516365
1690840574412680000,4.552679931640625,-0.005872536450624466,-0.0016860472969710827,-0.028016187250614166
1690840574422721000,4.562720947265625,-0.0038005972746759653,-0.0008847020799294114,-0.028598887845873833
1690840574432760800,4.5727607421875,-0.005504753906279802,-0.0032080437522381544,-0.030112361535429955
1690840574442800600,4.582800537109375,-0.004838963504880667,-0.00310604483820498,-0.03141145035624504
1690840574452840700,4.5928408203125,-0.004441353492438793,-0.0007677893154323101,-0.029923809692263603
1690840574462881800,4.6028818359375,-0.004667189903557301,-0.0025390577502548695,-0.023610521107912064
1690840574472921900,4.612921875,-0.006776413414627314,-0.0015297196805477142,-0.024753283709287643
1690840574482993000,4.622992919921875,-0.005276254843920469,-0.0015478292480111122,-0.02281024120748043
1690840574493032700,4.63303271484375,-0.005156146362423897,-0.0012120045721530914,-0.017918279394507408
1690840574503072800,4.64307275390625,-0.00503949960693717,-0.0008325041271746159,-0.014611699618399143
1690840574513113900,4.65311376953125,-0.0034104441292583942,-0.004467719234526157,-0.01648896187543869
1690840574523153700,4.663153564453125,-0.006721019744873047,-0.0018378474051132798,-0.015188540332019329
1690840574533193700,4.67319384765625,-0.005594768561422825,-0.0023153522051870823,-0.01443992555141449
1690840574543233800,4.68323388671875,-0.003893807763233781,-0.006578007712960243,-0.01392753329128027
1690840574553275000,4.69327490234375,-0.0038546593859791756,-0.002150236163288355,-0.015532620251178741
1690840574563314700,4.703314697265625,-0.004007791168987751,-0.0009539442835375667,-0.01613769121468067
1690840574573354800,4.713354736328125,-0.004118045791983604,-0.003492735791951418,-0.01973269134759903
1690840574583395800,4.723395751953125,-0.006357231643050909,-0.0028722193092107773,-0.01774251088500023
1690840574593435600,4.733435546875,-0.004974518436938524,0.00020426444825716317,-0.019835757091641426
1690840574603463700,4.743463623046875,-0.0036597158759832382,-0.0028932581190019846,-0.023365244269371033
1690840574613503700,4.753503662109375,-0.006717291194945574,-0.0017757958266884089,-0.024961275979876518
1690840574623574800,4.76357470703125,-0.003965713083744049,-0.0006231797160580754,-0.024718929082155228
1690840574633614800,4.77361474609375,-0.007477091159671545,-0.001976065570488572,-0.026091521605849266
1690840574643655700,4.78365576171875,-0.004083424806594849,-0.001475391210988164,-0.024419588968157768
1690840574653695500,4.793695556640625,-0.005201419815421104,0.0012868394842371345,-0.025041969493031502
1690840574663735600,4.803735595703125,-0.005087170284241438,-0.001657285145483911,-0.024153007194399834
1690840574673776600,4.813776611328125,-0.005081577692180872,-0.0013614079216495156,-0.022214757278561592
1690840574683816700,4.823816650390625,-0.004567321389913559,-0.0010671286145225167,-0.023442208766937256
1690840574693856800,4.833856689453125,-0.0049092709086835384,-0.0026314693968743086,-0.020606208592653275
1690840574703896800,4.843896728515625,-0.00495081627741456,-0.004416320007294416,-0.018381936475634575
1690840574713937700,4.853937744140625,-0.006481335032731295,-0.0013571468880400062,-0.01829751394689083
1690840574723977500,4.8639775390625,-0.0046879625879228115,-0.0028967203106731176,-0.01624874398112297
1690840574734017500,4.874017578125,-0.0067899953573942184,-0.00310524576343596,-0.017152089625597
1690840574744058600,4.88405859375,-0.003885552054271102,-0.0019491675775498152,-0.014798120595514774
1690840574754098700,4.8940986328125,-0.0057564228773117065,-0.002685531508177519,-0.017071660608053207
1690840574764138800,4.904138671875,-0.004120708908885717,-0.0036432044580578804,-0.018256768584251404
1690840574774209800,4.914209716796875,-0.002712962217628956,-0.004991828929632902,-0.01907009817659855
1690840574784249900,4.924249755859375,-0.0041582598350942135,-0.0026144252624362707,-0.019457854330539703
1690840574794290700,4.934290771484375,-0.002755839144811034,-0.002578738844022155,-0.021755095571279526
1690840574804330500,4.94433056640625,-0.006327670533210039,-0.0023875238839536905,-0.02286803163588047
1690840574814370600,4.95437060546875,-0.005352421198040247,-0.0020034960471093655,-0.023004917427897453
1690840574824410600,4.96441064453125,-0.005612611770629883,-0.002624811604619026,-0.02286376990377903
1690840574834451700,4.97445166015625,-0.004126567859202623,0.0006572681595571339,-0.023314643651247025
1690840574844491800,4.98449169921875,-0.005605687852948904,-0.0007227819296531379,-0.021981464698910713
1690840574854531800,4.99453173828125,-0.0026943201664835215,-0.0022804648615419865,-0.022761771455407143
1690840574864572700,5.00457275390625,-0.005102616734802723,-0.0007590008899569511,-0.020298080518841743
1690840574874612500,5.014612548828125,-0.004135889001190662,-0.0008250473183579743,-0.02262568473815918
1690840574884652500,5.024652587890625,-0.0025872609112411737,-0.0019196064677089453,-0.019837353378534317
1690840574894692600,5.034692626953125,-0.0049100699834525585,-0.0007874967413954437,-0.02129250578582287
1690840574904733700,5.044733642578125,-0.004707669839262962,-0.0030985879711806774,-0.019112441688776016
1690840574914773800,5.054773681640625,-0.005628590937703848,-0.0018008295446634293,-0.019035743549466133
1690840574924844800,5.0648447265625,-0.0057047572918236256,-0.0018423747969791293,-0.019044531509280205
1690840574934884600,5.074884521484375,-0.005273325368762016,-0.0032285500783473253,-0.018007496371865273
1690840574944924700,5.084924560546875,-0.004225904121994972,-0.0015992282424122095,-0.017720939591526985
1690840574954965500,5.094965576171875,-0.0046389601193368435,-0.0008474178612232208,-0.017372598871588707
1690840574965005600,5.105005615234375,-0.004545216914266348,-0.0018703379901126027,-0.020306603983044624
1690840574975045600,5.115045654296875,-0.006740194279700518,-0.0017182715237140656,-0.019514845684170723
1690840574985085700,5.125085693359375,-0.005622731987386942,-0.0011792477453127503,-0.020363328978419304
1690840574995126800,5.135126708984375,-0.005108742043375969,-0.0025800704024732113,-0.02184777520596981
1690840575005166800,5.145166748046875,-0.0054360441863536835,-0.002459961920976639,-0.02070421352982521
1690840575015206700,5.15520654296875,-0.003783819265663624,-0.0018876485992223024,-0.02052524872124195
1690840575025247500,5.16524755859375,-0.004994758404791355,-0.002323608146980405,-0.02376418560743332
1690840575035287600,5.17528759765625,-0.004067446105182171,-0.0010756507981568575,-0.02124057337641716
1690840575045327600,5.18532763671875,-0.005685316398739815,-0.0033124396577477455,-0.022466160356998444
1690840575055367700,5.19536767578125,-0.0064866612665355206,-0.0019941749051213264,-0.022180935367941856
1690840575065408800,5.20540869140625,-0.005576393101364374,-0.005503688473254442,-0.023200394585728645
1690840575075478500,5.215478515625,-0.005298625212162733,-0.001648496720008552,-0.022539131343364716
1690840575085519600,5.22551953125,-0.004771319217979908,-0.0034077810123562813,-0.01955505833029747
1690840575095559700,5.2355595703125,-0.005271993577480316,0.00023276027059182525,-0.01932496204972267
1690840575105599700,5.245599853515625,-0.0038368161767721176,-0.0014138722326606512,-0.01998063176870346
1690840575115640600,5.255640625,-0.005456816870719194,-0.002438922878354788,-0.021032581105828285
1690840575125680600,5.2656806640625,-0.005595567636191845,-0.003306314582005143,-0.019945211708545685
1690840575135720700,5.275720703125,-0.0054815844632685184,-0.001386707997880876,-0.020249610766768456
1690840575145760800,5.2857607421875,-0.004544950556010008,-0.0028399948496371508,-0.017841314896941185
1690840575155801900,5.2958017578125,-0.004228833597153425,-0.0004596615908667445,-0.017555290833115578
1690840575165841700,5.305841552734375,-0.005732720717787743,-0.0020849888678640127,-0.018798721954226494
1690840575175881700,5.3158818359375,-0.003993410151451826,-0.002403236459940672,-0.01925119198858738
1690840575185922600,5.325922607421875,-0.005506884306669235,-0.0031372036319226027,-0.02267841435968876
1690840575195962600,5.335962646484375,-0.005599029827862978,-0.002094309777021408,-0.020009927451610565
1690840575206002700,5.346002685546875,-0.005352953914552927,-0.0021489046048372984,-0.021705295890569687
1690840575216042800,5.356042724609375,-0.005663478281348944,-0.002222674200311303,-0.021275727078318596
1690840575226113500,5.366113525390625,-0.006283728405833244,-0.0024557008873671293,-0.02286669984459877
1690840575236154600,5.376154541015625,-0.00452870549634099,-0.003451190423220396,-0.022949790582060814
1690840575246194700,5.386194580078125,-0.005210474599152803,-0.0009816411184147,-0.02113005332648754
1690840575256234800,5.39623486328125,-0.0032868734560906887,0.001434112200513482,-0.021095165982842445
1690840575266274800,5.40627490234375,-0.0028490496333688498,-0.002653573639690876,-0.021690381690859795
1690840575276315600,5.416315673828125,-0.0037846181076020002,-0.005410477984696627,-0.022421153262257576
1690840575286355700,5.426355712890625,-0.004819788970053196,-0.002877012826502323,-0.02113058604300022
1690840575296395800,5.436395751953125,-0.0057044909335672855,-0.004574778024107218,-0.020678380504250526
1690840575306436900,5.446436767578125,-0.004514590837061405,-0.003013899317011237,-0.02250557579100132
1690840575316476700,5.4564765625,-0.005100485868752003,-0.003326288191601634,-0.02046372927725315
1690840575326516700,5.466516845703125,-0.004175037611275911,-0.0032618397381156683,-0.019840016961097717
1690840575336556800,5.476556884765625,-0.004065581597387791,-0.001986984396353364,-0.020808609202504158
1690840575346597600,5.48659765625,-0.005505819339305162,-0.0007313040550798178,-0.01900937780737877
1690840575356637700,5.4966376953125,-0.00424348097294569,-0.0015001586871221662,-0.020013121888041496
1690840575366677800,5.506677734375,-0.00481472909450531,-0.0009976201690733433,-0.018802981823682785
1690840575376748500,5.51674853515625,-0.005501558072865009,-0.002311091171577573,-0.01876995898783207
1690840575386788600,5.52678857421875,-0.003881823504343629,-0.0027417242527008057,-0.020085293799638748
1690840575396829700,5.53682958984375,-0.003644536016508937,-0.0026487798895686865,-0.02244831807911396
1690840575406869800,5.546869873046875,-0.005308212712407112,-0.0014852449530735612,-0.021332718431949615
1690840575416909600,5.55690966796875,-0.0065476479940116405,-0.0008258462767116725,-0.02178678847849369
1690840575426949600,5.56694970703125,-0.005620335228741169,-0.0034413367975503206,-0.01990979164838791
1690840575436990700,5.57699072265625,-0.00574896577745676,-0.0023422501981258392,-0.022158032283186913
1690840575447030800,5.58703076171875,-0.0046416232362389565,-0.000794420950114727,-0.02285711281001568
1690840575457070600,5.597070556640625,-0.003748399205505848,-0.004171575419604778,-0.020590761676430702
1690840575467111700,5.607111572265625,-0.003748931922018528,-0.0027454528026282787,-0.018678879365324974
1690840575477151700,5.61715185546875,-0.0043742419220507145,-0.0024077638518065214,-0.019882895052433014
1690840575487191600,5.627191650390625,-0.005401955917477608,-0.002549710450693965,-0.02076599933207035
1690840575497231600,5.637231689453125,-0.0041553303599357605,-0.003150785807520151,-0.019392073154449463
1690840575507272700,5.647272705078125,-0.005905027035623789,-0.0036645096261054277,-0.02057984285056591
1690840575517312800,5.657312744140625,-0.0048826392740011215,-0.0023307986557483673,-0.019649067893624306
1690840575527383600,5.667383544921875,-0.004263454582542181,-0.0007310376968234777,-0.019245333969593048
1690840575537423600,5.677423583984375,-0.0030514500103890896,-0.0027324033435434103,-0.01961231790482998
1690840575547463700,5.687463623046875,-0.0044083306565880775,-0.0028386632911860943,-0.019824571907520294
1690840575557504800,5.6975048828125,-0.005044559482485056,-0.0033718282356858253,-0.02051805891096592
1690840575567544600,5.707544677734375,-0.006705306936055422,-0.0028796761762350798,-0.020356137305498123
1690840575577584600,5.717584716796875,-0.0030123014003038406,-0.0012567456578835845,-0.021815549582242966
1690840575587624400,5.72762451171875,-0.003816842334344983,-0.0008197209681384265,-0.020364927127957344
1690840575597646600,5.737646484375,-0.005566006526350975,-0.0010428938549011946,-0.01991724967956543
1690840575607686700,5.747686767578125,-0.005224322900176048,0.0002740392810665071,-0.021324463188648224
1690840575617726500,5.7577265625,-0.004830175079405308,-0.0018804579740390182,-0.02033856138586998
1690840575627767600,5.767767578125,-0.005513542331755161,-0.00016831177345011383,-0.022664831951260567
1690840575637807600,5.7778076171875,-0.005096491426229477,-0.0025590313598513603,-0.020980382338166237
1690840575647847700,5.78784765625,-0.004808603785932064,-0.0012101404136046767,-0.021329523995518684
1690840575657887700,5.7978876953125,-0.005293298978358507,-0.002516953507438302,-0.021153755486011505
1690840575667928600,5.807928466796875,-0.004702077247202396,-0.002426672261208296,-0.022173479199409485
1690840575677999600,5.81799951171875,-0.004831773228943348,-0.0008633967954665422,-0.020207267254590988
1690840575688039700,5.828039794921875,-0.005768673028796911,-0.0007374293054454029,-0.019580624997615814
1690840575698079500,5.83807958984375,-0.004169178660959005,-0.0013214604696258903,-0.0203995481133461
1690840575708119600,5.84811962890625,-0.004733768757432699,-0.0026706180069595575,-0.0206911638379097
1690840575718160600,5.85816064453125,-0.005876265000551939,0.0013907026732340455,-0.01973215863108635
1690840575728200700,5.86820068359375,-0.0038783615455031395,-0.0010064085945487022,-0.01890631392598152
1690840575738240800,5.87824072265625,-0.005076517816632986,-0.0025214808993041515,-0.01961551234126091
1690840575748281600,5.888281494140625,-0.004972920753061771,0.0014450311427935958,-0.018098842352628708
1690840575758321700,5.89832177734375,-0.005575860384851694,-0.0022746059112250805,-0.02106267400085926
1690840575768361500,5.908361572265625,-0.0038892803713679314,-0.001395230065099895,-0.021455490961670876
1690840575778401500,5.918401611328125,-0.005596366710960865,-0.0029923277907073498,-0.02044854871928692
1690840575788442600,5.928442626953125,-0.0037641117814928293,-0.0009584716754034162,-0.020361464470624924
1690840575798482700,5.938482666015625,-0.0054336474277079105,0.00022317290131468326,-0.019758524373173714
1690840575808522800,5.948522705078125,-0.004381432663649321,-0.001187503570690751,-0.019775569438934326
1690840575818563600,5.9585634765625,-0.0037316211964935064,-0.0010021475609391928,-0.020899955183267593
1690840575828633900,5.9686337890625,-0.0054581486620008945,-0.0007933556917123497,-0.021561484783887863
1690840575838674700,5.9786748046875,-0.00435986090451479,-0.0022828616201877594,-0.020918598398566246
1690840575848714500,5.988714599609375,-0.0051686628721654415,-0.000023968450477696024,-0.020061591640114784
1690840575858754600,5.998754638671875,-0.005358280148357153,-0.004059989005327225,-0.022248847410082817
1690840575868794600,6.008794677734375,-0.003257312346249819,-0.0017451694002375007,-0.018854914233088493
1690840575878835700,6.018835693359375,-0.005172924138605595,-0.0022628880105912685,-0.020493291318416595
1690840575888875800,6.028875732421875,-0.005566006526350975,-0.0023457121569663286,-0.01991884782910347
1690840575898915800,6.038915771484375,-0.0043683829717338085,-0.002264219569042325,-0.021220600232481956
1690840575908956700,6.048956787109375,-0.006057359743863344,-0.0014775217277929187,-0.02267575077712536
1690840575918996500,6.05899658203125,-0.007093063089996576,-0.0008641957538202405,-0.020262394100427628
1690840575929036500,6.06903662109375,-0.004457599017769098,-0.002491120947524905,-0.02027757465839386
1690840575939076600,6.07907666015625,-0.003314570290967822,-0.0019768644124269485,-0.022165756672620773
1690840575949117700,6.08911767578125,-0.0054512242786586285,-0.0018998990999534726,-0.021815549582242966
1690840575959157800,6.09915771484375,-0.005258944351226091,-0.0019853864796459675,-0.02177480421960354
1690840575969197800,6.10919775390625,-0.003793140407651663,-0.0014820491196587682,-0.020926587283611298
1690840575979268600,6.1192685546875,-0.005702360533177853,-0.0010817759903147817,-0.020172113552689552
1690840575989308700,6.12930859375,-0.005524727515876293,-0.002560629276558757,-0.0206911638379097
1690840575999349500,6.139349609375,-0.004461860284209251,-0.0017630126094445586,-0.019903134554624557
1690840576009389600,6.1493896484375,-0.006583068054169416,-0.001455151243135333,-0.021013405174016953
1690840576019429600,6.1594296875,-0.004275705199688673,-0.002112952060997486,-0.02178465761244297
1690840576029470700,6.169470703125,-0.004734834190458059,-0.002228266792371869,-0.01882774941623211
1690840576039510800,6.1795107421875,-0.0057441722601652145,-0.002176867797970772,-0.02081313729286194
1690840576049550800,6.18955078125,-0.004171309061348438,-0.0013962953817099333,-0.021495969966053963
1690840576059590700,6.199590576171875,-0.0042706448584795,-0.001050084363669157,-0.021094633266329765
1690840576069631500,6.209631591796875,-0.005142830312252045,-0.0034344124142080545,-0.022730613127350807
1690840576079671600,6.219671630859375,-0.0028541097417473793,-0.0009917612187564373,-0.0199822299182415
1690840576089711600,6.229711669921875,-0.005126052536070347,-0.000993625377304852,-0.020075973123311996
1690840576099751700,6.239751708984375,-0.005403287708759308,-0.0037052559200674295,-0.01998436078429222
1690840576109792800,6.249792724609375,-0.0043958136811852455,-0.0011669971281662583,-0.021511416882276535
1690840576119832800,6.259832763671875,-0.0033965955954045057,-0.0015568839153274894,-0.021091170608997345
1690840576129903600,6.269903564453125,-0.0032378712203353643,-0.004099403973668814,-0.021072261035442352
1690840576139943700,6.279943603515625,-0.006593454163521528,-0.002305232221260667,-0.02033829502761364
1690840576149983700,6.289983642578125,-0.0054637412540614605,-0.003877029987052083,-0.01991618424654007
1690840576160024600,6.300024658203125,-0.0037292244378477335,-0.0017867147689685225,-0.021497568115592003
1690840576170064600,6.310064697265625,-0.004508997779339552,-0.003786748740822077,-0.021523667499423027
1690840576180104700,6.320104736328125,-0.0046576024033129215,-0.0031649006996303797,-0.01907249353826046
1690840576190145800,6.330145751953125,-0.003950532991439104,-0.0030040456913411617,-0.019575566053390503
1690840576200185900,6.340185791015625,-0.005617938470095396,-0.0013880395563319325,-0.019457587972283363
1690840576210225700,6.3502255859375,-0.004893292207270861,-0.0010362359462305903,-0.021766282618045807
1690840576220265700,6.360265625,-0.005899434443563223,-0.001912948559038341,-0.020905282348394394
1690840576230306600,6.370306640625,-0.0049550775438547134,-0.0059742690064013,-0.022486133500933647
1690840576240346600,6.3803466796875,-0.003680488560348749,-0.0033718282356858253,-0.020848557353019714
1690840576250386700,6.39038671875,-0.005084773525595665,-0.0006303702248260379,-0.02106853388249874
1690840576260427800,6.400427734375,-0.00532445777207613,-0.0009552759001962841,-0.020190754905343056
1690840576270467800,6.4104677734375,-0.004003263544291258,-0.000708134553860873,-0.020913537591695786
1690840576280538600,6.42053857421875,-0.0028961875941604376,-0.0022117553744465113,-0.023456057533621788
1690840576290578700,6.43057861328125,-0.005829393398016691,-0.002412291243672371,-0.021990519016981125
1690840576300618800,6.44061865234375,-0.005021656397730112,-0.00384453940205276,-0.019461581483483315
1690840576310658800,6.450658935546875,-0.0054448326118290424,-0.003591539105400443,-0.0198671817779541
1690840576320699600,6.46069970703125,-0.004442685283720493,-0.0038693067617714405,-0.019899938255548477
1690840576330739700,6.47073974609375,-0.004041346721351147,-0.003436543047428131,-0.02261662855744362
1690840576340779800,6.48077978515625,-0.0028839372098445892,-0.0019856528379023075,-0.022731676697731018
1690840576350820900,6.49082080078125,-0.004764928016811609,-0.0007459514308720827,-0.0215926431119442
1690840576360860700,6.500860595703125,-0.005200354848057032,-0.0034256239887326956,-0.023986559361219406
1690840576370900700,6.510900634765625,-0.003665574826300144,-0.0018956380663439631,-0.020808076485991478
1690840576380940800,6.52094091796875,-0.00290391081944108,-0.0005896238726563752,-0.021814750507473946
1690840576390981600,6.530981689453125,-0.004847485572099686,-0.001442900625988841,-0.0214240662753582
1690840576401021700,6.541021728515625,-0.003856523660942912,-0.001731853699311614,-0.02142912521958351
1690840576411061800,6.551061767578125,-0.004869057331234217,-0.0006087986403144896,-0.01817980222404003
1690840576421102800,6.561102783203125,-0.00392762990668416,-0.0007906925166025758,-0.021079985424876213
1690840576431172600,6.571172607421875,-0.006768157705664635,-0.0009464874165132642,-0.020232567563652992
1690840576441213700,6.581213623046875,-0.00333267985843122,-0.0023105584550648928,-0.020789701491594315
1690840576451253800,6.591253662109375,-0.004026433452963829,-0.00009054747351910919,-0.021031249314546585
1690840576461293800,6.6012939453125,-0.003668237943202257,-0.0014064153656363487,-0.02171514928340912
1690840576471334700,6.611334716796875,-0.004860002547502518,-0.003120425855740905,-0.01931644044816494
1690840576481374700,6.621374755859375,-0.004626177251338959,-0.0035720979794859886,-0.02046745829284191
1690840576491414800,6.631414794921875,-0.005653624422848225,-0.00373135507106781,-0.02208133414387703
1690840576501454600,6.64145458984375,-0.0036392095498740673,-0.0017084177816286683,-0.021269602701067924
1690840576511495700,6.65149560546875,-0.004892493132501841,-0.00458569684997201,-0.020315658301115036
1690840576521535700,6.66153564453125,-0.004723649006336927,-0.0023307986557483673,-0.020844029262661934
1690840576531575600,6.671575439453125,-0.0046506780199706554,-0.0008141283178701997,-0.020433902740478516
1690840576541616600,6.68161669921875,-0.005988384131342173,0.0002913498319685459,-0.020734040066599846
1690840576551656700,6.69165673828125,-0.005805424880236387,-0.004419249482452869,-0.02021419070661068
1690840576561696800,6.70169677734375,-0.0050099384970963,-0.0026312030386179686,-0.02052897773683071
1690840576571767600,6.711767578125,-0.004809668753296137,-0.0017132115317508578,-0.021867748349905014
1690840576581807600,6.7218076171875,-0.004487160127609968,0.000699079770129174,-0.02039581909775734
1690840576591847700,6.73184765625,-0.004977181553840637,-0.002246376359835267,-0.021738851442933083
1690840576601876000,6.7418759765625,-0.004760134033858776,-0.0025486452504992485,-0.020684238523244858
1690840576611916000,6.751916015625,-0.0039145806804299355,-0.002447977662086487,-0.021165473386645317
1690840576621956000,6.7619560546875,-0.005193963181227446,-0.005759884603321552,-0.02177427150309086
1690840576631997200,6.7719970703125,-0.0049249837175011635,-0.002295911079272628,-0.02160329557955265
1690840576642037200,6.782037353515625,-0.005541239399462938,-0.0018663433147594333,-0.02202966809272766
1690840576652077000,6.7920771484375,-0.003976898267865181,0.000005326322025211994,-0.020016318187117577
1690840576662117000,6.8021171875,-0.004583832807838917,-0.003468767274171114,-0.021708490327000618
1690840576672158000,6.812157958984375,-0.004563859198242426,-0.003754524514079094,-0.020263459533452988
1690840576682198000,6.822197998046875,-0.004317250568419695,-0.0007166566210798919,-0.022721290588378906
1690840576692238000,6.832238037109375,-0.005453621037304401,-0.0015076154377311468,-0.02076227031648159
1690840576702279200,6.842279052734375,-0.004745753016322851,-0.0039278962649405,-0.02010713331401348
1690840576712319200,6.8523193359375,-0.003766242414712906,-0.0021065603941679,-0.021019531413912773
1690840576722390000,6.86239013671875,-0.004524710588157177,-0.0013672668719664216,-0.01762559823691845
1690840576732430000,6.87243017578125,-0.00455773388966918,-0.00407596817240119,-0.020169982686638832
1690840576742470100,6.88247021484375,-0.004714327864348888,-0.004502606578171253,-0.019954266026616096
1690840576752510000,6.892510009765625,-0.005054946057498455,-0.0033832797780632973,-0.021514613181352615
1690840576762551000,6.902551025390625,-0.0036823528353124857,-0.0015092133544385433,-0.021766282618045807
1690840576772591000,6.912591064453125,-0.004017644561827183,-0.003388606244698167,-0.018932677805423737
1690840576782631200,6.922631103515625,-0.003916711080819368,-0.002133192028850317,-0.019482089206576347
1690840576792672300,6.93267236328125,-0.004255997482687235,-0.0017598168924450874,-0.019842680543661118
1690840576802712000,6.942712158203125,-0.0037084517534822226,-0.0021976404823362827,-0.02267921343445778
1690840576812752100,6.952752197265625,-0.0057526943273842335,-0.0037358824629336596,-0.02033243514597416
1690840576822792000,6.9627919921875,-0.005738845560699701,-0.0013022858183830976,-0.020685570314526558
1690840576832833000,6.9728330078125,-0.005470665637403727,-0.0027513117529451847,-0.020366789773106575
1690840576842873000,6.982873046875,-0.0051683965139091015,-0.0038064562249928713,-0.021047495305538177
1690840576852913200,6.9929130859375,-0.004322310443967581,-0.001651426195167005,-0.021740982308983803
1690840576862954200,7.002954345703125,-0.005132177844643593,-0.0011643340112641454,-0.021332185715436935
1690840576873024000,7.01302392578125,-0.004261324182152748,-0.0020999026019126177,-0.01968235895037651
1690840576883065000,7.023065185546875,-0.005320196971297264,-0.0013126720441505313,-0.021946577355265617
1690840576893105200,7.033105224609375,-0.005565473809838295,-0.001478587044402957,-0.019114572554826736
1690840576903145000,7.04314501953125,-0.005091165192425251,-0.0038165762089192867,-0.020782509818673134
1690840576913186000,7.05318603515625,-0.004991030320525169,-0.0019198728259652853,-0.021738318726420403
1690840576923226000,7.06322607421875,-0.006622482556849718,-0.0025443839840590954,-0.02165336348116398
1690840576933266000,7.073265869140625,-0.004482100252062082,-0.0023928501177579165,-0.020207000896334648
1690840576943306000,7.083305908203125,-0.005228317808359861,-0.0030189594253897667,-0.021569740027189255
1690840576953347000,7.09334716796875,-0.003949201665818691,-0.0010013486025854945,-0.020126041024923325
1690840576963387100,7.10338720703125,-0.004122573416680098,-0.0018024274613708258,-0.02256922423839569
1690840576973427000,7.113427001953125,-0.0054754591546952724,-0.002679938916116953,-0.02094070240855217
1690840576983468000,7.123468017578125,-0.004421113524585962,-0.003023220458999276,-0.021437913179397583
1690840576993508000,7.133508056640625,-0.003930026665329933,-0.003796069882810116,-0.020684771239757538
1690840577003548200,7.143548095703125,-0.004285824950784445,-0.0012098740553483367,-0.02021072991192341
1690840577013588000,7.153587890625,-0.0046568033285439014,-0.0019217369845137,-0.02004295028746128
1690840577023659000,7.163658935546875,-0.005204349290579557,-0.004065315239131451,-0.020769726485013962
1690840577033699000,7.173698974609375,-0.004485296085476875,-0.001651426195167005,-0.02111167646944523
1690840577043740200,7.183740234375,-0.0063034361228346825,-0.004343615844845772,-0.021347632631659508
1690840577053780000,7.193780029296875,-0.004524976946413517,-0.002112952060997486,-0.02117692492902279
1690840577063820000,7.203820068359375,-0.005139101762324572,-0.0026698189321905375,-0.020308466628193855
1690840577073861000,7.213861083984375,-0.00535375252366066,-0.0032716933637857437,-0.022243786603212357
1690840577083901000,7.22390087890625,0.003942809998989105,-0.05521957948803902,0.06059969589114189
1690840577093941000,7.23394091796875,0.035592615604400635,0.015471634455025196,0.0011488876771181822
1690840577103981000,7.24398095703125,0.01697605475783348,0.038543928414583206,0.03542803227901459
1690840577114022100,7.254022216796875,0.012538694776594639,-0.02515275776386261,0.013936322182416916
1690840577124062000,7.26406201171875,-0.002320412313565612,-0.04069576412439346,-0.027243338525295258
1690840577134102000,7.27410205078125,-0.010959707200527191,-0.0035779569298028946,-0.06698595732450485
1690840577144143000,7.28414306640625,-0.01480397954583168,0.018731608986854553,-0.05191060155630112
1690840577154183200,7.29418310546875,-0.016110526397824287,-0.02900635078549385,-0.016456738114356995
1690840577164223000,7.304222900390625,-0.016034360975027084,-0.006602242588996887,-0.039191875606775284
1690840577174294000,7.3142939453125,-0.013353622518479824,0.0005395564367063344,-0.05891737714409828
1690840577184334000,7.324333984375,-0.008437693119049072,-0.036730051040649414,-0.04619412496685982
1690840577194375000,7.334375,-0.0027268105186522007,-0.03154114633798599,-0.03536651283502579
1690840577204415000,7.3444150390625,0.00009347695595351979,-0.022605709731578827,-0.04544098302721977
1690840577214455000,7.354455078125,-0.0060208747163414955,-0.018488729372620583,-0.01774330995976925
1690840577224494800,7.364494873046875,-0.007749532349407673,0.029404228553175926,0.018629610538482666
1690840577234536000,7.374535888671875,-0.010350641794502735,0.04102785885334015,0.022849388420581818
1690840577244576000,7.384575927734375,-0.006901581771671772,0.06432173401117325,0.0037023264449089766
1690840577254616000,7.394615966796875,-0.004456267226487398,0.039381761103868484,0.013843377120792866
1690840577264656100,7.40465625,0.0002788329729810357,0.016459932550787926,0.006677343975752592
1690840577274697000,7.414697021484375,0.00430020596832037,-0.012601013295352459,0.0014857775531709194
1690840577284737000,7.424737060546875,0.0020327907986938953,-0.03351029008626938,-0.010250773280858994
1690840577294777000,7.434777099609375,-0.0009893643436953425,-0.04237435385584831,-0.015527560375630856
1690840577304818200,7.444818115234375,-0.007817975245416164,-0.03687040135264397,-0.02575915865600109
1690840577314858000,7.45485791015625,-0.011427091434597969,-0.019601397216320038,-0.030770428478717804
1690840577324929000,7.464928955078125,-0.01110112015157938,-0.0001054611784638837,-0.03898095339536667
1690840577334969000,7.474968994140625,-0.006999319884926081,0.017303090542554855,-0.04153173044323921
1690840577345009200,7.485009033203125,-0.0026407905388623476,0.022886672988533974,-0.04548279568552971
1690840577355050000,7.495050048828125,0.001722798915579915,0.024597754701972008,-0.04512220248579979
1690840577365090000,7.505090087890625,0.0014325142838060856,0.01691027358174324,-0.0436425507068634
1690840577375129900,7.5151298828125,0.0003733751946128905,0.0004468784318305552,-0.04054343327879906
1690840577385170000,7.525169921875,-0.004474110435694456,-0.00965848658233881,-0.03489992767572403
1690840577395211000,7.5352109375,-0.007047789636999369,-0.023143136873841286,-0.029263878241181374
1690840577405251000,7.5452509765625,-0.00942306313663721,-0.024470455944538116,-0.02767849899828434
1690840577415291100,7.555291015625,-0.009574064053595066,-0.016896158456802368,-0.017974207177758217
1690840577425332000,7.56533203125,-0.0065465825609862804,-0.008555937558412552,-0.014223677106201649
1690840577435372000,7.5753720703125,-0.0023521038237959146,0.001695900922641158,-0.008272843435406685
1690840577445412000,7.585412109375,-0.0015369103057309985,0.008251272141933441,-0.004259726032614708
1690840577455452000,7.595451904296875,-0.0019952403381466866,0.013765879906713963,-0.0038360171020030975
1690840577465493000,7.605492919921875,-0.0028655612841248512,0.010321080684661865,-0.0022357236593961716
1690840577475563000,7.61556298828125,-0.006608634255826473,0.006336991675198078,-0.0036450685001909733
1690840577485604000,7.62560400390625,-0.006405168678611517,-0.0019259981345385313,-0.0049436260014772415
1690840577495644200,7.63564404296875,-0.006656837183982134,-0.008110390976071358,-0.009948504157364368
1690840577505684200,7.645684326171875,-0.006066414527595043,-0.012108594179153442,-0.012319250032305717
1690840577515725000,7.65572509765625,-0.004426706116646528,-0.011446000076830387,-0.017129452899098396
1690840577525764900,7.665764892578125,-0.0056770602241158485,-0.00914289802312851,-0.02171514928340912
1690840577535805000,7.675804931640625,-0.003983556292951107,-0.002296976512297988,-0.026878219097852707
1690840577545845000,7.685844970703125,-0.00538517814129591,0.0020815266761928797,-0.02804388478398323
1690840577555886000,7.695885986328125,-0.004092479590326548,0.0049319081008434296,-0.03214754909276962
1690840577565926100,7.705926025390625,-0.0046783750876784325,0.0075940038077533245,-0.03376089408993721
1690840577575966200,7.71596630859375,-0.006628607865422964,0.0016042882343754172,-0.034743066877126694
1690840577586007000,7.726007080078125,-0.005392368417233229,0.000360059377271682,-0.03375956043601036
1690840577596046800,7.736046875,-0.004607534967362881,-0.00461712246760726,-0.031193340197205544
1690840577606089200,7.746089111328125,-0.005557750817388296,-0.008480836637318134,-0.02895122393965721
1690840577616129300,7.75612939453125,-0.0030011162161827087,-0.00905394833534956,-0.026617761701345444
1690840577626200000,7.766199951171875,-0.004275705199688673,-0.008198807947337627,-0.02220303937792778
1690840577636241000,7.776240966796875,-0.005586512852460146,-0.004206462763249874,-0.022649917751550674
1690840577646281000,7.786281005859375,-0.0035920715890824795,-0.0025931198615580797,-0.016444753855466843
1690840577656321000,7.796321044921875,-0.006592655088752508,0.001597630325704813,-0.014705176465213299
1690840577666361000,7.806361083984375,-0.004992628004401922,-0.0004846953088417649,-0.012746155261993408
1690840577676402200,7.816402099609375,-0.005510080140084028,0.0015867113834246993,-0.011060107499361038
1690840577686442200,7.826442138671875,-0.00447038235142827,-0.0008072041091509163,-0.009325857274234295
1690840577696482000,7.83648193359375,-0.005046423990279436,-0.004069842863827944,-0.00974210910499096
1690840577706522000,7.846522216796875,-0.005467736162245274,-0.003576891729608178,-0.01074132788926363
1690840577716563000,7.85656298828125,-0.005146558862179518,-0.005283977836370468,-0.015664713457226753
1690840577726603000,7.86660302734375,-0.005554022267460823,-0.006299973931163549,-0.01733371615409851
1690840577736643000,7.87664306640625,-0.004265584982931614,-0.00430153775960207,-0.018338261172175407
1690840577746684200,7.88668408203125,-0.004310858901590109,-0.0024881914723664522,-0.021617943421006203
1690840577756724200,7.89672412109375,-0.004710332956165075,-0.0003057308786083013,-0.023925306275486946
1690840577766764000,7.906763916015625,-0.004005394410341978,0.0015044197207316756,-0.0233540590852499
1690840577776835000,7.9168349609375,-0.0054791877046227455,0.001460477476939559,-0.02755413018167019
1690840577786875100,7.926875244140625,-0.003748665563762188,-0.0022652847692370415,-0.02779967337846756
1690840577796916000,7.936916015625,-0.0038165762089192867,-0.0041670482605695724,-0.026642529293894768
1690840577806956000,7.9469560546875,-0.004028031136840582,-0.004761199466884136,-0.02822711132466793
1690840577816996000,7.95699609375,-0.0026735474821180105,-0.0033190976828336716,-0.02780686318874359
1690840577827036200,7.9670361328125,-0.004809935111552477,-0.002121474128216505,-0.026008164510130882
1690840577837077200,7.9770771484375,-0.005709018558263779,-0.0033859428949654102,-0.02484116703271866
1690840577847117000,7.987116943359375,-0.003858654061332345,-0.0003347593592479825,-0.02280118688941002
1690840577857156900,7.997156982421875,-0.004993959795683622,-0.0003097256412729621,-0.021348165348172188
1690840577867198000,8.007197998046875,-0.004727909807115793,-0.0008040083339437842,-0.01780536212027073
1690840577877238000,8.017238037109376,-0.005064799915999174,-0.0004743089957628399,-0.01683650352060795
1690840577887278000,8.027278076171875,-0.0041156490333378315,-0.0021494373213499784,-0.015509184449911118
1690840577897318100,8.037318115234376,-0.003070092061534524,-0.003382214577868581,-0.01356481108814478
1690840577907359200,8.047359130859375,-0.004369714763015509,-0.004421912599354982,-0.013743508607149124
1690840577917399000,8.05739892578125,-0.004156395327299833,-0.0031198931392282248,-0.014878815039992332
1690840577927470000,8.067469970703126,-0.004467452876269817,-0.0044293696992099285,-0.017834125086665154
1690840577937510000,8.077510009765625,-0.005432049743831158,-0.004139351192861795,-0.016946759074926376
1690840577947550000,8.087550048828126,-0.003969441633671522,0.00004793690095539205,-0.01968289166688919
1690840577957591000,8.097591064453125,-0.004505536053329706,-0.0016783240716904402,-0.019847474992275238
1690840577967631000,8.107631103515626,-0.0049103363417088985,-0.0006804376607760787,-0.02184564433991909
1690840577977671200,8.117671142578125,-0.0039880839176476,-0.0010460896883159876,-0.022521020844578743
1690840577987711000,8.1277109375,-0.002823217073455453,-0.0017393104499205947,-0.025645975023508072
1690840577997752000,8.137751953125,-0.004929777234792709,-0.00239205127581954,-0.024770859628915787
1690840578007791900,8.1477919921875,-0.004780640359967947,-0.003805657150223851,-0.025848109275102615
1690840578017832000,8.15783203125,-0.003686880227178335,-0.001312405802309513,-0.02359294332563877
1690840578027873000,8.167873046875,-0.0039854203350842,-0.003072488820180297,-0.02328508161008358
1690840578037913000,8.1779130859375,-0.004847219679504633,-0.003099653171375394,-0.023664316162467003
1690840578047953200,8.187953125,-0.005486910697072744,-0.004231763072311878,-0.022972427308559418
1690840578057993000,8.197992919921875,-0.0029108349699527025,-0.001910019083879888,-0.022525815293192863
1690840578068034000,8.208033935546876,-0.005619269795715809,-0.0014833806781098247,-0.01907196082174778
1690840578078105000,8.21810498046875,-0.004877579398453236,-0.0010090717114508152,-0.018377941101789474
1690840578088145000,8.228144775390625,-0.005569468718022108,-0.00017177389236167073,-0.015955530107021332
1690840578098185000,8.23818505859375,-0.005642971955239773,-0.003489539958536625,-0.017675932496786118
1690840578108225000,8.24822509765625,-0.0038605183362960815,-0.0029678267892450094,-0.01643037237226963
1690840578118266000,8.25826611328125,-0.004217115696519613,-0.0025742114521563053,-0.018041051924228668
1690840578128306200,8.26830615234375,-0.006617422681301832,-0.003712712787091732,-0.019044265151023865
1690840578138346000,8.278345947265626,-0.004299407359212637,-0.004535097163170576,-0.01949194259941578
1690840578148387000,8.288386962890625,-0.005309544038027525,-0.0030740867368876934,-0.020181434229016304
1690840578158427000,8.298427001953126,-0.004579837899655104,-0.0015691345324739814,-0.021893048658967018
1690840578168467000,8.308467041015625,-0.004284759983420372,-0.0003182477375958115,-0.020869063213467598
1690840578178507000,8.318507080078126,-0.005083441734313965,-0.0006649913266301155,-0.020304739475250244
1690840578188548000,8.328548095703125,-0.0038330876268446445,-0.0018285263795405626,-0.021434186026453972
1690840578198588200,8.338588134765626,-0.005702094174921513,-0.0029055087361484766,-0.020020579919219017
1690840578208628000,8.3486279296875,-0.003778493031859398,-0.003151318524032831,-0.021207550540566444
1690840578218668000,8.35866796875,-0.0054632085375487804,-0.0031135017052292824,-0.021191038191318512
1690840578228739000,8.368739013671876,-0.004936435259878635,-0.004693288821727037,-0.024701351299881935
1690840578238780000,8.37877978515625,-0.005080245900899172,-0.002737463219091296,-0.02321610599756241
1690840578248820000,8.388820068359376,-0.004691424313932657,0.00016218650853261352,-0.023060046136379242
1690840578258860000,8.398860107421875,-0.005028314422816038,0.0015028218040242791,-0.020960941910743713
1690840578268900000,8.408900146484376,-0.00490234699100256,-0.0014948323369026184,-0.0225074402987957
1690840578278941200,8.418941162109375,-0.004382231738418341,-0.0020628846250474453,-0.020556673407554626
1690840578288981000,8.42898095703125,-0.00507092522457242,-0.003281813347712159,-0.018813900649547577
1690840578299021000,8.43902099609375,-0.003385676769539714,-0.0023164174053817987,-0.019046396017074585
1690840578309062000,8.449061767578126,-0.004393949639052153,-0.004959338344633579,-0.017897773534059525
1690840578319102000,8.45910205078125,-0.006524744443595409,-0.004997155629098415,-0.01617923565208912
1690840578329142000,8.46914208984375,-0.004263720940798521,-0.0021813951898366213,-0.018275409936904907
1690840578339182000,8.47918212890625,-0.003693005535751581,-0.003037601476535201,-0.01937609538435936
1690840578349223200,8.48922314453125,-0.005129780620336533,-0.004341484978795052,-0.02021019719541073
1690840578359263000,8.499262939453125,-0.005419799126684666,-0.0006391586503013968,-0.020844029262661934
1690840578369303000,8.509302978515626,-0.002798982197418809,-0.000032490566809428856,-0.02323448285460472
1690840578379374000,8.5193740234375,-0.004200870171189308,0.0009470200748182833,-0.02015826478600502
1690840578389414100,8.5294140625,-0.006165483966469765,-0.0009901633020490408,-0.02148451842367649
1690840578399455000,8.539455078125,-0.0038195056840777397,-0.0015845808666199446,-0.01996918022632599
1690840578409495000,8.5494951171875,-0.005501824431121349,-0.0012343751732259989,-0.02015933021903038
1690840578419535000,8.55953515625,-0.005332713946700096,-0.006477074231952429,-0.02095162123441696
1690840578429575000,8.569574951171875,-0.004719387739896774,-0.0026117621455341578,-0.02196149155497551
1690840578439616000,8.579615966796876,-0.006003564223647118,-0.0008450209861621261,-0.020120181143283844
1690840578449656000,8.589656005859375,-0.003861050819978118,-0.0031526500824838877,-0.022373216226696968
1690840578459696000,8.599696044921876,-0.0037297571543604136,-0.0017001620726659894,-0.021990785375237465
1690840578469737000,8.609737060546875,-0.005564408842474222,-0.001461010193452239,-0.020493291318416595
1690840578479777000,8.619777099609376,-0.005057342816144228,0.00044022052315995097,-0.021648038178682327
1690840578489817000,8.629817138671875,-0.005268797744065523,-0.0003856257244478911,-0.01985333301126957
1690840578499857000,8.63985693359375,-0.004099403973668814,-0.00013608753215521574,-0.019883427768945694
1690840578509898000,8.64989794921875,-0.006780407857149839,-0.0022096247412264347,-0.01960858888924122
1690840578519969000,8.659968994140625,-0.005470931995660067,-0.003287405939772725,-0.01942909136414528
1690840578530009000,8.670009033203126,-0.004824582487344742,-0.0023289343807846308,-0.018067417666316032
1690840578540049200,8.680049072265625,-0.005057342816144228,-0.0035689021460711956,-0.018988605588674545
1690840578550089200,8.690089111328126,-0.004334561061114073,-0.002668753731995821,-0.019222697243094444
1690840578560130000,8.700130126953125,-0.004597947467118502,-0.0017797905020415783,-0.022701317444443703
1690840578570169900,8.710169921875,-0.0057287258096039295,0.0012199940392747521,-0.016985109075903893
1690840578580210000,8.7202099609375,-0.003093261504545808,0.0004972121678292751,-0.021750302985310555
1690840578590251000,8.7302509765625,-0.00535561703145504,-0.001204547705128789,-0.020620856434106827
1690840578600287700,8.740287841796874,-0.005225121974945068,0.001205080421641469,-0.020021112635731697
1690840578610327800,8.750327880859375,-0.0038075214251875877,0.0009555422002449632,-0.021045630797743797
1690840578620368000,8.760367919921874,-0.004591822158545256,0.00042983421008102596,-0.020684771239757538
1690840578630408700,8.77040869140625,-0.004203533288091421,0.002511893631890416,-0.018876751884818077
1690840578640448800,8.78044873046875,-0.004119910299777985,-0.004216050263494253,-0.021641911938786507
1690840578650488800,8.79048876953125,-0.004607268609106541,-0.0032570459879934788,-0.02197027951478958
1690840578660530000,8.800530029296874,-0.004320180043578148,-0.00011371697473805398,-0.021859493106603622
1690840578670599700,8.810599609375,-0.004342816770076752,-0.002688460983335972,-0.0214815903455019
1690840578680640800,8.820640869140625,-0.003805657150223851,-0.003757453989237547,-0.02094682678580284
1690840578690680800,8.830680908203124,-0.0038091193418949842,0.0005358280031941831,-0.02293008379638195
1690840578700721000,8.840720947265625,-0.0032495891209691763,0.001776328426785767,-0.02148585021495819
1690840578710760700,8.8507607421875,-0.004727110732346773,-0.0010098706698045135,-0.019994746893644333
1690840578720801800,8.8608017578125,-0.0038219024427235126,0.002240517409518361,-0.017286578193306923
1690840578730841900,8.870841796875,-0.0041185785084962845,-0.0012916331179440022,-0.018196314573287964
1690840578740881700,8.880881591796875,-0.003561977995559573,-0.0017590179340913892,-0.01798858866095543
1690840578750922800,8.8909228515625,-0.0040916805155575275,0.0008620652370154858,-0.0175185389816761
1690840578760962800,8.900962890625,-0.004673581570386887,-0.0031193606555461884,-0.02070501260459423
1690840578771003000,8.9110029296875,-0.004743089899420738,-0.0037081853952258825,-0.020262394100427628
1690840578781042700,8.921042724609375,-0.0054818508215248585,-0.0019955066964030266,-0.020123910158872604
1690840578791083800,8.931083740234374,-0.006058158818632364,-0.0008737831376492977,-0.021501297131180763
1690840578801123800,8.941123779296875,-0.005131378769874573,-0.001990446588024497,-0.020297281444072723
1690840578811164000,8.951163818359374,-0.003962783608585596,-0.0013105415273457766,-0.02009195275604725
1690840578821234700,8.961234619140624,-0.004229366313666105,-0.000031158982892520726,-0.022910641506314278
1690840578831274800,8.971274658203125,-0.004707137122750282,-0.002681004349142313,-0.021858161315321922
1690840578841315800,8.98131591796875,-0.004748149774968624,-0.0018961706664413214,-0.02184244804084301
1690840578851356000,8.99135595703125,-0.004608866758644581,-0.0005318332696333528,-0.022283202037215233
1690840578861395700,9.001395751953124,-0.0029920614324510098,-0.0019438412273302674,-0.019772106781601906
1690840578871435800,9.011435791015625,-0.005270395893603563,-0.0007747135823592544,-0.02117905393242836
1690840578881476900,9.021476806640624,-0.003734284546226263,-0.003603257006034255,-0.02256949059665203
1690840578891516700,9.0315166015625,-0.003925499506294727,-0.005095159634947777,-0.021744443103671074
1690840578901556700,9.041556640625,-0.005251487251371145,-0.003522563260048628,-0.018984876573085785
1690840578911597800,9.051597900390625,-0.004935636185109615,-0.0031164311803877354,-0.01932070031762123
1690840578921638000,9.061637939453124,-0.005018460564315319,-0.0026932547334581614,-0.019169166684150696
1690840578931677700,9.071677734375,-0.005364405456930399,-0.0010586065473034978,-0.01805809698998928
1690840578941717800,9.0817177734375,-0.005394232925027609,-0.00023276027059182525,-0.021379590034484863
1690840578951758800,9.0917587890625,-0.0028399948496371508,-0.0014655375853180885,-0.02040061354637146
1690840578961799000,9.101798828125,-0.0054421694949269295,-0.001008805469609797,-0.021685320883989334
1690840578971869700,9.11186962890625,-0.00433056615293026,-0.004177700728178024,-0.019280221313238144
1690840578981909800,9.12190966796875,-0.003564374754205346,-0.002237587934359908,-0.02281317114830017
1690840578991949800,9.13194970703125,-0.004503405187278986,-0.002014681464061141,-0.021390775218605995
1690840579001991000,9.141990966796875,-0.00413482403382659,-0.0036450685001909733,-0.021344436332583427
1690840579012030700,9.15203076171875,-0.004547880031168461,-0.0018365158466622233,-0.020779846236109734
1690840579022070800,9.16207080078125,-0.003748665563762188,-0.00481419637799263,-0.020422184839844704
1690840579032111900,9.17211181640625,-0.006630738265812397,-0.0027244137600064278,-0.020414993166923523
1690840579042151700,9.182151611328125,-0.005240302067250013,0.0019771307706832886,-0.016809606924653053
1690840579052191700,9.192191650390624,-0.004376106429845095,0.0008732505375519395,-0.020504210144281387
1690840579062231800,9.202231689453125,-0.003965446725487709,-0.0026517093647271395,-0.02257295325398445
1690840579072273000,9.21227294921875,-0.004063717555254698,-0.002814428647980094,-0.02142379991710186
1690840579082312700,9.222312744140625,-0.003600061172619462,0.0006085322820581496,-0.020921526476740837
1690840579092352800,9.232352783203124,-0.005060005933046341,-0.0014354437589645386,-0.01985280029475689
1690840579102393900,9.242393798828125,-0.00532445777207613,0.000004261057711119065,-0.019959859549999237
1690840579112434000,9.252433837890624,-0.0048826392740011215,-0.0012447615154087543,-0.020000074058771133
1690840579122504700,9.262504638671874,-0.005193696822971106,-0.002430933527648449,-0.018319351598620415
1690840579132544800,9.272544677734375,-0.004067978356033564,-0.0024234766606241465,-0.020654678344726562
1690840579142584800,9.282584716796874,-0.004310858901590109,-0.003668770659714937,-0.01997876726090908
1690840579152625000,9.292625,-0.005590507760643959,-0.00026551715563982725,-0.019999274984002113
1690840579162665700,9.302665771484374,-0.005920207127928734,-0.0017012272728607059,-0.020069049671292305
1690840579172705800,9.312705810546875,-0.00561181316152215,-0.0037324202712625265,-0.020964670926332474
1690840579182745600,9.32274560546875,-0.005881857592612505,-0.0028045750223100185,-0.019098859280347824
1690840579192786700,9.33278662109375,-0.006719155237078667,-0.002855707658454776,-0.020183565095067024
1690840579202826800,9.34282666015625,-0.003965446725487709,-0.0013619405217468739,-0.0196064580231905
1690840579212866800,9.35286669921875,-0.006376673001796007,-0.0020815266761928797,-0.020747622475028038
1690840579222907000,9.362906982421874,-0.0043563987128436565,0.000041811628761934116,-0.01661093533039093
1690840579232947700,9.37294775390625,-0.004492752719670534,-0.001865011639893055,-0.020689832046628
1690840579242987800,9.38298779296875,-0.005298891570419073,-0.0025648903101682663,-0.02160968817770481
1690840579253027600,9.393027587890625,-0.005139368120580912,-0.002941727638244629,-0.020110061392188072
1690840579263068700,9.403068603515624,-0.004511661361902952,-0.0028932581190019846,-0.021514613181352615
1690840579273138700,9.413138671875,-0.004582235123962164,-0.0024740765802562237,-0.020305538550019264
1690840579283179800,9.4231796875,-0.003912982530891895,0.002115082461386919,-0.01992417313158512
1690840579293219800,9.4332197265625,-0.004610730800777674,-0.004051200579851866,-0.020115388557314873
1690840579303260000,9.443260009765625,-0.005617139395326376,-0.004564658273011446,-0.019390741363167763
1690840579313300700,9.45330078125,-0.004107393324375153,-0.003478088416159153,-0.02116973325610161
1690840579323340800,9.4633408203125,-0.003985154442489147,-0.0031473238486796618,-0.019870111718773842
1690840579333380600,9.473380615234374,-0.003846936160698533,-0.002180063631385565,-0.020055999979376793
1690840579343420700,9.483420654296875,-0.0057311225682497025,-0.0024445154704153538,-0.020440559834241867
1690840579353461800,9.493461669921874,-0.004795554094016552,-0.0005342300864867866,-0.02010446973145008
1690840579363501800,9.503501708984375,-0.0048946235328912735,-0.0038863508962094784,-0.02015134133398533
1690840579373542000,9.5135419921875,-0.0037473340053111315,-0.00011717908637365326,-0.022595323622226715
1690840579383582000,9.52358203125,-0.005292233545333147,-0.002692455891519785,-0.021383319050073624
1690840579393622800,9.533622802734374,-0.003751595038920641,-0.0022096247412264347,-0.021041635423898697
1690840579403662600,9.54366259765625,-0.0049462891183793545,-0.0012871057260781527,-0.021275727078318596
1690840579413702700,9.55370263671875,-0.005622998345643282,-0.002772350562736392,-0.020666662603616714
1690840579423773700,9.563773681640624,-0.005203550215810537,-0.0025068335235118866,-0.02094442956149578
1690840579433813800,9.573813720703125,-0.005278385244309902,-0.0022564963437616825,-0.018853316083550453
1690840579443854800,9.583854736328124,-0.005317533854395151,-0.001241033081896603,-0.020193951204419136
1690840579453895000,9.59389501953125,-0.005052282940596342,-0.0026642263401299715,-0.020170249044895172
1690840579463935000,9.60393505859375,-0.005682386923581362,-0.0014554174849763513,-0.017737451940774918
1690840579473975800,9.613975830078125,-0.00501047121360898,-0.0016852483386173844,-0.020442957058548927
1690840579484015600,9.624015625,-0.005633917171508074,-0.003035204717889428,-0.0189643707126379
1690840579494055700,9.6340556640625,-0.004187554586678743,-0.0008341020438820124,-0.020716197788715363
1690840579504095700,9.644095703125,-0.0046882289461791515,-0.0026375947054475546,-0.019463978707790375
1690840579514136800,9.65413671875,-0.004473311826586723,-0.004573978949338198,-0.02178359217941761
1690840579524177000,9.664177001953124,-0.00430127140134573,-0.0031459920573979616,-0.022155901417136192
1690840579534217000,9.674217041015625,-0.004670652095228434,-0.002016545506194234,-0.02117612585425377
1690840579544257800,9.6842578125,-0.006506368983536959,-0.004102067090570927,-0.023426495492458344
1690840579554297600,9.694297607421875,-0.005988916382193565,-0.0018106831703335047,-0.01890178583562374
1690840579564337700,9.704337646484374,-0.004343882203102112,-0.002005093963816762,-0.020350279286503792
1690840579574408700,9.71440869140625,-0.005662679206579924,-0.0007789746159687638,-0.02052258513867855
1690840579584448800,9.72444873046875,-0.005615807604044676,-0.0025619608350098133,-0.021136976778507233
1690840579594488800,9.73448876953125,-0.0037910097744315863,-0.0019254654180258512,-0.02045627310872078
1690840579604536800,9.744536865234375,-0.0048858351074159145,-0.0008069378091022372,-0.02076040580868721
1690840579614576600,9.75457666015625,-0.005277586169540882,-0.002217081608250737,-0.0198645181953907
1690840579624616700,9.76461669921875,-0.004238953348249197,-0.0021811288315802813,-0.02190982550382614
1690840579634657500,9.774657470703126,-0.00512711750343442,-0.0007904262165538967,-0.02034149132668972
1690840579644697600,9.784697509765625,-0.003784085623919964,-0.0031936627347022295,-0.023515712469816208
1690840579654737700,9.794737548828126,-0.005166266113519669,-0.0029001825023442507,-0.018324146047234535
1690840579664777700,9.80477783203125,-0.00412417110055685,-0.0018213358707726002,-0.020720990374684334
1690840579674818800,9.81481884765625,-0.004966262727975845,-0.0013760552974417806,-0.021266672760248184
1690840579684858600,9.824858642578125,-0.003959321416914463,-0.002097505610436201,-0.020000074058771133
1690840579694898700,9.834898681640626,-0.005315402988344431,-0.0026943201664835215,-0.02027624286711216
1690840579704939500,9.844939453125,-0.005183043889701366,-0.0023550332989543676,-0.021557223051786423
1690840579714979600,9.8549794921875,-0.004102866165339947,0.00023941817926242948,-0.02129490301012993
1690840579725050600,9.865050537109376,-0.004756139125674963,-0.0031153657473623753,-0.022348714992403984
1690840579735090700,9.875090576171875,-0.005651760380715132,-0.0024780714884400368,-0.018969429656863213
1690840579745130800,9.885130859375,-0.004129763692617416,-0.0018229337874799967,-0.020422983914613724
1690840579755171800,9.895171875,-0.004471180960536003,-0.003072755178436637,-0.02040593884885311
1690840579765211600,9.905211669921876,-0.004077832214534283,-0.0030692932195961475,-0.020617127418518066
1690840579775251700,9.915251708984375,-0.005360943265259266,-0.0017097494564950466,-0.018504975363612175
1690840579785291800,9.925291748046876,-0.0043505397625267506,-0.000713993504177779,-0.021813951432704926
1690840579795332600,9.93533251953125,-0.003198190126568079,0.0010021475609391928,-0.021746573969721794
1690840579805372700,9.94537255859375,-0.005274390336126089,-0.0025212145410478115,-0.021573469042778015
1690840579815412700,9.955412841796875,-0.003944141324609518,-0.0013552826130762696,-0.022354042157530785
1690840579825452500,9.96545263671875,-0.005568137392401695,-0.0005813680472783744,-0.019756926223635674
1690840579835493600,9.97549365234375,-0.004488491453230381,-0.0011092065833508968,-0.02148372121155262
1690840579845533700,9.98553369140625,-0.0041670482605695724,-0.0013584784464910626,-0.019882628694176674
1690840579855573800,9.99557373046875,-0.0057132793590426445,-0.0036618465092033148,-0.0199260376393795
1690840579865614600,10.005614501953126,-0.0040442761965096,-0.0018847191240638494,-0.02070368081331253
1690840579875684900,10.015684814453126,-0.005272259935736656,-0.0014626081101596355,-0.018881546333432198
1690840579885725700,10.0257255859375,-0.005884787067770958,-0.0017217335989698768,-0.02118438109755516
1690840579895765800,10.035765869140626,-0.004107926040887833,-0.0011432950850576162,-0.019935091957449913
1690840579905805600,10.0458056640625,-0.0064957160502672195,-0.003436543047428131,-0.01998409442603588
1690840579915846700,10.0558466796875,-0.005245894659310579,-0.0025276062078773975,-0.019825635477900505
1690840579925886700,10.06588671875,-0.002926813904196024,-0.0024434502702206373,-0.01985200121998787
1690840579935926800,10.0759267578125,-0.005622998345643282,-0.0018738001817837358,-0.021496236324310303
1690840579945966800,10.085966796875,-0.005260009318590164,-0.0024716798216104507,-0.020010460168123245
1690840579956007700,10.096007568359376,-0.004071706905961037,-0.0018133464036509395,-0.018250908702611923
1690840579966047700,10.1060478515625,-0.004619785584509373,-0.0014229270163923502,-0.02238733135163784
1690840579976087600,10.116087646484376,-0.005216067191213369,-0.0007880293414928019,-0.019948674365878105
1690840579986128600,10.126128662109375,-0.0068027786910533905,-0.0007994809420779347,-0.020922591909766197
1690840579996168700,10.136168701171876,-0.004789961501955986,-0.0032019184436649084,-0.02237880788743496
1690840580006208800,10.146208740234375,-0.004986769054085016,-0.0006162554491311312,-0.019933493807911873
1690840580016248600,10.15624853515625,-0.004378236830234528,-0.0017084177816286683,-0.019532421603798866
1690840580026319600,10.166319580078126,-0.004352137912064791,-0.0027750139124691486,-0.020984111353754997
1690840580036359400,10.176359375,-0.005634716246277094,-0.002150502521544695,-0.02039182372391224
1690840580046400800,10.18640087890625,-0.004727909807115793,-0.0006032059900462627,-0.020838169381022453
1690840580056440600,10.196440673828125,-0.0059774648398160934,0.00039228363311849535,-0.022952454164624214
1690840580066480600,10.206480712890626,-0.002757703186944127,0.00011291803093627095,-0.02106373943388462
1690840580076521700,10.216521728515625,-0.0036695697344839573,-0.0021813951898366213,-0.02124643325805664
1690840580086561800,10.226561767578126,-0.004591289907693863,-0.003602191573008895,-0.01889326423406601
1690840580096601600,10.2366015625,-0.0059694754891097546,-0.0016591493040323257,-0.019944678992033005
1690840580106641700,10.2466416015625,-0.004395014606416225,-0.0020034960471093655,-0.021570272743701935
1690840580116682800,10.256682861328125,-0.004740693140774965,-0.0010839065071195364,-0.020844295620918274
1690840580126722600,10.26672265625,-0.0051931641064584255,-0.005857356358319521,-0.021027786657214165
1690840580136762600,10.2767626953125,-0.004087153356522322,-0.0014506238512694836,-0.020480507984757423
1690840580146803700,10.2868037109375,-0.0041068606078624725,-0.0011353056179359555,-0.018969163298606873
1690840580156843800,10.29684375,-0.0054970309138298035,-0.0038248319178819656,-0.022040054202079773
1690840580166883600,10.306883544921876,-0.003724164329469204,-0.004928978625684977,-0.01900484971702099
1690840580176954600,10.31695458984375,-0.005712480284273624,-0.0033510555513203144,-0.021446969360113144
1690840580186994400,10.326994384765625,-0.005206213798373938,-0.0026194851379841566,-0.018879415467381477
1690840580197035500,10.337035400390626,-0.003993143793195486,-0.004473311826586723,-0.018759839236736298
1690840580207075600,10.34707568359375,-0.0029888655990362167,-0.002609365154057741,-0.020591827109456062
1690840580217115600,10.35711572265625,-0.005486377980560064,-0.002118544653058052,-0.020063189789652824
1690840580227155700,10.36715576171875,-0.003802194958552718,-0.0032538501545786858,-0.020925521850585938
1690840580237196800,10.37719677734375,-0.007104514632374048,-0.0028367992490530014,-0.02165842428803444
1690840580247236600,10.387236572265625,-0.004334827419370413,-0.002301770029589534,-0.01912522502243519
1690840580257276700,10.397276611328126,-0.004293814767152071,-0.0016056197928264737,-0.02093670703470707
1690840580267317800,10.40731787109375,-0.006202768534421921,-0.0019028285751119256,-0.018484733998775482
1690840580277357600,10.417357666015626,-0.004159324802458286,-0.002127066720277071,-0.02064802125096321
1690840580287397600,10.427397705078125,-0.005468801129609346,-0.004771052859723568,-0.021743910387158394
1690840580297437700,10.437437744140626,-0.0041010016575455666,-0.002808303339406848,-0.02286403626203537
1690840580307478800,10.447478759765625,-0.003876497270539403,-0.003051982494071126,-0.021887987852096558
1690840580317518600,10.4575185546875,-0.006097307428717613,-0.0018572885310277343,-0.022045381367206573
1690840580327589600,10.467589599609376,-0.0059995693154633045,-0.0014953649369999766,-0.018040519207715988
1690840580337629400,10.47762939453125,-0.004984905011951923,0.00015233281010296196,-0.02076599933207035
1690840580347669500,10.48766943359375,-0.0038903458043932915,-0.001585646066814661,-0.021035511046648026
1690840580357710600,10.497710693359375,-0.004332696553319693,-0.002689260058104992,-0.02070181630551815
1690840580367750700,10.507750732421876,-0.005375057924538851,-0.0032296155113726854,-0.019216571003198624
1690840580377790700,10.517790771484375,-0.004910869058221579,-0.001891909632831812,-0.0201587975025177
1690840580387830800,10.527830810546876,-0.004869856406003237,-0.0018122810870409012,-0.02052631415426731
1690840580397871600,10.53787158203125,-0.005664810072630644,-0.0022391858510673046,-0.019034411758184433
1690840580407911700,10.54791162109375,-0.004995823837816715,-0.002092445734888315,-0.02220570296049118
1690840580417951500,10.557951416015625,-0.002826679265126586,-0.002192580606788397,-0.020321782678365707
1690840580427992600,10.56799267578125,-0.004727110732346773,-0.0025891251862049103,-0.02280464768409729
1690840580438032600,10.57803271484375,-0.005377721041440964,-0.0025939189363271,-0.021095963194966316
1690840580448072700,10.58807275390625,-0.0041550640016794205,-0.0005589975044131279,-0.02002803608775139
1690840580458112800,10.59811279296875,-0.005572131834924221,-0.0018112158868461847,-0.022609971463680267
1690840580468153600,10.608153564453126,-0.004602475091814995,-0.0009653958841226995,-0.02027864009141922
1690840580478223600,10.6182236328125,-0.0037444045301526785,-0.0010940266074612737,-0.019892748445272446
1690840580488264400,10.628264404296875,-0.004194744862616062,-0.0014365090755745769,-0.021504493430256844
1690840580498304500,10.638304443359376,-0.005218463949859142,-0.00370126124471426,-0.019649866968393326
1690840580508344600,10.648344482421875,-0.005675728898495436,-0.0012631373247131705,-0.022127406671643257
1690840580518385700,10.6583857421875,-0.0038304245099425316,-0.002294047037139535,-0.02057691477239132
1690840580528425700,10.66842578125,-0.005693572107702494,-0.0025720810517668724,-0.018868496641516685
1690840580538465800,10.6784658203125,-0.004316717851907015,-0.0023286680225282907,-0.02298867329955101
1690840580548505900,10.688505859375,-0.004787032026797533,-0.0007835020078346133,-0.021581457927823067
1690840580558546700,10.698546630859376,-0.005717274267226458,-0.0027510453946888447,-0.02022111602127552
1690840580568586500,10.70858642578125,-0.005294364411383867,-0.0026530411560088396,-0.020483968779444695
1690840580578626600,10.71862646484375,-0.004393683280795813,-0.001579787116497755,-0.020967066287994385
1690840580588667600,10.728667724609375,-0.002912965603172779,-0.0007009439868852496,-0.020843496546149254
1690840580598707700,10.738707763671876,-0.004827778320759535,-0.002014681464061141,-0.020556939765810966
1690840580608718300,10.74871826171875,-0.0051721250638365746,-0.0009177253232337534,-0.019960392266511917
1690840580618789400,10.758789306640624,-0.005745237227529287,-0.00535561703145504,-0.020785972476005554
1690840580628829400,10.768829345703125,-0.004534830804914236,-0.0027411917690187693,-0.018812570720911026
1690840580638870500,10.77887060546875,-0.0037236318457871675,-0.003216299694031477,-0.021637119352817535
1690840580648910600,10.78891064453125,-0.005504753906279802,-0.0007941546500660479,-0.019657324999570847
1690840580658950400,10.798950439453124,-0.005636580288410187,-0.003168895374983549,-0.0179973766207695
1690840580668990500,10.808990478515625,-0.003999002743512392,-0.0009523464250378311,-0.02160622552037239
1690840580679031300,10.81903125,-0.003622964257374406,-0.0009571401169523597,-0.018809907138347626
1690840580689071400,10.8290712890625,-0.0051742554642260075,-0.0031667647417634726,-0.019032547250390053
1690840580699111400,10.839111328125,-0.0052291168831288815,-0.0013350426452234387,-0.021411016583442688
1690840580709152500,10.849152587890625,-0.0038245655596256256,-0.00264824740588665,-0.02076040580868721
1690840580719192600,10.859192626953124,-0.004629106726497412,-0.005656820256263018,-0.0199287012219429
1690840580729232400,10.869232421875,-0.004308994393795729,-0.0015765913994982839,-0.0192559864372015
1690840580739272400,10.8792724609375,-0.004796885885298252,-0.0009622001089155674,-0.019883692264556885
1690840580749313300,10.889313232421875,-0.004405933897942305,-0.0010010822443291545,-0.0199808981269598
1690840580759353300,10.899353271484374,-0.003471963107585907,-0.002674879040569067,-0.02081633172929287
1690840580769424400,10.90942431640625,-0.0032983249984681606,-0.0025957829784601927,-0.019167302176356316
1690840580779464400,10.91946435546875,-0.0036783581599593163,-0.002775812754407525,-0.02015214040875435
1690840580789504500,10.92950439453125,-0.005530320107936859,-0.0013259878614917397,-0.018941467627882957
1690840580799545600,10.939545654296875,-0.003044259501621127,-0.001460743835195899,-0.02045547403395176
1690840580809585400,10.94958544921875,-0.007727960590273142,-0.0029760824982076883,-0.020740965381264687
1690840580819625500,10.95962548828125,-0.005429652985185385,-0.003367567202076316,-0.02015347220003605
1690840580829665500,10.96966552734375,-0.005027248989790678,-0.0017981663113459945,-0.02129649929702282
1690840580839706400,10.979706298828125,-0.005918076727539301,-0.0043867588974535465,-0.02142193540930748
1690840580849746400,10.989746337890624,-0.005562012083828449,-0.0014452975010499358,-0.019958794116973877
1690840580859786500,10.999786376953125,-0.0038461373187601566,-0.0038213697262108326,-0.02027118392288685
1690840580869827600,11.00982763671875,-0.0046629286371171474,-0.002173938322812319,-0.021892782300710678
1690840580879867400,11.019867431640625,-0.0026852653827518225,-0.0041215079836547375,-0.02046506106853485
1690840580889907500,11.029907470703124,-0.006284527480602264,-0.0011853729374706745,-0.021336447447538376
1690840580899947500,11.039947509765625,-0.0037641117814928293,-0.0019347865600138903,-0.01966771110892296
1690840580909988400,11.04998828125,-0.004012318328022957,-0.0015483618481084704,-0.022729014977812767
1690840580920059400,11.060059326171874,-0.0052363071590662,-0.0049468218348920345,-0.019520703703165054
1690840580930099500,11.070099365234375,-0.003802194958552718,-0.002491120947524905,-0.0219135545194149
1690840580940139500,11.080139404296874,-0.005363872740417719,-0.003192863892763853,-0.0221503097563982
1690840580950179300,11.090179443359375,-0.0057074204087257385,-0.0013259878614917397,-0.021022461354732513
1690840580960220400,11.100220458984374,-0.005545500200241804,-0.0020663465838879347,-0.019993947818875313
1690840580970260500,11.110260498046875,-0.004983573220670223,-0.0010910971323028207,-0.01938728056848049
1690840580980300500,11.120300537109374,-0.005690642632544041,-0.0019020296167582273,-0.019964920356869698
1690840580990340400,11.13034033203125,-0.003822701284661889,-0.00022929816623218358,-0.020671723410487175
1690840581000381400,11.14038134765625,-0.005561479367315769,-0.00130920996889472,-0.020958011969923973
1690840581010421500,11.15042138671875,-0.005629390012472868,-0.0013704627053812146,-0.02022697404026985
1690840581020461300,11.16046142578125,-0.0029145635198801756,-0.0031649006996303797,-0.021740982308983803
1690840581030502400,11.17050244140625,-0.001743038883432746,-0.00021784658019896597,-0.019765716046094894
1690840581040542500,11.18054248046875,-0.00646722037345171,0.14846883714199066,-0.012883041985332966
1690840581050582500,11.19058251953125,-0.01900698058307171,-0.04993826523423195,-0.08337292075157166
1690840581060622300,11.200622314453126,-0.020667728036642075,-0.013232714496552944,-0.09017889201641083
1690840581070693400,11.210693359375,-0.01182044018059969,0.053337257355451584,-0.02551441453397274
1690840581080734500,11.220734375,0.014593323692679405,-0.03882622346282005,-0.012171711772680283
1690840581090774300,11.230774169921874,0.031788021326065063,-0.06633215397596359,-0.024954885244369507
1690840581100814300,11.240814453125,0.025484854355454445,-0.08732318878173828,-0.06113952025771141
1690840581110854400,11.2508544921875,0.010409497655928135,-0.10535864531993866,-0.07834514230489731
1690840581120895500,11.2608955078125,-0.0028716865926980972,-0.040714673697948456,-0.09116452932357788
1690840581130935600,11.270935546875,-0.013775466941297054,0.0018604843644425273,-0.08561982959508896
1690840581140975400,11.280975341796875,-0.021404091268777847,0.02586914785206318,-0.07712434232234955
1690840581151016400,11.291016357421874,-0.01817181333899498,0.05409785732626915,-0.07374026626348495
1690840581161056500,11.301056396484375,-0.009040100499987602,0.07745218276977539,-0.0583525225520134
1690840581171096300,11.311096435546874,-0.0036072516813874245,0.07811211049556732,-0.0446939691901207
1690840581181136400,11.321136474609375,0.001651426195167005,0.054786548018455505,-0.026943733915686607
1690840581191177500,11.331177490234374,-0.0003981425834354013,0.016261793673038483,-0.007682154420763254
1690840581201217500,11.341217529296875,0.0002234392159152776,-0.018634404987096786,0.006222475785762072
1690840581211257300,11.35125732421875,-0.0035294874105602503,-0.02930808812379837,0.017479125410318375
1690840581221328400,11.361328369140624,-0.008452607318758965,-0.027949608862400055,0.03936125338077545
1690840581231368200,11.3713681640625,-0.009792709723114967,-0.029957100749015808,0.04885435849428177
1690840581241409300,11.3814091796875,-0.008615858852863312,-0.03359684348106384,0.04609958454966545
1690840581251449300,11.391449462890625,-0.005566539242863655,-0.04080628603696823,0.057004962116479874
1690840581261489400,11.401489501953124,-0.004030161537230015,-0.0428989976644516,0.04105129465460777
1690840581271529500,11.411529541015625,-0.0022956449538469315,-0.011065168306231499,0.04096181318163872
1690840581281570600,11.421570556640624,-0.0028032432310283184,0.016320383176207542,0.03953063115477562
1690840581291610400,11.4316103515625,-0.0019656792283058167,0.026007898151874542,0.01763065904378891
1690840581301650400,11.441650390625,-0.0038685076870024204,0.025139441713690758,0.0051923650316894054
1690840581311691500,11.45169140625,-0.004592354875057936,0.026081934571266174,-0.010005496442317963
1690840581321731300,11.4617314453125,-0.005259742960333824,0.020074374973773956,-0.028373051434755325
1690840581331771400,11.471771484375,-0.00563897704705596,0.007985754869878292,-0.042332012206315994
1690840581341811500,11.4818115234375,-0.004050401505082846,0.0046605318784713745,-0.05251353979110718
1690840581351852500,11.4918525390625,-0.003561178920790553,-0.0010037453612312675,-0.0604308545589447
1690840581361892400,11.501892333984374,-0.004087419714778662,-0.01552170142531395,-0.06891088932752609
1690840581371963400,11.51196337890625,-0.004511128645390272,-0.02159424126148224,-0.07145021110773087
1690840581382003200,11.522003173828125,-0.00504109775647521,-0.027299530804157257,-0.07283319532871246
1690840581392043300,11.532043212890626,-0.006442985497415066,-0.020108995959162712,-0.07190854102373123
1690840581402084400,11.54208447265625,-0.004991030320525169,-0.016261527314782143,-0.06326126307249069
1690840581412124400,11.55212451171875,-0.003177683800458908,-0.012629508972167969,-0.05872403457760811
1690840581422164500,11.56216455078125,-0.004467186518013477,-0.0011406318517401814,-0.05197212100028992
1690840581432205300,11.572205322265624,-0.005406217183917761,0.015994679182767868,-0.035465847700834274
1690840581442245400,11.582245361328125,-0.004492752719670534,0.023386282846331596,-0.02912219800055027
1690840581452285400,11.592285400390624,-0.003355582943186164,0.0171480942517519,-0.01906716823577881
1690840581462325200,11.6023251953125,-0.003656253917142749,0.011061972007155418,-0.006599046755582094
1690840581472366300,11.612366455078124,-0.003228283952921629,0.0016607472207397223,0.0008524778531864285
1690840581482406400,11.622406494140625,-0.004117779433727264,-0.006479737348854542,0.010395116172730923
1690840581492446500,11.632446533203124,-0.00785419438034296,-0.011290204711258411,0.013828197494149208
1690840581502486500,11.642486572265625,-0.004543086513876915,-0.008192416280508041,0.01702452264726162
1690840581512527400,11.65252734375,-0.006172408349812031,-0.008129565045237541,0.01799098402261734
1690840581522598400,11.662598388671874,-0.005693305749446154,-0.003816842334344983,0.018672486767172813
1690840581532638200,11.67263818359375,-0.0038986015133559704,-0.004127100575715303,0.014871624298393726
1690840581542678300,11.68267822265625,-0.0028969866689294577,-0.004604871850460768,0.008261924609541893
1690840581552718300,11.69271826171875,-0.00472657848149538,-0.008778844028711319,0.0038189729675650597
