time,seconds_elapsed,z,y,x
1690838820439616500,0.194616455078125,0.3098381025880575,0.21912892700657247,-0.020863609236641784
1690838820449656300,0.20465625,0.3127706489086151,0.22602257724413646,-0.02447031250869622
1690838820459696400,0.2146962890625,0.30346739851236343,0.21873311435570938,-0.02663914444776019
1690838820469737200,0.2247373046875,0.2861053448230028,0.1954550232892856,-0.026759339044615624
1690838820479777300,0.23477734375,0.2721896321952343,0.15379865069566293,-0.018064805406035157
1690838820489817300,0.2448173828125,0.26111001977622506,0.14047915039537473,-0.012268016202689613
1690838820499857400,0.254857421875,0.24237609321177003,0.09784045223351567,-0.0027432765343750358
1690838820509898500,0.2648984375,0.22226795568466184,0.0580875477741938,0.006046230494836345
1690838820519938600,0.2749384765625,0.21320260569751262,0.013799137043394147,0.00324827490595635
1690838820529978400,0.284978271484375,0.19558628498613834,-0.25595906675383445,0.016942376105720178
1690838820540019200,0.295019287109375,0.18777648801803587,-0.28573161613978443,0.013532211469206959
1690838820550059300,0.305059326171875,0.1954272950321436,-0.28728892858438193,0.015380981141049414
1690838820560099300,0.315099365234375,0.18711539376080036,-0.2670327974213287,0.019145256444858386
1690838820570139400,0.325139404296875,0.19725392593741417,-0.2337778127470985,0.018056648357398807
1690838820580210400,0.33521044921875,0.2022930891484022,-0.20145813616160302,0.02415204262305051
1690838820590250200,0.345250244140625,0.20992986763715743,-0.1413994983769953,0.02043929657707922
1690838820600291300,0.355291259765625,0.22824176939725874,-0.08211560782454908,0.013963022368215023
1690838820610331400,0.365331298828125,0.24452947185337542,-0.036901524483039974,0.01089052415427286
1690838820620371500,0.375371337890625,0.25447102015316486,0.007465495308768004,0.0010473895902599905
1690838820630412300,0.385412353515625,0.2562637487888336,0.05718728359937667,-0.0032221403842791914
1690838820640452400,0.395452392578125,0.2686024213582277,0.0783784671228379,-0.00515381227057951
1690838820650492400,0.405492431640625,0.2790636096179485,0.09743006306802854,-0.006281212861067615
1690838820660532200,0.4155322265625,0.27810031754374503,0.1072570816100575,-0.01326583388429135
1690838820670573600,0.425573486328125,0.2644809575140476,0.10159410567861049,-0.010865820112923393
1690838820680613400,0.43561328125,0.25214871468544003,0.08836622918453067,-0.00801367637659423
1690838820690653400,0.4456533203125,0.2489128015041351,0.06574013575343415,-0.005445813491340959
1690838820700694300,0.4556943359375,0.24129881936907766,0.044488435948081315,-0.006490435164957307
1690838820710734300,0.465734375,0.22375848650336264,0.016904482647590337,-0.00010630535210948437
1690838820720774400,0.4757744140625,0.20888824962973593,-0.010284790513198822,-0.003116104460228234
1690838820730814500,0.485814453125,0.20730770244002342,-0.04205094313547015,0.0007803230229998007
1690838820740855600,0.49585546875,0.20944880612194536,-0.05837906893352046,-0.007127276330348104
1690838820750925300,0.50592529296875,0.2024415577083826,-0.07932736534550786,-0.005373002841812558
1690838820760966400,0.51596630859375,0.20156594391763208,-0.08940711653959006,-0.003524484331719577
1690838820771006500,0.52600634765625,0.1960579941511154,-0.08193385804947464,0.00042049842590349726
1690838820781046300,0.53604638671875,0.20327625496685503,-0.07530247547728941,0.0035653095324523743
1690838820791087400,0.54608740234375,0.20258710365891455,-0.06476082412619143,0.004376423844293458
1690838820801127400,0.55612744140625,0.21389701770246028,-0.03938387935068458,0.01569854434886365
1690838820811167200,0.566167236328125,0.22644202649891376,-0.027709534175228326,0.0034173250296618786
1690838820821207300,0.576207275390625,0.22509704163074493,-0.0025227416769601405,-0.0031141688022908055
1690838820831248400,0.586248291015625,0.23950083003640174,0.022525391269288954,-0.00955981440662872
1690838820841288400,0.596288330078125,0.24465105240643023,0.04217367446599528,-0.0007017373656999553
1690838820851328300,0.606328369140625,0.24412556722760198,0.05118146731331944,-0.0032232591957086693
1690838820861369300,0.616369384765625,0.24555706133544444,0.052877183581609276,-0.007770232142694294
1690838820871409400,0.626409423828125,0.23516893831193444,0.05109274785025045,-0.005845013400889001
1690838820881449500,0.636449462890625,0.23270167141556738,0.04192896072361618,0.0016337021490558982
1690838820891489300,0.6464892578125,0.23666765243709087,0.03993258100831881,0.004278188775852322
1690838820901530400,0.6565302734375,0.23597440947592258,0.022345760386064648,0.005359289410291239
1690838820911570400,0.6665703125,0.22852584703564643,0.01244532954795286,0.0007361413879785686
1690838820921641500,0.676641357421875,0.2185141561090946,0.0004341718998737633,0.0038739279570523645
1690838820931681300,0.686681396484375,0.21686463533639908,-0.020076719475537536,0.0018766029602615161
1690838820941721300,0.696721435546875,0.2009814220279455,-0.03545269564790651,-0.0024755689338315278
1690838820951749400,0.706749267578125,0.19106734625697136,-0.040998639337252826,0.009253939353319583
1690838820961789400,0.71678955078125,0.1914665747076273,-0.04082892705984413,0.00888596569909714
1690838820971829500,0.72682958984375,0.19484803383946417,-0.04916225471170619,0.009053046486357925
1690838820981870300,0.736870361328125,0.20556407364308832,-0.04419758150903508,0.00036226200771052387
1690838820991910100,0.74691015625,0.2096960588812828,-0.031154377399478107,-0.0022038084959669505
1690838821001950200,0.7569501953125,0.21383155125081538,-0.022444654183275996,0.003967952641256852
1690838821011990300,0.766990234375,0.21933190223276613,-0.01766746637672186,-0.010448173514520749
1690838821022031400,0.77703125,0.2267933241546154,-0.004825429128762334,-0.0033266739044105634
1690838821032071400,0.787071533203125,0.23097499375343322,0.012830785201583057,-0.008117766938731074
1690838821042111500,0.797111572265625,0.22349954330623148,0.01980277963867411,-0.0037369317808013873
1690838821052151300,0.8071513671875,0.21918518723845481,0.0153765058953315,0.004881776125612669
1690838821062192000,0.817192138671875,0.21607611530721185,0.025166334232129155,-0.006785463455622084
1690838821072232200,0.827232177734375,0.22104922754466533,0.03279239039747044,-0.006857916770479641
1690838821082272300,0.837272216796875,0.2291711592018604,0.033617936235107476,-0.003023910973506281
1690838821092343300,0.84734326171875,0.21095804164111612,0.025676146917790174,-0.0026047665377613156
1690838821102383400,0.85738330078125,0.2133914062678814,0.011174030970502643,-0.009530136220995336
1690838821112424400,0.867424560546875,0.21341946331858633,0.0011992379882372916,-0.0029240433536935596
1690838821122464500,0.877464599609375,0.20895254703760147,-0.005869458288978785,-0.002599939665594138
1690838821132504300,0.88750439453125,0.20687048006653785,-0.013133074350096285,0.0013462224106071516
1690838821142545200,0.897545166015625,0.20477496909201143,-0.020641550284065304,0.00009942352017387747
1690838821152585200,0.907585205078125,0.1959264767259359,-0.021877649683970955,0.00016252448479644953
1690838821162625300,0.917625244140625,0.19619711036086082,-0.023896697888802734,-0.002168411813955754
1690838821172665300,0.927665283203125,0.20693653104007242,-0.036160040199663485,-0.0006985584571026265
1690838821182706400,0.93770654296875,0.20091537105441093,-0.030498470774013547,-0.0026938056612387296
1690838821192746500,0.94774658203125,0.20821312684714793,-0.029879882217943667,-0.003020535131264478
1690838821202786300,0.957786376953125,0.21102526165843008,-0.013695201744884252,0.005675839979597367
1690838821212827100,0.9678271484375,0.20965455782711503,-0.01041744044953957,0.00235665069532115
1690838821222867200,0.9778671875,0.2124807211637497,0.00015851502995938062,0.004333932984503917
1690838821232907300,0.9879072265625,0.21725860309004782,0.003343958399351686,0.0005032311061804648
1690838821242947300,0.997947265625,0.21965280475020407,0.003785856947954744,-0.000009613786783302203
1690838821252988400,1.007988525390625,0.2111345672518015,0.010647413280513137,-0.0030580632632132617
1690838821263058400,1.018058349609375,0.20890636980831623,0.01545211014850065,-0.0033759838056983426
1690838821273099500,1.028099609375,0.216715582254529,0.02233133000191301,-0.004595672068564454
1690838821283139300,1.038139404296875,0.2125496947467327,0.016373846369609237,-0.003423750203871168
1690838821293179400,1.048179443359375,0.20973580636978148,0.008202285150717943,-0.00816745244099875
1690838821303220200,1.05822021484375,0.20766367627084253,-0.006014730244874954,-0.008341908250539563
1690838821313260300,1.06826025390625,0.20573767664432524,-0.0030221060338430105,-0.0012300167189911008
1690838821323300400,1.07830029296875,0.20769816306233405,-0.012149689335934816,0.0010852607863256708
1690838821333340400,1.08834033203125,0.1967816322505474,-0.0183104404553771,-0.0002400421338388696
1690838821343381500,1.098381591796875,0.19408231016397476,-0.014800185578409581,0.013340926680807023
1690838821353421300,1.10842138671875,0.199303844204545,-0.016771339520905166,0.007291947106458246
1690838821363461400,1.11846142578125,0.19688918427824972,-0.02085457198023796,0.0036304563236888494
1690838821373502200,1.128502197265625,0.19941081171035765,-0.02442477688351646,0.00370410037356778
1690838821383542300,1.138542236328125,0.19924071584045885,-0.019961422532796858,0.004002874399232678
1690838821393582300,1.148582275390625,0.20041385127305983,-0.014450020433869212,-0.009035311041912063
1690838821403622400,1.158622314453125,0.20668167949616909,-0.010739365880284457,-0.0030940889912424606
1690838821413663500,1.16866357421875,0.20532383514642713,-0.010864453564677386,-0.012620256856596096
1690838821423703300,1.178703369140625,0.2087590702921152,-0.00809729040628299,-0.013164318871730937
1690838821433774300,1.1887744140625,0.20397008244991302,0.0013029723573476076,-0.0015079443194495978
1690838821443814400,1.198814453125,0.21220424230992793,0.00999273049775511,0.0026604650806402786
1690838821453854200,1.208854248046875,0.21086568718254564,0.005366422403976321,0.006933205929817631
1690838821463895300,1.218895263671875,0.21117548378407955,0.004876848788745701,0.0024576085854554545
1690838821473935400,1.228935302734375,0.20535072315335273,0.01740364607507363,-0.001194593779160641
1690838821483975400,1.238975341796875,0.21314707611799238,0.01051167633794248,0.0027619618268916383
1690838821494016500,1.2490166015625,0.2022398976564407,0.0036448227757588025,0.0023371240109438074
1690838821504056300,1.259056396484375,0.20405074647068977,-0.006992781496793031,-0.004196492708614096
1690838821514096400,1.269096435546875,0.20555822842419147,-0.003134078508336097,0.00138080966679845
1690838821524136200,1.27913623046875,0.2057172183781862,-0.005312591591197997,0.0014016652251593767
1690838821534177300,1.28917724609375,0.19689035332202912,-0.013912735219392925,0.0011643036721739918
1690838821544217300,1.29921728515625,0.19913316381275653,-0.013825221332721412,0.00291481430104468
1690838821554257400,1.30925732421875,0.2030161427259445,-0.011873228748422116,0.0028456260889302937
1690838821564297200,1.319297119140625,0.19013444932103155,-0.01655128529574722,-0.0007333923084661365
1690838821574338300,1.32933837890625,0.1935620856821537,-0.018137714236974717,-0.001658909655548632
1690838821584378400,1.33937841796875,0.201181913036108,-0.010200601094774902,0.0007039059190778062
1690838821594418200,1.349418212890625,0.2020703863084316,-0.01057277714172378,-0.002460313140839571
1690838821604489200,1.3594892578125,0.19996318489611148,-0.008658102626819163,0.0007153166540141683
1690838821614529300,1.369529296875,0.20115327146351336,0.0000611373363994062,-0.004911236257181735
1690838821624570400,1.3795703125,0.19965455733835696,0.0010363573104143142,0.000052237077313475305
1690838821634610400,1.3896103515625,0.2017483147472143,0.0000899798383936286,-0.00002119805165566504
1690838821644650200,1.399650146484375,0.19502046779692173,0.0007750394931063055,0.0005367280920501799
1690838821654691300,1.40969140625,0.20011516058742998,-0.00584748391918838,0.0009729686514241621
1690838821664731400,1.4197314453125,0.20281389815211295,-0.005201970823574811,0.0031981019215658307
1690838821674771200,1.429771240234375,0.20626082373559473,0.002485460140183568,-0.0014847723647719248
1690838821684811300,1.439811279296875,0.20252514433860777,0.0013281798638403416,-0.008268377223447896
1690838821694852400,1.449852294921875,0.20088205330669878,-0.008139339449722319,0.0018863069369457661
1690838821704892400,1.459892333984375,0.19894027158915994,-0.011152220997493714,-0.004843549307342618
1690838821714932200,1.46993212890625,0.1947556793808937,-0.008705229704175144,-0.003692475009500049
1690838821724973300,1.479973388671875,0.19879998633563517,-0.013627598135080188,-0.0033656359416199847
1690838821735013000,1.49001318359375,0.19655834488868712,-0.018009850073605775,-0.003104761082306504
1690838821745053200,1.50005322265625,0.1905722562164068,-0.01428339516269043,-0.006165436427714303
1690838821755093200,1.51009326171875,0.19610709398984907,-0.01167282907180488,-0.011466589884512358
1690838821765134300,1.52013427734375,0.18906886591613292,-0.004982391522452235,0.0004519495851593092
1690838821775204400,1.530204345703125,0.18592355362772942,-0.010636325630918144,0.006616818615648662
1690838821785245400,1.540245361328125,0.18113222769796847,-0.0002634184428490698,0.0031475270783761513
1690838821795285200,1.55028515625,0.18651508978009224,-0.0023677337783388794,-0.0011359281027049292
1690838821805325300,1.5603251953125,0.19085399576723575,-0.008084430924709885,-0.006460021760384552
1690838821815366100,1.5703662109375,0.19744038842022418,-0.015932203549332915,-0.0026140104317863007
1690838821825406200,1.58040625,0.19190730421245097,-0.0144381290666759,-0.0010135746564483268
1690838821835446300,1.5904462890625,0.19191198038756846,-0.001993712834175676,-0.005595824412791989
1690838821845486300,1.600486328125,0.1958048961728811,-0.007741937629971653,-0.001412055330077419
1690838821855527400,1.61052734375,0.18847440715432165,-0.00721656204899773,-0.00018958145508076994
1690838821865567200,1.620567138671875,0.20238953526020048,-0.00455718838032335,-0.0002694234919501468
1690838821875607300,1.630607177734375,0.19371055424213407,0.0008200294123031198,0.0027350281541934237
1690838821885648100,1.640648193359375,0.1917658499151468,-0.00722858128035441,-0.004216270554740913
1690838821895688200,1.650688232421875,0.19057167169451714,-0.010126458146329969,-0.005980897615576395
1690838821905728300,1.660728271484375,0.18937983156144617,0.00025169147243723274,0.003338997954799561
1690838821915768300,1.670768310546875,0.19312486330866813,-0.009457198848947882,-0.0005663195127155632
1690838821925809400,1.680809326171875,0.19881693747043608,-0.016407986101228744,-0.0047863300942350175
1690838821935849500,1.690849365234375,0.19463234526216983,-0.011577990395203233,-0.0026466203600226433
1690838821945897200,1.700897216796875,0.1938882488965988,-0.00796685069333762,0.0019932105106767266
1690838821955937300,1.710937255859375,0.19882512077689168,-0.008772285324707627,-0.003968041689513484
1690838821965977300,1.720977294921875,0.19298574709892272,-0.0074024400099180635,-0.008281697929324582
1690838821976018400,1.731018310546875,0.1958230163514614,-0.0016435111570172012,-0.004576199041469954
1690838821986058500,1.74105859375,0.1973135471701622,-0.00846230606008321,-0.005921978494082577
1690838821996098600,1.7510986328125,0.18772914174497127,-0.009795490892603993,-0.005838378164125606
1690838822006139400,1.761139404296875,0.18802549434304236,-0.004080181985720992,-0.01040560045634047
1690838822016179200,1.77117919921875,0.19280571435689925,-0.0073706566321663555,0.0025255409888224676
1690838822026219300,1.78121923828125,0.18906302069723604,-0.0017510814510285854,0.008519922565412707
1690838822036259300,1.79125927734375,0.18786767343282698,-0.006191438518650829,-0.004123349840589798
1690838822046300400,1.801300537109375,0.19759879385232923,-0.00601882189810276,0.006550353225227445
1690838822056340500,1.811340576171875,0.19191724108457564,-0.004804039280861616,0.0002202551545575261
1690838822066380500,1.821380615234375,0.18997779745459556,0.0017014884219504892,0.003385074719385011
1690838822076420600,1.831420654296875,0.1898369276791811,-0.007380849232617765,0.00035264022941701114
1690838822086461400,1.84146142578125,0.19163374796807764,-0.003743278181552887,-0.005833957717334851
1690838822096501200,1.851501220703125,0.18894144014418124,-0.0030888328608125446,-0.005561648148554377
1690838822106541300,1.861541259765625,0.1925292355030775,-0.0006855163124389947,-0.01068826131413225
1690838822116612400,1.8716123046875,0.19641805963516235,-0.009298044498171657,-0.010610384047130356
1690838822126652400,1.88165234375,0.1884860975921154,-0.013520776759739964,-0.005173817874747328
1690838822136693500,1.891693603515625,0.19088146829605102,-0.013458397314324974,-0.007361454978981055
1690838822146733600,1.901733642578125,0.18788988526463507,-0.006825608236342668,0.004609987146640196
1690838822156773400,1.9117734375,0.18953882151544094,-0.0043199638246558605,0.002721894677984528
1690838822166814200,1.921814208984375,0.19462766908705234,-0.005046195739973336,-0.002013103662879439
1690838822176854300,1.931854248046875,0.18145722186863422,0.00040191359808668494,0.0001861234144482296
1690838822186894300,1.941894287109375,0.18893267231583594,-0.005080390270520001,-0.0009819613836996722
1690838822196934400,1.951934326171875,0.20703706880509853,-0.003796981130167842,0.0028265514957020055
1690838822206975500,1.9619755859375,0.18952771559953688,-0.0016142302636057138,-0.0009563234772998839
1690838822217015600,1.972015625,0.1892266868263483,-0.010375793264899402,-0.004958020841242978
1690838822227055600,1.9820556640625,0.18907763374447822,-0.007496840295102447,-0.0033318935022223738
1690838822237096400,1.992096435546875,0.18728432058691977,-0.0042662243434228,-0.004696569451550022
1690838822247136300,2.00213623046875,0.18474398845434187,0.00020679288478568194,-0.00938350342507474
1690838822257176300,2.01217626953125,0.19118074350357053,-0.0008845277495682239,-0.002182645835285075
1690838822267216400,2.02221630859375,0.1938788965463638,-0.0011532982209697365,0.0005376916398527101
1690838822277257500,2.032257568359375,0.18879238706231116,-0.007398074362054466,0.0016087686371989546
1690838822287327500,2.042327392578125,0.19043898522555827,-0.011572601834032683,0.004998073148773983
1690838822297368600,2.05236865234375,0.1849047319740057,-0.0073036192779429255,-0.0017048094652651342
1690838822307408400,2.062408447265625,0.18400398374199867,-0.0059188321223482485,0.0017045480287168173
1690838822317448400,2.072448486328125,0.18340367976129054,-0.004797865268401801,0.0021103146763693076
1690838822327489300,2.0824892578125,0.18399638495743273,-0.017737864731810986,0.0023933203107444566
1690838822337529300,2.092529296875,0.18129881643652915,-0.010870116120483726,-0.001494071057724068
1690838822347569400,2.1025693359375,0.1892261023044586,-0.0041014439694583415,-0.005314203592971898
1690838822357609500,2.112609375,0.185784437417984,-0.012940730115771293,-0.007933765841065905
1690838822367650600,2.122650634765625,0.19521336002051828,-0.0158649287330918,0.00047465346566750663
1690838822377690600,2.132690673828125,0.18249299465715885,-0.0052664874271489675,0.0048095374398864806
1690838822387730400,2.14273046875,0.19251812958717346,-0.00246036223154515,-0.00029556714678183197
1690838822397771300,2.152771240234375,0.1814443623870611,-0.005331460688449442,0.003184487813099986
1690838822407811300,2.162811279296875,0.1886287209331989,-0.0039052090113051233,0.00579781325829681
1690838822417851400,2.172851318359375,0.19042554122209548,-0.009568532002624124,0.0006413346774177625
1690838822427891500,2.182891357421875,0.1955132197499275,0.00045262087201699614,0.0025188909106829667
1690838822437932500,2.1929326171875,0.189081725397706,0.0017766725500114261,-0.008637402332085185
1690838822447972600,2.20297265625,0.1899842271953821,-0.000738379010837525,-0.0027345075643854214
1690838822458043400,2.21304345703125,0.18429975181818006,-0.0015730397366918623,-0.0038649786072608547
1690838822468083500,2.22308349609375,0.1905862847417593,-0.004788257189840078,-0.0027835800036555155
1690838822478123500,2.23312353515625,0.18235680105686186,0.0010814750937744974,-0.00036497912118211385
1690838822488164400,2.243164306640625,0.18295593599379062,-0.0029458989924751222,-0.004758333550678799
1690838822498204400,2.253204345703125,0.18295359790623186,-0.017998305766284466,0.007512850714987143
1690838822508244500,2.263244384765625,0.18759002553522586,-0.002822236080188304,0.006042956258938648
1690838822518285600,2.27328564453125,0.18145137664973734,-0.007595679293386638,-0.0005479573055403306
1690838822528325400,2.283325439453125,0.18055121293962,-0.005757339684013277,-0.005072815460484707
1690838822538365400,2.293365478515625,0.19356500829160211,-0.016403547388128936,-0.008866078255116008
1690838822548405500,2.303405517578125,0.19012100531756876,-0.013508867126237601,0.0069807942314771936
1690838822558446300,2.3134462890625,0.188621122148633,-0.001820566490665078,0.0059016161260660735
1690838822568486400,2.323486328125,0.18547814794778822,-0.004093041467294097,-0.0006924894759198651
1690838822578526500,2.3335263671875,0.18458032232522964,-0.003479914537630975,-0.0011437814739532768
1690838822588566500,2.34356640625,0.18158581668436527,-0.0021984964249655604,-0.004887703542900272
1690838822598607600,2.353607666015625,0.18742168323099612,-0.0081814067594707,-0.0010057932087918742
1690838822608647400,2.3636474609375,0.18248481135070324,-0.008876567683089524,0.004900161165674217
1690838822618687500,2.3736875,0.18502923513650893,-0.008563190884981304,-0.000865125504421303
1690838822628758500,2.383758544921875,0.18622925857603548,-0.005892126778513192,0.001558330791327171
1690838822638798600,2.393798583984375,0.18622750501036642,-0.010748937426228075,-0.0014430475483182817
1690838822648839400,2.40383935546875,0.18742869749367236,-0.0031072635666467246,-0.0005751330068334936
1690838822658879500,2.41387939453125,0.18503741844296454,-0.003149531805794686,0.00040792321376502514
1690838822668919300,2.423919189453125,0.18234511061906813,-0.014623422505706548,-0.0004434329185634851
1690838822678960400,2.43396044921875,0.18489304153621194,-0.0026452172791585323,-0.004135438712249743
1690838822689000400,2.44400048828125,0.18115034787654877,-0.00928969679493457,-0.01724031787267886
1690838822699040500,2.45404052734375,0.17845511744320391,-0.001578446564171463,-0.006598664187738904
1690838822709080600,2.46408056640625,0.18922142612934112,-0.002898863246664405,0.0012628367097815498
1690838822719121400,2.474121337890625,0.18263269538879393,-0.00907177972793579,0.002220078069111332
1690838822729161500,2.484161376953125,0.17843699726462364,-0.0077989650468342,0.00571561030098237
1690838822739201500,2.494201416015625,0.183074593937397,-0.012633308134414255,-0.0027217770886200014
1690838822749242600,2.50424267578125,0.1827747342079878,-0.013989216255396604,0.009585757132060826
1690838822759282400,2.514282470703125,0.17963351357281207,-0.013956647426355629,-0.004113304512255126
1690838822769322500,2.524322509765625,0.18606851505637167,-0.010638334924913942,-0.0039034326127497477
1690838822779362600,2.534362548828125,0.17843699726462364,0.004022442182805389,-0.00008662797068245708
1690838822789403400,2.5444033203125,0.18831366363465785,-0.011205905679799616,0.0011872278900351375
1690838822799473400,2.554473388671875,0.16916005035340784,-0.0013313947342336178,-0.004697606064588762
1690838822809514500,2.564514404296875,0.17020868262350558,-0.007567439579591154,-0.008085225509153679
1690838822819554300,2.57455419921875,0.18008885612487793,-0.005628123813774436,-0.0030353867821686434
1690838822829594400,2.584594482421875,0.17395605245828627,-0.0113668135962449,-0.004282088632835075
1690838822839635500,2.594635498046875,0.1844295156776905,-0.001077346907928586,0.0008537261859280988
1690838822849675500,2.604675537109375,0.18009236325621603,-0.007588445835001767,-0.005555963901506038
1690838822859715600,2.614715576171875,0.17709902665913105,-0.006549056317284703,0.0023265660843113435
1690838822869755400,2.62475537109375,0.1859288143247366,-0.003380399685911834,-0.001814777212339686
1690838822879796500,2.63479638671875,0.1802420008599758,-0.0014619440450333058,0.002154053353396011
1690838822889836500,2.64483642578125,0.18637772713601589,-0.014151987335365265,0.004336325870989821
1690838822899876400,2.65487646484375,0.17934709784686564,-0.011830522117856889,0.0012204211985168511
1690838822909917400,2.66491748046875,0.17740180899798869,-0.006581387684307992,0.0010576192941516636
1690838822919957500,2.67495751953125,0.1875754124879837,0.0017390074207447469,0.0003000423924997449
1690838822929997600,2.68499755859375,0.1791927840679884,-0.004523487040121108,0.0009999514148279558
1690838822940037400,2.695037353515625,0.1881675331622362,-0.0022409290608949957,-0.004933711808826774
1690838822950088200,2.705088134765625,0.18966332467794417,-0.009442092611361294,0.0033077728411182758
1690838822960128300,2.715128173828125,0.19101064763367176,-0.005092957491148263,-0.00392923491593101
1690838822970199300,2.72519921875,0.18607377575337886,-0.001452920488361269,-0.0044882147973403334
1690838822980239400,2.7352392578125,0.18532967938780784,-0.013419325679261237,0.0033077637079637497
1690838822990279400,2.745279541015625,0.18488310466408728,-0.0009073789021931589,0.0026738542851759118
1690838823000320500,2.755320556640625,0.1790489916831255,-0.003234561474435031,-0.009751606085104867
1690838823010360300,2.7653603515625,0.1901192517518997,-0.00798610338307917,-0.005460388864320703
1690838823020400400,2.775400390625,0.1874263594061136,-0.004060125578381121,-0.002764701773249544
1690838823030440400,2.7854404296875,0.18682605542540548,-0.002193655853066593,-0.00539273045558948
1690838823040481300,2.795481201171875,0.18293313964009283,-0.012165361829102038,-0.00019906281112344002
1690838823050521300,2.805521240234375,0.18143384099304674,-0.00432995549570769,-0.004340545388380997
1690838823060561400,2.8155615234375,0.1757499501377344,-0.010982874046266078,-0.005854004991520196
1690838823070602500,2.8256025390625,0.1799368804335594,-0.014097316272370517,0.0006715231780603062
1690838823080642600,2.835642578125,0.18008476447165012,-0.0065166518850252025,0.00213805777488742
1690838823090682400,2.845682373046875,0.18307576298117637,-0.011968487550131976,-0.0008749425038928166
1690838823100722400,2.855722412109375,0.18487082970440386,-0.0037761575378477573,-0.0036115929346589833
1690838823110763300,2.86576318359375,0.178438166308403,-0.0036948541962541635,-0.0070161989049986
1690838823120803300,2.87580322265625,0.18217969092428682,-0.012498064382188022,0.0028000973136164246
1690838823130843400,2.885843505859375,0.18128128077983854,-0.006406232046801597,0.0007649462157103698
1690838823140914400,2.89591455078125,0.18217852188050745,-0.007620430142153054,-0.0017447202089009804
1690838823150954200,2.905954345703125,0.18367314435243606,-0.011581515792850404,-0.0021528763181064277
1690838823160995300,2.915995361328125,0.18831015650331973,-0.0028148747576400637,-0.0006641903966199607
1690838823171035400,2.926035400390625,0.1924982558429241,-0.005122055721469223,0.00017816044534556567
1690838823181075500,2.936075439453125,0.18740823922753333,-0.006261161020305007,0.0014921656533610074
1690838823191116300,2.9461162109375,0.19055004438459872,-0.0025525340270251035,0.0033150884978938844
1690838823201156400,2.95615625,0.1755886220961809,-0.0036500652064569293,0.000380692713544704
1690838823211196400,2.966196533203125,0.17529343854188917,-0.0073789312701672315,0.005257262941077351
1690838823221236500,2.976236572265625,0.17814006014466285,-0.008748192063067107,0.0001986221364175435
1690838823231277600,2.986277587890625,0.18936404947042465,-0.00975422730045393,-0.006934458313632058
1690838823241317400,2.9963173828125,0.18517361204326152,-0.004827200960740447,-0.0011600567553192377
1690838823251357400,3.006357421875,0.1732020192205906,-0.0036463388794101773,-0.0016884097446687519
1690838823261398300,3.016398193359375,0.18098551270365715,-0.0035481209356337784,-0.0052209814847214145
1690838823271438300,3.026438232421875,0.17993571138978004,-0.0021484102055430413,-0.006488791197142563
1690838823281478400,3.036478515625,0.18951134898662567,-0.002936966767348349,-0.008393857633485458
1690838823291518500,3.0465185546875,0.1839759266912937,-0.00828543338952586,-0.0033909085218387187
1690838823301589200,3.05658935546875,0.18352818292379378,-0.004338284932635724,-0.003984895784547552
1690838823311629300,3.06662939453125,0.18053776893615722,-0.003797876179311424,-0.0047981529627693816
1690838823321670400,3.07667041015625,0.17051146496236325,-0.003666724080312997,0.0012875966917024924
1690838823331710500,3.08671044921875,0.18293138607442377,-0.0035196254935115573,0.00024811127586290237
1690838823341750300,3.096750244140625,0.18307985463440418,-0.008214578376710415,-0.0002744284606305882
1690838823351791400,3.106791259765625,0.17649580006897447,-0.010019052249100059,0.0016157178261491936
1690838823361831400,3.11683154296875,0.18382453552186487,-0.0034254626703448593,0.0051658754552423485
1690838823371871500,3.12687158203125,0.18711656280457972,-0.0008705357568338513,-0.0029739423434482887
1690838823381911300,3.136911376953125,0.18262568112611768,-0.004377594029717147,-0.003382724073738791
1690838823391952400,3.146952392578125,0.1821767683148384,-0.013649773434270172,0.003981233389582485
1690838823401992400,3.156992431640625,0.18427052572369573,-0.009659132895525545,-0.0009466160756826866
1690838823412032300,3.1670322265625,0.18741525349020957,-0.009407806749269366,-0.01328372687565279
1690838823422073300,3.1770732421875,0.18427578642070291,-0.0009092420657165347,0.0027941915875708215
1690838823432113400,3.187113525390625,0.19430501300394534,-0.00480352782420814,0.0006810638996073976
1690838823442153500,3.197153564453125,0.1923591396331787,-0.012004490445274858,-0.004237295076460577
1690838823452193300,3.207193359375,0.17305355066061018,-0.007153561549074947,-0.0019597146664513273
1690838823462234400,3.217234375,0.17843933535218237,-0.0018208952842280269,-0.0018182147033745423
1690838823472305400,3.227305419921875,0.18951134898662567,-0.009052307842485606,-0.003821129190735519
1690838823482345200,3.23734521484375,0.17544366066753864,-0.0017831022907979785,-0.000934947329130955
1690838823492385300,3.24738525390625,0.17409633771181104,-0.0006210727741010486,-0.00010490455453400499
1690838823502425300,3.25742529296875,0.18023264850974083,-0.007612539096642285,-0.008398329454270425
1690838823512466400,3.267466552734375,0.18337679175436494,-0.004998484140727668,-0.010226207035133847
1690838823522506200,3.27750634765625,0.18427753998637197,-0.004726462266314775,-0.004915966089582071
1690838823532546300,3.28754638671875,0.1881687022060156,-0.005003580440953373,0.0026628214345080776
1690838823542586400,3.29758642578125,0.18562486294209957,-0.005176927713863551,0.006686760313011473
1690838823552627200,3.307627197265625,0.17873977960348128,-0.003141147569939494,0.0007039378851186484
1690838823562667300,3.317667236328125,0.17380290772318838,-0.002946775775309652,-0.00400195651720278
1690838823572707300,3.327707275390625,0.18487492135763167,-0.008831449899729341,0.0009557435219874605
1690838823582748400,3.33774853515625,0.17993571138978004,-0.0039327728716656565,-0.00396730989550706
1690838823592788500,3.34778857421875,0.17873919508159158,-0.007502283655200153,-0.0022154658260755238
1690838823602828300,3.357828369140625,0.17889292433857917,-0.0075005118232220405,-0.002913983183982782
1690838823612868400,3.367868408203125,0.18083821318745613,0.004785882569663226,-0.01175046088527888
1690838823622909200,3.3779091796875,0.18069149819314478,0.0017430990739725528,-0.007324348113784799
1690838823632949200,3.38794921875,0.17815058153867722,-0.004280234602466225,-0.0008788617688289378
1690838823643020300,3.398020263671875,0.18952771559953688,-0.0009529716095887123,0.0033094396418193355
1690838823653060400,3.408060302734375,0.17680968832373617,-0.0010581307508051394,0.0006683402737078722
1690838823663100200,3.41810009765625,0.18578502193987367,-0.011046659997478126,0.0005125377906428184
1690838823673141200,3.428141357421875,0.17979893326759339,-0.010911580642033368,0.003637045894679613
1690838823683181300,3.438181396484375,0.18353870431780814,-0.006011880700662732,-0.00209022744463291
1690838823693221400,3.448221435546875,0.17904606907367704,-0.011852423422411083,-0.006070717623765813
1690838823703262200,3.45826220703125,0.1796452040106058,-0.00958794908914715,-0.010546356067323358
1690838823713302300,3.46830224609375,0.18593173693418502,-0.003369092840608209,-0.008455848919833078
1690838823723342300,3.47834228515625,0.18263970965147017,-0.005322437131777405,-0.0033453158144431654
1690838823733382400,3.48838232421875,0.17201368621885776,0.0044941148151643575,-0.012020099006360396
1690838823743423500,3.498423583984375,0.1782990500986576,-0.012084661275707185,-0.014415259647741914
1690838823753463300,3.50846337890625,0.18009470134377478,-0.007598309641890228,-0.0020243134684162214
1690838823763503400,3.51850341796875,0.18727789084613322,0.000050086219422519204,-0.0047962076008552686
1690838823773544200,3.528544189453125,0.18353519718647002,0.002831095240078866,-0.002426574126374908
1690838823783584300,3.538584228515625,0.18143910169005392,-0.00288755640136078,0.003525155618577264
1690838823793624300,3.548624267578125,0.17081541634500025,-0.004076528723910451,0.0007728155699791386
1690838823803664400,3.558664306640625,0.17545184397399424,0.004217873423360288,0.0031556281864410264
1690838823813735200,3.568735107421875,0.17545184397399424,-0.0035791371284052726,-0.005014605300110997
1690838823823775200,3.578775146484375,0.16902034962177276,-0.009152900406438857,-0.00952028725548298
1690838823833816300,3.58881640625,0.17979659518003463,-0.001575670085195452,0.006111992632359033
1690838823843856400,3.5988564453125,0.19057050265073774,-0.003659618486091494,0.004443590204324573
1690838823853896400,3.608896484375,0.1811439181357622,-0.013219291328825055,0.00003748132453183643
1690838823863937300,3.618937255859375,0.1765086595505476,-0.005889459897391498,-0.010467092844122089
1690838823873977300,3.628977294921875,0.18548516221046446,-0.007001786787156015,-0.0035505001223878935
1690838823884017400,3.639017333984375,0.18563304624855517,0.002060494460072368,-0.003939969797432423
1690838823894057200,3.64905712890625,0.17067162396013735,-0.0002539016958326101,-0.009420987032895208
1690838823904098300,3.659098388671875,0.18159575355648994,-0.0072462996001355345,0.0034576935726683584
1690838823914138400,3.669138427734375,0.18758125770688056,-0.007546104530617595,-0.0011265837439801544
1690838823924178400,3.679178466796875,0.1829436610341072,-0.010642737105395645,0.0010531714478973298
1690838823934219300,3.68921923828125,0.1796545563608408,-0.006342025970481335,-0.0028610154543071984
1690838823944259300,3.69925927734375,0.18264906200170516,-0.010623849741835147,-0.008286425478436285
1690838823954286600,3.70928662109375,0.17816168745458125,-0.003660568334162235,-0.011469346955535002
1690838823964326400,3.719326416015625,0.18369827879369258,-0.00246191486781463,-0.004760953624383546
1690838823974367500,3.729367431640625,0.17860943122208117,-0.01074342100089416,0.0061163308807590504
1690838823984438500,3.7394384765625,0.18205226515233516,-0.010094656502269208,-0.006353392181289382
1690838823994478600,3.749478515625,0.1880371847808361,-0.0033774588101543484,-0.00823087649096269
1690838824004518400,3.759518310546875,0.17711130161881447,0.0025214082363992927,0.0049746237745275715
1690838824014558500,3.769558349609375,0.17396540480852127,-0.007484145210310817,-0.00010247856036294251
1690838824024599600,3.779599609375,0.1850391720086336,0.000904693754762411,-0.0008387112798867747
1690838824034639600,3.7896396484375,0.185637137901783,-0.0007681896272115409,-0.0055561602643283544
1690838824044679400,3.799679443359375,0.1814455314308405,-0.00456805683420971,-0.009858390927826985
1690838824054719500,3.809719482421875,0.17561083392798899,-0.00869291821187362,-0.000830774568603374
1690838824064760300,3.81976025390625,0.16992402046322821,-0.005722268370632082,-0.0029661015302874147
1690838824074800400,3.82980029296875,0.17950024258196354,-0.0024544987463392316,-0.004610845663165673
1690838824084840400,3.83984033203125,0.18563421529233454,-0.013127667522616683,0.0036880819621728732
1690838824094881500,3.849881591796875,0.18922785587012766,-0.013337109022215007,-0.0023858265574555845
1690838824104921600,3.859921630859375,0.18129530930519103,-0.004879515669867396,-0.009024177726544439
1690838824114961400,3.86996142578125,0.1907207247763872,0.0031229177935048935,-0.005061667303740978
1690838824125001500,3.88000146484375,0.18009528586566448,0.0015831044729799032,-0.0019885663016000763
1690838824135042300,3.890042236328125,0.17605623960793018,-0.0031598888030275702,-0.003144746032822877
1690838824145082400,3.900082275390625,0.1886293054550886,-0.01170388179719448,-0.004986428376752883
1690838824155153400,3.9101533203125,0.18428923042416573,-0.006966149218194186,-0.0035569264382414984
1690838824165193500,3.920193359375,0.1771048718780279,-0.004179642038512975,0.000487998146074824
1690838824175233300,3.9302333984375,0.17620821529924868,-0.0001099997131153941,-0.003672013318428071
1690838824185274400,3.9402744140625,0.17830489531755447,-0.004979633309785276,-0.0036586880459741223
1690838824195314400,3.950314453125,0.1826461393922567,-0.005792611926794052,-0.0023199354141252115
1690838824205354500,3.9603544921875,0.18474165036678314,-0.009076346305198968,-0.004826401809719391
1690838824215395300,3.970395263671875,0.18219605753719806,-0.0015045045451261103,-0.000652888117893599
1690838824225435400,3.980435302734375,0.1824947482228279,-0.0054155770416371525,0.0014930561359273269
1690838824235475500,3.990475341796875,0.1784521948337555,-0.009111728145834058,-0.010104935867688618
1690838824245515500,4.000515625,0.17890052312314508,-0.010325049458350985,-0.009224052246776408
1690838824255556600,4.010556640625,0.1721639083445072,-0.004302355102729052,-0.009138725750613957
1690838824265596400,4.020596435546875,0.17650047624409199,-0.0027734650350175797,-0.0006633410132490098
1690838824275636500,4.030636474609375,0.18143734812438486,-0.0065696424475871025,0.002266523584810784
1690838824285677300,4.04067724609375,0.17694646644592285,-0.009475373826455325,-0.002740399590699235
1690838824295717400,4.05071728515625,0.1841284869045019,-0.009492105765547603,-0.0026567946941650007
1690838824305757400,4.06075732421875,0.1854746408164501,-0.004561663626041263,-0.007581564003066159
1690838824315797500,4.070797607421875,0.17470073334574698,-0.011455551325622945,0.0012937889704713597
1690838824325868300,4.080868408203125,0.1784434270054102,-0.00930184389045462,-0.0059483002454275265
1690838824335908400,4.090908447265625,0.1824818887412548,-0.009063121497444808,-0.002056681368057616
1690838824345949400,4.100949462890625,0.1791881078928709,-0.009739595986902713,-0.001446522713615559
1690838824355989500,4.110989501953125,0.18816636411845683,-0.012119860453251748,-0.009646579374629071
1690838824366029600,4.121029541015625,0.17305647327005863,-0.0025640783343464134,0.0019853742640931157
1690838824376070400,4.1310703125,0.17186229504942893,-0.00724721291558817,-0.0031340431173623074
1690838824386110500,4.1411103515625,0.1765033988535404,-0.005794091497827321,-0.0009966372213792054
1690838824396150500,4.151150634765625,0.17904665359556673,-0.0059677858306095,-0.000690548680583015
1690838824406190300,4.1611904296875,0.19042261861264703,-0.005390369535144418,-0.008941555785766104
1690838824416231400,4.1712314453125,0.19132453588843346,-0.004021200073789805,-0.008419092539441772
1690838824426271500,4.181271484375,0.18473989680111408,-0.00854830384310335,-0.0071005629950028374
1690838824436311600,4.1913115234375,0.17441373309791086,-0.010972590114269406,-0.00836827110107988
1690838824446352400,4.201352294921875,0.1817453911602497,-0.0032274193475954234,0.002878280541294953
1690838824456392400,4.211392333984375,0.1868342387318611,-0.005129563174489885,0.00036903310014749875
1690838824466432500,4.2214326171875,0.18219313492774963,-0.008955167610943317,-0.006378891948726959
1690838824476472300,4.231472412109375,0.1660346118092537,-0.01424896317012608,-0.006708726691291667
1690838824486513400,4.241513427734375,0.17157120314836502,-0.005425879239942878,-0.0012466984257334844
1690838824496584400,4.25158447265625,0.1815969226002693,-0.000036240357160568236,0.0022951982650905845
1690838824506624500,4.26162451171875,0.18473814323544502,-0.000851867588981986,-0.010632710043370025
1690838824516664600,4.27166455078125,0.1914700818389654,-0.01048966543553397,0.0011692447087727487
1690838824526704600,4.28170458984375,0.1778542289406061,-0.006571670007891953,-0.001284743722557323
1690838824536745500,4.291745361328125,0.17394143941104412,-0.0011082900354638695,-0.002859919475764036
1690838824546785500,4.30178564453125,0.2743056014358997,-0.057908875872194766,-0.012286257395567372
1690838824556825300,4.311825439453125,0.13749182341396807,-0.206262303306628,-0.23902433509845286
1690838824566865400,4.321865478515625,-0.021800328397750854,0.1969568974859081,0.42284156409669665
1690838824576906500,4.331906494140625,0.21079320646822453,-0.07876987759321928,0.063799806207465
1690838824586946600,4.341946533203125,0.14930910245776174,-0.0513496452207677,0.08131237428341992
1690838824596986600,4.351986572265625,0.09830547592937945,-0.05850346249816939,0.04098487110680435
1690838824607027500,4.36202734375,0.2431973464667797,-0.0064896177476271985,-0.08071713920347393
1690838824617067500,4.372067626953125,0.1899982557207346,0.02501569198137149,-0.07784557495568878
1690838824627107300,4.382107421875,0.22033318822979925,0.03265108223063871,-0.06425745488104875
1690838824637147400,4.3921474609375,0.20447686292827127,0.04686038924381137,-0.03205567362075672
1690838824647188500,4.4021884765625,0.2058306156247854,0.0638265937496908,0.027048910275450908
1690838824657259500,4.412259521484375,0.20843407612144946,0.058722384212166065,0.0729953127797693
1690838824667299600,4.422299560546875,0.16317629976868628,0.06563939705900848,0.09012932073376141
1690838824677339600,4.432339599609375,0.19350421801507472,0.05592701787259429,0.08798817138606682
1690838824687379500,4.44237939453125,0.16173662235438824,0.030098639535158872,0.06235396848043892
1690838824697420500,4.452420654296875,0.2207937914788723,0.006522734565939754,0.009205114650866016
1690838824707460400,4.46246044921875,0.15923136153519152,-0.007274393183458596,-0.024899335592705754
1690838824717500400,4.47250048828125,0.1962637458562851,-0.024828042188473044,-0.035468865897995416
1690838824727541500,4.48254150390625,0.1891308252364397,-0.03272772766342386,-0.03569075588721316
1690838824737581600,4.49258154296875,0.14905132830440998,-0.03903581483168527,-0.0090742091470398
1690838824747621600,4.50262158203125,0.18495909250974654,-0.05302886701198294,0.025252176751522346
1690838824757661700,4.51266162109375,0.13644669827520847,-0.045610590112116184,0.047751871890551405
1690838824767702500,4.52270263671875,0.15435001923441885,-0.05238640438998118,0.05400033782606478
1690838824777742300,4.532742431640625,0.14515315182209015,-0.05314721442833543,0.04854246971239336
1690838824787782400,4.542782470703125,0.1497130070835352,-0.04870130440276116,0.03128661634386517
1690838824797823500,4.552823486328125,0.18255378493368624,-0.028835177204292267,0.013106341606797649
1690838824807863600,4.562863525390625,0.17274784571230412,-0.012252071998175233,-0.010514229054632595
1690838824817903600,4.572903564453125,0.1888385642915964,-0.00009184300191700458,-0.00913913217599038
1690838824827974700,4.582974609375,0.20404723933935165,-0.0008299297518096864,-0.0006700949810212477
1690838824838014500,4.593014404296875,0.19757599749863147,0.01806658522952348,0.00867670229601208
1690838824848054500,4.603054443359375,0.17930442774891853,0.03456970226829871,0.02559954715077765
1690838824858095400,4.613095458984375,0.19561960273385046,0.03024383842581883,0.02623583119374234
1690838824868135400,4.623135498046875,0.17738719595074653,0.03106806908920407,0.0320725653900532
1690838824878175500,4.633175537109375,0.1859539487659931,0.036286790118180215,0.03291593914532568
1690838824888216600,4.643216552734375,0.19617957470417022,0.03613664105776697,0.02430043355121743
1690838824898256600,4.653256591796875,0.18261925138533114,0.033964886509254576,0.0089899923291523
1690838824908296700,4.663296630859375,0.1918050128817558,0.018068521458283065,0.003290022840707388
1690838824918336500,4.67333642578125,0.17584873433709144,0.013175598317570984,0.003786660665553063
1690838824928377300,4.68337744140625,0.19819033000469208,0.002103347221110016,0.011184301202767527
1690838824938417400,4.69341748046875,0.16395955910086632,-0.013329400639794766,0.017755893578846008
1690838824948445700,4.70344580078125,0.16353402716517448,-0.019359547649510204,0.02711724910419434
1690838824958486800,4.71348681640625,0.17236907552778719,-0.03183017603550106,0.028724086079210974
1690838824968526600,4.723526611328125,0.1556026496440172,-0.041663295524753625,0.022290892960247582
1690838824978566700,4.733566650390625,0.1557248147189617,-0.042371462060417975,0.021808886163542048
1690838824988606700,4.743606689453125,0.1643658018141985,-0.02894221777534112,0.020968695312622004
1690838824998677800,4.753677734375,0.16821429393589496,-0.018812855285871774,0.006997475938219577
1690838825008718800,4.76371875,0.16801731005907058,-0.023821093635633585,0.007390936801792122
1690838825018758700,4.773758544921875,0.1720107636094093,-0.013826372110191732,0.001595110004604794
1690838825028798500,4.783798583984375,0.1698725825369358,-0.003556103312689811,0.008002940353448501
1690838825038838500,4.793838623046875,0.1782207241654396,-0.0018434359095990656,0.015303527424088678
1690838825048879600,4.803879638671875,0.18298633113205431,0.005587298613041639,0.022297856990573926
1690838825058919700,4.813919677734375,0.18626900606453417,0.005857091997750103,0.029242319533345287
1690838825068959700,4.823959716796875,0.19869243430793285,0.018558131606131793,0.02150146874876227
1690838825078999800,4.833999755859375,0.18897709597945211,0.020447123690508304,0.01843716297443025
1690838825089040600,4.84404052734375,0.19213877488076686,0.020091204658616333,0.00659065783615224
1690838825099080700,4.854080810546875,0.19336393276154995,0.01972229828098789,0.008476512681948952
1690838825109120500,4.86412060546875,0.18082476918399332,0.013775080314371734,-0.0015883880028733982
1690838825119161600,4.87416162109375,0.1838490854412317,0.004443261410761624,0.005048433362832293
1690838825129201700,4.88420166015625,0.18806816444098948,-0.002610273829940706,0.011687935309391467
1690838825139241700,4.89424169921875,0.1761240441471338,-0.015702541245613245,0.026637644327129235
1690838825149281800,4.90428173828125,0.17704232803583145,-0.01420819276832044,0.019836860004789195
1690838825159322600,4.914322509765625,0.17870120115876198,-0.02167264689747244,0.024893006316618994
1690838825169393700,4.9243935546875,0.1757107871711254,-0.020382223494444043,0.03122971679116599
1690838825179433500,4.93443359375,0.18453531413972377,-0.019327599874977022,0.017164850616827605
1690838825189473500,4.9444736328125,0.16611995200514793,-0.025826369043439625,0.008311572477780282
1690838825199513600,4.954513671875,0.18585165743529797,-0.02672698941128328,0.004500042517863039
1690838825209554700,4.9645546875,0.17475334031581877,-0.02165428925687447,-0.0000733527878728637
1690838825219594800,4.9745947265625,0.16649404601454734,-0.012513773407973348,0.0019568970882799476
1690838825229634800,4.984634765625,0.18651976595520972,-0.008356982522085308,0.013169301007525063
1690838825239675600,4.994675537109375,0.1719774458616972,-0.008448113137949258,0.012479528645076789
1690838825249715700,5.0047158203125,0.1758499033808708,0.001234163171146065,0.01212587006893009
1690838825259755500,5.014755615234375,0.17194471263587474,0.004759907878190279,0.022216265954612752
1690838825269795600,5.024795654296875,0.18001871349811552,0.006319065220002085,0.02023204703456722
1690838825279836700,5.034836669921875,0.17972177637815476,0.011489563193079083,0.019423881589993832
1690838825289876700,5.044876708984375,0.1854179421931505,0.005263674415554851,0.023893661114922724
1690838825299916800,5.054916748046875,0.18498071981966493,0.002992149286996573,0.007496771796443499
1690838825309957600,5.06495751953125,0.17751345267891883,0.0035083186482079325,0.0019819264982594174
1690838825319997700,5.074997802734375,0.18172551741600035,0.005205496221221983,0.008704722814098932
1690838825330037500,5.08503759765625,0.18862755188941954,0.0057289903723634775,0.00709564364964608
1690838825340108500,5.095108642578125,0.18160978208184242,0.0034245676212012765,0.010000219684466719
1690838825350148600,5.105148681640625,0.17324293575286864,-0.004052526793815196,0.005784793946519494
1690838825360188700,5.115188720703125,0.18971242451667786,-0.009400865551829337,0.01188972322549671
1690838825370229800,5.125229736328125,0.17086802331507206,-0.007700326977949589,0.014078424342232755
1690838825380269800,5.135269775390625,0.1846381899923086,-0.013398721282649784,0.008738141026510857
1690838825390309600,5.1453095703125,0.18657704910039902,-0.00645182475419715,0.0156278914070921
1690838825400350500,5.1553505859375,0.17399930707812308,-0.015432272936869412,0.018521119497413745
1690838825410390500,5.165390625,0.17099544908702372,-0.017768716527801005,0.016192644583806395
1690838825420430600,5.1754306640625,0.1739776797682047,-0.008259056839253752,0.015425464170170015
1690838825430470700,5.185470703125,0.17800386654436587,-0.0105644659711048,0.00816044616983272
1690838825440511700,5.19551171875,0.17903671672344207,-0.0033154264246113598,0.013227588799712248
1690838825450551800,5.2055517578125,0.18096388539373873,0.003225884977634996,0.014611654436099342
1690838825460591900,5.215591796875,0.1824433102965355,0.001419584474340081,0.016966980824014172
1690838825470632700,5.2256328125,0.18871990634799002,0.00039159313347190614,0.006339537185872905
1690838825480672500,5.235672607421875,0.18752046743035317,0.008976941051334142,0.0061668018343159926
1690838825490712600,5.245712646484375,0.1867740329772234,0.008900186020694673,0.007458485612669028
1690838825500752600,5.255752685546875,0.18004910863637924,-0.0027680764738470314,0.012193377780611626
1690838825510823700,5.26582373046875,0.17781448145210743,-0.005564721455052495,0.01738320607524365
1690838825520863700,5.27586376953125,0.18351298535466193,0.004905344230867922,0.01897231559732463
1690838825530904800,5.28590478515625,0.18322364701926708,-0.003720865420345217,0.011293255169689655
1690838825540944600,5.295944580078125,0.1773971328228712,-0.0008266966151073574,0.015597277073119767
1690838825550984700,5.305984619140625,0.1703741023182869,0.0022089812863618132,0.015358586646150797
1690838825561025500,5.316025634765625,0.17935995732843873,-0.008140855553373695,0.020065161468484437
1690838825571065600,5.326065673828125,0.18385200805068014,-0.009821319453604519,0.010550720573542638
1690838825581105700,5.336105712890625,0.1817588351637125,-0.006178268509823829,0.019066154193505644
1690838825591145700,5.346145751953125,0.1720329754412174,-0.00016054259026423095,0.017073907230631447
1690838825601186800,5.356186767578125,0.1747217761337757,0.0011499006874859333,0.011493307786434889
1690838825611227000,5.366226806640625,0.1820499270647764,-0.010056644313130527,0.011273335759667678
1690838825621266700,5.3762666015625,0.18847849880754947,-0.009967468192335217,0.011197443812130949
1690838825631307500,5.3863076171875,0.18667466425597667,-0.003981032460182905,0.005223369804630056
1690838825641347600,5.39634765625,0.17304770544171333,-0.0032894699994474646,0.010387086410471237
1690838825651387600,5.4063876953125,0.1749830574184656,-0.001243844314943999,0.014649995418800972
1690838825661427700,5.416427734375,0.1818587884068489,-0.005407247604709118,0.011609307982074097
1690838825671468800,5.42646875,0.17541794170439243,0.0003533800149336457,0.01776574368600268
1690838825681539800,5.436539794921875,0.18663433224558829,0.0028021431402303278,0.012413856697455048
1690838825691579600,5.44657958984375,0.1776543224543333,0.004998685070127249,0.013163442088896408
1690838825701619700,5.45661962890625,0.17302023291289806,-0.0041296836832538245,0.018520078317797742
1690838825711659800,5.46665966796875,0.18215280291736125,-0.008296064381394535,0.013862283673789352
1690838825721700600,5.47670068359375,0.17751988241970537,-0.0004458988702856004,0.01858949942535255
1690838825731740700,5.48674072265625,0.18052081780135631,-0.003753251586295664,0.014464893776015378
1690838825741780700,5.49678076171875,0.18471826949119566,-0.002879062567651272,0.007095935910590924
1690838825751821800,5.50682177734375,0.174848032861948,-0.007015504785254597,0.0036931736958213147
1690838825761862000,5.51686181640625,0.1829343086838722,-0.005454740008246153,0.0016515209335368126
1690838825771901700,5.526901611328125,0.17635434577167033,-0.011152184464875608,0.019092708840291014
1690838825781941800,5.536941650390625,0.17545710467100142,-0.017567239138949663,0.012082103992439806
1690838825791982600,5.546982666015625,0.17365619272887706,-0.01281412632772699,0.009272284435830079
1690838825802022700,5.557022705078125,0.17933599193096159,-0.002556662212871015,0.01974747382143978
1690838825812062700,5.567062744140625,0.17903204054832458,-0.004817282354924827,0.021185594032891095
1690838825822103800,5.577103759765625,0.17318974426090716,-0.013291899907309562,0.01143535792096518
1690838825832144000,5.587143798828125,0.1788730505943298,-0.012502521361596882,0.013399036376480943
1690838825842183700,5.59718359375,0.1712362721055746,-0.006992982426192611,0.013255613884376361
1690838825852254700,5.607254638671875,0.1730266626536846,-0.004780877600982785,0.01091401462771464
1690838825862294800,5.617294677734375,0.19023089543282984,-0.0032956074792891738,0.009823150651087053
1690838825872334600,5.62733447265625,0.17691081061065195,0.0029086357220076023,0.012339732015319169
1690838825882375700,5.637375732421875,0.18199615105092523,-0.0018062822369858621,0.008607591715711169
1690838825892415700,5.647415771484375,0.18738310478627682,-0.004058572942111641,0.007295910895522684
1690838825902455800,5.657455810546875,0.17960370295643804,-0.006237597481627017,0.0067571187105495475
1690838825912497000,5.667496826171875,0.1824462329059839,0.001820383827574551,0.011913044735579751
1690838825922536700,5.67753662109375,0.17975509412586688,-0.002144318552315235,0.011669669000338763
1690838825932576800,5.68757666015625,0.18050445118844508,-0.00568573575252667,0.009952540051261893
1690838825942616600,5.697616455078125,0.180355398106575,-0.0011755283190868794,0.013629073139536194
1690838825952645600,5.707645751953125,0.17691607130765913,-0.007235650341957807,0.012859486139682122
1690838825962685700,5.717685791015625,0.17796411905586718,-0.006468264432344585,0.004910792157542892
1690838825972725500,5.7277255859375,0.17482465198636055,-0.01053902100259438,0.005819842427014373
1690838825982766300,5.737766357421875,0.17362696663439273,-0.013413590058218686,0.005759504241636022
1690838825992806400,5.747806396484375,0.1754226178795099,-0.008620346166007221,0.013018119900650344
1690838826002846500,5.757846435546875,0.18349895682930945,-0.00367187517946586,0.013029394779913127
1690838826012886500,5.767886474609375,0.18005320028960703,-0.00532017210945487,0.011484891584538854
1690838826022957600,5.77795751953125,0.1787035392463207,-0.007366455381084233,0.006090476061939262
1690838826032997400,5.787997314453125,0.18124562494456767,-0.006376220501028001,0.007029889503633603
1690838826043038500,5.79803857421875,0.1737584840595722,-0.0053739481233060354,0.0052249315740540625
1690838826053078500,5.80807861328125,0.1706090801179409,-0.008621369079314172,0.01593695735626388
1690838826063118300,5.818118408203125,0.18512100507318974,-0.008274528403021396,0.013623036124394274
1690838826073159400,5.828159423828125,0.17180325833857057,-0.000651778439618647,0.02083648376769852
1690838826083199500,5.838199462890625,0.18257775033116339,-0.0009143018333241343,0.020819815760687924
1690838826093239600,5.848239501953125,0.1849737055569887,0.003036408553831279,0.020748522356455214
1690838826103279600,5.858279541015625,0.18123393450677394,0.0009848828515037894,0.012503283979999832
1690838826113320700,5.86832080078125,0.18587386926710606,0.0016104674039408564,0.014358807619614526
1690838826123360500,5.878360595703125,0.17989187224805353,-0.00034927009539678693,0.01332621316886507
1690838826133400300,5.888400390625,0.1846820291340351,-0.007621288658678531,0.005199212610907852
1690838826143441400,5.89844140625,0.17555647339224814,-0.005590257755108178,0.006345455470005981
1690838826153481500,5.9084814453125,0.1782505347818136,-0.003017228929325938,0.007285179438954219
1690838826163521500,5.918521484375,0.17825462643504142,-0.0045168563699349755,0.012651747973402962
1690838826173561600,5.9285615234375,0.17885200780630112,-0.0054591239224188026,0.020040081826155073
1690838826183602700,5.938602783203125,0.1745125172972679,-0.010707198910042643,0.01646994542153552
1690838826193673500,5.948673583984375,0.17705518751740454,-0.0059494464563205835,0.014925857784692197
1690838826203713500,5.958713623046875,0.18468728983104227,-0.004294591921381652,0.018774546269210986
1690838826213753300,5.96875341796875,0.17421031948029994,-0.004977879744116217,0.009663699472788721
1690838826223793400,5.97879345703125,0.1849836424291134,-0.010819354047626257,0.00868186252831947
1690838826233834500,5.98883447265625,0.183035430970788,-0.006593662643991411,0.014910820045764557
1690838826243874600,5.99887451171875,0.1768967820852995,0.0007592756683938204,0.011044988630199804
1690838826253914600,6.00891455078125,0.1815320406705141,-0.0032444800802506504,0.007756546110636554
1690838826263955700,6.018955810546875,0.18691431823074817,-0.007609817416593432,0.01305723263490945
1690838826273995500,6.02899560546875,0.17478841162919997,-0.005395045710261911,0.003732108333567157
1690838826284035300,6.039035400390625,0.17403963908851144,-0.004065240144915878,0.011559294827887787
1690838826294075400,6.049075439453125,0.1780810234338045,-0.0047726577619090675,0.013601870038779452
1690838826304116500,6.059116455078125,0.17823066103756427,-0.007479669964592903,0.013702663532132281
1690838826314156500,6.069156494140625,0.1821241613447666,-0.007213803836330771,0.021726258514542133
1690838826324196600,6.079196533203125,0.1767436373502016,-0.004153046292532235,0.010771021393872798
1690838826334237700,6.08923779296875,0.17360533932447433,-0.011034713831357658,0.013674341619946061
1690838826344277500,6.099277587890625,0.17929741348624229,-0.0014063596665859221,0.010202706286893225
1690838826354348500,6.1093486328125,0.17346622311472892,-0.006324672976881265,0.007371286819828674
1690838826364388400,6.119388427734375,0.18484394169747828,-0.005241864442545921,0.011541361878975294
1690838826374428400,6.129428466796875,0.18110650873482226,-0.00794578963899985,0.002244559489819221
1690838826384468500,6.139468505859375,0.17826514782905578,-0.0016126958936452864,0.0025263584061525762
1690838826394509600,6.149509521484375,0.17676701822578905,-0.001971738464385271,0.014301095216162503
1690838826404549400,6.15954931640625,0.1794581570059061,-0.005196016006823629,0.01802841321018059
1690838826414589400,6.16958935546875,0.18259645503163335,-0.0053308396339416505,0.01427191022087354
1690838826424630500,6.179630615234375,0.17990005555450916,-0.001410524385049939,0.01700228959941305
1690838826434670300,6.18967041015625,0.1769043808698654,-0.0016505071533843875,0.01941621430676896
1690838826444710400,6.19971044921875,0.17869827854931353,-0.002175042484141886,0.0018429198863683268
1690838826454750500,6.20975048828125,0.18198679870069026,-0.00395021719681099,0.017261803618702106
1690838826464791600,6.21979150390625,0.17884382449984548,0.0005198408893309533,0.012535898474813439
1690838826474831600,6.22983154296875,0.1761474250227213,-0.008545582163054495,0.012851654459675774
1690838826484871400,6.239871337890625,0.1701642589598894,-0.0023286438769660888,0.011731322359968908
1690838826494912500,6.24991259765625,0.1783954962104559,-0.005887432337086647,0.010037145028216763
1690838826504952300,6.259952392578125,0.17570085029900073,-0.006820785930752754,0.00434256381553132
1690838826514992400,6.269992431640625,0.17570085029900073,-0.007420943780988455,0.004725955376238562
1690838826525063400,6.2800634765625,0.1752531065315008,-0.009622837739437819,0.01616370161711238
1690838826535103500,6.290103515625,0.17600421715974807,-0.0020475801795721052,0.015330036405101418
1690838826545143300,6.300143310546875,0.17001812848746775,-0.006249488848820328,0.016487266449094748
1690838826555184400,6.310184326171875,0.1635848805695772,-0.0000773395525291562,0.012469989065174013
1690838826565224400,6.320224365234375,0.18408347871899602,0.004347856478579342,0.014526391872018575
1690838826575264500,6.330264404296875,0.17764906175732612,-0.0029854820841923356,0.011541302513470873
1690838826585305300,6.340305419921875,0.17480770085155964,-0.005004932147823274,0.007837214697990567
1690838826595345400,6.350345458984375,0.19246610713899134,-0.006771065037511289,0.00901635974626988
1690838826605385500,6.360385498046875,0.18348960447907448,-0.0029652247474528846,0.010272177626797928
1690838826615425500,6.370425537109375,0.17825345739126205,-0.004414802501257508,0.01396498599643819
1690838826625466600,6.380466552734375,0.17586217834055423,-0.006559979570098221,0.006014086357480846
1690838826635506400,6.39050634765625,0.17690788800120352,0.003255184137355536,0.008624825978302397
1690838826645546500,6.40054638671875,0.17720657868683337,-0.0016925744631327688,0.008889495663321577
1690838826655587300,6.41058740234375,0.1824462329059839,-0.0016121113717555999,0.018143536622985266
1690838826665627400,6.42062744140625,0.17870763089954853,-0.0012393508029170334,0.01107599112323951
1690838826675667500,6.43066748046875,0.17302023291289806,-0.003524758326355368,0.00522799118082039
1690838826685707500,6.44070751953125,0.18678455437123775,-0.008098642113152891,0.0029713302612537516
1690838826695778300,6.4507783203125,0.18962416171133517,-0.004479812295176088,0.006959125822363421
1690838826705819400,6.4608193359375,0.1728653346121311,0.0025815409258008,0.012714351181103848
1690838826715859500,6.470859375,0.17510814510285852,-0.0036186471548862753,0.012649017160199581
1690838826725899500,6.4808994140625,0.17331190933585167,-0.009471556167863309,0.00805502216713503
1690838826735939600,6.490939697265625,0.1745084256440401,-0.0039527379474602635,0.01367399456007406
1690838826745980400,6.50098046875,0.17286416556835174,-0.002091675049625337,0.007875322785251774
1690838826756020500,6.5110205078125,0.17929975157380104,-0.0023637699892744423,0.014760698384814894
1690838826766060500,6.521060546875,0.1755582269579172,-0.003876804900728166,0.014784695748332887
1690838826776101600,6.5311015625,0.18274024741649628,0.0011824329839088023,0.00987383965870831
1690838826786141400,6.541141357421875,0.1776496462792158,-0.000850936007220298,0.001979017588542774
1690838826796181500,6.551181396484375,0.1748047782421112,-0.0027147388514131305,0.011519099814817309
1690838826806221600,6.5612216796875,0.185579270234704,-0.01018803387414664,0.014124784234608523
1690838826816262400,6.571262451171875,0.1899199297875166,-0.0005612506119534373,0.0038545976354973388
1690838826826302500,6.581302490234375,0.18228724295198917,-0.0007490100027061999,0.002901507294899784
1690838826836342500,6.591342529296875,0.17540040604770182,-0.007449347891565412,0.008591832457575947
1690838826846383600,6.601383544921875,0.17973931203484533,-0.006429466791916638,0.008574662127066403
1690838826856423400,6.61142333984375,0.17794249174594878,-0.002720364874601364,0.013852565997373311
1690838826866494500,6.621494384765625,0.1748001020669937,-0.0028851087159477173,0.015695408251928163
1690838826876534500,6.631534423828125,0.18168226279616354,-0.0032129341645166275,0.007514522082265466
1690838826886574600,6.64157470703125,0.17943769873976706,-0.004266881930548697,0.009166654937155544
1690838826896614700,6.65161474609375,0.17030922038853166,0.0003460917576216161,0.010208533239481038
1690838826906655500,6.661655517578125,0.18332827643752098,-0.001282020900864154,0.0025022286118939517
1690838826916695600,6.671695556640625,0.1795890899091959,-0.0019642675439827144,0.004210334004298784
1690838826926735400,6.6817353515625,0.17045885799229143,-0.005036277134157717,0.00011779942708089947
1690838826936776400,6.6917763671875,0.18841478592157362,-0.006696154904086142,0.008109268538444302
1690838826946816500,6.70181640625,0.1755494591295719,0.0011974478899501263,0.01771880383831449
1690838826956851000,6.711850830078125,0.17704992682039736,-0.012121723616775125,0.0033935879610478875
1690838826966891000,6.72189111328125,0.1900719054788351,-0.005258285854384303,0.006793751793354749
1690838826976932000,6.73193212890625,0.1909744072765112,-0.0055403176661580796,0.008278738787258044
1690838826986972200,6.74197216796875,0.17032675604522227,-0.00021437340304255483,0.011088768406421878
1690838826997012200,6.75201220703125,0.17347499094307423,-0.010486907222867011,0.012934597202506847
1690838827007053000,6.762052978515625,0.1779687952309847,-0.0053825698211789124,0.014599370343261397
1690838827017093000,6.772093017578125,0.1667436368614435,0.00022237404640763997,0.00413590336148627
1690838827027133000,6.7821328125,0.17826573235094545,-0.0018689356770366428,0.00865378721130546
1690838827037204000,6.792203857421875,0.18410452150702475,0.000937664442602545,0.009588962869299575
1690838827047244000,6.802244140625,0.18889292482733724,-0.0056618982192128894,0.002669191809790209
1690838827057284000,6.8122841796875,0.17392624184191227,-0.011289474043715745,0.010764651018590666
1690838827067325200,6.8223251953125,0.17242869676053524,-0.009396682567056268,0.011749922029161825
1690838827077365200,6.832365234375,0.18409692272245884,0.002306413778848946,0.005380113002611324
1690838827087405300,6.8424052734375,0.18244974003732203,-0.003418576271831989,-0.0022316543424734845
1690838827097446100,6.852446044921875,0.17781038979887961,-0.0025501594068482515,0.0080619085656479
1690838827107486000,6.86248583984375,0.18184826701283455,-0.0023266711155883967,0.015607031282153912
1690838827117526000,6.872526123046875,0.18004910863637924,0.00860542259151116,0.008419348267768509
1690838827127566000,6.882566162109375,0.17810498883128165,-0.002412942893244326,0.01769442288230639
1690838827137607200,6.892607177734375,0.17900749062895774,-0.010625110117159784,0.012775561582739464
1690838827147647200,6.902647216796875,0.17870996898710725,-0.005030687643587589,0.0067104482909198845
1690838827157687300,6.912687255859375,0.1656891593724489,-0.000017645254544913767,0.01434025361619424
1690838827167728000,6.92272802734375,0.17137772640287874,-0.0006800364197231828,0.011114144876273348
1690838827177768000,6.932767822265625,0.18499474834501742,-0.00921847645593807,0.010231265661097132
1690838827187808000,6.94280810546875,0.17900807515084743,-0.006408679732214659,0.01753658827235922
1690838827197848000,6.95284814453125,0.18199965818226335,0.0014750409886240957,0.019717841301579025
1690838827207919000,6.962919189453125,0.1818494360566139,-0.006484174387529492,0.015439086270146072
1690838827217960200,6.972960205078125,0.1968126119107008,-0.005750709013827145,0.009178706134553067
1690838827228000300,6.983000244140625,0.1767611730068922,-0.010393785579316318,0.0007434890107950196
1690838827238040300,6.993040283203125,0.17391747401356697,-0.008318093550112099,0.008211833863775246
1690838827248080100,7.003080078125,0.18334347400665282,-0.006402414388209581,0.014947717990051023
1690838827258121000,7.013120849609375,0.18484101908802986,-0.009359949019551277,0.009006523338845
1690838827268161000,7.0231611328125,0.18109774090647696,-0.006304908830486238,0.013265806484827771
1690838827278201000,7.033201171875,0.18528642476797103,-0.003201115862559527,0.009105892060091719
1690838827288242200,7.0432421875,0.1804991904914379,-0.0024201580853201446,0.010834428319172001
1690838827298282200,7.0532822265625,0.17616203806996344,-0.007123349073901772,0.010031487038987688
1690838827308322300,7.063322265625,0.17556465669870375,-0.008428476855717598,0.017242496130033397
1690838827318362000,7.073362060546875,0.18169921393096447,-0.006498714369535446,0.0036524261269019914
1690838827328403000,7.08340283203125,0.17690730347931383,-0.0037733993251807987,-0.0003297114449786022
1690838827338443000,7.093443115234375,0.17526304340362547,-0.004011372799519449,-0.002415760471415706
1690838827348483000,7.103483154296875,0.1773626460313797,-0.004000796606577933,0.00830018343408592
1690838827358523100,7.113523193359375,0.1820025807917118,-0.005310235237330198,0.008791720677539706
1690838827368564200,7.123564208984375,0.18439970506131648,-0.0004056581914424896,0.016805027161375618
1690838827378635300,7.13363525390625,0.182604638338089,-0.0032377763448283073,0.00701027605428826
1690838827388675300,7.14367529296875,0.1860498103559017,0.0009369885891675948,0.009772356612188742
1690838827398715100,7.153715087890625,0.17811726379096507,-0.0042140374984592196,0.00729980161935091
1690838827408755000,7.1637548828125,0.1782680704385042,-0.007313519617449492,0.006686738621769473
1690838827418796000,7.173796142578125,0.17288170122504234,-0.005511785691417754,0.01036470561530441
1690838827428836000,7.183836181640625,0.17288053218126295,-0.0021102153533138334,0.015849840761814265
1690838827438876200,7.193876220703125,0.17976853812932966,0.0012050832071341573,0.014227897549211046
1690838827448917200,7.203917236328125,0.1794710164874792,-0.007266173344384878,0.012680805104528552
1690838827458957300,7.213957275390625,0.17737784360051154,-0.0012079692839644849,0.0077629256190732115
1690838827468997000,7.2239970703125,0.1809691460907459,0.0016209887979552148,0.010624457096611148
1690838827479037000,7.234036865234375,0.18052081780135631,-0.0058313730346038935,0.0032412012777756896
1690838827489078000,7.244078125,0.17812603161931037,-0.003163359401747584,0.008742145914770662
1690838827499118000,7.2541181640625,0.1782727466136217,-0.013730583585519342,0.011005583634995856
1690838827509158100,7.264158203125,0.17273673979640006,-0.002635700532142073,0.010844611786468885
1690838827519199200,7.27419921875,0.1758814675629139,-0.0034567345914430915,0.014616038350271992
1690838827529239300,7.2842392578125,0.1815671119838953,-0.01305230073146522,0.00785961832604371
1690838827539279000,7.294279052734375,0.1856061582416296,-0.008765435458812863,0.005870700397994369
1690838827549350100,7.30435009765625,0.17707856839299202,-0.003161952895950526,0.010127307529700919
1690838827559390000,7.314389892578125,0.18485913926661013,0.00011577186677604913,0.012539862263877875
1690838827569430000,7.324429931640625,0.1764770953685045,0.0004705583875067532,0.005574229068914428
1690838827579471000,7.33447119140625,0.17857202182114124,-0.004765862694941461,0.007318040528940036
1690838827589511200,7.34451123046875,0.1775268966823816,-0.005439268444478512,0.003650800139985222
1690838827599551200,7.35455126953125,0.1686965244948864,-0.005194792164117098,0.006061852755653672
1690838827609592300,7.36459228515625,0.17782266475856304,-0.005862316162139177,0.010097195519227534
1690838827619632000,7.374632080078125,0.17932020983994007,0.0003112031073309481,0.006832097342633642
1690838827629672000,7.384671875,0.17887188155055045,-0.0013059680320322512,0.008055775652383454
1690838827639712000,7.3947119140625,0.17902035011053083,-0.004497548881266266,0.012846078668837435
1690838827649753000,7.404753173828125,0.176177820160985,-0.0025251345634460447,0.006871584536228328
1690838827659793200,7.414793212890625,0.17348142068386077,-0.011311174418870359,0.008297648983704857
1690838827669833200,7.424833251953125,0.18425240554511546,-0.003624748102109879,0.010597783718816936
1690838827679874300,7.434874267578125,0.1860463032245636,-0.00009896686244755982,0.008250741102057509
1690838827689914000,7.4449140625,0.17497136698067187,-0.003761763686314225,0.009683847211673854
1690838827699954000,7.454953857421875,0.1766173806220293,0.000743036919645965,0.002980883540888317
1690838827709994000,7.464993896484375,0.18006196811795233,-0.0012526852085255086,0.007539464727276936
1690838827720065000,7.47506494140625,0.18365093252062797,-0.009419533719681203,0.011477749457699245
1690838827730106000,7.485106201171875,0.17392565732002258,-0.011480722299497573,0.020114996526157482
1690838827740146200,7.495146240234375,0.17616963685452938,-0.004009637500159442,0.008626058954163454
1690838827750186200,7.505186279296875,0.17661796514391898,0.0025464513461105525,0.009561357909743674
1690838827760226000,7.51522607421875,0.1773661531627178,-0.010174462006520479,0.015496419647685252
1690838827770267100,7.52526708984375,0.183201435187459,0.0011924794538877904,0.011091745814797467
1690838827780307000,7.535306884765625,0.18364684086740016,0.0034517661553807553,0.0015112402465892955
1690838827790347000,7.545346923828125,0.18543956950306892,0.0004994556884281337,0.014202406914927995
1690838827800388000,7.55538818359375,0.18139876967966556,-0.006553129704203456,0.01096392731720116
1690838827810428200,7.56542822265625,0.176011815944314,0.005120283889491111,0.009240026134043
1690838827820468200,7.57546826171875,0.17571604786813258,0.0034411716961301863,0.019316553324577396
1690838827830508000,7.585508056640625,0.1797580167353153,0.006353150152694434,0.01141275793008972
1690838827840549000,7.595549072265625,0.1782604716539383,-0.001906929599866271,0.012228435394261031
1690838827850589000,7.6055888671875,0.1800549538552761,-0.01287913612164557,0.009017834750725887
1690838827860629000,7.61562890625,0.18454466648995876,-0.007025624320469796,0.0037368575739208606
1690838827870669000,7.6256689453125,0.17362053689360618,0.0028275515761226415,0.011911574297701007
1690838827880710100,7.635710205078125,0.17870763089954853,-0.006606102000456303,0.014943973396695218
1690838827890781200,7.64578125,0.1802034224152565,-0.005736570890620351,0.004690075778681785
1690838827900821200,7.6558212890625,0.16972586754262448,-0.008684643573872745,0.00702203499074094
1690838827910861000,7.665861083984375,0.17196984707713125,-0.0013818828124552965,0.008947335930936969
1690838827920901000,7.675901123046875,0.17451427086293697,0.00522208202984184,0.01417030844334513
1690838827930942000,7.68594189453125,0.17705518751740454,0.007521262350305914,0.010030623955884948
1690838827940982000,7.69598193359375,0.171815533298254,-0.0015423340711742638,0.012438548180717043
1690838827951022800,7.70602294921875,0.1745084256440401,0.0018864530674181877,-0.000026869740616530177
1690838827961064000,7.71606396484375,0.17435820351839065,-0.0056144606146030125,0.0012144720899872482
1690838827971104000,7.72610400390625,0.1825911943346262,-0.009999726494122296,0.0067135855294996865
1690838827981144000,7.73614404296875,0.17421324208974837,-0.0005200052861124277,0.0025620553406188263
1690838827991184000,7.746183837890625,0.1679296317756176,-0.00018279095469042657,0.006806688906741328
1690838828001224700,7.756224609375,0.16837620649933813,-0.009537643674015998,0.01163556580133736
1690838828011264800,7.7662646484375,0.16882453478872775,0.0045122897926718,0.007884903464349918
1690838828021304800,7.776304931640625,0.18199205939769744,0.007936893946491181,0.011172058209124952
1690838828031346000,7.786345947265625,0.18333295261263846,-0.005146696972381323,0.013477229878958314
1690838828041386000,7.796385986328125,0.18348083665072917,-0.009548950519319623,0.01202860197322443
1690838828051426000,7.806426025390625,0.17928981470167635,-0.005243161350488662,0.004829584714071825
1690838828061497000,7.8164970703125,0.1762941400170326,-0.0044639023399911815,0.005613579265191219
1690838828071537000,7.826536865234375,0.17210545615553854,0.002465093205589801,0.009336298715905286
1690838828081576700,7.83657666015625,0.1782429359972477,0.001211677344702184,0.003763759280578233
1690838828091617800,7.84661767578125,0.17899112401604653,-0.004934168466553091,0.007387219607899897
1690838828101657900,7.856657958984375,0.18018764032423495,-0.0012092844582162797,0.01290318828409072
1690838828111698000,7.866697998046875,0.18198621417880056,-0.0005155483067035675,0.003916013533109799
1690838828121739000,7.876739013671875,0.1709136160224676,0.003243822493124753,0.015396699299989268
1690838828131779000,7.886779052734375,0.17644553118646145,-0.0009581227087415755,0.018698649755096993
1690838828141819000,7.89681884765625,0.18123218094110488,-0.004161759321950376,0.010332566044526174
1690838828151858700,7.906858642578125,0.17090367915034294,0.0006605280016548931,0.0062691479639383025
1690838828161899800,7.916899658203125,0.16925591194331646,0.0016395839005708694,0.008026723087835126
1690838828171939800,7.92693994140625,0.18241759133338928,-0.002627809486631304,0.006258822932746261
1690838828181980000,7.93697998046875,0.18376257620155811,-0.0074710847993381315,0.008521502601145765
1690838828192021000,7.94702099609375,0.18301497270464895,0.00047448564395308494,0.007377648061956278
1690838828202061000,7.95706103515625,0.18541151245236395,-0.005423632483929395,0.005825468450202606
1690838828212100900,7.967100830078125,0.17568565272986889,-0.010798347792215645,0.004114518080162816
1690838828222140700,7.977140625,0.17898177166581153,-0.011110445948690175,0.008925923250149934
1690838828232211700,7.987211669921875,0.17883388762772082,-0.0002711998905055225,0.008206833461672067
1690838828242252800,7.997252685546875,0.1770347292512655,-0.00547781035657972,0.01435592610936146
1690838828252292900,8.00729296875,0.17493688018918035,-0.002139057855308056,0.012089373983442783
1690838828262333000,8.0173330078125,0.1696972259700298,-0.000879120922088623,0.012936432966566644
1690838828272373000,8.027373046875,0.18061960200071334,-0.0013564378439448774,0.012631381038809194
1690838828282414000,8.0374140625,0.18076690151691435,-0.002503945644944906,0.014496293561276978
1690838828292454000,8.047453857421875,0.17318214547634123,-0.0008530183664523064,0.007956877288594842
1690838828302493700,8.05749365234375,0.42812078314125535,0.0034682788987644014,0.005015482082945527
1690838828312534800,8.06753466796875,-0.000744096365571022,0.18638138039782642,-0.2730137897933833
1690838828322574800,8.077574951171876,0.13972352798879145,-0.23928678542692214,0.25130442761471494
1690838828332615000,8.087614990234375,0.14979191753864288,-0.019173596623353658,0.2974180901444517
1690838828342655000,8.097655029296876,0.008085106778144837,-0.20062453488167376,0.24979004099639132
1690838828352696000,8.107696044921875,0.21563772388994693,-0.07107574289403855,-0.014014795937936286
1690838828362735900,8.11773583984375,0.2038362269371748,0.001920464934874326,-0.11024788832333869
1690838828372775700,8.127775634765625,0.2528045482456684,0.0010183467296883463,-0.1295076927922666
1690838828382815700,8.137815673828126,0.2280254962980747,0.005567023009993136,-0.11702506344122811
1690838828392856800,8.14785693359375,0.2070078427106142,0.03004882731037214,-0.07435926720988936
1690838828402927900,8.157927978515625,0.20698504635691642,0.035336814183276145,0.0013626849216409028
1690838828412968000,8.167968017578126,0.18229191912710666,0.039311873560398815,0.07705604114634916
1690838828423008000,8.178008056640625,0.17978256665468215,0.04085738596934825,0.1352443915470503
1690838828433047800,8.1880478515625,0.1325549515336752,0.0417795971144922,0.16627422925140709
1690838828443089000,8.1980888671875,0.21148820299506185,0.04171023993901908,0.15768230546228587
1690838828453128700,8.208128662109376,0.14094576326012612,0.036006548404693604,0.1226232944402378
1690838828463168800,8.218168701171875,0.18698621442317961,0.02409474121155217,0.057293273857655
1690838828473209900,8.2282099609375,0.21911036843657491,0.007614329194929451,-0.008631931572523899
1690838828483250000,8.23825,0.17656243556439877,-0.003304667568579316,-0.05508245680723339
1690838828493290000,8.2482900390625,0.22737901508808134,-0.020011965409945695,-0.07418262286819517
1690838828503329800,8.258329833984375,0.1719371138513088,-0.03043859381293878,-0.06941385126353707
1690838828513371000,8.268370849609376,0.1977268041461706,-0.040508535999059674,-0.025453923568432218
1690838828523410700,8.27841064453125,0.16378244896829128,-0.047308425272256135,0.033894963078200814
1690838828533450800,8.28845068359375,0.13220482292175292,-0.04553420040765777,0.09558664542473852
1690838828543491800,8.298491943359375,0.153424721083045,-0.04978232283880934,0.1193827142169699
1690838828553532000,8.308531982421876,0.1307809275984764,-0.04566555343605578,0.1192730250311084
1690838828563572000,8.318572021484375,0.14642857858538627,-0.04626656980281695,0.08844231749488972
1690838828573643000,8.32864306640625,0.17239245640337467,-0.046703554714284834,0.050499987855181096
1690838828583682800,8.338682861328126,0.18159107738137245,-0.03689622725341469,0.013016227054374758
1690838828593723000,8.348722900390625,0.16789397594034672,-0.025397914498299357,-0.01119055969690671
1690838828603763700,8.358763671875,0.20672727220356463,-0.01712660096567124,-0.026642313652380834
1690838828613803800,8.3688037109375,0.193796478959918,-0.0020977211979217826,-0.018552101440855766
1690838828623843800,8.37884375,0.1950958711206913,0.002980166588257998,-0.0027215978504624215
1690838828633885000,8.388885009765625,0.18608780427873134,0.011514825498498976,0.025682430528104302
1690838828643925000,8.398925048828126,0.17245792285501957,0.021836988880019635,0.055110034367325714
1690838828653964800,8.40896484375,0.19580957234799862,0.02690525032132864,0.06442061412008479
1690838828664004900,8.4190048828125,0.1693488509237766,0.024934096378833055,0.06817534527741372
1690838828674045700,8.429045654296875,0.20365502515137193,0.018356800347752868,0.055869752993714064
1690838828684085800,8.439085693359376,0.18769757756292818,0.015106073189806193,0.04360587182673625
1690838828694125800,8.449125732421875,0.1816191344320774,0.022858879273664204,0.03205495438483776
1690838828704167000,8.4591669921875,0.19574293685257435,0.010605218106601387,0.009359350797929801
1690838828714207000,8.46920703125,0.18023966277241707,-0.0005803571712225676,0.007679672348988242
1690838828724246800,8.479246826171876,0.17071546310186386,-0.006473123270552605,0.002662287144968286
1690838828734286800,8.489286865234375,0.19095687161982058,-0.02414442557217553,0.012897901329264277
1690838828744358000,8.49935791015625,0.18006605977118015,-0.016905943952314553,0.026710371636622585
1690838828754398700,8.509398681640626,0.16317688429057597,-0.025668402002751826,0.03802315349068958
1690838828764438800,8.519438720703125,0.1687175672829151,-0.039449601530656214,0.04800254501625895
1690838828774478800,8.529478759765626,0.15000176089704037,-0.034113208938762546,0.04586728655323386
1690838828784519000,8.539518798828125,0.16718728897571564,-0.03728255968987942,0.04598737383552361
1690838828794560000,8.54956005859375,0.16820143445432184,-0.0377958612405695,0.048734841346181924
1690838828804599800,8.559599853515625,0.16472002207934855,-0.02673897211002186,0.03718200365854427
1690838828814639900,8.569639892578126,0.18038696228861809,-0.02437454453362152,0.0310468345049303
1690838828824680700,8.5796806640625,0.15819441970288753,-0.016821425740327686,0.015935208357172086
1690838828834720800,8.589720703125,0.17505962978601455,-0.007997665956709534,0.017211704841192114
1690838828844760800,8.5997607421875,0.17112988912165164,-0.007391626354958862,0.02864460936852265
1690838828854801000,8.60980078125,0.16047580863833427,-0.0024076273973099886,0.027687683103024028
1690838828864842000,8.619842041015625,0.19038345564603804,0.004109590743295848,0.028308774143434128
1690838828874881800,8.6298818359375,0.18543430880606174,0.013019914565514773,0.03823105148717295
1690838828884921900,8.639921875,0.18723405170440674,0.011366484802681952,0.03782409638778772
1690838828894962000,8.6499619140625,0.19203882163763045,0.012221439397893845,0.0371824466165388
1690838828905002800,8.660002685546875,0.18877718949317931,0.01336953172078356,0.03253004966685548
1690838828915073800,8.67007373046875,0.1852180357068777,0.012361158395837991,0.025836561643891035
1690838828925113900,8.68011376953125,0.1789700812280178,0.002990359188709408,0.03441805537054315
1690838828935154000,8.69015380859375,0.16718670445382594,0.0006797076261602342,0.0240531442592619
1690838828945193700,8.70019384765625,0.18413082499206065,-0.004416647398471832,0.01782395841295365
1690838828955219000,8.710218994140625,0.1762286735653877,-0.006902765125781298,0.030396047012577764
1690838828965259000,8.720259033203124,0.17295885811448097,-0.008248462380003183,0.031916945570078674
1690838828975299000,8.730299072265625,0.1844943976074457,-0.014077953984774648,0.0316943157953443
1690838828985340200,8.740340087890624,0.17702070072591303,-0.015455599013529718,0.0223433355335379
1690838828995380200,8.750380126953125,0.17642273483276366,-0.020516133806109428,0.023550574165140278
1690838829005420000,8.760419921875,0.172822664514184,-0.026062588952109216,0.028129353322763926
1690838829015460000,8.770460205078125,0.169213826367259,-0.021264193960744887,0.03193557720531243
1690838829025501000,8.7805009765625,0.17877075926363467,-0.021497984450310467,0.03149071038148831
1690838829035541000,8.790541015625,0.1723123769044876,-0.021415822592191398,0.02714469423354603
1690838829045581000,8.8005810546875,0.1676502303123474,-0.015467873973213135,0.03467438191890251
1690838829055622100,8.8106220703125,0.176451960927248,-0.01937290032142773,0.03386971447251271
1690838829065662200,8.820662109375,0.18002163610756397,-0.013795428982656448,0.03369072747668251
1690838829075702000,8.830701904296875,0.19048048627972602,-0.0038608949455432593,0.037528291778988206
1690838829085773000,8.84077294921875,0.18672259505093097,-0.003222542243078351,0.028625644373148677
1690838829095813000,8.850813232421874,0.18626608345508575,0.0026541495042853055,0.03071541059347801
1690838829105853200,8.860853271484375,0.19045184470713136,-0.002873217348754406,0.03607604714406188
1690838829115894000,8.87089404296875,0.17728841175138949,-0.000046049365121871233,0.03566605527079664
1690838829125934000,8.88093408203125,0.17819617424607276,0.006124108903482556,0.03415269156577997
1690838829135974100,8.89097412109375,0.18150223005414007,0.009283193988911807,0.03216391976820305
1690838829146015200,8.90101513671875,0.17852701363563536,0.001647986402735114,0.03316483130590059
1690838829156055000,8.911054931640624,0.1779459988772869,0.0020829072212800383,0.03709116530362516
1690838829166095000,8.92109521484375,0.17631752089262007,-0.002391534779034555,0.04213439276837744
1690838829176135200,8.93113525390625,0.17933014671206474,-0.0017142200393602252,0.03270795438387431
1690838829186176000,8.941176025390625,0.1815887392938137,-0.011258713579270989,0.019443189078662545
1690838829196216000,8.951216064453124,0.1759153698325157,-0.014713548474572598,0.03195804933202453
1690838829206256000,8.961256103515625,0.1736795736044645,-0.02580832193009555,0.029561057493160476
1690838829216297200,8.971297119140624,0.17427929306328296,-0.017088296515587718,0.021887755519454367
1690838829226337000,8.9813369140625,0.1709878503024578,-0.009893873233161866,0.02612186769156251
1690838829236377000,8.991377197265624,0.1697849042534828,-0.006215604845527559,0.03178321335492655
1690838829246417200,9.001417236328125,0.17202186952531337,-0.012164028388541191,0.03733240844728425
1690838829256488200,9.01148828125,0.17170915031433104,-0.01458111773394048,0.03562977838101797
1690838829266529000,9.021529052734374,0.1833656858384609,-0.012377488476131111,0.04221997042628936
1690838829276569000,9.031569091796875,0.16913550043404102,-0.00778789566354826,0.039389295311318705
1690838829286609200,9.041609130859374,0.17899930732250213,-0.005044990163575858,0.03543012305649463
1690838829296649000,9.05164892578125,0.1707616403311491,-0.0031998372209258376,0.03104457861576229
1690838829306690000,9.06168994140625,0.1908072340160608,-0.015196801946870982,0.029436220970517023
1690838829316730000,9.071730224609375,0.17793255487382412,-0.00670748001569882,0.027225449585868044
1690838829326770200,9.081770263671874,0.18137421976029872,-0.009275284677091985,0.03010311021429952
1690838829336811000,9.09181103515625,0.17808394604325292,-0.006836184429284185,0.02797450982092414
1690838829346851000,9.10185107421875,0.18227379894852638,-0.004916724141407758,0.02523507491967175
1690838829356891100,9.11189111328125,0.17329788081049918,0.0018740502435714006,0.03169220147007145
1690838829366931000,9.121930908203124,0.17479717945754528,0.0006353752940893173,0.04255846796592232
1690838829376972000,9.131971923828125,0.18348200569450854,-0.003497176199685782,0.04057308000209741
1690838829387012000,9.14201220703125,0.17421616469919682,-0.0052111770433373745,0.03885401482426096
1690838829397052200,9.15205224609375,0.18963877475857732,-0.009039612757693976,0.02945696236444637
1690838829407092000,9.162092041015624,0.17019699218571185,-0.009702606711070984,0.02765835654383991
1690838829417133000,9.172133056640625,0.17784312302470207,-0.004859276599436998,0.025929893349995833
1690838829427204000,9.1822041015625,0.17815116606056688,-0.010259820468723773,0.026372403819952157
1690838829437244200,9.192244140625,0.17216975356340408,-0.012821907775383442,0.025734818302467464
1690838829447284000,9.202283935546875,0.16753157236874103,-0.011317092703003436,0.023647769195609725
1690838829457324000,9.212323974609374,0.1654319697409868,-0.01135161602711305,0.029918652458908034
1690838829467365000,9.222365234375,0.1800894406467676,-0.008170702702365815,0.03652597830207087
1690838829477405200,9.2324052734375,0.17664193054139612,-0.014190565780084579,0.03896751253555994
1690838829487445000,9.242445068359375,0.17334522708356379,-0.011194069111533462,0.03811011482151225
1690838829497486000,9.252486083984374,0.16661153491437433,-0.017763638493884355,0.032575624107941986
1690838829507526100,9.262526123046875,0.18172142576277256,-0.011294460746087134,0.03162187618021853
1690838829517566000,9.27256591796875,0.16959493463933467,-0.005183193057868629,0.028212766423053107
1690838829527606000,9.28260595703125,0.17512684980332852,-0.0027925533279776573,0.017842105990997514
1690838829537647000,9.292647216796874,0.18529343903064727,-0.004306300625484437,0.012830672178795794
1690838829547687200,9.302687255859375,0.17451076373159885,-0.0031053638705052433,0.024611129768472163
1690838829557727000,9.31272705078125,0.1824345424681902,-0.006806136350892483,0.03349952032009605
1690838829567768000,9.32276806640625,0.17884265545606612,-0.005944660683348774,0.03424546614945866
1690838829577808100,9.33280810546875,0.19365911631584165,-0.007222845659311861,0.03285507580356207
1690838829587848000,9.342847900390625,0.17256781297028065,-0.001879913728777319,0.040087063750554805
1690838829597919000,9.3529189453125,0.18036299689114094,-0.012903338981140404,0.043051630910881794
1690838829607959000,9.362958984375,0.1800765811651945,-0.014114979793224482,0.03865683458461426
1690838829617999000,9.3729990234375,0.1766466067165136,-0.011904756397847086,0.03314340949195903
1690838829628040200,9.383040283203124,0.18847557619810104,-0.00039347456330433487,0.027398600495955903
1690838829638080000,9.393080078125,0.1748661530405283,-0.003293178060185164,0.02260048406580463
1690838829648120000,9.4031201171875,0.18130232356786727,-0.007716017737425863,0.009413962495420128
1690838829658161200,9.4131611328125,0.172020700481534,-0.007281005587335676,0.01330064033619128
1690838829668201000,9.423200927734374,0.17994973991513252,-0.007955927440524101,0.027577573792054316
1690838829678241000,9.433240966796875,0.18324235171973705,-0.0036147929636761544,0.02952365722537506
1690838829688281000,9.443281005859374,0.18234452609717844,-0.007667703349981457,0.02704611096358858
1690838829698322200,9.453322265625,0.17620704625546932,-0.010285119306761771,0.04175342149361968
1690838829708362000,9.463362060546874,0.1785989098280668,-0.016799286973755805,0.04306845418151933
1690838829718402000,9.473402099609375,0.18308511533141136,-0.012097922616079448,0.03245150910450611
1690838829728443100,9.483443115234374,0.17335691752135754,-0.005551423582062125,0.029446235474455167
1690838829738483000,9.49348291015625,0.17739245664775372,-0.006303794585634023,0.03244444917605724
1690838829748523000,9.50352294921875,0.17170155152976513,0.0023476773709990083,0.019587972410791552
1690838829758563000,9.51356298828125,0.17752865024805067,-0.0024344058063812553,0.016180351357813923
1690838829768634000,9.523634033203125,0.18305588923692703,-0.001436352946050465,0.019360967855039053
1690838829778675200,9.53367529296875,0.18140636846423147,0.0026305129003711043,0.02313699752872344
1690838829788715000,9.543715087890625,0.18095628660917282,-0.0014636245454661546,0.03259262547509279
1690838829798755000,9.553755126953124,0.17437866178452968,-0.006505746898520738,0.033277680563228204
1690838829808795000,9.563794921875,0.18291677302718162,-0.0018716756233945488,0.03287458878820762
1690838829818836000,9.5738359375,0.18232582139670847,-0.0011505217419937252,0.03356392732581589
1690838829828876000,9.5838759765625,0.179641112357378,-0.00847109215473756,0.042439577126875516
1690838829838916000,9.593916015625,0.17560849584043026,-0.003116122726537287,0.030351367620634846
1690838829848956200,9.6039560546875,0.17740823873877523,-0.0037161161799915132,0.030663031952269375
1690838829858997000,9.6139970703125,0.178604170525074,-0.0022681458613835275,0.022908303339383564
1690838829869037000,9.624037109375,0.17725567852556703,-0.0035257629733532665,0.02048161961515434
1690838829879076900,9.634076904296874,0.17605682412981985,-0.007172668108344078,0.022125021174317226
1690838829889118000,9.644117919921875,0.175454182061553,0.005550071875192224,0.018396922295587138
1690838829899158000,9.654157958984374,0.17500410020649432,-0.0034890659584663804,0.02499020134708844
1690838829909198000,9.664197998046875,0.1763508386403322,-0.00751751775695011,0.03887570149968378
1690838829919238100,9.674238037109374,0.1854793169915676,-0.011088106252718716,0.039696539196162485
1690838829929279000,9.684279052734375,0.17949731997251508,-0.005891980648040771,0.04030154218487441
1690838829939350000,9.69435009765625,0.17875088551938534,0.00015351006127893924,0.03223601689003408
1690838829949390000,9.70439013671875,0.17455518739521503,-0.0018310330857522785,0.028415312390984035
1690838829959446800,9.71444677734375,0.16976210789978502,-0.0070855195478536186,0.028089140043384395
1690838829969486800,9.72448681640625,0.18232640591859817,-0.003957724649831652,0.025146008396730757
1690838829979528000,9.73452783203125,0.18187457049787042,-0.006154303112346679,0.022140113712172022
1690838829989567700,9.744567626953126,0.18142215055525301,-0.0095589239240624,0.019531314886687322
1690838829999607800,9.75460791015625,0.18052374041080474,-0.004043430171906948,0.02308067336475942
1690838830009649000,9.76464892578125,0.18172084124088286,-0.00300320040397346,0.020102776365401222
1690838830019689000,9.77468896484375,0.1893564506858587,-0.0000339022696018219,0.021411178383114748
1690838830029728800,9.784728759765626,0.18516893586814404,-0.006549531241320073,0.03140994132943451
1690838830039768800,9.794768798828125,0.17604454917013646,-0.016301676182541996,0.03555259409211576
1690838830049810000,9.804809814453124,0.17918927693665027,-0.009044033204484731,0.03878679024036973
1690838830059849700,9.814849609375,0.1871218235015869,-0.005989120879583061,0.03487670412454754
1690838830069889800,9.824889892578126,0.16976561503112314,-0.006524433332681655,0.0384927483303938
1690838830079931000,9.834930908203125,0.16647475679218768,-0.005739219505432993,0.034422749811969695
1690838830089971000,9.844970947265624,0.17844810318052767,-0.0077417549668811255,0.024727504423446952
1690838830100010800,9.8550107421875,0.1738069993764162,-0.008854885574243963,0.03009508673804812
1690838830110081800,9.865081787109375,0.181588154771924,-0.005274707266222685,0.020606223242357374
1690838830120121900,9.875121826171876,0.18697510850727558,-0.001989749045111239,0.019539831553283146
1690838830130161700,9.88516162109375,0.1726128211557865,-0.010276698538288474,0.022323155828611923
1690838830140202800,9.89520263671875,0.17246376807391642,-0.0019036781968548894,0.0295964849995682
1690838830150242800,9.905242919921875,0.17844985674619673,-0.0030946050144732,0.026793684272211973
1690838830160283000,9.915282958984376,0.1796457885324955,-0.004617521999124437,0.02863698775107041
1690838830170324000,9.925323974609375,0.17126549820005893,-0.002985025426466018,0.03592703059480991
1690838830180363800,9.93536376953125,0.1705173101812601,-0.011524433577060698,0.03224135521885473
1690838830190403800,9.94540380859375,0.17964169687926768,-0.010425751620158552,0.02053432248334866
1690838830200443600,9.955443603515626,0.1863771426141262,0.0047416050365194674,0.023122941603907383
1690838830210484700,9.965484619140625,0.19326164143085478,-0.0035881972176954146,0.030938300663116387
1690838830220524800,9.97552490234375,0.17515841398537157,-0.011132182856462895,0.018652957724645966
1690838830230564900,9.98556494140625,0.17501111446917056,-0.005670373786613345,0.021303767919307572
1690838830240606000,9.99560595703125,0.17187106287777423,-0.0014009528391063213,0.024725595594150943
1690838830250645800,10.005645751953125,0.17920622807145117,-0.006854615135118365,0.02871945100328885
1690838830260685800,10.015685791015626,0.1830962212473154,-0.01195913519989699,0.029289985466818325
1690838830270726000,10.025725830078125,0.17651333572566508,-0.008333583380188792,0.03000870079596061
1690838830280796700,10.035796630859375,0.17591361626684665,-0.007316369161661714,0.03397919816239737
1690838830290837800,10.045837646484374,0.18040040629208087,-0.007977280755806714,0.035311912637460044
1690838830300877800,10.0558779296875,0.18773147983253002,-0.006810428933519869,0.032525049264752304
1690838830310918000,10.06591796875,0.18219664205908775,0.0014827493710443376,0.02361720052741002
1690838830320958000,10.0759580078125,0.19012977314591406,-0.0026196809791028497,0.02280476989967283
1690838830330998800,10.085998779296874,0.17890987547338008,-0.013153149023745208,0.022575705817574634
1690838830341038800,10.096038818359375,0.17038053205907344,-0.0014805756802670656,0.02771080368370749
1690838830351078700,10.10607861328125,0.18025602938532828,-0.00526097100181505,0.030210899704019537
1690838830361118700,10.11611865234375,0.18549393003880976,-0.01258513987744227,0.021934435072238554
1690838830371159800,10.126159912109374,0.18743688080012796,-0.005329323530290276,0.025382895025680773
1690838830381200000,10.136199951171875,0.17142156554460525,-0.005471070088539272,0.0319844304488739
1690838830391240000,10.146239990234376,0.16633154892921448,-0.009736490714363753,0.03345624286737293
1690838830401280800,10.15628076171875,0.1826379560858011,-0.0023998459496535358,0.037045595429115924
1690838830411320800,10.16632080078125,0.17305998040139675,-0.006913779710140079,0.028223201052099463
1690838830421361000,10.17636083984375,0.1753004528045654,-0.011390596330631523,0.03542101730143186
1690838830431400700,10.186400634765626,0.17679624432027338,-0.0060074785201810295,0.022699272831738924
1690838830441441800,10.19644189453125,0.17799276062846184,-0.011268997511267661,0.01453630591125693
1690838830451512800,10.206512939453125,0.17664836028218267,-0.011059026288706808,0.02036017149284016
1690838830461553000,10.216552978515624,0.17604922534525394,-0.01647979096211493,0.024021762740309347
1690838830471593000,10.226593017578125,0.17709785761535166,-0.012542524578422308,0.02655244112855289
1690838830481633000,10.236633056640626,0.17230945429503916,-0.006721819068305194,0.02768816259363666
1690838830491673900,10.246673828125,0.1794926437973976,-0.005802475733682513,0.026168656842201016
1690838830501713700,10.256713623046876,0.1706657787412405,-0.007995108673442155,0.030981130591267718
1690838830511753700,10.266753662109375,0.17575813344419,-0.01244911067392677,0.0377283854949288
1690838830521794800,10.276794921875,0.1815969226002693,-0.01161247718669474,0.03879626132161356
1690838830531835000,10.2868349609375,0.17920330546200275,0.002196907256077975,0.03697376773534342
1690838830541875000,10.296875,0.18160218329727648,-0.0046945327580906445,0.02495365502925124
1690838830551915000,10.3069150390625,0.17786182772517203,-0.00601133271139115,0.02278289142800495
1690838830561955800,10.316955810546874,0.17456863139867781,-0.005015617938619107,0.024820352072361856
1690838830571995600,10.32699560546875,0.1816015987753868,-0.002940254702977836,0.02290592871920671
1690838830582035700,10.33703564453125,0.17516309016048906,-0.005173858973942696,0.02178777487685438
1690838830592076800,10.347076904296875,0.17575988700985906,-0.0010550072119571267,0.02370561402980238
1690838830602116900,10.357116943359374,0.17695581879615782,-0.006496102287340909,0.03045927127478644
1690838830612157000,10.367156982421875,0.1805424451112747,-0.007547437971178442,0.027830740268947555
1690838830622228000,10.37722802734375,0.17485446260273454,0.0003241721867583692,0.02964092236291617
1690838830632268000,10.38726806640625,0.1658726992458105,-0.00965020067039877,0.02897298280636314
1690838830642307800,10.397307861328125,0.1702127742767334,-0.009788878488726914,0.03023440844377037
1690838830652348700,10.4073486328125,0.18218144448995588,-0.006567359158955514,0.023489916319353505
1690838830662388700,10.417388671875,0.18577274698019028,0.0006015826223418116,0.014822882609051884
1690838830672428800,10.4274287109375,0.17814181371033191,0.0031784839056432247,0.020029966857517137
1690838830682470000,10.437469970703125,0.1826291882574558,-0.005723784474283456,0.02156961121468339
1690838830692510000,10.447510009765624,0.17364859394431112,-0.0017626257583498953,0.02838478938855696
1690838830702550000,10.457550048828125,0.17335107230246066,-0.00440157769350335,0.029475571166793814
1690838830712589800,10.46758984375,0.1748474483400583,-0.005884601059183478,0.036339132226770744
1690838830722630700,10.477630615234375,0.17993337330222128,-0.015670812666788696,0.02899700300276745
1690838830732670700,10.487670654296876,0.1775403406858444,-0.013677739153429866,0.026260778405331073
1690838830742710800,10.497710693359375,0.17604571821391582,0.0020859211622737345,0.025057074304530396
1690838830752751900,10.507751953125,0.17185411174297333,-0.008297580485045909,0.027078095270739868
1690838830762792000,10.5177919921875,0.174251236012578,-0.0031070261046290395,0.02435275282692164
1690838830772832000,10.52783203125,0.17365268559753894,-0.000573251577001065,0.017566587260045344
1690838830782872000,10.5378720703125,0.17903788576722143,0.00026867913985624905,0.025736736264917997
1690838830792942800,10.54794287109375,0.16766835049092768,-0.0032373196871019897,0.026175584339909255
1690838830802983700,10.557983642578124,0.17470248691141604,-0.007681604011170565,0.01753018593103625
1690838830813023700,10.568023681640625,0.17275661354064942,-0.008895802106522023,0.03287391750134993
1690838830823063800,10.578063720703126,0.17649872267842293,-0.010072718665096908,0.031446894072648134
1690838830833104000,10.588103759765625,0.17186229504942893,0.002282302250899374,0.03064852393630426
1690838830843145000,10.59814501953125,0.17275895162820815,-0.006428644808009266,0.028792881565680727
1690838830853185000,10.60818505859375,0.17963935879170895,-0.004874967358913272,0.02525569301601499
1690838830863224800,10.618224853515626,0.1732055263519287,-0.001111358775384724,0.02985804941204842
1690838830873265000,10.628264892578125,0.17290858923196792,0.000021335048973560333,0.028767970886710098
1690838830883305700,10.6383056640625,0.18068974462747572,0.0070568414426408705,0.027358633811748585
1690838830893345800,10.648345703125,0.17186054148375987,0.003582845189142972,0.021577986317384057
1690838830903385900,10.6583857421875,0.17979133448302745,-0.0068905449650250375,0.025204962909198363
1690838830913427000,10.668427001953125,0.18607436027526855,-0.006043024757597595,0.021321276176534593
1690838830923467000,10.678467041015624,0.18143968621194362,-0.0006653320409357547,0.02143930393247865
1690838830933507000,10.688507080078125,0.1809954495757818,-0.005313249178323895,0.021677149542653932
1690838830943547000,10.698546875,0.16707973694801329,0.0024874694341793656,0.027961641206196507
1690838830953555200,10.70855517578125,0.17381342911720274,-0.005880308476556092,0.029637794257490895
1690838830963626200,10.718626220703126,0.1751625056385994,0.0022741006781347097,0.02896281303879805
1690838830973666300,10.728666259765625,0.17112170581519603,0.0013692973255179821,0.02419599136263132
1690838830983706000,10.7387060546875,0.1805477058082819,-0.010634937391430139,0.024308498126664198
1690838830993746200,10.74874609375,0.17830021914243696,-0.0029591055339202284,0.025862837729463354
1690838831003787300,10.758787353515626,0.17380992198586462,-0.0018127119777724145,0.0239935686922865
1690838831013827000,10.7688271484375,0.1821896277964115,-0.009294263372197747,0.027920363914314655
1690838831023867100,10.7788671875,0.17904606907367704,-0.01367096235277131,0.028107566182641312
1690838831033908200,10.788908203125,0.18173954594135283,-0.004703464983217418,0.030851923854183404
1690838831043948300,10.7989482421875,0.18697510850727558,-0.009095124070905148,0.024648329106857998
1690838831053988000,10.808988037109375,0.18322949223816393,-0.00821859696470201,0.031159642663062547
1690838831064028200,10.819028076171875,0.17889000172913072,-0.004317899731732904,0.03084405107498169
1690838831074069200,10.8290693359375,0.17784487659037113,-0.01068504187716171,0.03085373221877962
1690838831084109300,10.839109375,0.17919044598042963,-0.00652129152752459,0.03299251607945189
1690838831094149000,10.849149169921875,0.1847264527976513,-0.003391158541943878,0.030932660940196362
1690838831104190200,10.859190185546876,0.1691629729628563,-0.004484360606130213,0.03136624375160318
1690838831114230300,10.869230224609375,0.17470073334574698,-0.009828991303406654,0.02474399433394428
1690838831124270000,10.87927001953125,0.17844518057107925,0.0002993665390647948,0.02386886916696094
1690838831134341000,10.889341064453125,0.1775496930360794,0.0012710793817415833,0.029140215432317925
1690838831144381200,10.899381103515625,0.1732102025270462,-0.00007584171518683434,0.02022776358509436
1690838831154421000,10.9094208984375,0.17755144660174846,-0.007510119901783764,0.020441789928264915
1690838831164462000,10.919462158203125,0.18159224642515182,-0.0052539750054478645,0.026472562559065407
1690838831174502100,10.929502197265625,0.18069149819314478,-0.012368410120531916,0.028621644051466135
1690838831184542200,10.939542236328125,0.1797936725705862,-0.006987027609441429,0.02972332624963019
1690838831194583300,10.949583251953126,0.18787410317361353,-0.0029450587422586976,0.03039924818323925
1690838831204623000,10.959623046875,0.17919512215554714,-0.0020462284727022053,0.03065064739473164
1690838831214663200,10.9696630859375,0.18129004860818385,-0.004146689616981894,0.03560820130344946
1690838831224703000,10.979702880859374,0.17650164528787135,-0.008929813973978162,0.029159230660041793
1690838831234744000,10.989744140625,0.1769534807085991,-0.005988171031512319,0.02394953318773769
1690838831244784000,10.9997841796875,0.18563070816099642,-0.006653028148412704,0.024266124856239184
1690838831254824200,11.00982421875,0.1799415566086769,-0.009001344840228557,0.02362366680081468
1690838831264865300,11.019865234375,0.17515432233214379,-0.007160429681278765,0.02538829728658311
1690838831274905000,11.029905029296875,0.18413316307961938,-0.004162581305857747,0.026680757383070883
1690838831284945200,11.039945068359375,0.1794926437973976,-0.005423212358821183,0.029605284793954342
1690838831294985200,11.049985107421875,0.1892173344761133,-0.009813866799511016,0.020780885689519343
1690838831305056000,11.060055908203125,0.17350772416889668,-0.010492989903781563,0.01868965017295559
1690838831315097000,11.07009716796875,0.18069266723692415,-0.002625562730617821,0.02912029602229595
1690838831325137200,11.08013720703125,0.18114099552631377,-0.006240264362748712,0.026550445534288883
1690838831335177200,11.09017724609375,0.18114158004820347,-0.008752064520586281,0.023181325294217094
1690838831345217300,11.10021728515625,0.192964704310894,-0.005115662513300776,0.025791722421743907
1690838831355258000,11.110258056640625,0.17665420550107955,-0.0015298399157822132,0.029869054863252677
1690838831365298200,11.120298095703125,0.1739601441115141,-0.005893058360274881,0.024035110845649615
1690838831375338000,11.130337890625,0.18039280750751494,-0.004758976296428591,0.020266451627667992
1690838831385378000,11.1403779296875,0.1747048249989748,-0.007202478724718094,0.030301637594238852
1690838831395419100,11.150419189453125,0.1776975770741701,-0.007656140776351094,0.02851918832398951
1690838831405459200,11.160459228515625,0.16378244896829128,-0.0052159080173820255,0.03069017112094443
1690838831415499300,11.170499267578125,0.1735100622564554,-0.008636183055955916,0.03100916937566362
1690838831425540000,11.1805400390625,0.18024433894753455,-0.0072679086437448855,0.02852571396289859
1690838831435580200,11.190580078125,0.18398294095396994,-0.0021066168904304503,0.029003766103694213
1690838831445620200,11.2006201171875,0.18443010019958017,-0.009201105196028948,0.027816519947350023
1690838831455660000,11.210659912109374,0.18083587509989738,-0.007054247626755386,0.02873663046695292
1690838831465701000,11.220701171875,0.18023674016296862,-0.009759634127933531,0.031113748561567626
1690838831475772200,11.230772216796876,0.18308043915629385,-0.01094372934596613,0.025855535772419534
1690838831485812200,11.240812255859375,0.17395371437072754,-0.0007336297704838216,0.02930970394744072
1690838831495852300,11.250852294921875,0.1784434270054102,-0.00325196926696226,0.03729891716963611
1690838831505892400,11.260892333984375,0.16766835049092768,-0.007042082264926284,0.03287376680430025
1690838831515933200,11.27093310546875,0.1649713664919138,-0.004462934225611388,0.01790127513259649
1690838831525973000,11.280972900390625,0.17903847028911113,0.001397683169785887,0.022562047184980474
1690838831536013000,11.291012939453125,0.17425006696879863,0.010525796194840223,0.02926997015867382
1690838831546054100,11.30105419921875,0.17620061651468277,0.002916545033827424,0.02775936923290137
1690838831556094200,11.31109423828125,0.1762029546022415,-0.006425722198560834,0.022901435207179747
1690838831566134300,11.32113427734375,0.18128771052062512,-0.013870320849772542,0.02858417071844451
1690838831576174300,11.33117431640625,0.17320727991759777,-0.0044443025903776285,0.024564294952061024
1690838831586215200,11.341215087890625,0.1772492487847805,-0.0007892324152402579,0.028740484658163038
1690838831596255200,11.351255126953125,0.18278584012389182,-0.012624631637614219,0.02721709274947643
1690838831606295000,11.361294921875,0.17560265062153338,-0.003494710247963667,0.027320507458178326
1690838831616336100,11.371336181640626,0.17874211769104004,-0.010484934461489319,0.0306709777967073
1690838831626376200,11.381376220703125,0.17440204266011713,-0.002434040480200201,0.025021085109119302
1690838831636416300,11.391416259765625,0.17514964615702627,-0.004108622628916055,0.028571781594329514
1690838831646487300,11.4014873046875,0.17305062805116175,-0.00903093626089394,0.027594721289677545
1690838831656527400,11.41152734375,0.1773877804726362,-0.009406674238108098,0.029979474701476282
1690838831666567200,11.421567138671875,0.17544424518942833,-0.007858367083873599,0.02855510445416439
1690838831676608000,11.43160791015625,0.16901216631531715,-0.0007470372413285076,0.019463208953384308
1690838831686648000,11.44164794921875,0.17724165000021458,-0.006446052600536495,0.028878230894729493
1690838831696688000,11.451688232421875,0.17484569477438924,-0.005760170961916446,0.030025396202434784
1690838831706729200,11.461729248046876,0.17095453255474566,-0.008633406576979905,0.02289106451021507
1690838831716769300,11.471769287109375,0.18187690858542918,-0.006875402194820344,0.013070458584307925
1690838831726809300,11.481809326171875,0.19549509957134723,-0.00937003202214837,0.022939502195245584
1690838831736849200,11.49184912109375,0.18801380390524863,-0.010102675411943346,0.028157140945410355
1690838831746890200,11.50189013671875,0.18022972590029238,-0.003011767302919179,0.03160669231081847
1690838831756930000,11.511929931640625,0.17753741807639598,-0.008666139802802354,0.028294467056868597
1690838831766970000,11.52197021484375,0.17020809810161588,-0.006622706075385213,0.02396450242800638
1690838831777011200,11.53201123046875,0.17888591007590293,0.0036695918908342716,0.028608213747735135
1690838831787051300,11.54205126953125,0.1733493187367916,-0.009814615718182176,0.024433809573343023
1690838831797091300,11.55209130859375,0.1761941867738962,-0.010954689131397754,0.027196392454742452
1690838831807131400,11.56213134765625,0.19056231934428214,-0.011459551647305487,0.02868290925202891
1690838831817202200,11.5722021484375,0.17619710938334465,-0.006519793690182268,0.021558797559724188
1690838831827242200,11.5822421875,0.18083412153422831,0.0008941175618208944,0.029099052304867652
1690838831837283000,11.592282958984375,0.18173486976623535,0.0033878158073872328,0.031134928346914236
1690838831847323100,11.6023232421875,0.18517711917459964,-0.007507507819589227,0.028731853827135636
1690838831857363200,11.61236328125,0.17754618590474128,-0.00899460457218811,0.023063137708068823
1690838831867404300,11.622404296875,0.17335516395568848,-0.005729099970217794,0.025460951530840246
1690838831877444400,11.6324443359375,0.1753016218483448,-0.0037334874399006365,0.0208751900765812
1690838831887484200,11.642484130859375,0.1784434270054102,-0.004805409254040569,0.02764661130711902
1690838831897524200,11.652524169921875,0.17560031253397465,-0.005256605353951454,0.022118052577413616
1690838831907565000,11.66256494140625,0.17634850055277346,-0.006900280907750129,0.018650408432888798
1690838831917605000,11.672605224609375,0.17829729653298854,-0.004838489539735019,0.015745960262231528
1690838831927645200,11.682645263671875,0.1796457885324955,-0.00717909784913063,0.022963065733923576
1690838831937686300,11.692686279296876,0.17545652014911173,-0.011654179170262067,0.024562669250555336
1690838831947726300,11.702726318359375,0.17890227668881414,-0.0013382446001283825,0.0194049120280426
1690838831957760300,11.71276025390625,0.17830255722999572,-0.00017866276884451508,0.029236478881025686
1690838831967800300,11.72280029296875,0.17874854743182658,-0.005527092858403921,0.023776971366116777
1690838831977841400,11.73284130859375,0.1812918021738529,0.0019388043091632425,0.02732815190851688
1690838831987912400,11.742912353515624,0.17500585377216338,-0.00004376607649028301,0.03028469559259247
1690838831997952500,11.752952392578125,0.17470774760842323,-0.004180792815983295,0.02990977503270842
1690838832007992600,11.76299267578125,0.17366086890399454,-0.006850651346053928,0.027378123963507823
1690838832018032600,11.77303271484375,0.1640864003509283,-0.007663063707482069,0.031523347709188236
1690838832028073500,11.783073486328124,0.17126958985328675,-0.0012241167011670768,0.02413723777956329
1690838832038113300,11.79311328125,0.1865297028273344,-0.004159750027954578,0.025385009350953624
1690838832048153300,11.8031533203125,0.18473697419166563,0.00040867213243618605,0.025405175356147808
1690838832058194400,11.8131943359375,0.17561375653743744,-0.01108975022053346,0.0297856782955816
1690838832068234500,11.823234375,0.17621347599625586,-0.01286686116196215,0.028987436023401095
1690838832078274600,11.833274658203125,0.18100538644790648,-0.011841956827323884,0.026429431236814706
1690838832088314600,11.843314697265624,0.18878887993097304,0.00036808439372107383,0.025934642590349537
1690838832098355500,11.85335546875,0.1844505584657192,0.004751761104352772,0.022827927012974394
1690838832108395300,11.863395263671874,0.1721808594793081,-0.0064570489185862235,0.02833556168565992
1690838832118435300,11.873435302734375,0.17936521802544592,-0.0051997971327975385,0.02248094933936372
1690838832128476400,11.883476318359374,0.17876842117607591,0.002635919727850705,0.019872954231477342
1690838832138516500,11.8935166015625,0.17293430819511413,-0.008088120719138532,0.018770189754501915
1690838832148556500,11.903556640625,0.17054010653495788,-0.0032986762192100286,0.02559822284337133
1690838832158627600,11.913627685546874,0.18011749769747257,0.0016447349997237323,0.02663119632003363
1690838832168667600,11.923667724609375,0.18415595943331717,-0.0005068718099035323,0.014603827322670258
1690838832178707500,11.93370751953125,0.17802081767916678,0.003082786712516099,0.026328363748826085
1690838832188748300,11.943748291015625,0.17682079423964023,-0.0013524192559532821,0.02569139928584918
1690838832198788400,11.953788330078124,0.1796627396672964,-0.004089479537028819,0.024934438872127793
1690838832208828400,11.963828369140625,0.18519874648451803,-0.002754796867165714,0.023464083191775717
1690838832218869500,11.973869384765624,0.1829530133843422,-0.008025668208487331,0.02365563740823418
1690838832228909600,11.98390966796875,0.18773966313898563,-0.00015866116043180227,0.02684064695278648
1690838832238949600,11.99394970703125,0.17906009759902952,-0.0015386808093637227,0.021328413736796937
1690838832248989400,12.003989501953125,0.16484627880752087,-0.0010284114659763872,0.024122784562525337
1690838832259030300,12.0140302734375,0.17487199825942515,0.0010608158982358873,0.019395002555381506
1690838832269070300,12.0240703125,0.1787602378696203,0.003830554606206715,0.02596065381444059
1690838832279110400,12.0341103515625,0.16648820079565047,0.0004842946519143879,0.02574388752491213
1690838832289151500,12.0441513671875,0.16693828265070915,-0.0026180735439062116,0.0197438251262065
1690838832299191600,12.054191650390624,0.17621522956192492,0.0025990765824913976,0.021300425184750928
1690838832309231600,12.064231689453125,0.1745692159205675,-0.0021872261122800407,0.019046216517174617
1690838832319271400,12.074271484375,0.1741203031092882,-0.004577445717062801,0.023344827026547863
1690838832329342500,12.084342529296874,0.18085282623469828,-0.0037329211843200026,0.015421752684499369
1690838832339382500,12.094382568359375,0.17516484372615812,0.0021998481318354604,0.021149234944721682
1690838832349423400,12.10442333984375,0.17486264590919018,0.002397288666386157,0.024560153066483324
1690838832359463400,12.11446337890625,0.17785364441871643,-0.003194667855463922,0.02178262834427878
1690838832369503500,12.12450341796875,0.18712942228615284,-0.005958981469646096,0.02624611055916175
1690838832379544600,12.134544677734375,0.1814449469089508,-0.0033639234751462934,0.024647968347254207
1690838832389584600,12.144584716796874,0.18144786951839922,-0.0019094138178974388,0.02523021608146373
1690838832399624400,12.15462451171875,0.17351766104102134,-0.008783665235247462,0.028030194664071313
1690838832409664500,12.16466455078125,0.18474165036678314,-0.008740684610046446,0.02620759147994686
1690838832419705300,12.174705322265625,0.17711188614070414,-0.003596563187241554,0.03199978784820996
1690838832429745400,12.184745361328124,0.18519114769995212,-0.0027397454285062847,0.023805877800192683
1690838832439785500,12.194785400390625,0.18264380130469798,-0.001645757913030684,0.026414763390645385
1690838832449826600,12.20482666015625,0.17695757236182688,0.0011980141455307603,0.02811012346590869
1690838832459866600,12.21486669921875,0.1785001256287098,-0.0015383702821098267,0.02452694948320277
1690838832469906400,12.224906494140624,0.39452947918474673,-0.11793962100287898,0.033163890590984374
1690838832479946500,12.234946533203125,-0.1631803914219141,0.013417973972391336,-0.5980533887697383
1690838832489987300,12.2449873046875,0.3897644567400217,0.14278762826714664,0.3818948193434626
