time,seconds_elapsed,z,y,x
1690838820275980500,0.03098046875,-0.9825592041015625,0.0240020751953125,-0.000213623046875
1690838820285987300,0.0409873046875,-0.9849853515625,0.01824951171875,0.00262451171875
1690838820295997400,0.05099755859375,-0.9851226806640625,0.0120697021484375,0.004974365234375
1690838820306037500,0.06103759765625,-0.9853057861328125,0.0057525634765625,0.005035400390625
1690838820316077600,0.07107763671875,-0.9846954345703125,0.002685546875,0.00323486328125
1690838820326118400,0.081118408203125,-0.9859619140625,0.001861572265625,0.00177001953125
1690838820336189200,0.091189208984375,-0.982452392578125,0.002532958984375,0.00115966796875
1690838820346229200,0.101229248046875,-0.979888916015625,0.0064544677734375,0.0005340576171875
1690838820356269300,0.111269287109375,-0.977874755859375,0.01116943359375,0.0006561279296875
1690838820366309400,0.121309326171875,-0.9759521484375,0.0171051025390625,0.000946044921875
1690838820376350500,0.1313505859375,-0.9744415283203125,0.023834228515625,0.0015106201171875
1690838820386390500,0.141390625,-0.973541259765625,0.0290985107421875,0.001678466796875
1690838820396430300,0.151430419921875,-0.970611572265625,0.0348358154296875,0.0011138916015625
1690838820406470400,0.161470458984375,-0.97015380859375,0.0379180908203125,-0.0003814697265625
1690838820416511200,0.17151123046875,-0.9699859619140625,0.0400848388671875,0.0005950927734375
1690838820426551300,0.18155126953125,-0.968597412109375,0.0421905517578125,-0.000213623046875
1690838820436591400,0.19159130859375,-0.9681243896484375,0.04278564453125,-0.000579833984375
1690838820446632400,0.201632568359375,-0.9681854248046875,0.04217529296875,-0.000946044921875
1690838820456672500,0.211672607421875,-0.9694976806640625,0.0404052734375,-0.0012054443359375
1690838820466712300,0.22171240234375,-0.9714813232421875,0.03509521484375,-0.0003204345703125
1690838820476752400,0.23175244140625,-0.9724273681640625,0.0321807861328125,0.0001373291015625
1690838820486793200,0.241793212890625,-0.9744415283203125,0.028228759765625,0.001129150390625
1690838820496833300,0.251833251953125,-0.976104736328125,0.02362060546875,0.0021514892578125
1690838820506873300,0.261873291015625,-0.977813720703125,0.0184173583984375,0.0024566650390625
1690838820516944400,0.2719443359375,-0.9786376953125,0.0148773193359375,0.001739501953125
1690838820526984400,0.281984375,-0.9796142578125,0.0130767822265625,0.0012359619140625
1690838820537025500,0.292025634765625,-0.9796905517578125,0.0117034912109375,0.0007781982421875
1690838820547065300,0.3020654296875,-0.97967529296875,0.0120849609375,0.0011749267578125
1690838820557105400,0.31210546875,-0.9799346923828125,0.0132293701171875,0.00152587890625
1690838820567146200,0.322146240234375,-0.978729248046875,0.015716552734375,0.001953125
1690838820577186300,0.332186279296875,-0.97845458984375,0.0184478759765625,0.002410888671875
1690838820587226400,0.342226318359375,-0.9770660400390625,0.023193359375,0.0022430419921875
1690838820597266400,0.352266357421875,-0.9751434326171875,0.026458740234375,0.0017852783203125
1690838820607307500,0.3623076171875,-0.973907470703125,0.0290679931640625,0.001220703125
1690838820617347300,0.372347412109375,-0.973480224609375,0.0325927734375,0.000396728515625
1690838820627387400,0.382387451171875,-0.97296142578125,0.0348358154296875,0.00006103515625
1690838820637428200,0.39242822265625,-0.971710205078125,0.035614013671875,0.0002288818359375
1690838820647468300,0.40246826171875,-0.9708709716796875,0.035919189453125,-0.000244140625
1690838820657508400,0.41250830078125,-0.972076416015625,0.0355072021484375,-0.000244140625
1690838820667548400,0.42254833984375,-0.9734649658203125,0.0341339111328125,0.0003814697265625
1690838820677589500,0.432589599609375,-0.974365234375,0.0319671630859375,0.000457763671875
1690838820687659300,0.4426591796875,-0.9745941162109375,0.029449462890625,0.0006561279296875
1690838820697700400,0.452700439453125,-0.976043701171875,0.0270538330078125,0.0009918212890625
1690838820707740400,0.462740478515625,-0.9778900146484375,0.0243377685546875,0.0011138916015625
1690838820717780200,0.4727802734375,-0.9786376953125,0.021484375,0.0011749267578125
1690838820727821300,0.4828212890625,-0.9782562255859375,0.0195770263671875,0.0007476806640625
1690838820737861400,0.492861328125,-0.97857666015625,0.01824951171875,0.000579833984375
1690838820747901400,0.5029013671875,-0.978973388671875,0.016845703125,0.0005035400390625
1690838820757941200,0.512941162109375,-0.9794158935546875,0.017303466796875,0.000885009765625
1690838820767982300,0.522982421875,-0.9794158935546875,0.0185089111328125,0.00146484375
1690838820778022400,0.5330224609375,-0.978790283203125,0.0197601318359375,0.00103759765625
1690838820788062200,0.543062255859375,-0.978668212890625,0.0219879150390625,0.002471923828125
1690838820798103300,0.553103271484375,-0.9768524169921875,0.024200439453125,0.0022735595703125
1690838820808143400,0.563143310546875,-0.9768524169921875,0.0258941650390625,0.000701904296875
1690838820818183400,0.573183349609375,-0.975799560546875,0.0283203125,0.000274658203125
1690838820828223500,0.583223388671875,-0.9747467041015625,0.03057861328125,0.0002593994140625
1690838820838264600,0.5932646484375,-0.9748077392578125,0.032073974609375,0.000946044921875
1690838820848304400,0.603304443359375,-0.974639892578125,0.0319976806640625,0.0002899169921875
1690838820858375400,0.61337548828125,-0.975372314453125,0.0314483642578125,0
1690838820868415200,0.623415283203125,-0.9757843017578125,0.030853271484375,0.000762939453125
1690838820878455300,0.633455322265625,-0.975860595703125,0.029876708984375,0.0013580322265625
1690838820888496400,0.643496337890625,-0.9756622314453125,0.0289154052734375,0.00152587890625
1690838820898536400,0.653536376953125,-0.9758148193359375,0.0268707275390625,0.001678466796875
1690838820908576300,0.663576171875,-0.976898193359375,0.0261993408203125,0.000946044921875
1690838820918616300,0.6736162109375,-0.9773712158203125,0.024139404296875,0.0015106201171875
1690838820928657400,0.683657470703125,-0.978271484375,0.0223846435546875,0.0007781982421875
1690838820938697200,0.693697265625,-0.9797821044921875,0.0213775634765625,0.0013580322265625
1690838820948724200,0.70372412109375,-0.9804534912109375,0.021484375,0.001861572265625
1690838820958765300,0.713765380859375,-0.979644775390625,0.02105712890625,0.0021209716796875
1690838820968805400,0.723805419921875,-0.9795074462890625,0.02099609375,0.0018157958984375
1690838820978845400,0.733845458984375,-0.9781951904296875,0.022369384765625,0.000640869140625
1690838820988885500,0.743885498046875,-0.978271484375,0.0235748291015625,0.0013427734375
1690838820998926300,0.75392626953125,-0.9773712158203125,0.024566650390625,0.000885009765625
1690838821008966100,0.763966064453125,-0.97705078125,0.0255126953125,-0.000030517578125
1690838821019006200,0.774006103515625,-0.97601318359375,0.0269317626953125,0.000762939453125
1690838821029077200,0.7840771484375,-0.976470947265625,0.02886962890625,0.0002899169921875
1690838821039117300,0.794117431640625,-0.97705078125,0.0283660888671875,0.0013427734375
1690838821049158400,0.804158447265625,-0.9773406982421875,0.0284423828125,0.0010528564453125
1690838821059198500,0.814198486328125,-0.9775848388671875,0.029571533203125,0.0003662109375
1690838821069238500,0.824238525390625,-0.976348876953125,0.0295562744140625,0.000579833984375
1690838821079279400,0.834279296875,-0.9768524169921875,0.029296875,0.0010528564453125
1690838821089319200,0.844319091796875,-0.9784393310546875,0.0278167724609375,0.00054931640625
1690838821099359200,0.854359130859375,-0.977630615234375,0.0263519287109375,0.0003814697265625
1690838821109399300,0.8643994140625,-0.9781951904296875,0.025421142578125,0.0010833740234375
1690838821119440400,0.8744404296875,-0.978424072265625,0.0245513916015625,0.000885009765625
1690838821129480400,0.88448046875,-0.978607177734375,0.023895263671875,0.0017242431640625
1690838821139520500,0.8945205078125,-0.979278564453125,0.02325439453125,0.0010986328125
1690838821149561300,0.904561279296875,-0.979736328125,0.0235137939453125,0.000823974609375
1690838821159601200,0.91460107421875,-0.9791259765625,0.0226593017578125,0.00128173828125
1690838821169641200,0.92464111328125,-0.9787445068359375,0.0225372314453125,0.0007476806640625
1690838821179681300,0.934681396484375,-0.9788665771484375,0.023162841796875,0.0006103515625
1690838821189722400,0.944722412109375,-0.977874755859375,0.02398681640625,0.0013580322265625
1690838821199792400,0.95479248046875,-0.9781036376953125,0.025146484375,0.001495361328125
1690838821209833500,0.96483349609375,-0.9781341552734375,0.0258331298828125,0.001434326171875
1690838821219873500,0.97487353515625,-0.9777679443359375,0.026763916015625,0.0015716552734375
1690838821229913300,0.984913330078125,-0.9771575927734375,0.02679443359375,0.001068115234375
1690838821239954200,0.9949541015625,-0.977569580078125,0.027618408203125,0.00091552734375
1690838821249994200,1.004994140625,-0.978546142578125,0.0274505615234375,0.0005340576171875
1690838821260034300,1.015034423828125,-0.9778900146484375,0.0283966064453125,0.0006866455078125
1690838821270074400,1.025074462890625,-0.977935791015625,0.0283355712890625,0.00048828125
1690838821280115500,1.035115478515625,-0.978118896484375,0.02752685546875,0.000457763671875
1690838821290155500,1.045155517578125,-0.9781341552734375,0.0260772705078125,0.000030517578125
1690838821300195300,1.0551953125,-0.9786376953125,0.0253143310546875,0.0004425048828125
1690838821310236200,1.065236083984375,-0.978485107421875,0.0251007080078125,0.0009765625
1690838821320276200,1.075276123046875,-0.978912353515625,0.0243072509765625,0.000946044921875
1690838821330316300,1.08531640625,-0.979888916015625,0.0237274169921875,0.0017547607421875
1690838821340356400,1.0953564453125,-0.979339599609375,0.0247344970703125,0.002410888671875
1690838821350397400,1.1053974609375,-0.9795684814453125,0.0236663818359375,0.001434326171875
1690838821360437500,1.1154375,-0.97955322265625,0.02392578125,0.001495361328125
1690838821370508300,1.12550830078125,-0.979156494140625,0.0238189697265625,0.00152587890625
1690838821380548400,1.13554833984375,-0.979461669921875,0.02459716796875,0.000946044921875
1690838821390588200,1.145588134765625,-0.978851318359375,0.0250396728515625,-0.000244140625
1690838821400629200,1.155629150390625,-0.9788360595703125,0.0253448486328125,0.000823974609375
1690838821410669300,1.16566943359375,-0.978515625,0.02545166015625,-0.000732421875
1690838821420709400,1.17570947265625,-0.9787750244140625,0.02606201171875,0.00048828125
1690838821430749400,1.18574951171875,-0.978485107421875,0.0272216796875,0.0010223388671875
1690838821440790500,1.19579052734375,-0.977996826171875,0.027496337890625,0.0015106201171875
1690838821450830300,1.205830322265625,-0.9779205322265625,0.026519775390625,0.001708984375
1690838821460870100,1.2158701171875,-0.9785614013671875,0.0274810791015625,0.0008697509765625
1690838821470911200,1.2259111328125,-0.978057861328125,0.0278778076171875,0.0009918212890625
1690838821480951300,1.235951416015625,-0.978607177734375,0.02691650390625,0.0015869140625
1690838821490991400,1.245991455078125,-0.97906494140625,0.0258941650390625,0.000732421875
1690838821501031400,1.256031494140625,-0.978729248046875,0.0252227783203125,0.0008392333984375
1690838821511072500,1.266072509765625,-0.9785308837890625,0.0259857177734375,0.0013580322265625
1690838821521112300,1.2761123046875,-0.979095458984375,0.0250396728515625,0.0008392333984375
1690838821531152100,1.286152099609375,-0.979644775390625,0.0245819091796875,0.00140380859375
1690838821541223200,1.29622314453125,-0.9788055419921875,0.024810791015625,0.0013580322265625
1690838821551263200,1.30626318359375,-0.9798431396484375,0.024932861328125,0.0012969970703125
1690838821561304300,1.31630419921875,-0.9804534912109375,0.024383544921875,0.000885009765625
1690838821571344400,1.326344482421875,-0.9794464111328125,0.0247039794921875,0.0011444091796875
1690838821581384400,1.336384521484375,-0.9793243408203125,0.0254058837890625,0.00091552734375
1690838821591425500,1.346425537109375,-0.9790191650390625,0.0250701904296875,0.0012969970703125
1690838821601465300,1.35646533203125,-0.9791107177734375,0.0260009765625,0.000732421875
1690838821611505200,1.366505126953125,-0.979400634765625,0.0265655517578125,0.0006103515625
1690838821621545200,1.376545166015625,-0.978851318359375,0.026397705078125,0.0012664794921875
1690838821631586300,1.38658642578125,-0.9794464111328125,0.0262298583984375,0.000885009765625
1690838821641626400,1.39662646484375,-0.9794921875,0.0262908935546875,0.0012054443359375
1690838821651666400,1.40666650390625,-0.979156494140625,0.02520751953125,0.0013275146484375
1690838821661707500,1.41670751953125,-0.9786529541015625,0.02618408203125,0.0015716552734375
1690838821671747300,1.426747314453125,-0.97882080078125,0.0265960693359375,0.000396728515625
1690838821681787100,1.436787109375,-0.9791107177734375,0.025604248046875,0.000762939453125
1690838821691827200,1.4468271484375,-0.9794464111328125,0.0253753662109375,0.0010833740234375
1690838821701868300,1.456868408203125,-0.97943115234375,0.0252532958984375,0.0006256103515625
1690838821711938300,1.466938232421875,-0.979766845703125,0.0249481201171875,0.0009765625
1690838821721979400,1.4769794921875,-0.97943115234375,0.0244598388671875,0.000762939453125
1690838821732019500,1.48701953125,-0.9801025390625,0.0244140625,0.000823974609375
1690838821742059300,1.497059326171875,-0.9797515869140625,0.024810791015625,-0.0000457763671875
1690838821752100400,1.507100341796875,-0.9800872802734375,0.0255126953125,0.000274658203125
1690838821762140200,1.51714013671875,-0.9804534912109375,0.0251617431640625,0.001739501953125
1690838821772180200,1.52718017578125,-0.98101806640625,0.0257568359375,0.0012969970703125
1690838821782220300,1.53722021484375,-0.98101806640625,0.0262603759765625,0.0015106201171875
1690838821792261400,1.547261474609375,-0.980316162109375,0.025543212890625,0.0004730224609375
1690838821802301400,1.557301513671875,-0.9797210693359375,0.025115966796875,0.0006103515625
1690838821812341200,1.56734130859375,-0.9793548583984375,0.024200439453125,0.0014190673828125
1690838821822382300,1.57738232421875,-0.9805450439453125,0.025390625,0.00030517578125
1690838821832422100,1.587422119140625,-0.9792022705078125,0.025726318359375,0.0007476806640625
1690838821842462200,1.597462158203125,-0.9804840087890625,0.02545166015625,0.001251220703125
1690838821852502300,1.607502197265625,-0.979736328125,0.0254058837890625,0.00091552734375
1690838821862543400,1.61754345703125,-0.9793548583984375,0.0260009765625,0.001129150390625
1690838821872583400,1.62758349609375,-0.980072021484375,0.0261383056640625,0.0009918212890625
1690838821882654500,1.637654541015625,-0.980255126953125,0.0250091552734375,0.00048828125
1690838821892694300,1.6476943359375,-0.9802093505859375,0.0255584716796875,0.0009002685546875
1690838821902734300,1.657734375,-0.9803314208984375,0.0260772705078125,0.0014801025390625
1690838821912775200,1.667775146484375,-0.97967529296875,0.024444580078125,0.000701904296875
1690838821922815200,1.677815185546875,-0.9795379638671875,0.024566650390625,0.000762939453125
1690838821932855300,1.687855224609375,-0.97998046875,0.0251617431640625,0.001251220703125
1690838821942895400,1.697895263671875,-0.9796600341796875,0.0252532958984375,0.0011138916015625
1690838821952913400,1.707913330078125,-0.979461669921875,0.0250244140625,0.000335693359375
1690838821962953200,1.717953125,-0.9801483154296875,0.0257720947265625,0.0003814697265625
1690838821972993300,1.7279931640625,-0.97930908203125,0.025543212890625,0.0006103515625
1690838821983034400,1.738034423828125,-0.9802398681640625,0.0247650146484375,0.0003509521484375
1690838821993074400,1.748074462890625,-0.980682373046875,0.0257415771484375,0.00018310546875
1690838822003114500,1.758114501953125,-0.9803619384765625,0.02569580078125,0.000640869140625
1690838822013154600,1.768154541015625,-0.980194091796875,0.0255584716796875,0.0019989013671875
1690838822023195400,1.7781953125,-0.9803924560546875,0.0259552001953125,0.0010223388671875
1690838822033235500,1.7882353515625,-0.98004150390625,0.0256500244140625,0.0014495849609375
1690838822043275300,1.798275146484375,-0.9796600341796875,0.0254669189453125,0.0012359619140625
1690838822053346300,1.80834619140625,-0.9805145263671875,0.0258331298828125,0.001434326171875
1690838822063386400,1.818386474609375,-0.9801788330078125,0.0259857177734375,0.0010833740234375
1690838822073427500,1.828427490234375,-0.980316162109375,0.025146484375,0.0008697509765625
1690838822083467500,1.838467529296875,-0.980133056640625,0.0259857177734375,0.000274658203125
1690838822093507600,1.848507568359375,-0.9804229736328125,0.02557373046875,0.0005340576171875
1690838822103548400,1.85854833984375,-0.979736328125,0.0258331298828125,-0.000457763671875
1690838822113588200,1.868588134765625,-0.9799957275390625,0.024810791015625,0.000518798828125
1690838822123628300,1.878628173828125,-0.98052978515625,0.0247955322265625,0.0003204345703125
1690838822133668400,1.88866845703125,-0.980255126953125,0.02496337890625,0.001007080078125
1690838822143709400,1.89870947265625,-0.9806671142578125,0.025604248046875,0.0016632080078125
1690838822153749500,1.90874951171875,-0.979766845703125,0.0254974365234375,0.0009765625
1690838822163789600,1.91878955078125,-0.9805145263671875,0.025665283203125,0.001190185546875
1690838822173830400,1.928830322265625,-0.9813232421875,0.0261077880859375,0.0010833740234375
1690838822183870500,1.938870361328125,-0.979095458984375,0.025604248046875,0.0013580322265625
1690838822193910300,1.94891015625,-0.979339599609375,0.0262298583984375,0.00103759765625
1690838822203950300,1.958950439453125,-0.9804534912109375,0.025543212890625,0.0006866455078125
1690838822213991400,1.968991455078125,-0.980377197265625,0.024993896484375,0.0008392333984375
1690838822224061400,1.9790615234375,-0.98046875,0.025726318359375,0.000518798828125
1690838822234102500,1.9891025390625,-0.98065185546875,0.0257720947265625,0.0004730224609375
1690838822244142600,1.999142578125,-0.980560302734375,0.0262451171875,0.0004425048828125
1690838822254182400,2.009182373046875,-0.979888916015625,0.0261688232421875,0.0009307861328125
1690838822264223200,2.01922314453125,-0.9802703857421875,0.025299072265625,0.001190185546875
1690838822274263300,2.02926318359375,-0.9803314208984375,0.025115966796875,0.0015869140625
1690838822284303400,2.039303466796875,-0.9805450439453125,0.024749755859375,0.0012359619140625
1690838822294343400,2.049343505859375,-0.9808502197265625,0.0254974365234375,0.0011749267578125
1690838822304384500,2.059384521484375,-0.9809722900390625,0.0256500244140625,0.00115966796875
1690838822314424600,2.069424560546875,-0.9807586669921875,0.025177001953125,0.0014801025390625
1690838822324464400,2.07946435546875,-0.9813079833984375,0.0244140625,0.0011444091796875
1690838822334505200,2.089505126953125,-0.980712890625,0.025543212890625,0.000885009765625
1690838822344545300,2.099545166015625,-0.980499267578125,0.025421142578125,0.0003509521484375
1690838822354585300,2.10958544921875,-0.980224609375,0.0243682861328125,0.0006256103515625
1690838822364625400,2.11962548828125,-0.980224609375,0.0249786376953125,0.0013427734375
1690838822374666500,2.12966650390625,-0.9805145263671875,0.0259552001953125,0.00140380859375
1690838822384706600,2.13970654296875,-0.9805145263671875,0.0257568359375,0.0007476806640625
1690838822394777600,2.149777587890625,-0.980987548828125,0.0258636474609375,0.001861572265625
1690838822404817400,2.1598173828125,-0.9800262451171875,0.025238037109375,0.001495361328125
1690838822414857500,2.169857421875,-0.9799957275390625,0.0256805419921875,0.0010986328125
1690838822424898300,2.179898193359375,-0.98004150390625,0.0264892578125,0.000579833984375
1690838822434938400,2.1899384765625,-0.9805755615234375,0.02618408203125,0.00018310546875
1690838822444978400,2.199978515625,-0.9804840087890625,0.0258941650390625,0.0010528564453125
1690838822455018500,2.2100185546875,-0.9805908203125,0.026123046875,0.00048828125
1690838822465059600,2.2200595703125,-0.98046875,0.0257110595703125,0.0009307861328125
1690838822475099400,2.230099365234375,-0.98101806640625,0.0263671875,0.0008697509765625
1690838822485139500,2.240139404296875,-0.9812774658203125,0.024749755859375,0.00103759765625
1690838822495180300,2.25018017578125,-0.9807586669921875,0.0250091552734375,0.0022125244140625
1690838822505220400,2.260220458984375,-0.9807586669921875,0.0257110595703125,0.001190185546875
1690838822515260400,2.270260498046875,-0.9813385009765625,0.025634765625,0.0009765625
1690838822525300500,2.280300537109375,-0.980499267578125,0.025146484375,0.00006103515625
1690838822535341600,2.290341552734375,-0.97998046875,0.024505615234375,0.0009307861328125
1690838822545381600,2.300381591796875,-0.9804534912109375,0.0254974365234375,0.0019073486328125
1690838822555421400,2.31042138671875,-0.9806060791015625,0.0260162353515625,0.00115966796875
1690838822565492500,2.320492431640625,-0.98114013671875,0.02569580078125,0.0007781982421875
1690838822575532500,2.330532470703125,-0.98101806640625,0.02581787109375,0.0008392333984375
1690838822585573400,2.340573486328125,-0.9809417724609375,0.025787353515625,0.0005645751953125
1690838822595613400,2.350613525390625,-0.98065185546875,0.025054931640625,0.0014190673828125
1690838822605653500,2.360653564453125,-0.9810791015625,0.0251617431640625,0.00140380859375
1690838822615694600,2.370694580078125,-0.9805450439453125,0.0254364013671875,0.000946044921875
1690838822625734400,2.380734375,-0.9805450439453125,0.025177001953125,0.00103759765625
1690838822635774500,2.3907744140625,-0.9807586669921875,0.0252685546875,0.0009002685546875
1690838822645814500,2.400814453125,-0.9805450439453125,0.025970458984375,0.0010528564453125
1690838822655855400,2.41085546875,-0.9810791015625,0.02508544921875,0.00091552734375
1690838822665895400,2.4208955078125,-0.98077392578125,0.02520751953125,0.001007080078125
1690838822675935500,2.430935546875,-0.980926513671875,0.0256500244140625,0
1690838822685976600,2.4409765625,-0.9814910888671875,0.02532958984375,-0.000274658203125
1690838822696016600,2.4510166015625,-0.98065185546875,0.0263214111328125,0.00103759765625
1690838822706056400,2.461056396484375,-0.9805450439453125,0.025543212890625,0.0010223388671875
1690838822716096500,2.471096435546875,-0.9814605712890625,0.025146484375,0.001678466796875
1690838822726167600,2.48116748046875,-0.9812774658203125,0.0252685546875,0.000946044921875
1690838822736207400,2.491207275390625,-0.98095703125,0.0248870849609375,0.0014801025390625
1690838822746248400,2.50124853515625,-0.9814453125,0.0249176025390625,0.0017242431640625
1690838822756288500,2.51128857421875,-0.9806976318359375,0.024810791015625,0.0004119873046875
1690838822766328300,2.521328369140625,-0.9811859130859375,0.026123046875,0.0010528564453125
1690838822776369400,2.531369384765625,-0.9808197021484375,0.025665283203125,0.001068115234375
1690838822786409500,2.541409423828125,-0.981170654296875,0.0255279541015625,0.0012359619140625
1690838822796449500,2.551449462890625,-0.98297119140625,0.025665283203125,0.000244140625
1690838822806489300,2.5614892578125,-0.981414794921875,0.0255279541015625,0.0004730224609375
1690838822816530400,2.571530517578125,-0.982025146484375,0.0250091552734375,0.00091552734375
1690838822826570500,2.581570556640625,-0.981109619140625,0.0257720947265625,0.00091552734375
1690838822836610600,2.591610595703125,-0.9809722900390625,0.0257720947265625,0.0010223388671875
1690838822846651600,2.601651611328125,-0.9815521240234375,0.02520751953125,0.00079345703125
1690838822856691500,2.61169140625,-0.98095703125,0.0258941650390625,0.00152587890625
1690838822866731500,2.6217314453125,-0.981048583984375,0.0260772705078125,0.000640869140625
1690838822876771300,2.631771240234375,-0.98089599609375,0.025360107421875,0.0019073486328125
1690838822886812400,2.6418125,-0.980865478515625,0.024444580078125,0.0012359619140625
1690838822896882400,2.65188232421875,-0.98175048828125,0.0255279541015625,0.001312255859375
1690838822906923500,2.661923583984375,-0.980804443359375,0.02569580078125,0.0011444091796875
1690838822916963300,2.67196337890625,-0.981170654296875,0.0260009765625,0.001068115234375
1690838822927003400,2.68200341796875,-0.981201171875,0.02569580078125,0.0011749267578125
1690838822937044500,2.69204443359375,-0.98016357421875,0.0256500244140625,0.00067138671875
1690838822947094500,2.702094482421875,-0.980255126953125,0.0251617431640625,0.001373291015625
1690838822957134300,2.71213427734375,-0.9803314208984375,0.026123046875,0.0006866455078125
1690838822967174400,2.72217431640625,-0.9811248779296875,0.02532958984375,0.00091552734375
1690838822977215200,2.73221533203125,-0.980743408203125,0.0253143310546875,0.0016937255859375
1690838822987255300,2.74225537109375,-0.9814300537109375,0.0263519287109375,0.000823974609375
1690838822997295400,2.75229541015625,-0.98077392578125,0.025604248046875,0.0000457763671875
1690838823007336400,2.76233642578125,-0.98052978515625,0.0255279541015625,0.001190185546875
1690838823017376500,2.77237646484375,-0.980499267578125,0.0259246826171875,0.0004730224609375
1690838823027416600,2.78241650390625,-0.98089599609375,0.0254058837890625,0.0009307861328125
1690838823037456400,2.792456298828125,-0.9809722900390625,0.0254364013671875,0.0008087158203125
1690838823047497200,2.802497314453125,-0.9814910888671875,0.02545166015625,0.000823974609375
1690838823057537300,2.812537353515625,-0.9813995361328125,0.02490234375,0.000762939453125
1690838823067608300,2.8226083984375,-0.9811859130859375,0.0249786376953125,0.0015411376953125
1690838823077648400,2.8326484375,-0.9814453125,0.0255126953125,0.0010833740234375
1690838823087688400,2.8426884765625,-0.9806671142578125,0.025360107421875,0.000885009765625
1690838823097729500,2.8527294921875,-0.9814300537109375,0.0260467529296875,0.0002899169921875
1690838823107769300,2.862769287109375,-0.9811248779296875,0.02508544921875,0.0010833740234375
1690838823117809400,2.872809326171875,-0.98138427734375,0.0249786376953125,0.00140380859375
1690838823127850200,2.882850341796875,-0.98095703125,0.02557373046875,0.0011138916015625
1690838823137890300,2.892890380859375,-0.9810028076171875,0.025115966796875,0.0010528564453125
1690838823147930400,2.902930419921875,-0.9805450439453125,0.025543212890625,0.0008697509765625
1690838823157970400,2.912970458984375,-0.98004150390625,0.026031494140625,0.001068115234375
1690838823168011500,2.923011474609375,-0.98046875,0.0253448486328125,0.0011444091796875
1690838823178051600,2.933051513671875,-0.9801025390625,0.0258331298828125,0.0013580322265625
1690838823188091400,2.94309130859375,-0.981201171875,0.0258941650390625,0.0010833740234375
1690838823198132200,2.95313232421875,-0.981689453125,0.0256805419921875,0.0015869140625
1690838823208172300,2.96317236328125,-0.981903076171875,0.025390625,0.00146484375
1690838823218212400,2.97321240234375,-0.9808807373046875,0.0250701904296875,0.0009918212890625
1690838823228252400,2.98325244140625,-0.980194091796875,0.025421142578125,0.00048828125
1690838823238323500,2.993323486328125,-0.981781005859375,0.0259246826171875,0.001129150390625
1690838823248363300,3.00336328125,-0.9816436767578125,0.0258636474609375,0.000823974609375
1690838823258404400,3.013404296875,-0.9810028076171875,0.0259857177734375,0.000518798828125
1690838823268444400,3.0234443359375,-0.9807586669921875,0.0258941650390625,0.000244140625
1690838823278484200,3.033484130859375,-0.9802398681640625,0.0255889892578125,0.000762939453125
1690838823288525300,3.043525390625,-0.981170654296875,0.02520751953125,0.0009613037109375
1690838823298565400,3.0535654296875,-0.98065185546875,0.0259857177734375,0.0007781982421875
1690838823308605400,3.06360546875,-0.9823150634765625,0.025360107421875,0.0011444091796875
1690838823318645200,3.073645263671875,-0.981414794921875,0.026214599609375,0.00152587890625
1690838823328686300,3.083686279296875,-0.9807586669921875,0.025482177734375,0.001129150390625
1690838823338726400,3.093726318359375,-0.9814453125,0.0250396728515625,0.001220703125
1690838823348766200,3.10376611328125,-0.981719970703125,0.02532958984375,0.0014495849609375
1690838823358807300,3.113807373046875,-0.9803619384765625,0.0260162353515625,0.0013427734375
1690838823368847400,3.123847412109375,-0.9807281494140625,0.026031494140625,0.0004119873046875
1690838823378887400,3.133887451171875,-0.9809722900390625,0.0251007080078125,0.0012969970703125
1690838823388927500,3.143927490234375,-0.9808349609375,0.0249176025390625,0.001617431640625
1690838823398968600,3.153968505859375,-0.980621337890625,0.0251922607421875,0.0001220703125
1690838823409038300,3.164038330078125,-0.980926513671875,0.0253753662109375,0.00054931640625
1690838823419079400,3.174079345703125,-0.9803009033203125,0.026123046875,0.0016326904296875
1690838823429119200,3.184119140625,-0.979461669921875,0.02508544921875,0.00115966796875
1690838823439159300,3.1941591796875,-0.9811248779296875,0.025177001953125,0.0006561279296875
1690838823449200400,3.204200439453125,-0.982147216796875,0.025726318359375,0.001220703125
1690838823459240400,3.214240478515625,-0.9805755615234375,0.0256805419921875,0.0007781982421875
1690838823469280300,3.2242802734375,-0.981201171875,0.0256195068359375,0.001068115234375
1690838823479320300,3.2343203125,-0.9818878173828125,0.026214599609375,0.0013580322265625
1690838823489361400,3.244361328125,-0.9815673828125,0.0258026123046875,0.0007171630859375
1690838823499401200,3.254401123046875,-0.981231689453125,0.025360107421875,0.0001220703125
1690838823509441300,3.264441162109375,-0.9809417724609375,0.025909423828125,0.0003204345703125
1690838823519482400,3.274482421875,-0.98052978515625,0.0253753662109375,0.0011749267578125
1690838823529522400,3.2845224609375,-0.980377197265625,0.0258636474609375,0.0016632080078125
1690838823539562500,3.2945625,-0.98095703125,0.025482177734375,0.00201416015625
1690838823549602300,3.304602294921875,-0.9817657470703125,0.0262603759765625,0.000640869140625
1690838823559643400,3.314643310546875,-0.9815673828125,0.025238037109375,0.0013885498046875
1690838823569683200,3.32468310546875,-0.980987548828125,0.0254974365234375,0.001007080078125
1690838823579754200,3.334754150390625,-0.981597900390625,0.025787353515625,0.0006866455078125
1690838823589794300,3.344794189453125,-0.9812164306640625,0.0251922607421875,0.00115966796875
1690838823599834400,3.35483447265625,-0.9815673828125,0.0258941650390625,0.000244140625
1690838823609875500,3.36487548828125,-0.9807281494140625,0.0269622802734375,0.0003509521484375
1690838823619915300,3.374915283203125,-0.9817962646484375,0.0257720947265625,0.0007781982421875
1690838823629955300,3.384955322265625,-0.9804229736328125,0.0256805419921875,0.0013275146484375
1690838823639996400,3.394996337890625,-0.9813385009765625,0.0260467529296875,0.0014495849609375
1690838823650036200,3.4050361328125,-0.981048583984375,0.0255584716796875,0.001312255859375
1690838823660076300,3.415076171875,-0.98114013671875,0.024993896484375,0.0016326904296875
1690838823670116400,3.425116455078125,-0.981170654296875,0.025390625,0.0012969970703125
1690838823680157400,3.435157470703125,-0.98126220703125,0.025299072265625,0.0006103515625
1690838823690197500,3.445197509765625,-0.981353759765625,0.0248565673828125,0.0000762939453125
1690838823700237300,3.4552373046875,-0.9811248779296875,0.0258331298828125,0.0002288818359375
1690838823710278400,3.4652783203125,-0.9805908203125,0.025543212890625,0.000640869140625
1690838823720318200,3.475318115234375,-0.981781005859375,0.02630615234375,0.000762939453125
1690838823730358300,3.485358154296875,-0.9815826416015625,0.0256500244140625,-0.0005340576171875
1690838823740398300,3.4953984375,-0.98162841796875,0.024810791015625,0.0002593994140625
1690838823750469400,3.505469482421875,-0.9806060791015625,0.0259246826171875,0.0011749267578125
1690838823760509200,3.51550927734375,-0.9806976318359375,0.02630615234375,0.0003509521484375
1690838823770550300,3.52555029296875,-0.9810028076171875,0.0262451171875,0.0014495849609375
1690838823780590300,3.53559033203125,-0.9817962646484375,0.02557373046875,0.001312255859375
1690838823790630400,3.54563037109375,-0.982269287109375,0.0260772705078125,0.0015106201171875
1690838823800671200,3.555671142578125,-0.9813232421875,0.0264739990234375,0.001251220703125
1690838823810711300,3.565711181640625,-0.9821014404296875,0.0249176025390625,0.0001373291015625
1690838823820751400,3.57575146484375,-0.982025146484375,0.0256805419921875,0.00091552734375
1690838823830791400,3.58579150390625,-0.9805908203125,0.0261993408203125,0.0020294189453125
1690838823840832500,3.59583251953125,-0.98065185546875,0.0248565673828125,0.0012359619140625
1690838823850872300,3.605872314453125,-0.9815521240234375,0.0252227783203125,0.0008544921875
1690838823860912400,3.615912353515625,-0.9813690185546875,0.0253753662109375,0.00018310546875
1690838823870953200,3.625953125,-0.9802703857421875,0.0258941650390625,0.00128173828125
1690838823880993300,3.6359931640625,-0.981719970703125,0.0266571044921875,0.00030517578125
1690838823891033300,3.646033447265625,-0.9820098876953125,0.025665283203125,0.0009002685546875
1690838823901073400,3.656073486328125,-0.9806060791015625,0.0255126953125,0.0013275146484375
1690838823911114500,3.666114501953125,-0.9806976318359375,0.02496337890625,0.0011444091796875
1690838823921184300,3.676184326171875,-0.98150634765625,0.0250701904296875,0.001312255859375
1690838823931225300,3.686225341796875,-0.9813079833984375,0.02520751953125,0.000640869140625
1690838823941265400,3.696265380859375,-0.981201171875,0.0252685546875,0.0003509521484375
1690838823951292400,3.70629248046875,-0.9811859130859375,0.0260772705078125,0.0001373291015625
1690838823961333500,3.71633349609375,-0.980926513671875,0.0254058837890625,0.0014801025390625
1690838823971373600,3.72637353515625,-0.9815826416015625,0.024932861328125,0.0018157958984375
1690838823981413400,3.736413330078125,-0.9806976318359375,0.0254669189453125,-0.00006103515625
1690838823991453400,3.746453369140625,-0.98089599609375,0.0261383056640625,0.001190185546875
1690838824001494500,3.75649462890625,-0.9820709228515625,0.026031494140625,0.00164794921875
1690838824011534300,3.766534423828125,-0.9814453125,0.0255889892578125,0.0008087158203125
1690838824021574400,3.776574462890625,-0.980712890625,0.026275634765625,0.0013427734375
1690838824031615500,3.786615478515625,-0.9809417724609375,0.0256805419921875,0.0001068115234375
1690838824041655600,3.796655517578125,-0.9813385009765625,0.025360107421875,0.0010223388671875
1690838824051695600,3.806695556640625,-0.98223876953125,0.0253143310546875,0.0012664794921875
1690838824061735400,3.8167353515625,-0.9817962646484375,0.025604248046875,0.000885009765625
1690838824071776500,3.826776611328125,-0.98114013671875,0.025665283203125,0.001220703125
1690838824081847600,3.83684765625,-0.9805145263671875,0.0245361328125,0.00152587890625
1690838824091887400,3.846887451171875,-0.98089599609375,0.02490234375,0.000701904296875
1690838824101927400,3.856927490234375,-0.980987548828125,0.026397705078125,0.00042724609375
1690838824111967500,3.866967529296875,-0.9803009033203125,0.026092529296875,0.0011138916015625
1690838824122008600,3.877008544921875,-0.9818878173828125,0.026519775390625,0.0010528564453125
1690838824132048400,3.88704833984375,-0.9808197021484375,0.02496337890625,0.000701904296875
1690838824142088400,3.89708837890625,-0.9803924560546875,0.0252838134765625,0.000885009765625
1690838824152129500,3.907129638671875,-0.98150634765625,0.0253753662109375,0.00115966796875
1690838824162169300,3.91716943359375,-0.9816741943359375,0.0259857177734375,0.0010986328125
1690838824172209400,3.92720947265625,-0.9816741943359375,0.026031494140625,0.0009918212890625
1690838824182249500,3.93724951171875,-0.981109619140625,0.0255889892578125,0.0009307861328125
1690838824192290600,3.94729052734375,-0.980804443359375,0.025115966796875,0.0010528564453125
1690838824202330600,3.95733056640625,-0.981048583984375,0.0254974365234375,0.0009765625
1690838824212370400,3.967370361328125,-0.9809722900390625,0.0256805419921875,0.0016632080078125
1690838824222411500,3.97741162109375,-0.9813232421875,0.0255126953125,0.000579833984375
1690838824232451300,3.987451416015625,-0.9813079833984375,0.025115966796875,0.000457763671875
1690838824242491400,3.997491455078125,-0.9816436767578125,0.0252685546875,0.0000762939453125
1690838824252562400,4.0075625,-0.9821929931640625,0.025970458984375,0.0008087158203125
1690838824262602500,4.0176025390625,-0.9813079833984375,0.025634765625,0.0015411376953125
1690838824272642300,4.027642333984375,-0.9814910888671875,0.02545166015625,0.0010986328125
1690838824282683400,4.037683349609375,-0.981353759765625,0.02520751953125,0.00103759765625
1690838824292723500,4.047723388671875,-0.9808502197265625,0.0254364013671875,0.0008087158203125
1690838824302763500,4.057763427734375,-0.980987548828125,0.0252838134765625,0.0006561279296875
1690838824312804400,4.067804443359375,-0.9819488525390625,0.0251617431640625,0.001312255859375
1690838824322844400,4.077844482421875,-0.98101806640625,0.0251007080078125,0.00054931640625
1690838824332884500,4.087884521484375,-0.981475830078125,0.025421142578125,0.00115966796875
1690838824342924500,4.097924560546875,-0.9805450439453125,0.0246429443359375,0.0007476806640625
1690838824352965600,4.107965576171875,-0.981292724609375,0.0255584716796875,0.00079345703125
1690838824363005400,4.11800537109375,-0.9819488525390625,0.0256805419921875,0.0012054443359375
1690838824373045500,4.12804541015625,-0.9819183349609375,0.0258026123046875,0.001007080078125
1690838824383086300,4.13808642578125,-0.9815216064453125,0.0255279541015625,0.0012664794921875
1690838824393126400,4.14812646484375,-0.9809722900390625,0.0258636474609375,0.00103759765625
1690838824403166500,4.15816650390625,-0.9798736572265625,0.025421142578125,0.000091552734375
1690838824413206500,4.16820654296875,-0.9806976318359375,0.025634765625,0.0008544921875
1690838824423277300,4.17827734375,-0.981353759765625,0.0248565673828125,0.0003204345703125
1690838824433317400,4.1883173828125,-0.9817047119140625,0.0255279541015625,0.00079345703125
1690838824443358500,4.1983583984375,-0.9808502197265625,0.026031494140625,0.001800537109375
1690838824453398500,4.2083984375,-0.98052978515625,0.0250701904296875,0.00067138671875
1690838824463438600,4.2184384765625,-0.98193359375,0.02496337890625,0.0005340576171875
1690838824473479400,4.2284794921875,-0.9828338623046875,0.02496337890625,0.0002288818359375
1690838824483519500,4.23851953125,-0.981292724609375,0.02593994140625,0.0020294189453125
1690838824493559300,4.248559326171875,-0.9809417724609375,0.0261383056640625,0.0005035400390625
1690838824503599400,4.258599365234375,-0.9805755615234375,0.025299072265625,0.0008087158203125
1690838824513640400,4.268640380859375,-0.9806365966796875,0.0252685546875,0.001190185546875
1690838824523680500,4.278680419921875,-0.98193359375,0.02557373046875,0.0009002685546875
1690838824533720600,4.288720458984375,-0.97998046875,0.0261993408203125,0.001220703125
1690838824543761400,4.298761474609375,-0.9928436279296875,0.005126953125,-0.0214691162109375
1690838824553801500,4.308801513671875,-0.9630279541015625,0.0335235595703125,-0.0010528564453125
1690838824563841500,4.318841552734375,-1.007476806640625,0.0311279296875,0.0391998291015625
1690838824573881300,4.32888134765625,-0.9642181396484375,0.0196990966796875,-0.003448486328125
1690838824583922400,4.33892236328125,-0.99468994140625,0.0229339599609375,0.01177978515625
1690838824593993500,4.348993408203125,-0.9791717529296875,0.02410888671875,-0.0059661865234375
1690838824604033500,4.359033447265625,-0.976531982421875,0.0303497314453125,-0.00970458984375
1690838824614073600,4.369073486328125,-0.9795074462890625,0.0314178466796875,-0.0085601806640625
1690838824624113700,4.37911376953125,-0.976287841796875,0.03271484375,-0.005523681640625
1690838824634154500,4.389154541015625,-0.9787750244140625,0.0348358154296875,-0.001007080078125
1690838824644194300,4.3991943359375,-0.97955322265625,0.0351409912109375,0.0057220458984375
1690838824654234400,4.409234375,-0.9788665771484375,0.0347900390625,0.0083465576171875
1690838824664275500,4.419275390625,-0.9826202392578125,0.0345611572265625,0.0091400146484375
1690838824674315500,4.4293154296875,-0.9813232421875,0.0323486328125,0.0073394775390625
1690838824684355600,4.43935546875,-0.9803924560546875,0.0293731689453125,0.00323486328125
1690838824694395600,4.449395751953125,-0.9793243408203125,0.0271453857421875,-0.00189208984375
1690838824704436500,4.4594365234375,-0.9833221435546875,0.0251007080078125,-0.004058837890625
1690838824714476500,4.4694765625,-0.97833251953125,0.023345947265625,-0.0044097900390625
1690838824724516400,4.479516357421875,-0.9835357666015625,0.0230560302734375,-0.003021240234375
1690838824734556400,4.489556396484375,-0.982269287109375,0.0214385986328125,0.0005950927734375
1690838824744597500,4.499597412109375,-0.9832763671875,0.0214996337890625,0.003997802734375
1690838824754637600,4.509637451171875,-0.9859161376953125,0.0219268798828125,0.004913330078125
1690838824764708600,4.51970849609375,-0.9831695556640625,0.0214996337890625,0.005401611328125
1690838824774748700,4.529748779296875,-0.9861602783203125,0.02178955078125,0.0035400390625
1690838824784788500,4.53978857421875,-0.9816436767578125,0.0236358642578125,0.001800537109375
1690838824794829300,4.549829345703125,-0.9817352294921875,0.0256195068359375,-0.000274658203125
1690838824804869400,4.559869384765625,-0.98126220703125,0.0277099609375,-0.0019989013671875
1690838824814909400,4.569909423828125,-0.979705810546875,0.02813720703125,-0.000823974609375
1690838824824950500,4.579950439453125,-0.9786376953125,0.029083251953125,-0.0003509521484375
1690838824834990600,4.589990478515625,-0.9804840087890625,0.0314483642578125,0.001617431640625
1690838824845030700,4.60003076171875,-0.9804840087890625,0.0321044921875,0.00238037109375
1690838824855070500,4.610070556640625,-0.9800262451171875,0.0312957763671875,0.0030059814453125
1690838824865111600,4.620111572265625,-0.98211669921875,0.03192138671875,0.0029296875
1690838824875151400,4.6301513671875,-0.9792327880859375,0.0318450927734375,0.002655029296875
1690838824885191400,4.64019140625,-0.981109619140625,0.0318756103515625,0.001190185546875
1690838824895232500,4.650232421875,-0.9798431396484375,0.0304412841796875,-0.00006103515625
1690838824905272600,4.6602724609375,-0.981536865234375,0.0292205810546875,0.0000152587890625
1690838824915312600,4.670312744140625,-0.9802398681640625,0.028228759765625,0.00030517578125
1690838824925352400,4.6803525390625,-0.980743408203125,0.0265350341796875,0.001190185546875
1690838824935423500,4.690423583984375,-0.983673095703125,0.0256805419921875,0.0020904541015625
1690838824945463300,4.70046337890625,-0.9820098876953125,0.0245361328125,0.0028839111328125
1690838824955492600,4.71049267578125,-0.9830322265625,0.0233917236328125,0.0023956298828125
1690838824965532700,4.72053271484375,-0.9838104248046875,0.0226287841796875,0.001617431640625
1690838824975572500,4.730572509765625,-0.98370361328125,0.02362060546875,0.0021820068359375
1690838824985613600,4.740613525390625,-0.98236083984375,0.025238037109375,0.00079345703125
1690838824995653600,4.750653564453125,-0.982666015625,0.02532958984375,0.00067138671875
1690838825005693700,4.760693603515625,-0.98211669921875,0.025787353515625,-0.0000152587890625
1690838825015733800,4.770733642578125,-0.9821014404296875,0.0272064208984375,0.00018310546875
1690838825025774600,4.780774658203125,-0.9821319580078125,0.0279541015625,0.0008544921875
1690838825035814700,4.790814697265625,-0.980865478515625,0.028289794921875,0.0016326904296875
1690838825045854500,4.8008544921875,-0.98114013671875,0.0289306640625,0.0025177001953125
1690838825055895800,4.810895751953125,-0.9799346923828125,0.0294952392578125,0.0026092529296875
1690838825065935600,4.820935546875,-0.97967529296875,0.0303497314453125,0.001953125
1690838825075975700,4.8309755859375,-0.980377197265625,0.0303192138671875,0.00103759765625
1690838825086015700,4.841015625,-0.979705810546875,0.0301055908203125,0.0005340576171875
1690838825096056600,4.851056640625,-0.9805755615234375,0.029815673828125,0.0003204345703125
1690838825106127600,4.861127685546875,-0.9814453125,0.028533935546875,-0.00018310546875
1690838825116167700,4.871167724609375,-0.98040771484375,0.0279693603515625,0.000579833984375
1690838825126207500,4.88120751953125,-0.9809417724609375,0.0265960693359375,0.00177001953125
1690838825136247600,4.89124755859375,-0.981842041015625,0.02593994140625,0.002349853515625
1690838825146288600,4.90128857421875,-0.981353759765625,0.0257720947265625,0.001800537109375
1690838825156328700,4.91132861328125,-0.9817657470703125,0.0251617431640625,0.002777099609375
1690838825166368800,4.92136865234375,-0.98095703125,0.0257110595703125,0.0024261474609375
1690838825176409600,4.93140966796875,-0.981781005859375,0.025299072265625,0.000823974609375
1690838825186449700,4.94144970703125,-0.982330322265625,0.0247039794921875,0.000579833984375
1690838825196489500,4.951489501953125,-0.9803009033203125,0.0252838134765625,0
1690838825206529500,4.961529541015625,-0.9830169677734375,0.0259552001953125,-0.000152587890625
1690838825216570600,4.971570556640625,-0.9811553955078125,0.02703857421875,0.0007171630859375
1690838825226610700,4.981610595703125,-0.981536865234375,0.0271148681640625,0.00115966796875
1690838825236650800,4.991650634765625,-0.9818572998046875,0.02752685546875,0.0010986328125
1690838825246690800,5.00169091796875,-0.9817657470703125,0.0285186767578125,0.0014190673828125
1690838825256731600,5.011731689453125,-0.9820404052734375,0.0288543701171875,0.0024566650390625
1690838825266771700,5.021771728515625,-0.9809722900390625,0.02911376953125,0.001373291015625
1690838825276842500,5.031842529296875,-0.9814453125,0.0291748046875,0.002593994140625
1690838825286882600,5.041882568359375,-0.9805145263671875,0.028564453125,0.001495361328125
1690838825296922600,5.051922607421875,-0.98126220703125,0.0283050537109375,-0.0000457763671875
1690838825306963700,5.061963623046875,-0.981231689453125,0.0284271240234375,0.0004730224609375
1690838825317003800,5.072003662109375,-0.980682373046875,0.0285186767578125,0.0006561279296875
1690838825327043800,5.0820439453125,-0.9803009033203125,0.0282440185546875,0.0008544921875
1690838825337084700,5.092084716796875,-0.9821319580078125,0.027862548828125,0.00042724609375
1690838825347124500,5.10212451171875,-0.980987548828125,0.0269927978515625,0.000762939453125
1690838825357164500,5.11216455078125,-0.9810791015625,0.02716064453125,0.0011749267578125
1690838825367204600,5.12220458984375,-0.9819793701171875,0.026336669921875,0.0010528564453125
1690838825377245700,5.13224560546875,-0.9801788330078125,0.0266571044921875,0.0008697509765625
1690838825387285800,5.14228564453125,-0.981475830078125,0.026458740234375,0.0020751953125
1690838825397325800,5.152325927734375,-0.98193359375,0.0258636474609375,0.0012664794921875
1690838825407366700,5.16236669921875,-0.9823150634765625,0.026763916015625,0.0018310546875
1690838825417406700,5.17240673828125,-0.9815826416015625,0.02685546875,0.0010833740234375
1690838825427446500,5.182446533203125,-0.9813690185546875,0.02703857421875,0.0009613037109375
1690838825437486600,5.192486572265625,-0.9813385009765625,0.02813720703125,0.0012359619140625
1690838825447557600,5.2025576171875,-0.98101806640625,0.0284271240234375,0.0017242431640625
1690838825457597700,5.21259765625,-0.9807891845703125,0.0279083251953125,0.0009765625
1690838825467638800,5.222638671875,-0.9801788330078125,0.0287322998046875,0.0002288818359375
1690838825477678800,5.232678955078125,-0.980926513671875,0.02911376953125,0.0006561279296875
1690838825487718700,5.24271875,-0.980621337890625,0.028411865234375,0.0007476806640625
1690838825497759500,5.252759521484375,-0.981658935546875,0.02734375,0.00146484375
1690838825507799600,5.262799560546875,-0.9810638427734375,0.02789306640625,0.001617431640625
1690838825517839600,5.272839599609375,-0.9808807373046875,0.028167724609375,0.0015869140625
1690838825527879700,5.282879638671875,-0.980804443359375,0.0271759033203125,0.0012054443359375
1690838825537920800,5.292920654296875,-0.9823455810546875,0.0281219482421875,0.001373291015625
1690838825547960800,5.3029609375,-0.9815826416015625,0.02740478515625,0.0016632080078125
1690838825558001000,5.3130009765625,-0.9812164306640625,0.0266571044921875,0.001495361328125
1690838825568041700,5.323041748046875,-0.9807586669921875,0.0269012451171875,0.0014190673828125
1690838825578081500,5.33308154296875,-0.981903076171875,0.0275115966796875,0.002197265625
1690838825588121600,5.34312158203125,-0.9819183349609375,0.0276947021484375,0.001007080078125
1690838825598161700,5.35316162109375,-0.981414794921875,0.0276031494140625,0.0013580322265625
1690838825608232700,5.363232666015625,-0.9806365966796875,0.026580810546875,0.00103759765625
1690838825618273800,5.373273681640625,-0.9803466796875,0.027313232421875,0.0008087158203125
1690838825628313900,5.38331396484375,-0.981201171875,0.02734375,0.0005035400390625
1690838825638353700,5.393353759765625,-0.9820709228515625,0.0278472900390625,0.00128173828125
1690838825648393700,5.403393798828125,-0.98126220703125,0.027557373046875,0.0013275146484375
1690838825658434600,5.4134345703125,-0.9814453125,0.027679443359375,0.00115966796875
1690838825668474600,5.423474609375,-0.981475830078125,0.0283355712890625,0.0019073486328125
1690838825678514700,5.4335146484375,-0.980682373046875,0.028533935546875,0.0010528564453125
1690838825688555800,5.4435556640625,-0.9820709228515625,0.0279541015625,0.0016937255859375
1690838825698595800,5.453595947265625,-0.981292724609375,0.027313232421875,0.0018463134765625
1690838825708635600,5.4636357421875,-0.98150634765625,0.027252197265625,0.001434326171875
1690838825718675700,5.47367578125,-0.98126220703125,0.028167724609375,0.0020294189453125
1690838825728716500,5.483716552734375,-0.980926513671875,0.0275421142578125,0.0006561279296875
1690838825738756600,5.493756591796875,-0.981201171875,0.027313232421875,0.0005340576171875
1690838825748796700,5.503796630859375,-0.98138427734375,0.02740478515625,-0.0004119873046875
1690838825758836700,5.513836669921875,-0.9809417724609375,0.026947021484375,0.0013580322265625
1690838825768877800,5.5238779296875,-0.9819488525390625,0.0264892578125,0.0016632080078125
1690838825778948900,5.533948974609375,-0.9813232421875,0.0260162353515625,0.0009918212890625
1690838825788988700,5.54398876953125,-0.9821014404296875,0.0271148681640625,0.0014495849609375
1690838825799028700,5.55402880859375,-0.98089599609375,0.0279693603515625,0.002288818359375
1690838825809068800,5.56406884765625,-0.9819183349609375,0.0268096923828125,0.0013427734375
1690838825819109600,5.574109619140625,-0.9818572998046875,0.0266571044921875,0.0013427734375
1690838825829149700,5.584149658203125,-0.9817047119140625,0.026947021484375,0.00091552734375
1690838825839189800,5.594189697265625,-0.9824981689453125,0.0272979736328125,0.00140380859375
1690838825849230800,5.60423095703125,-0.9809722900390625,0.02764892578125,0.00067138671875
1690838825859270700,5.614270751953125,-0.9806365966796875,0.0280609130859375,0.001220703125
1690838825869310700,5.624310791015625,-0.9816131591796875,0.0279693603515625,0.00079345703125
1690838825879350800,5.634350830078125,-0.980499267578125,0.0277862548828125,0.001068115234375
1690838825889391600,5.6443916015625,-0.980987548828125,0.027557373046875,0.0003814697265625
1690838825899431700,5.654431640625,-0.9812469482421875,0.02777099609375,0.0011749267578125
1690838825909471700,5.6644716796875,-0.9811248779296875,0.028533935546875,0.0012359619140625
1690838825919512800,5.674512939453125,-0.981475830078125,0.0270843505859375,0.00140380859375
1690838825929553000,5.684552978515625,-0.98126220703125,0.02801513671875,0.0008087158203125
1690838825939592700,5.6945927734375,-0.9813079833984375,0.027496337890625,0.0018768310546875
1690838825949651500,5.7046513671875,-0.9817352294921875,0.027435302734375,0.000518798828125
1690838825959691500,5.71469140625,-0.981719970703125,0.0271453857421875,0.0008087158203125
1690838825969731600,5.724731689453125,-0.981719970703125,0.0266876220703125,0.00030517578125
1690838825979772700,5.734772705078125,-0.9822540283203125,0.0265960693359375,0.0012664794921875
1690838825989812500,5.7448125,-0.9809722900390625,0.0274658203125,0.0011444091796875
1690838825999852500,5.7548525390625,-0.9809417724609375,0.0276947021484375,0.0012054443359375
1690838826009893400,5.764893310546875,-0.9814453125,0.0272979736328125,0.0009613037109375
1690838826019933400,5.774933349609375,-0.9812469482421875,0.0273895263671875,0.0008697509765625
1690838826029973500,5.784973388671875,-0.9814453125,0.02734375,0.0005645751953125
1690838826040013600,5.795013671875,-0.982269287109375,0.0275421142578125,0.001007080078125
1690838826050054700,5.8050546875,-0.981536865234375,0.0270843505859375,0.001617431640625
1690838826060094700,5.8150947265625,-0.9808807373046875,0.02783203125,0.0015411376953125
1690838826070134500,5.825134521484375,-0.9823455810546875,0.027923583984375,0.002197265625
1690838826080175400,5.83517529296875,-0.9801483154296875,0.02825927734375,0.002105712890625
1690838826090215400,5.84521533203125,-0.9811859130859375,0.0280609130859375,0.00164794921875
1690838826100255500,5.85525537109375,-0.98077392578125,0.0283355712890625,0.001434326171875
1690838826110295600,5.865295654296875,-0.98101806640625,0.028167724609375,0.0014801025390625
1690838826120366600,5.87536669921875,-0.9809722900390625,0.027496337890625,0.0012359619140625
1690838826130407700,5.88540771484375,-0.981292724609375,0.0274810791015625,0.0004119873046875
1690838826140447500,5.895447509765625,-0.9814453125,0.0276641845703125,0.0006103515625
1690838826150487300,5.9054873046875,-0.981201171875,0.0278778076171875,0.0009307861328125
1690838826160527400,5.91552734375,-0.9816436767578125,0.0272064208984375,0.0015869140625
1690838826170568400,5.925568359375,-0.9813232421875,0.02716064453125,0.001983642578125
1690838826180608500,5.9356083984375,-0.9820098876953125,0.0272979736328125,0.00140380859375
1690838826190648600,5.945648681640625,-0.9806976318359375,0.027496337890625,0.0019683837890625
1690838826200689700,5.955689697265625,-0.9814300537109375,0.02764892578125,0.00152587890625
1690838826210729500,5.9657294921875,-0.981536865234375,0.027099609375,0.000823974609375
1690838826220769300,5.975769287109375,-0.980499267578125,0.0272064208984375,0.001007080078125
1690838826230809300,5.985809326171875,-0.9811859130859375,0.0276947021484375,0.0015106201171875
1690838826240850400,5.995850341796875,-0.9817047119140625,0.0283203125,0.0009918212890625
1690838826250890500,6.005890380859375,-0.9806976318359375,0.0274505615234375,0.0010833740234375
1690838826260930600,6.0159306640625,-0.9810791015625,0.0274810791015625,0.000701904296875
1690838826270970600,6.025970703125,-0.98211669921875,0.027587890625,0.000823974609375
1690838826281011500,6.036011474609375,-0.9817962646484375,0.02783203125,0.001373291015625
1690838826291082500,6.04608251953125,-0.98126220703125,0.0276947021484375,0.0012664794921875
1690838826301122300,6.056122314453125,-0.9814453125,0.0269775390625,0.0019073486328125
1690838826311162400,6.066162353515625,-0.9809112548828125,0.02783203125,0.0016021728515625
1690838826321202400,6.076202392578125,-0.98199462890625,0.0269927978515625,0.0011138916015625
1690838826331243500,6.086243408203125,-0.9813385009765625,0.0272979736328125,0.00115966796875
1690838826341283600,6.09628369140625,-0.98175048828125,0.027862548828125,0.0010528564453125
1690838826351323400,6.106323486328125,-0.9814910888671875,0.0270843505859375,0.0009765625
1690838826361364500,6.116364501953125,-0.980987548828125,0.0275115966796875,0.0009918212890625
1690838826371404300,6.126404296875,-0.981109619140625,0.02752685546875,0.0000457763671875
1690838826381444400,6.1364443359375,-0.9814910888671875,0.0279388427734375,0.00103759765625
1690838826391484400,6.146484375,-0.9814605712890625,0.0276031494140625,0.0018157958984375
1690838826401525500,6.156525390625,-0.98114013671875,0.02734375,0.0018768310546875
1690838826411565600,6.166565673828125,-0.981292724609375,0.02783203125,0.0013580322265625
1690838826421605600,6.176605712890625,-0.9813232421875,0.027496337890625,0.0022735595703125
1690838826431646500,6.186646484375,-0.9816741943359375,0.0281524658203125,0.00079345703125
1690838826441686300,6.196686279296875,-0.9812164306640625,0.0275115966796875,0.0009613037109375
1690838826451726300,6.206726318359375,-0.981048583984375,0.0280609130859375,0.0018310546875
1690838826461797400,6.21679736328125,-0.9814605712890625,0.0277557373046875,0.0012969970703125
1690838826471837400,6.22683740234375,-0.9821319580078125,0.0276031494140625,0.0012969970703125
1690838826481877500,6.23687744140625,-0.98187255859375,0.027679443359375,0.001129150390625
1690838826491918600,6.246918701171875,-0.9811859130859375,0.027435302734375,0.0009002685546875
1690838826501958400,6.25695849609375,-0.9817352294921875,0.0275115966796875,0.0002593994140625
1690838826511998500,6.26699853515625,-0.9817352294921875,0.027130126953125,0.0013580322265625
1690838826522039300,6.277039306640625,-0.9815521240234375,0.027374267578125,0.001617431640625
1690838826532079400,6.287079345703125,-0.9818572998046875,0.0278472900390625,0.001617431640625
1690838826542119400,6.297119384765625,-0.9827728271484375,0.0272979736328125,0.0015106201171875
1690838826552159500,6.307159423828125,-0.98193359375,0.028717041015625,0.001220703125
1690838826562200600,6.31720068359375,-0.9805450439453125,0.0278778076171875,0.00146484375
1690838826572240600,6.32724072265625,-0.982177734375,0.0276947021484375,0.0011138916015625
1690838826582280400,6.337280517578125,-0.98089599609375,0.02734375,0.000823974609375
1690838826592321300,6.3473212890625,-0.980224609375,0.0273284912109375,0.001068115234375
1690838826602361300,6.357361328125,-0.981475830078125,0.027679443359375,0.0017547607421875
1690838826612401400,6.3674013671875,-0.981597900390625,0.02734375,0.0010223388671875
1690838826622441500,6.37744140625,-0.98150634765625,0.027984619140625,0.0008544921875
1690838826632512500,6.387512451171875,-0.9817047119140625,0.0281982421875,0.001068115234375
1690838826642553600,6.3975537109375,-0.981201171875,0.027679443359375,0.0016021728515625
1690838826652593400,6.407593505859375,-0.9810638427734375,0.0279998779296875,0.0016937255859375
1690838826662633500,6.417633544921875,-0.98211669921875,0.0275726318359375,0.001068115234375
1690838826672673500,6.427673583984375,-0.9811553955078125,0.02752685546875,0.000579833984375
1690838826682714400,6.43771435546875,-0.9803009033203125,0.027313232421875,0.0003204345703125
1690838826692754400,6.44775439453125,-0.98101806640625,0.0280609130859375,0.0014801025390625
1690838826702794500,6.45779443359375,-0.9820556640625,0.0283050537109375,0.00146484375
1690838826712835600,6.467835693359375,-0.9820709228515625,0.02728271484375,0.001007080078125
1690838826722875600,6.477875732421875,-0.9816436767578125,0.02734375,0.0013427734375
1690838826732915500,6.48791552734375,-0.9821624755859375,0.0277099609375,0.0013885498046875
1690838826742955500,6.49795556640625,-0.9813079833984375,0.0278167724609375,0.001434326171875
1690838826752996400,6.507996337890625,-0.98162841796875,0.02764892578125,0.0019073486328125
1690838826763036400,6.518036376953125,-0.9813690185546875,0.0281219482421875,0.001617431640625
1690838826773076500,6.528076416015625,-0.9808502197265625,0.0281524658203125,0.000762939453125
1690838826783116500,6.538116455078125,-0.9819793701171875,0.027984619140625,0.000701904296875
1690838826793157600,6.54815771484375,-0.9813232421875,0.0274200439453125,0.001739501953125
1690838826803228400,6.558228515625,-0.98028564453125,0.027496337890625,0.00103759765625
1690838826813268500,6.5682685546875,-0.980499267578125,0.0280609130859375,0.0001068115234375
1690838826823308500,6.57830859375,-0.981475830078125,0.0275726318359375,0.001220703125
1690838826833348600,6.5883486328125,-0.9814910888671875,0.0271759033203125,0.0008697509765625
1690838826843389400,6.598389404296875,-0.98114013671875,0.027587890625,0.00152587890625
1690838826853429500,6.608429443359375,-0.9818878173828125,0.0279693603515625,0.0018463134765625
1690838826863469300,6.61846923828125,-0.9813079833984375,0.027984619140625,0.0017547607421875
1690838826873510400,6.628510498046875,-0.981048583984375,0.027435302734375,0.000762939453125
1690838826883550500,6.638550537109375,-0.981903076171875,0.027923583984375,0.00146484375
1690838826893590500,6.648590576171875,-0.9817352294921875,0.02801513671875,0.000946044921875
1690838826903630600,6.658630615234375,-0.9806976318359375,0.02783203125,0.0005645751953125
1690838826913671400,6.66867138671875,-0.982025146484375,0.02801513671875,0.000518798828125
1690838826923711500,6.67871142578125,-0.981170654296875,0.0272216796875,0.0004119873046875
1690838826933751600,6.68875146484375,-0.9808502197265625,0.0278472900390625,0.0018463134765625
1690838826943792600,6.698792724609375,-0.98199462890625,0.0275726318359375,0.0015106201171875
1690838826953827000,6.7088271484375,-0.9807586669921875,0.0270843505859375,0.0002899169921875
1690838826963867100,6.7188671875,-0.9799041748046875,0.0274658203125,0.0012664794921875
1690838826973938000,6.72893798828125,-0.981292724609375,0.02783203125,0.000946044921875
1690838826983978000,6.73897802734375,-0.982421875,0.0274505615234375,0.0014801025390625
1690838826994018000,6.74901806640625,-0.9812774658203125,0.0268707275390625,0.001922607421875
1690838827004059100,6.75905908203125,-0.982330322265625,0.0279693603515625,0.0013580322265625
1690838827014099200,6.76909912109375,-0.9820404052734375,0.0279998779296875,0.000579833984375
1690838827024139300,6.77913916015625,-0.9813995361328125,0.0279388427734375,0.0014801025390625
1690838827034180000,6.78918017578125,-0.98016357421875,0.0278167724609375,0.0008697509765625
1690838827044220200,6.79922021484375,-0.9809417724609375,0.0272216796875,0.0008544921875
1690838827054260000,6.809260009765625,-0.9820556640625,0.0269012451171875,0.001617431640625
1690838827064300000,6.819300048828125,-0.9812469482421875,0.027618408203125,0.0011444091796875
1690838827074341000,6.829341064453125,-0.9808502197265625,0.0280914306640625,0.000732421875
1690838827084381200,6.839381103515625,-0.9814910888671875,0.027587890625,0.0002288818359375
1690838827094421200,6.849421142578125,-0.9810943603515625,0.02752685546875,0.0020751953125
1690838827104462000,6.859462158203125,-0.9809417724609375,0.0283203125,0.0012664794921875
1690838827114502100,6.869502197265625,-0.9812469482421875,0.0284423828125,0.0017852783203125
1690838827124542000,6.8795419921875,-0.981475830078125,0.027099609375,0.0019683837890625
1690838827134582000,6.88958203125,-0.9812469482421875,0.026947021484375,0.001190185546875
1690838827144653000,6.899653076171875,-0.9821319580078125,0.027557373046875,0.001251220703125
1690838827154694100,6.909694091796875,-0.982818603515625,0.02825927734375,0.0018768310546875
1690838827164734200,6.919734130859375,-0.9813079833984375,0.027679443359375,0.00128173828125
1690838827174774300,6.929774169921875,-0.980926513671875,0.0268402099609375,0.0019683837890625
1690838827184814300,6.939814453125,-0.9814605712890625,0.0279693603515625,0.0021820068359375
1690838827194855200,6.949855224609375,-0.980926513671875,0.0279083251953125,0.0021820068359375
1690838827204895000,6.95989501953125,-0.980255126953125,0.0273284912109375,0.0016021728515625
1690838827214935000,6.96993505859375,-0.9804840087890625,0.027191162109375,0.000732421875
1690838827224975000,6.97997509765625,-0.982208251953125,0.02691650390625,0.000732421875
1690838827235016200,6.99001611328125,-0.9812164306640625,0.027435302734375,0.001708984375
1690838827245056300,7.00005615234375,-0.980682373046875,0.0270233154296875,0.001373291015625
1690838827255096300,7.010096435546875,-0.9810638427734375,0.0272674560546875,0.001434326171875
1690838827265137200,7.02013720703125,-0.9810028076171875,0.02728271484375,0.001495361328125
1690838827275177000,7.030177001953125,-0.98052978515625,0.027984619140625,0.001312255859375
1690838827285217000,7.040217041015625,-0.9814453125,0.0273895263671875,0.00128173828125
1690838827295257000,7.050257080078125,-0.9813995361328125,0.0272064208984375,0.001678466796875
1690838827305298200,7.060298095703125,-0.9815826416015625,0.02734375,0.0016632080078125
1690838827315369200,7.070369140625,-0.9808502197265625,0.02728271484375,0.000457763671875
1690838827325409300,7.0804091796875,-0.98175048828125,0.027587890625,-0.00006103515625
1690838827335449300,7.090449462890625,-0.9814300537109375,0.02789306640625,0.00067138671875
1690838827345489200,7.1004892578125,-0.9815673828125,0.02734375,0.0010986328125
1690838827355530000,7.110530029296875,-0.9805145263671875,0.0277099609375,0.00164794921875
1690838827365570000,7.120570068359375,-0.981597900390625,0.0279083251953125,0.00189208984375
1690838827375610000,7.130610107421875,-0.9802093505859375,0.02764892578125,0.0008087158203125
1690838827385651200,7.140651123046875,-0.9814605712890625,0.0279083251953125,0.0015411376953125
1690838827395691300,7.150691162109375,-0.981109619140625,0.0274505615234375,0.0008697509765625
1690838827405731300,7.1607314453125,-0.9817962646484375,0.02728271484375,0.001251220703125
1690838827415771000,7.17077099609375,-0.981964111328125,0.0276336669921875,0.001617431640625
1690838827425812000,7.18081201171875,-0.981292724609375,0.028106689453125,0.001739501953125
1690838827435852000,7.19085205078125,-0.981231689453125,0.0275421142578125,0.00189208984375
1690838827445892000,7.20089208984375,-0.9815826416015625,0.0274505615234375,0.0011749267578125
1690838827455933200,7.21093310546875,-0.9813079833984375,0.028289794921875,0.00164794921875
1690838827465973200,7.22097314453125,-0.981201171875,0.027557373046875,0.0005645751953125
1690838827476013000,7.231012939453125,-0.98138427734375,0.0274200439453125,0.0009002685546875
1690838827486084000,7.241083984375,-0.981170654296875,0.0272369384765625,0.001678466796875
1690838827496124000,7.2511240234375,-0.981719970703125,0.0269775390625,0.0012359619140625
1690838827506164000,7.2611640625,-0.981842041015625,0.0279541015625,0.0015869140625
1690838827516205000,7.271205078125,-0.981597900390625,0.0269622802734375,0.001434326171875
1690838827526245000,7.2812451171875,-0.9806976318359375,0.0267486572265625,0.0006866455078125
1690838827536285200,7.29128515625,-0.9811248779296875,0.027130126953125,0.0012664794921875
1690838827546326300,7.301326171875,-0.9814910888671875,0.027923583984375,0.001434326171875
1690838827556366000,7.311365966796875,-0.98077392578125,0.0280914306640625,0.0009765625
1690838827566406000,7.321406005859375,-0.981903076171875,0.027557373046875,0.0011138916015625
1690838827576446000,7.331446044921875,-0.98101806640625,0.0273590087890625,0.0009613037109375
1690838827586487000,7.341487060546875,-0.9821014404296875,0.027313232421875,0.000823974609375
1690838827596527000,7.351527099609375,-0.9824981689453125,0.027435302734375,0.001220703125
1690838827606567200,7.361567138671875,-0.9809722900390625,0.0278167724609375,0.0013275146484375
1690838827616608300,7.371608154296875,-0.9814300537109375,0.0282745361328125,0.0008087158203125
1690838827626648000,7.38164794921875,-0.98101806640625,0.027618408203125,0.00146484375
1690838827636688000,7.39168798828125,-0.981536865234375,0.0277099609375,0.0011444091796875
1690838827646728000,7.40172802734375,-0.9818878173828125,0.0273590087890625,0.0008697509765625
1690838827656799000,7.411799072265625,-0.9816741943359375,0.026947021484375,0.00140380859375
1690838827666840000,7.421840087890625,-0.9802398681640625,0.0283660888671875,0.00103759765625
1690838827676880100,7.431880126953125,-0.981689453125,0.0274505615234375,0.0012359619140625
1690838827686920200,7.441920166015625,-0.981414794921875,0.028076171875,0.0007781982421875
1690838827696960300,7.451960205078125,-0.981597900390625,0.02783203125,0.000823974609375
1690838827707001000,7.4620009765625,-0.9810028076171875,0.027496337890625,0.0011444091796875
1690838827717041000,7.472041015625,-0.9812164306640625,0.026702880859375,0.002166748046875
1690838827727081000,7.4820810546875,-0.9819488525390625,0.02703857421875,0.0018463134765625
1690838827737121000,7.49212109375,-0.981475830078125,0.0283660888671875,0.0007781982421875
1690838827747162000,7.502162109375,-0.9814910888671875,0.0274810791015625,0.0015411376953125
1690838827757202200,7.5122021484375,-0.981109619140625,0.02734375,0.001953125
1690838827767242200,7.5222421875,-0.980743408203125,0.028594970703125,0.00054931640625
1690838827777283000,7.532282958984375,-0.9808197021484375,0.0280609130859375,0.0009307861328125
1690838827787323000,7.542322998046875,-0.9807586669921875,0.0276641845703125,0.001861572265625
1690838827797363000,7.552363037109375,-0.9812774658203125,0.02789306640625,0.0009918212890625
1690838827807403000,7.562403076171875,-0.9818115234375,0.0286102294921875,0.0016937255859375
1690838827817444000,7.572444091796875,-0.9813995361328125,0.0285491943359375,0.0021514892578125
1690838827827515100,7.58251513671875,-0.9813995361328125,0.028411865234375,0.0011138916015625
1690838827837555200,7.59255517578125,-0.9814605712890625,0.0271453857421875,0.0016632080078125
1690838827847595300,7.60259521484375,-0.98089599609375,0.0265960693359375,0.0005950927734375
1690838827857635000,7.612635009765625,-0.9811859130859375,0.0281829833984375,0.0010986328125
1690838827867676000,7.622676025390625,-0.981964111328125,0.027587890625,0.0020904541015625
1690838827877716000,7.632716064453125,-0.981048583984375,0.0276031494140625,0.0012359619140625
1690838827887756000,7.642756103515625,-0.98187255859375,0.02703857421875,0.0006103515625
1690838827897797000,7.652797119140625,-0.9823760986328125,0.0276641845703125,0.0010528564453125
1690838827907837200,7.662837158203125,-0.9817962646484375,0.0281524658203125,0.00164794921875
1690838827917877200,7.672877197265625,-0.981658935546875,0.02911376953125,0.00140380859375
1690838827927917000,7.6829169921875,-0.9817657470703125,0.02825927734375,0.001678466796875
1690838827937958000,7.6929580078125,-0.982025146484375,0.028076171875,0.0008544921875
1690838827947998000,7.702998046875,-0.981781005859375,0.0279998779296875,0.000091552734375
1690838827958038800,7.713038818359375,-0.9814300537109375,0.02691650390625,0.0003814697265625
1690838827968080000,7.723079833984375,-0.98150634765625,0.0274658203125,0.0007781982421875
1690838827978120000,7.733119873046875,-0.982177734375,0.028289794921875,0.0006103515625
1690838827988191000,7.74319091796875,-0.98248291015625,0.0274505615234375,0.0011444091796875
1690838827998231000,7.75323095703125,-0.9826507568359375,0.0276031494140625,0.001312255859375
1690838828008270800,7.763270751953125,-0.98138427734375,0.0290374755859375,0.001007080078125
1690838828018311000,7.773310791015625,-0.9809417724609375,0.02838134765625,0.0015716552734375
1690838828028351700,7.783351806640625,-0.9807586669921875,0.02716064453125,0.0014801025390625
1690838828038391800,7.793391845703125,-0.9810638427734375,0.02728271484375,0.001068115234375
1690838828048431900,7.803431884765625,-0.98150634765625,0.0274200439453125,0.0005645751953125
1690838828058473000,7.813472900390625,-0.9818878173828125,0.0279998779296875,0.001068115234375
1690838828068513000,7.823512939453125,-0.981903076171875,0.0285797119140625,0.0010223388671875
1690838828078553000,7.833552978515625,-0.981414794921875,0.027801513671875,0.00054931640625
1690838828088592600,7.843592529296875,-0.9811248779296875,0.027740478515625,0.001495361328125
1690838828098633700,7.8536337890625,-0.980987548828125,0.0279541015625,0.0009918212890625
1690838828108673800,7.863673828125,-0.981719970703125,0.02813720703125,0.0011138916015625
1690838828118713900,7.8737138671875,-0.982147216796875,0.0283355712890625,0.0022125244140625
1690838828128755000,7.8837548828125,-0.981231689453125,0.027618408203125,0.00189208984375
1690838828138795000,7.893794921875,-0.98175048828125,0.02801513671875,0.00079345703125
1690838828148834800,7.903834716796875,-0.9822235107421875,0.0282135009765625,0.0011138916015625
1690838828158905900,7.91390576171875,-0.98199462890625,0.0279083251953125,0.000732421875
1690838828168945700,7.923945556640625,-0.98040771484375,0.027496337890625,0.0012054443359375
1690838828178986800,7.93398681640625,-0.981109619140625,0.027740478515625,0.0010223388671875
1690838828189026800,7.94402685546875,-0.9806976318359375,0.028167724609375,0.0010528564453125
1690838828199067000,7.95406689453125,-0.9810333251953125,0.027252197265625,0.000732421875
1690838828209107000,7.96410693359375,-0.9816436767578125,0.027130126953125,0.0009002685546875
1690838828219148000,7.97414794921875,-0.98114013671875,0.0273895263671875,0.0011138916015625
1690838828229187800,7.984187744140625,-0.9815216064453125,0.02789306640625,0.0012359619140625
1690838828239227600,7.9942275390625,-0.9815826416015625,0.0275726318359375,0.0018157958984375
1690838828249267700,8.004267822265625,-0.9819183349609375,0.0282745361328125,0.001373291015625
1690838828259308800,8.014308837890624,-0.98193359375,0.02789306640625,0.0014190673828125
1690838828269348900,8.024348876953125,-0.980926513671875,0.0280303955078125,0.0016937255859375
1690838828279389000,8.034388916015626,-0.981658935546875,0.027679443359375,0.0017242431640625
1690838828289430000,8.044429931640625,-0.9788360595703125,0.027740478515625,0.001708984375
1690838828299469800,8.0544697265625,-0.958984375,0.0634307861328125,-0.0154571533203125
1690838828309509600,8.064509521484375,-1.0224456787109375,-0.0103302001953125,0.0035552978515625
1690838828319549700,8.0745498046875,-0.9636688232421875,0.03326416015625,0.025360107421875
1690838828329620700,8.084620849609376,-1.0048065185546875,0.012176513671875,0.0294189453125
1690838828339661800,8.094661865234375,-0.9864654541015625,0.01531982421875,0.00872802734375
1690838828349702000,8.104701904296874,-0.976959228515625,0.0278167724609375,-0.01171875
1690838828359742000,8.114741943359375,-0.977508544921875,0.0308074951171875,-0.015350341796875
1690838828369782000,8.124781982421876,-0.9732513427734375,0.0305938720703125,-0.016082763671875
1690838828379822800,8.13482275390625,-0.978851318359375,0.0325927734375,-0.0123443603515625
1690838828389862700,8.144862548828126,-0.9782257080078125,0.0344696044921875,-0.005706787109375
1690838828399902700,8.15490283203125,-0.9781341552734375,0.0348052978515625,0.002899169921875
1690838828409943800,8.16494384765625,-0.9825897216796875,0.0351715087890625,0.0098724365234375
1690838828419984000,8.17498388671875,-0.9830780029296875,0.0348358154296875,0.0146026611328125
1690838828430024000,8.18502392578125,-0.9825897216796875,0.03515625,0.0155487060546875
1690838828440064000,8.19506396484375,-0.9796142578125,0.0339508056640625,0.0125274658203125
1690838828450104800,8.205104736328124,-0.9857025146484375,0.033447265625,0.0071258544921875
1690838828460144600,8.21514453125,-0.9756317138671875,0.0307159423828125,-0.0002899169921875
1690838828470184700,8.225184814453126,-0.9808502197265625,0.0295562744140625,-0.00634765625
1690838828480225800,8.235225830078125,-0.978546142578125,0.0277862548828125,-0.0097198486328125
1690838828490265900,8.245265869140624,-0.97845458984375,0.0260009765625,-0.009857177734375
1690838828500337000,8.2553369140625,-0.981781005859375,0.02484130859375,-0.0071563720703125
1690838828510377000,8.265376953125,-0.979400634765625,0.02386474609375,-0.00128173828125
1690838828520416800,8.275416748046876,-0.9862213134765625,0.0236663818359375,0.0052947998046875
1690838828530456800,8.285456787109375,-0.984100341796875,0.0236663818359375,0.0098419189453125
1690838828540497700,8.29549755859375,-0.98565673828125,0.023651123046875,0.0110321044921875
1690838828550537700,8.305537841796875,-0.98541259765625,0.02410888671875,0.0089111328125
1690838828560577800,8.315577880859376,-0.98370361328125,0.023834228515625,0.0051727294921875
1690838828570619000,8.325618896484375,-0.98077392578125,0.025054931640625,0.000762939453125
1690838828580659000,8.335658935546874,-0.9822235107421875,0.026519775390625,-0.0022125244140625
1690838828590699000,8.345698974609375,-0.9809722900390625,0.0274810791015625,-0.0045623779296875
1690838828600738800,8.35573876953125,-0.97796630859375,0.0291595458984375,-0.0046234130859375
1690838828610779600,8.365779541015625,-0.98089599609375,0.0302581787109375,-0.0030059814453125
1690838828620819700,8.37581982421875,-0.9790496826171875,0.0312042236328125,-0.0008697509765625
1690838828630859800,8.38585986328125,-0.982452392578125,0.032257080078125,0.0026702880859375
1690838828640900900,8.39590087890625,-0.9802093505859375,0.032958984375,0.004669189453125
1690838828650941000,8.40594091796875,-0.981353759765625,0.033172607421875,0.0051116943359375
1690838828660981000,8.41598095703125,-0.98101806640625,0.0324554443359375,0.0048065185546875
1690838828671051800,8.4260517578125,-0.9788665771484375,0.0316925048828125,0.00286865234375
1690838828681091800,8.436091796875,-0.981353759765625,0.0317840576171875,0.0021209716796875
1690838828691132700,8.446132568359374,-0.98040771484375,0.031707763671875,0.0000762939453125
1690838828701172700,8.4561728515625,-0.9800262451171875,0.029815673828125,-0.001373291015625
1690838828711212800,8.466212890625,-0.982208251953125,0.029266357421875,-0.0013427734375
1690838828721252900,8.4762529296875,-0.98095703125,0.0274200439453125,-0.00152587890625
1690838828731294000,8.4862939453125,-0.979949951171875,0.026763916015625,0.0002288818359375
1690838828741334000,8.496333984375,-0.982635498046875,0.027099609375,0.00177001953125
1690838828751373800,8.506373779296876,-0.982452392578125,0.025390625,0.002410888671875
1690838828761414000,8.516413818359375,-0.9830780029296875,0.025054931640625,0.0032501220703125
1690838828771454700,8.526454833984374,-0.9839935302734375,0.02532958984375,0.002838134765625
1690838828781494800,8.536494873046875,-0.9815673828125,0.0252532958984375,0.0030975341796875
1690838828791534800,8.546534912109376,-0.9832611083984375,0.02593994140625,0.00225830078125
1690838828801576000,8.556575927734375,-0.981597900390625,0.027008056640625,0.0017242431640625
1690838828811616000,8.566615966796874,-0.98223876953125,0.0271453857421875,0.00054931640625
1690838828821655800,8.57665576171875,-0.9832305908203125,0.0287322998046875,-0.00054931640625
1690838828831696000,8.58669580078125,-0.9809722900390625,0.028900146484375,0.0006866455078125
1690838828841767000,8.596766845703126,-0.983551025390625,0.029327392578125,0.0011138916015625
1690838828851807700,8.606807861328125,-0.9814453125,0.0299072265625,0.00103759765625
1690838828861847800,8.616847900390624,-0.98016357421875,0.0309906005859375,0.001495361328125
1690838828871888000,8.626887939453125,-0.98077392578125,0.0312652587890625,0.0022125244140625
1690838828881928000,8.636927978515626,-0.9804229736328125,0.03125,0.001953125
1690838828891969000,8.646968994140625,-0.9799041748046875,0.0313262939453125,0.001708984375
1690838828902008800,8.6570087890625,-0.98077392578125,0.03118896484375,0.0010528564453125
1690838828912049000,8.667048828125,-0.98065185546875,0.030303955078125,0.0009918212890625
1690838828922089700,8.67708984375,-0.982025146484375,0.029937744140625,0.0014495849609375
1690838828932129800,8.6871298828125,-0.9819793701171875,0.029205322265625,0.0001373291015625
1690838828942169900,8.697169921875,-0.9808502197265625,0.0286407470703125,0.000823974609375
1690838828952194000,8.707194091796875,-0.982147216796875,0.0286407470703125,0.001373291015625
1690838828962235000,8.71723486328125,-0.9810943603515625,0.028411865234375,0.001434326171875
1690838828972275000,8.72727490234375,-0.981292724609375,0.0274200439453125,0.0010528564453125
1690838828982315000,8.73731494140625,-0.98162841796875,0.0272216796875,0.0005035400390625
1690838828992356000,8.747356201171876,-0.9814453125,0.026702880859375,0.001190185546875
1690838829002396200,8.757396240234375,-0.98260498046875,0.026702880859375,0.0013427734375
1690838829012467200,8.76746728515625,-0.9817047119140625,0.0276641845703125,0.001495361328125
1690838829022507000,8.777507080078125,-0.9814605712890625,0.0269927978515625,0.001220703125
1690838829032547000,8.787547119140624,-0.982513427734375,0.027862548828125,0.0013427734375
1690838829042587100,8.797587158203125,-0.981689453125,0.027587890625,0.002105712890625
1690838829052628000,8.8076279296875,-0.9815673828125,0.0278472900390625,0.0013580322265625
1690838829062668000,8.81766796875,-0.98040771484375,0.028717041015625,0.0020751953125
1690838829072708000,8.8277080078125,-0.9800262451171875,0.029510498046875,0.001556396484375
1690838829082749200,8.837749267578126,-0.9806365966796875,0.02947998046875,0.0007476806640625
1690838829092789200,8.847789306640625,-0.980072021484375,0.0301666259765625,0.0018157958984375
1690838829102829000,8.8578291015625,-0.980682373046875,0.0295257568359375,0.001983642578125
1690838829112869000,8.867869140625,-0.981781005859375,0.0302886962890625,0.00152587890625
1690838829122910000,8.877909912109375,-0.9812469482421875,0.0307769775390625,0.00164794921875
1690838829132950000,8.887949951171874,-0.9810638427734375,0.0301055908203125,0.0015411376953125
1690838829142990000,8.897989990234375,-0.9814453125,0.0299224853515625,0.001739501953125
1690838829153031200,8.90803125,-0.9814605712890625,0.02947998046875,0.0023193359375
1690838829163071200,8.9180712890625,-0.9816436767578125,0.029205322265625,0.0023040771484375
1690838829173111000,8.928111083984374,-0.9807281494140625,0.0288848876953125,0.0004730224609375
1690838829183182000,8.93818212890625,-0.981536865234375,0.0280303955078125,0.00079345703125
1690838829193222100,8.94822216796875,-0.9816741943359375,0.0273284912109375,0.00164794921875
1690838829203262200,8.95826220703125,-0.98175048828125,0.0267791748046875,0.00079345703125
1690838829213303000,8.968302978515625,-0.9820098876953125,0.0280914306640625,0.0006561279296875
1690838829223343000,8.978343017578124,-0.982391357421875,0.0286102294921875,0.001312255859375
1690838829233383200,8.988383056640625,-0.981964111328125,0.02850341796875,0.001678466796875
1690838829243424300,8.99842431640625,-0.9824371337890625,0.0280303955078125,0.0021514892578125
1690838829253464000,9.008464111328125,-0.9810638427734375,0.027862548828125,0.0021820068359375
1690838829263504100,9.018504150390624,-0.98193359375,0.0285797119140625,0.002410888671875
1690838829273544200,9.028544189453125,-0.9818572998046875,0.0286407470703125,0.0022735595703125
1690838829283585000,9.0385849609375,-0.981597900390625,0.029449462890625,0.001556396484375
1690838829293625000,9.048625,-0.9810791015625,0.0286865234375,0.001007080078125
1690838829303665200,9.0586650390625,-0.9803466796875,0.028656005859375,0.0011444091796875
1690838829313706200,9.068706298828126,-0.981475830078125,0.028839111328125,0.0010833740234375
1690838829323746000,9.07874609375,-0.981170654296875,0.028594970703125,0.001373291015625
1690838829333786000,9.0887861328125,-0.981414794921875,0.029052734375,0.001068115234375
1690838829343826200,9.098826171875,-0.9810333251953125,0.0294189453125,0.0009613037109375
1690838829353897200,9.108897216796874,-0.9824066162109375,0.02984619140625,0.002227783203125
1690838829363938000,9.11893798828125,-0.980926513671875,0.029296875,0.0025177001953125
1690838829373978000,9.12897802734375,-0.981353759765625,0.0291595458984375,0.002410888671875
1690838829384018000,9.139017822265625,-0.981231689453125,0.0286407470703125,0.0015106201171875
1690838829394058000,9.14905810546875,-0.980682373046875,0.028533935546875,0.0010833740234375
1690838829404099000,9.15909912109375,-0.982421875,0.0286712646484375,0.0010223388671875
1690838829414139100,9.16913916015625,-0.9809112548828125,0.02880859375,0.000885009765625
1690838829424179200,9.17917919921875,-0.9816741943359375,0.0279693603515625,0.0009765625
1690838829434220000,9.189219970703125,-0.981964111328125,0.028289794921875,0.0009765625
1690838829444260000,9.199260009765625,-0.983184814453125,0.0279388427734375,0.0006561279296875
1690838829454300200,9.209300048828124,-0.9811248779296875,0.0287017822265625,0.0019073486328125
1690838829464340000,9.219340087890625,-0.981719970703125,0.028228759765625,0.0021820068359375
1690838829474381000,9.229381103515625,-0.9813690185546875,0.028167724609375,0.002197265625
1690838829484421000,9.239421142578125,-0.9824066162109375,0.028106689453125,0.0020294189453125
1690838829494461200,9.249461181640624,-0.9820709228515625,0.02764892578125,0.0013580322265625
1690838829504502000,9.259501953125,-0.981170654296875,0.0287933349609375,0.0015716552734375
1690838829514542000,9.2695419921875,-0.98248291015625,0.029052734375,0.0005950927734375
1690838829524613000,9.279613037109375,-0.98065185546875,0.029388427734375,-0.000762939453125
1690838829534653000,9.28965283203125,-0.9814605712890625,0.02911376953125,0.00030517578125
1690838829544693000,9.29969287109375,-0.9815216064453125,0.0294647216796875,0.0014190673828125
1690838829554733000,9.309733154296875,-0.9812164306640625,0.028656005859375,0.0017242431640625
1690838829564774100,9.319774169921875,-0.9802398681640625,0.029052734375,0.001678466796875
1690838829574814200,9.329814208984375,-0.9806671142578125,0.0292205810546875,0.002105712890625
1690838829584854000,9.33985400390625,-0.9821929931640625,0.028961181640625,0.002593994140625
1690838829594895000,9.34989501953125,-0.98046875,0.02783203125,0.0026092529296875
1690838829604935200,9.35993505859375,-0.9821624755859375,0.0283966064453125,0.001800537109375
1690838829614975000,9.36997509765625,-0.98040771484375,0.028564453125,0.00128173828125
1690838829625015000,9.38001513671875,-0.981353759765625,0.0296478271484375,0.0008392333984375
1690838829635056000,9.39005615234375,-0.981353759765625,0.0288238525390625,-0.000244140625
1690838829645096000,9.400095947265624,-0.98175048828125,0.0284271240234375,-0.000823974609375
1690838829655136000,9.410135986328125,-0.98187255859375,0.0284881591796875,0.0004730224609375
1690838829665177000,9.420177001953125,-0.98077392578125,0.028961181640625,0.0015716552734375
1690838829675217200,9.430217041015625,-0.9808502197265625,0.02886962890625,0.001068115234375
1690838829685257000,9.440257080078124,-0.9813690185546875,0.0285797119140625,0.001708984375
1690838829695328000,9.450327880859374,-0.981781005859375,0.0281982421875,0.0033416748046875
1690838829705368000,9.4603681640625,-0.9809112548828125,0.0277557373046875,0.00201416015625
1690838829715408100,9.470408203125,-0.9813690185546875,0.02862548828125,0.0013580322265625
1690838829725449000,9.480448974609375,-0.9818267822265625,0.028778076171875,0.0014801025390625
1690838829735489000,9.490489013671874,-0.981597900390625,0.0290985107421875,0.001312255859375
1690838829745529000,9.500529052734375,-0.981964111328125,0.0295867919921875,-0.0002288818359375
1690838829755570200,9.510570068359375,-0.981292724609375,0.0292510986328125,0.0002899169921875
1690838829765610000,9.52060986328125,-0.9811248779296875,0.02978515625,0.00042724609375
1690838829775650000,9.530650146484374,-0.981109619140625,0.0295562744140625,0.001251220703125
1690838829785690000,9.540690185546875,-0.981292724609375,0.0290679931640625,0.001861572265625
1690838829795731000,9.55073095703125,-0.9814910888671875,0.02911376953125,0.0018768310546875
1690838829805771000,9.56077099609375,-0.98077392578125,0.029571533203125,0.0017547607421875
1690838829815811000,9.57081103515625,-0.9811553955078125,0.0288848876953125,0.0023193359375
1690838829825852200,9.58085205078125,-0.9814300537109375,0.02880859375,0.002471923828125
1690838829835892000,9.59089208984375,-0.98193359375,0.02923583984375,0.0015869140625
1690838829845932000,9.60093212890625,-0.9813690185546875,0.0289154052734375,0.0011749267578125
1690838829855972000,9.61097216796875,-0.981414794921875,0.02947998046875,0.0005340576171875
1690838829866043100,9.621043212890624,-0.9817047119140625,0.028533935546875,0.000579833984375
1690838829876084000,9.631083984375,-0.9815216064453125,0.0296173095703125,0.0004425048828125
1690838829886124000,9.6411240234375,-0.9819793701171875,0.0294189453125,0.0006103515625
1690838829896164000,9.6511640625,-0.981475830078125,0.02886962890625,0.0016326904296875
1690838829906204000,9.661203857421874,-0.9813079833984375,0.0284423828125,0.0024871826171875
1690838829916245000,9.671244873046875,-0.98052978515625,0.028564453125,0.002685546875
1690838829926285000,9.68128515625,-0.9817047119140625,0.0290679931640625,0.0023040771484375
1690838829936325000,9.6913251953125,-0.981414794921875,0.029296875,0.0015411376953125
1690838829946366000,9.701365966796875,-0.98187255859375,0.0290679931640625,0.0011138916015625
1690838829956423000,9.7114228515625,-0.98199462890625,0.028900146484375,0.0014190673828125
1690838829966463000,9.721462890625,-0.9804229736328125,0.029083251953125,0.0005340576171875
1690838829976502800,9.731502685546875,-0.981231689453125,0.028778076171875,0.00067138671875
1690838829986543900,9.7415439453125,-0.980926513671875,0.0287628173828125,0.0004425048828125
1690838829996584000,9.751583984375,-0.98114013671875,0.029296875,0.000701904296875
1690838830006623700,9.761623779296874,-0.9805450439453125,0.029266357421875,0.000457763671875
1690838830016664800,9.771664794921875,-0.980224609375,0.0295257568359375,0.001129150390625
1690838830026705000,9.781704833984374,-0.9812774658203125,0.0281829833984375,0.0019378662109375
1690838830036776000,9.79177587890625,-0.9815673828125,0.0280609130859375,0.002166748046875
1690838830046816000,9.80181591796875,-0.9804840087890625,0.0288848876953125,0.002410888671875
1690838830056855800,9.811855712890624,-0.981353759765625,0.0286712646484375,0.001739501953125
1690838830066896000,9.821895751953125,-0.9826507568359375,0.0288848876953125,0.002655029296875
1690838830076937000,9.83193701171875,-0.9819183349609375,0.028778076171875,0.0010986328125
1690838830086976800,9.841976806640625,-0.9814453125,0.028564453125,0.0013580322265625
1690838830097016800,9.852016845703124,-0.981964111328125,0.0286102294921875,0.0010223388671875
1690838830107058000,9.862057861328125,-0.980194091796875,0.02935791015625,0.0003814697265625
1690838830117097700,9.87209765625,-0.9813232421875,0.0287017822265625,0.0005340576171875
1690838830127137800,9.8821376953125,-0.9820709228515625,0.0287322998046875,0.0013427734375
1690838830137177900,9.892177734375,-0.9818115234375,0.029296875,0.0015716552734375
1690838830147219000,9.902218994140625,-0.981109619140625,0.02911376953125,0.0011138916015625
1690838830157258800,9.9122587890625,-0.9814605712890625,0.02911376953125,0.0021514892578125
1690838830167298800,9.922298828125,-0.9824981689453125,0.028900146484375,0.001922607421875
1690838830177340000,9.93233984375,-0.9814453125,0.027923583984375,0.00140380859375
1690838830187379700,9.942379638671875,-0.9811859130859375,0.0293731689453125,0.000335693359375
1690838830197419800,9.952419677734374,-0.9795684814453125,0.02984619140625,0.0012969970703125
1690838830207490800,9.96249072265625,-0.9809722900390625,0.0283966064453125,0.0009918212890625
1690838830217531000,9.97253076171875,-0.9818878173828125,0.028594970703125,0.0005950927734375
1690838830227570700,9.98257080078125,-0.9817962646484375,0.0291595458984375,0.001007080078125
1690838830237611800,9.99261181640625,-0.98187255859375,0.0290069580078125,0.0012969970703125
1690838830247651800,10.00265185546875,-0.980804443359375,0.0283355712890625,0.0015106201171875
1690838830257692000,10.01269189453125,-0.9812774658203125,0.0284576416015625,0.001251220703125
1690838830267732700,10.022732666015624,-0.9817047119140625,0.02862548828125,0.001800537109375
1690838830277772800,10.032772705078125,-0.9816741943359375,0.0286712646484375,0.0023193359375
1690838830287812900,10.042812744140624,-0.9806060791015625,0.0284271240234375,0.0019683837890625
1690838830297852700,10.052852783203125,-0.980865478515625,0.0294189453125,0.0013275146484375
1690838830307893800,10.062893798828124,-0.980743408203125,0.0296783447265625,0.00103759765625
1690838830317933800,10.072933837890625,-0.9802398681640625,0.0282135009765625,0.0006256103515625
1690838830327974000,10.082973876953124,-0.9821624755859375,0.0286712646484375,0.001220703125
1690838830338014700,10.0930146484375,-0.98187255859375,0.02923583984375,0.0015869140625
1690838830348054800,10.1030546875,-0.9810028076171875,0.02850341796875,0.0013580322265625
1690838830358094800,10.1130947265625,-0.9800872802734375,0.0283050537109375,0.000701904296875
1690838830368134700,10.123134765625,-0.98126220703125,0.0290985107421875,0.0016326904296875
1690838830378205700,10.133205810546874,-0.982940673828125,0.02850341796875,0.00189208984375
1690838830388246800,10.143246826171875,-0.98162841796875,0.0286712646484375,0.001983642578125
1690838830398286800,10.153286865234374,-0.981201171875,0.02935791015625,0.0020294189453125
1690838830408327000,10.163326904296875,-0.981964111328125,0.0283355712890625,0.0015411376953125
1690838830418367000,10.173366943359374,-0.9812469482421875,0.0287933349609375,0.001739501953125
1690838830428407800,10.18340771484375,-0.981903076171875,0.028594970703125,0.0001220703125
1690838830438447900,10.19344775390625,-0.98138427734375,0.0281829833984375,0.0003204345703125
1690838830448487700,10.20348779296875,-0.981658935546875,0.027984619140625,0.000579833984375
1690838830458528800,10.21352880859375,-0.9814453125,0.0279388427734375,0.0011749267578125
1690838830468568800,10.22356884765625,-0.981842041015625,0.02850341796875,0.001434326171875
1690838830478609000,10.23360888671875,-0.9817657470703125,0.0289154052734375,0.001220703125
1690838830488649000,10.24364892578125,-0.981536865234375,0.0287933349609375,0.0014801025390625
1690838830498689800,10.253689697265624,-0.9822235107421875,0.0281219482421875,0.001953125
1690838830508729900,10.263729736328125,-0.9810943603515625,0.0279693603515625,0.0027008056640625
1690838830518769700,10.273769775390624,-0.9811553955078125,0.0288848876953125,0.00262451171875
1690838830528810800,10.283810791015625,-0.981231689453125,0.02960205078125,0.0015869140625
1690838830538850800,10.293850830078124,-0.9807281494140625,0.028564453125,0.0007476806640625
1690838830548921900,10.303921875,-0.982025146484375,0.0287933349609375,0.0010833740234375
1690838830558962000,10.3139619140625,-0.981353759765625,0.0291900634765625,0.0009918212890625
1690838830569002000,10.324001953125,-0.98114013671875,0.02874755859375,0.0009918212890625
1690838830579042000,10.3340419921875,-0.9818572998046875,0.029083251953125,0.0007171630859375
1690838830589083000,10.344082763671874,-0.9813690185546875,0.0290985107421875,0.001556396484375
1690838830599122700,10.354122802734375,-0.981536865234375,0.028533935546875,0.0014190673828125
1690838830609162800,10.364162841796874,-0.9809417724609375,0.029266357421875,0.0016632080078125
1690838830619203800,10.374203857421875,-0.9825592041015625,0.0292510986328125,0.001495361328125
1690838830629244000,10.384243896484374,-0.982330322265625,0.028167724609375,0.0016326904296875
1690838830639284000,10.394283935546875,-0.9814453125,0.028717041015625,0.0014190673828125
1690838830649324000,10.404323974609374,-0.980743408203125,0.0291290283203125,0.00030517578125
1690838830659364900,10.41436474609375,-0.9809112548828125,0.02978515625,0.000335693359375
1690838830669404700,10.42440478515625,-0.981201171875,0.0293121337890625,0.0004425048828125
1690838830679444700,10.43444482421875,-0.981231689453125,0.0290069580078125,0.0011749267578125
1690838830689485800,10.44448583984375,-0.981903076171875,0.0292205810546875,0.001556396484375
1690838830699526000,10.45452587890625,-0.98175048828125,0.02911376953125,0.0022735595703125
1690838830709566000,10.46456591796875,-0.981536865234375,0.02862548828125,0.001953125
1690838830719637000,10.474636962890624,-0.9811859130859375,0.0275421142578125,0.0011749267578125
1690838830729677000,10.484677001953125,-0.9816131591796875,0.0291748046875,0.001373291015625
1690838830739716900,10.494716796875,-0.981781005859375,0.0292816162109375,0.001129150390625
1690838830749757700,10.5047578125,-0.982086181640625,0.02874755859375,0.0012969970703125
1690838830759797800,10.5147978515625,-0.981719970703125,0.0295562744140625,0.0008392333984375
1690838830769837800,10.524837890625,-0.98150634765625,0.02935791015625,0.0003509521484375
1690838830779879000,10.53487890625,-0.9819183349609375,0.029327392578125,0.0017852783203125
1690838830789919000,10.5449189453125,-0.9821319580078125,0.0286712646484375,0.0003509521484375
1690838830799959000,10.554958984375,-0.9816741943359375,0.028656005859375,0.0009918212890625
1690838830809998800,10.564998779296875,-0.9815826416015625,0.0282440185546875,0.0022125244140625
1690838830820039700,10.575039794921874,-0.98187255859375,0.028961181640625,0.001556396484375
1690838830830079700,10.585079833984375,-0.9820404052734375,0.029327392578125,0.0018157958984375
1690838830840119800,10.595119873046874,-0.9814605712890625,0.0286102294921875,0.001373291015625
1690838830850161000,10.605160888671875,-0.9814910888671875,0.0291748046875,0.0014801025390625
1690838830860201000,10.615200927734374,-0.981964111328125,0.0291748046875,0.0013580322265625
1690838830870241000,10.625240966796875,-0.98150634765625,0.0296478271484375,0.0015716552734375
1690838830880281000,10.635281005859374,-0.9813995361328125,0.030059814453125,0.0008392333984375
1690838830890351900,10.645351806640624,-0.9820709228515625,0.029205322265625,0.0009765625
1690838830900392700,10.655392822265625,-0.980621337890625,0.0285491943359375,0.0008392333984375
1690838830910432800,10.665432861328124,-0.980682373046875,0.029266357421875,0.000762939453125
1690838830920472800,10.675472900390625,-0.9813079833984375,0.0292816162109375,0.000701904296875
1690838830930513000,10.685512939453124,-0.9816131591796875,0.029083251953125,0.00128173828125
1690838830940554000,10.695553955078125,-0.982452392578125,0.0294189453125,0.001617431640625
1690838830950594000,10.705593994140624,-0.98150634765625,0.0290374755859375,0.0015716552734375
1690838830960601000,10.71560107421875,-0.9820404052734375,0.0298309326171875,0.0013580322265625
1690838830970642200,10.72564208984375,-0.9816436767578125,0.0287628173828125,0.0010833740234375
1690838830980682200,10.73568212890625,-0.9810028076171875,0.02862548828125,0.0012969970703125
1690838830990722300,10.745722412109375,-0.9820404052734375,0.0292510986328125,0.0009613037109375
1690838831000762000,10.75576220703125,-0.9812164306640625,0.029022216796875,0.0014495849609375
1690838831010803200,10.76580322265625,-0.981292724609375,0.0280303955078125,0.0012664794921875
1690838831020843300,10.77584326171875,-0.9810028076171875,0.028411865234375,0.0018310546875
1690838831030883000,10.785883056640625,-0.9806365966796875,0.02899169921875,0.0013885498046875
1690838831040924200,10.795924072265626,-0.9806365966796875,0.0283050537109375,0.0013580322265625
1690838831050964200,10.805964111328125,-0.9812469482421875,0.029052734375,0.0020751953125
1690838831061035300,10.81603515625,-0.9811553955078125,0.02862548828125,0.00140380859375
1690838831071075300,10.826075439453126,-0.981658935546875,0.028533935546875,0.0020599365234375
1690838831081115100,10.836115234375,-0.9809417724609375,0.0290069580078125,0.001708984375
1690838831091155200,10.8461552734375,-0.9816131591796875,0.0292510986328125,0.00177001953125
1690838831101196300,10.8561962890625,-0.9822845458984375,0.02862548828125,0.0015106201171875
1690838831111236000,10.866236083984376,-0.9814453125,0.029083251953125,0.0010986328125
1690838831121276200,10.876276123046875,-0.981292724609375,0.029815673828125,0.0011444091796875
1690838831131317200,10.886317138671876,-0.98175048828125,0.0294342041015625,0.0013580322265625
1690838831141357000,10.896357177734375,-0.981964111328125,0.0289764404296875,0.0002899169921875
1690838831151397000,10.906397216796876,-0.9809112548828125,0.0286712646484375,0.00128173828125
1690838831161437200,10.916437255859375,-0.981292724609375,0.0285186767578125,0.0014190673828125
1690838831171478300,10.926478271484376,-0.9813232421875,0.02813720703125,0.001739501953125
1690838831181518000,10.93651806640625,-0.9807281494140625,0.0292816162109375,0.0015106201171875
1690838831191558100,10.94655810546875,-0.98077392578125,0.0290679931640625,0.0018310546875
1690838831201599200,10.95659912109375,-0.9816131591796875,0.02947998046875,0.0019683837890625
1690838831211639000,10.96663916015625,-0.9810638427734375,0.0287017822265625,0.0021514892578125
1690838831221679000,10.97667919921875,-0.9817352294921875,0.0284881591796875,0.0013427734375
1690838831231750100,10.986750244140625,-0.98114013671875,0.0290679931640625,0.0012664794921875
1690838831241790200,10.996790283203126,-0.98089599609375,0.0286865234375,0.0009613037109375
1690838831251830000,11.006830078125,-0.9814300537109375,0.028533935546875,0.0011444091796875
1690838831261871000,11.01687109375,-0.9812469482421875,0.0290069580078125,0.0012054443359375
1690838831271911200,11.0269111328125,-0.981231689453125,0.0288848876953125,0.001556396484375
1690838831281951200,11.036951171875,-0.9806976318359375,0.0289764404296875,0.0014190673828125
1690838831291992000,11.046991943359375,-0.98095703125,0.0281982421875,0.00048828125
1690838831302032100,11.0570322265625,-0.9820709228515625,0.0288543701171875,0.001190185546875
1690838831312072200,11.067072265625,-0.9806976318359375,0.0290374755859375,0.0018310546875
1690838831322112000,11.077112060546876,-0.9814605712890625,0.0286712646484375,0.0011444091796875
1690838831332153000,11.087153076171875,-0.980377197265625,0.0287017822265625,0.001220703125
1690838831342193200,11.097193115234376,-0.9803924560546875,0.02899169921875,0.001495361328125
1690838831352233200,11.107233154296875,-0.9822845458984375,0.0293731689453125,0.0015411376953125
1690838831362274000,11.117274169921876,-0.981109619140625,0.0286865234375,0.0008392333984375
1690838831372314000,11.127314208984375,-0.98162841796875,0.029052734375,0.001312255859375
1690838831382354200,11.137354248046876,-0.9815826416015625,0.0286712646484375,0.0018157958984375
1690838831392394200,11.147394287109375,-0.9820404052734375,0.0287628173828125,0.001556396484375
1690838831402465000,11.157465087890625,-0.982818603515625,0.0289306640625,0.0021820068359375
1690838831412506000,11.167506103515626,-0.9812774658203125,0.028350830078125,0.0017242431640625
1690838831422546200,11.177546142578125,-0.9808349609375,0.0289154052734375,0.00164794921875
1690838831432586200,11.187586181640626,-0.9811248779296875,0.029052734375,0.0017852783203125
1690838831442626300,11.197626220703125,-0.9808807373046875,0.0284423828125,0.0016632080078125
1690838831452667100,11.207667236328126,-0.9815216064453125,0.02874755859375,0.001861572265625
1690838831462707200,11.217707275390625,-0.98095703125,0.0279693603515625,0.0015411376953125
1690838831472747000,11.2277470703125,-0.9815673828125,0.02886962890625,0.00146484375
1690838831482788000,11.2377880859375,-0.9814453125,0.0294036865234375,0.0021514892578125
1690838831492828200,11.247828125,-0.9818572998046875,0.0290985107421875,0.0027618408203125
1690838831502868200,11.2578681640625,-0.982757568359375,0.028839111328125,0.001007080078125
1690838831512908300,11.267908203125,-0.98193359375,0.0293121337890625,0.0008544921875
1690838831522949000,11.27794921875,-0.9811553955078125,0.0300140380859375,0.0015106201171875
1690838831532989200,11.2879892578125,-0.98187255859375,0.0303497314453125,0.0016326904296875
1690838831543029000,11.298029052734375,-0.9815826416015625,0.02935791015625,0.0014495849609375
1690838831553069000,11.308069091796876,-0.9813385009765625,0.0281219482421875,0.001220703125
1690838831563110100,11.318110107421875,-0.9814453125,0.0283355712890625,0.0018768310546875
1690838831573181200,11.32818115234375,-0.9816436767578125,0.029510498046875,0.001190185546875
1690838831583221200,11.33822119140625,-0.9812164306640625,0.028472900390625,0.0019378662109375
1690838831593261300,11.34826123046875,-0.9814453125,0.0287017822265625,0.0013580322265625
1690838831603301400,11.35830126953125,-0.981658935546875,0.0287017822265625,0.001739501953125
1690838831613342200,11.36834228515625,-0.981414794921875,0.0286407470703125,0.0016326904296875
1690838831623382000,11.378382080078126,-0.9818878173828125,0.029327392578125,0.0015869140625
1690838831633422000,11.388422119140625,-0.981475830078125,0.0288238525390625,0.00177001953125
1690838831643463200,11.398463134765626,-0.9818878173828125,0.02850341796875,0.001739501953125
1690838831653503200,11.408503173828125,-0.98126220703125,0.028472900390625,0.001922607421875
1690838831663543300,11.418543212890626,-0.982391357421875,0.029022216796875,0.001220703125
1690838831673583400,11.428583251953125,-0.9818267822265625,0.029296875,0.001251220703125
1690838831683624200,11.438624267578126,-0.9815826416015625,0.028656005859375,0.0019378662109375
1690838831693664000,11.4486640625,-0.9818878173828125,0.0288848876953125,0.0016021728515625
1690838831703704000,11.4587041015625,-0.982147216796875,0.0283355712890625,0.0006866455078125
1690838831713745200,11.4687451171875,-0.979949951171875,0.0289459228515625,0.00030517578125
1690838831723785200,11.47878515625,-0.979888916015625,0.0280609130859375,0.0016326904296875
1690838831733825300,11.4888251953125,-0.980743408203125,0.02899169921875,0.0019683837890625
1690838831743896300,11.498896240234375,-0.9813385009765625,0.0288848876953125,0.002044677734375
1690838831753936400,11.508936279296876,-0.981781005859375,0.028411865234375,0.0012664794921875
1690838831763976200,11.51897607421875,-0.982086181640625,0.0294342041015625,0.001617431640625
1690838831774017000,11.52901708984375,-0.9814453125,0.029266357421875,0.0016021728515625
1690838831784057000,11.53905712890625,-0.98211669921875,0.0283050537109375,0.0015106201171875
1690838831794097200,11.54909716796875,-0.9805145263671875,0.02874755859375,0.001708984375
1690838831804138200,11.55913818359375,-0.9809417724609375,0.028289794921875,0.0015106201171875
1690838831814178300,11.56917822265625,-0.981597900390625,0.02935791015625,0.0012664794921875
1690838831824218400,11.57921826171875,-0.9812469482421875,0.02972412109375,0.0023345947265625
1690838831834258200,11.589258056640626,-0.9807586669921875,0.029327392578125,0.001953125
1690838831844299000,11.599299072265625,-0.980926513671875,0.0283050537109375,0.001556396484375
1690838831854339000,11.609339111328126,-0.9817962646484375,0.02886962890625,0.001190185546875
1690838831864379100,11.619379150390625,-0.981964111328125,0.028900146484375,0.001220703125
1690838831874420200,11.629420166015626,-0.98150634765625,0.028900146484375,0.0013427734375
1690838831884460300,11.639460205078125,-0.9813232421875,0.02923583984375,0.0013885498046875
1690838831894500400,11.649500244140626,-0.981842041015625,0.0286712646484375,0.001068115234375
1690838831904540400,11.65954052734375,-0.9813232421875,0.0287628173828125,0.000640869140625
1690838831914611200,11.669611083984375,-0.9814453125,0.029052734375,0.000732421875
1690838831924652000,11.679652099609376,-0.9814605712890625,0.0281524658203125,0.0016632080078125
1690838831934692000,11.689692138671875,-0.98162841796875,0.02899169921875,0.0008392333984375
1690838831944732200,11.699732177734376,-0.981231689453125,0.029144287109375,0.0013885498046875
1690838831954772200,11.709772216796875,-0.981475830078125,0.0292510986328125,0.001617431640625
1690838831964807400,11.719807373046875,-0.9810638427734375,0.0290374755859375,0.00128173828125
1690838831974847500,11.729847412109375,-0.9813232421875,0.0296783447265625,0.0020294189453125
1690838831984887300,11.73988720703125,-0.9817352294921875,0.02899169921875,0.00189208984375
1690838831994928400,11.749928466796876,-0.9817352294921875,0.028961181640625,0.0017547607421875
1690838832004968400,11.759968505859375,-0.9822235107421875,0.0283203125,0.0021209716796875
1690838832015008500,11.770008544921875,-0.9826812744140625,0.0291748046875,0.0018463134765625
1690838832025048600,11.780048583984374,-0.981170654296875,0.029144287109375,0.0012969970703125
1690838832035089400,11.79008935546875,-0.980224609375,0.0290985107421875,0.0015716552734375
1690838832045129500,11.80012939453125,-0.9814910888671875,0.0289154052734375,0.00164794921875
1690838832055169300,11.810169189453125,-0.98150634765625,0.0279083251953125,0.0021820068359375
1690838832065209300,11.820209228515624,-0.981414794921875,0.028472900390625,0.00152587890625
1690838832075250400,11.83025048828125,-0.9808807373046875,0.0283660888671875,0.00189208984375
1690838832085321500,11.840321533203126,-0.980194091796875,0.02996826171875,0.0012359619140625
1690838832095361500,11.850361572265625,-0.981842041015625,0.029296875,0.0015106201171875
1690838832105401600,11.860401611328125,-0.9813690185546875,0.02838134765625,0.001739501953125
1690838832115441400,11.87044140625,-0.9813995361328125,0.029632568359375,0.0012359619140625
1690838832125482200,11.880482177734375,-0.981597900390625,0.0290374755859375,0.000823974609375
1690838832135522300,11.890522216796874,-0.9822540283203125,0.028778076171875,0.00103759765625
1690838832145562400,11.900562255859375,-0.9817962646484375,0.02935791015625,0.0020294189453125
1690838832155603500,11.910603515625,-0.9810943603515625,0.0294952392578125,0.0012054443359375
1690838832165643500,11.9206435546875,-0.9808197021484375,0.0292816162109375,0.0009307861328125
1690838832175683600,11.93068359375,-0.9814910888671875,0.029876708984375,0.0018768310546875
1690838832185723600,11.9407236328125,-0.9815826416015625,0.0286407470703125,0.00146484375
1690838832195764500,11.950764404296875,-0.980682373046875,0.0294647216796875,0.001434326171875
1690838832205804300,11.96080419921875,-0.98114013671875,0.02874755859375,0.0012054443359375
1690838832215844400,11.97084423828125,-0.9805450439453125,0.0290069580078125,0.0017547607421875
1690838832225885400,11.980885498046876,-0.9806671142578125,0.029327392578125,0.0012359619140625
1690838832235925500,11.990925537109375,-0.982330322265625,0.0294036865234375,0.001251220703125
1690838832245965600,12.000965576171875,-0.9824371337890625,0.0294647216796875,0.0012054443359375
1690838832256005600,12.011005615234374,-0.9815826416015625,0.0298004150390625,0.0011138916015625
1690838832266076400,12.021076416015624,-0.9818572998046875,0.029876708984375,0.0020294189453125
1690838832276116500,12.031116455078125,-0.982818603515625,0.02899169921875,0.0009765625
1690838832286157300,12.0411572265625,-0.9817657470703125,0.02935791015625,0.001220703125
1690838832296197400,12.051197265625,-0.9817047119140625,0.0298614501953125,0.0009918212890625
1690838832306237400,12.061237548828124,-0.98150634765625,0.0289306640625,0.0014495849609375
1690838832316278500,12.071278564453126,-0.9815216064453125,0.0291290283203125,0.00079345703125
1690838832326318600,12.081318603515625,-0.9812469482421875,0.0292510986328125,0.0008392333984375
1690838832336358700,12.091358642578125,-0.9818572998046875,0.0298614501953125,0.0013275146484375
1690838832346398500,12.1013984375,-0.9817352294921875,0.0292205810546875,0.0015106201171875
1690838832356439300,12.111439208984375,-0.9810333251953125,0.02899169921875,0.0011138916015625
1690838832366479400,12.121479248046874,-0.9808807373046875,0.0288238525390625,0.0018157958984375
1690838832376519400,12.13151953125,-0.9809722900390625,0.029449462890625,0.0014801025390625
1690838832386560500,12.141560546875,-0.981719970703125,0.0289154052734375,0.0017242431640625
1690838832396600600,12.1516005859375,-0.9811248779296875,0.028533935546875,0.00164794921875
1690838832406640600,12.161640625,-0.98114013671875,0.0287017822265625,0.0022125244140625
1690838832416680400,12.171680419921875,-0.980926513671875,0.029327392578125,0.0018768310546875
1690838832426721300,12.18172119140625,-0.98089599609375,0.02911376953125,0.0014801025390625
1690838832436792300,12.191792236328125,-0.9811859130859375,0.0294189453125,0.0016937255859375
1690838832446832400,12.201832275390625,-0.9819488525390625,0.0295562744140625,0.0021209716796875
1690838832456872400,12.21187255859375,-0.972503662109375,0.0294952392578125,0.003082275390625
1690838832466912500,12.22191259765625,-0.98309326171875,-0.0031890869140625,-0.0388336181640625
1690838832476953600,12.23195361328125,-0.9988555908203125,0.05560302734375,-0.0050811767578125
1690838832486993700,12.24199365234375,-0.95867919921875,0.0289459228515625,0.041900634765625
1690838832497033500,12.252033447265624,-0.9863739013671875,0.0410614013671875,0.020660400390625
1690838832507074300,12.26207421875,-0.9879302978515625,0.0571441650390625,0.032562255859375
1690838832517114400,12.2721142578125,-0.973175048828125,0.030853271484375,-0.0091705322265625
1690838832527154400,12.282154541015625,-0.9848785400390625,0.02093505859375,0.002044677734375
1690838832537194500,12.292194580078124,-0.981414794921875,0.01629638671875,-0.0066375732421875
1690838832547235600,12.302235595703126,-0.9837799072265625,0.0120391845703125,-0.0162200927734375
1690838832557275600,12.312275634765625,-0.981689453125,0.0149383544921875,-0.01287841796875
1690838832567315500,12.3223154296875,-0.980804443359375,0.018585205078125,-0.009002685546875
1690838832577355300,12.332355224609374,-0.9820709228515625,0.02191162109375,-0.00201416015625
1690838832587396400,12.342396240234375,-0.985992431640625,0.0236663818359375,0.005462646484375
1690838832597436400,12.3524365234375,-0.9795684814453125,0.0243072509765625,0.00982666015625
1690838832607507500,12.362507568359375,-0.986328125,0.0237274169921875,0.012176513671875
1690838832617547500,12.372547607421875,-0.9884033203125,0.0236358642578125,0.0112762451171875
1690838832627587300,12.38258740234375,-0.981292724609375,0.0240325927734375,0.0084991455078125
1690838832637628700,12.392628662109376,-0.9858856201171875,0.02557373046875,0.0054168701171875
1690838832647668500,12.40266845703125,-0.9810943603515625,0.0280303955078125,0.0020294189453125
1690838832657708300,12.412708251953125,-0.9795074462890625,0.0316009521484375,-0.001617431640625
1690838832667749400,12.422749267578125,-0.977447509765625,0.033935546875,-0.003570556640625
1690838832677789400,12.43278955078125,-0.9758148193359375,0.0341339111328125,-0.004119873046875
1690838832687829500,12.44282958984375,-0.980194091796875,0.0339508056640625,-0.00445556640625
1690838832697869600,12.45286962890625,-0.97589111328125,0.0337677001953125,-0.003753662109375
1690838832707910700,12.46291064453125,-0.978607177734375,0.0353546142578125,-0.001312255859375
1690838832717950500,12.472950439453125,-0.981414794921875,0.0354156494140625,0.001129150390625
1690838832727990300,12.482990234375,-0.979888916015625,0.0334930419921875,0.004241943359375
1690838832738031400,12.49303125,-0.9797210693359375,0.032928466796875,0.0074005126953125
1690838832748071400,12.503071533203125,-0.9835357666015625,0.0325469970703125,0.00811767578125
1690838832758111500,12.513111572265625,-0.9798431396484375,0.0316314697265625,0.00701904296875
1690838832768151600,12.523151611328124,-0.980804443359375,0.0310516357421875,0.005889892578125
1690838832778222300,12.533222412109374,-0.9827117919921875,0.0276336669921875,0.001953125
1690838832788262400,12.543262451171875,-0.980621337890625,0.0263519287109375,-0.0008544921875
1690838832798303500,12.553303466796875,-0.9826507568359375,0.0252685546875,-0.002166748046875
1690838832808343300,12.56334326171875,-0.9809417724609375,0.023712158203125,-0.003692626953125
1690838832818383400,12.57338330078125,-0.9843902587890625,0.0222015380859375,-0.002685546875
1690838832828424400,12.583424560546876,-0.9835052490234375,0.0229949951171875,-0.000457763671875
1690838832838464500,12.593464599609375,-0.981689453125,0.023284912109375,0.0014801025390625
1690838832848504600,12.603504638671875,-0.984130859375,0.023773193359375,0.0034027099609375
1690838832858544400,12.61354443359375,-0.983428955078125,0.0237274169921875,0.00390625
1690838832868585500,12.62358544921875,-0.983001708984375,0.025146484375,0.005126953125
1690838832878625300,12.633625244140624,-0.98394775390625,0.025909423828125,0.004852294921875
1690838832888665300,12.643665283203125,-0.9835662841796875,0.025421142578125,0.0037994384765625
1690838832898706400,12.65370654296875,-0.9814605712890625,0.026885986328125,0.0027008056640625
1690838832908746500,12.66374658203125,-0.9813690185546875,0.0284576416015625,0.000640869140625
1690838832918786600,12.67378662109375,-0.979522705078125,0.030242919921875,-0.0003662109375
1690838832928826400,12.683826416015625,-0.979522705078125,0.0311737060546875,-0.000518798828125
1690838832938867500,12.693867431640625,-0.9802398681640625,0.0316162109375,-0.0009918212890625
1690838832948938500,12.7039384765625,-0.9806976318359375,0.0318756103515625,0.0009307861328125
1690838832958992400,12.713992431640625,-0.9803314208984375,0.03240966796875,0.0015869140625
1690838832969032400,12.724032470703126,-0.97998046875,0.0326080322265625,0.00177001953125
1690838832979072300,12.734072265625,-0.981414794921875,0.0318145751953125,0.00262451171875
1690838832989113300,12.74411328125,-0.98150634765625,0.032135009765625,0.0031890869140625
1690838832999153400,12.7541533203125,-0.9805755615234375,0.03125,0.004364013671875
1690838833009193500,12.764193359375,-0.981658935546875,0.0313568115234375,0.0035247802734375
1690838833019234300,12.774234375,-0.980621337890625,0.0298309326171875,0.0023193359375
1690838833029274400,12.7842744140625,-0.981231689453125,0.0292816162109375,0.0008697509765625
1690838833039314400,12.794314453125,-0.9821319580078125,0.0283355712890625,0.000457763671875
1690838833049354500,12.8043544921875,-0.9813385009765625,0.027008056640625,-0.000030517578125
1690838833059395600,12.8143955078125,-0.981842041015625,0.0265655517578125,-0.0005340576171875
1690838833069435400,12.824435302734376,-0.982177734375,0.0261993408203125,-0.0005645751953125
1690838833079475500,12.834475341796875,-0.98175048828125,0.026275634765625,0.0004425048828125
1690838833089515500,12.844515625,-0.9830169677734375,0.0265350341796875,0.0017852783203125
1690838833099556400,12.854556396484375,-0.98211669921875,0.0256500244140625,0.00341796875
1690838833109596400,12.864596435546876,-0.9823150634765625,0.02557373046875,0.00372314453125
1690838833119667500,12.87466748046875,-0.98516845703125,0.0259857177734375,0.003387451171875
1690838833129707300,12.884707275390625,-0.981658935546875,0.026123046875,0.0023345947265625
1690838833139747300,12.894747314453125,-0.9819793701171875,0.0261688232421875,0.002593994140625
1690838833149788400,12.904788330078125,-0.9826507568359375,0.027252197265625,0.0014495849609375
1690838833159828500,12.914828369140626,-0.9813232421875,0.02880859375,0.0016326904296875
1690838833169868500,12.92486865234375,-0.9814910888671875,0.0286407470703125,0.0005645751953125
1690838833179909400,12.934909423828126,-0.980621337890625,0.029388427734375,0.000152587890625
1690838833189949400,12.944949462890625,-0.9806671142578125,0.0297088623046875,0.000823974609375
1690838833199989200,12.9549892578125,-0.9809722900390625,0.030517578125,0.00079345703125
1690838833210029300,12.965029296875,-0.980712890625,0.0306549072265625,0.0017547607421875
1690838833220070400,12.9750703125,-0.9811553955078125,0.030609130859375,0.002044677734375
1690838833230110500,12.9851103515625,-0.9810791015625,0.0306243896484375,0.0028839111328125
1690838833240150500,12.995150634765626,-0.9810028076171875,0.0307769775390625,0.0026397705078125
1690838833250191400,13.00519140625,-0.981719970703125,0.0301055908203125,0.0021820068359375
1690838833260231400,13.0152314453125,-0.9815216064453125,0.0294036865234375,0.0023345947265625
1690838833270271500,13.025271484375,-0.9809417724609375,0.02947998046875,0.0016632080078125
1690838833280311300,13.035311279296875,-0.9814300537109375,0.0285797119140625,0.00146484375
1690838833290382300,13.04538232421875,-0.9808349609375,0.0273895263671875,0.0013885498046875
1690838833300422400,13.05542236328125,-0.9803619384765625,0.027496337890625,0.0007781982421875
1690838833310463500,13.06546337890625,-0.9814300537109375,0.028289794921875,0.001129150390625
1690838833320503600,13.075503662109375,-0.9818878173828125,0.0276031494140625,0.0014801025390625
