time,seconds_elapsed,z,y,x
1690838820359263500,0.114263427734375,-0.005513009615242481,-0.0037859496660530567,-0.12983283400535583
1690838820369303600,0.124303466796875,-0.00618172949180007,-0.0054514906369149685,-0.1320429891347885
1690838820379343400,0.13434326171875,-0.003460245206952095,-0.0049553439021110535,-0.12571825087070465
1690838820389384200,0.14438427734375,-0.006351106334477663,-0.008162588812410831,-0.11157073825597763
1690838820399424300,0.15442431640625,-0.005801962688565254,-0.008798285387456417,-0.09304605424404144
1690838820409495300,0.164495361328125,-0.004240285139530897,-0.008549279533326626,-0.06724321842193604
1690838820419535400,0.174535400390625,-0.0034202977549284697,-0.005958556663244963,-0.0399724505841732
1690838820429575400,0.184575439453125,-0.00555295730009675,-0.0011566109023988247,-0.010308563709259033
1690838820439616500,0.194616455078125,-0.006162820849567652,-0.00040426786290481687,0.014668158255517483
1690838820449656300,0.20465625,-0.005047755315899849,0.001936650718562305,0.036562006920576096
1690838820459696400,0.2146962890625,-0.005604622419923544,0.007179616019129753,0.05470772087574005
1690838820469737200,0.2247373046875,-0.005151352379471064,0.003736414946615696,0.06294327974319458
1690838820479777300,0.23477734375,-0.004181429278105497,0.004168912302702665,0.06876308470964432
1690838820489817300,0.2448173828125,-0.004525509662926197,0.0019092201255261898,0.06341678649187088
1690838820499857400,0.254857421875,-0.0046818372793495655,0.0002258360618725419,0.04880855232477188
1690838820509898500,0.2648984375,-0.004373176954686642,-0.0030517163686454296,0.03229828551411629
1690838820519938600,0.2749384765625,-0.004311391618102789,-0.0008777778712101281,0.011444934643805027
1690838820529978400,0.284978271484375,-0.004896754398941994,-0.00013076121103949845,-0.011026818305253983
1690838820540019200,0.295019287109375,-0.005000883713364601,-0.00264824740588665,-0.033783797174692154
1690838820550059300,0.305059326171875,-0.0046940878964960575,-0.0016711335629224777,-0.05649656429886818
1690838820560099300,0.315099365234375,-0.004643754102289677,-0.003142263740301132,-0.0707402154803276
1690838820570139400,0.325139404296875,-0.006865096744149923,-0.004147873260080814,-0.08041068911552429
1690838820580210400,0.33521044921875,-0.005474127363413572,-0.005567871034145355,-0.08824969828128815
1690838820590250200,0.345250244140625,-0.004342550411820412,-0.005957757588475943,-0.08541928976774216
1690838820600291300,0.355291259765625,-0.003829625668004155,-0.007041131611913443,-0.07736615836620331
1690838820610331400,0.365331298828125,-0.005377987399697304,-0.0049348375760018826,-0.06578833609819412
1690838820620371500,0.375371337890625,-0.005065065808594227,-0.0032234902027994394,-0.05446004495024681
1690838820630412300,0.385412353515625,-0.0051715923473238945,-0.0012128035305067897,-0.0357031375169754
1690838820640452400,0.395452392578125,-0.004141747951507568,-0.000014647385796706658,-0.017893247306346893
1690838820650492400,0.405492431640625,-0.0067934575490653515,-0.0007187871960923076,-0.0016255935188382864
1690838820660532200,0.4155322265625,-0.005145493429154158,0.000708134553860873,0.012205267325043678
1690838820670573600,0.425573486328125,-0.0055060856975615025,0.001163002452813089,0.0222091656178236
1690838820680613400,0.43561328125,-0.004782504867762327,-0.0011646003695204854,0.029736855998635292
1690838820690653400,0.4456533203125,-0.005016862880438566,0.000663393409922719,0.031189611181616783
1690838820700694300,0.4556943359375,-0.0052016861736774445,-0.0012831110507249832,0.028622856363654137
1690838820710734300,0.465734375,-0.00688933115452528,0.0002972087822854519,0.02165256440639496
1690838820720774400,0.4757744140625,-0.004859203472733498,0.0004261057765688747,0.010644388385117054
1690838820730814500,0.485814453125,-0.00526613462716341,0.000333161442540586,-0.0026876621413975954
1690838820740855600,0.49585546875,-0.0065010422840714455,0.008313589729368687,-0.009313606657087803
1690838820750925300,0.50592529296875,-0.005097290500998497,-0.0026282735634595156,-0.03129853308200836
1690838820760966400,0.51596630859375,-0.004189418628811836,-0.0008953547803685069,-0.04181588813662529
1690838820771006500,0.52600634765625,-0.005529255140572786,-0.004570783115923405,-0.04964771494269371
1690838820781046300,0.53604638671875,-0.0046544065698981285,-0.003990480676293373,-0.05566326156258583
1690838820791087400,0.54608740234375,-0.00555162550881505,-0.007056311704218388,-0.05884414166212082
1690838820801127400,0.55612744140625,-0.004810467828065157,-0.005045358557254076,-0.05717487260699272
1690838820811167200,0.566167236328125,-0.0044291033409535885,-0.005816876422613859,-0.05229676142334938
1690838820821207300,0.576207275390625,-0.004196609370410442,-0.003290868131443858,-0.044676922261714935
1690838820831248400,0.586248291015625,-0.0036812876351177692,-0.0021108214277774096,-0.034807782620191574
1690838820841288400,0.596288330078125,-0.004795820452272892,-0.002642654813826084,-0.02678074687719345
1690838820851328300,0.606328369140625,-0.005530586466193199,-0.0024881914723664522,-0.016652479767799377
1690838820861369300,0.616369384765625,-0.0038216360844671726,-0.0010807107901200652,-0.007844340987503529
1690838820871409400,0.626409423828125,-0.0037582528311759233,-0.0032325449865311384,0.00020666129421442747
1690838820881449500,0.636449462890625,-0.006539125461131334,-0.0016556872287765145,0.006317817140370607
1690838820891489300,0.6464892578125,-0.005514341406524181,-0.001350488979369402,0.010855310596525669
1690838820901530400,0.6565302734375,-0.004801413044333458,-0.001796834752894938,0.0072901370003819466
1690838820911570400,0.6665703125,-0.004509530495852232,-0.0006005428149364889,0.006406234111636877
1690838820921641500,0.676641357421875,-0.0033894050866365433,-0.004030694253742695,0.0004724447790067643
1690838820931681300,0.686681396484375,-0.0027984497137367725,0.00035659727291204035,-0.005405418109148741
1690838820941721300,0.696721435546875,-0.0038482677191495895,-0.00002663161103555467,-0.015422365628182888
1690838820951749400,0.706749267578125,-0.003835750976577401,-0.0020149475894868374,-0.023742081597447395
1690838820961789400,0.71678955078125,-0.005076251458376646,0.0009832390351220965,-0.03014991246163845
1690838820971829500,0.72682958984375,-0.005646966863423586,-0.002373941708356142,-0.035595010966062546
1690838820981870300,0.736870361328125,-0.0057676080614328384,-0.001160339335910976,-0.03879613056778908
1690838820991910100,0.74691015625,-0.0062392535619437695,-0.003114566905423999,-0.0414731428027153
1690838821001950200,0.7569501953125,-0.00484402384608984,-0.004760666750371456,-0.0407269224524498
1690838821011990300,0.766990234375,-0.004280498716980219,-0.001505484920926392,-0.038716237992048264
1690838821022031400,0.77703125,-0.003561977995559573,-0.0051681301556527615,-0.03734870254993439
1690838821032071400,0.787071533203125,-0.005497829522937536,-0.0013627394801005721,-0.030130205675959587
1690838821042111500,0.797111572265625,-0.006024336442351341,-0.002558498876169324,-0.025439845398068428
1690838821052151300,0.8071513671875,-0.004048803821206093,-0.0026082999538630247,-0.01835450530052185
1690838821062192000,0.817192138671875,-0.006185458041727543,0.0002460760879330337,-0.013815946877002716
1690838821072232200,0.827232177734375,-0.004061320796608925,-0.0007749798824079335,-0.009703760035336018
1690838821082272300,0.837272216796875,-0.004899950232356787,0.0008436894277110696,-0.005860285833477974
1690838821092343300,0.84734326171875,-0.004705273080617189,-0.0006617955514229834,-0.004289819858968258
1690838821102383400,0.85738330078125,-0.0043473439291119576,-0.002222940558567643,-0.002835467690601945
1690838821112424400,0.867424560546875,-0.005428321193903685,-0.001073786523193121,-0.003879693103954196
1690838821122464500,0.877464599609375,-0.0046908920630812645,0.00021891183860134333,-0.006936735473573208
1690838821132504300,0.88750439453125,-0.004216316621750593,-0.0022620889358222485,-0.011564244516193867
1690838821142545200,0.897545166015625,-0.004661330953240395,-0.0014117417158558965,-0.016442622989416122
1690838821152585200,0.907585205078125,-0.004406732507050037,-0.004293814767152071,-0.02382437326014042
1690838821162625300,0.917625244140625,-0.006743390113115311,-0.0043444144539535046,-0.025353293865919113
1690838821172665300,0.927665283203125,-0.006904511246830225,-0.0030338731594383717,-0.030178675428032875
1690838821182706400,0.93770654296875,-0.006417685654014349,-0.004274639766663313,-0.03256167098879814
1690838821192746500,0.94774658203125,-0.005301821045577526,-0.0011030812747776508,-0.0338708832859993
1690838821202786300,0.957786376953125,-0.005528722424060106,-0.0008351673022843897,-0.031673774123191833
1690838821212827100,0.9678271484375,-0.005474660079926252,-0.0023672839161008596,-0.031071100383996964
1690838821222867200,0.9778671875,-0.0065535069443285465,-0.002843723399564624,-0.0312814898788929
1690838821232907300,0.9879072265625,-0.005311941262334585,-0.002671416848897934,-0.026875821873545647
1690838821242947300,0.997947265625,-0.005018194206058979,-0.004455734975636005,-0.02232607826590538
1690838821252988400,1.007988525390625,-0.0054365769028663635,-0.0034991272259503603,-0.0212448351085186
1690838821263058400,1.018058349609375,-0.00437956815585494,-0.0013281183782964945,-0.015154185704886913
1690838821273099500,1.028099609375,-0.0038013961166143417,-0.0037177728954702616,-0.012947224080562592
1690838821283139300,1.038139404296875,-0.0041151163168251514,-0.002644518855959177,-0.011538677848875523
1690838821293179400,1.048179443359375,-0.003811516100540757,-0.0016682040877640247,-0.009669938124716282
1690838821303220200,1.05822021484375,-0.005785184912383556,-0.0011488876771181822,-0.010356767103075981
1690838821313260300,1.06826025390625,-0.005303951445966959,-0.0007510114228352904,-0.010839864611625671
1690838821323300400,1.07830029296875,-0.005391303449869156,-0.001362473238259554,-0.0118529312312603
1690838821333340400,1.08834033203125,-0.0043739755637943745,-0.0020940436515957117,-0.016929714009165764
1690838821343381500,1.098381591796875,-0.00678227236494422,-0.0009038768475875258,-0.01997370831668377
1690838821353421300,1.10842138671875,-0.005409146659076214,-0.0024399880785495043,-0.023733025416731834
1690838821363461400,1.11846142578125,-0.005034173373132944,-0.005873868241906166,-0.026852119714021683
1690838821373502200,1.128502197265625,-0.0049795787781476974,-0.0036048549227416515,-0.02876187302172184
1690838821383542300,1.138542236328125,-0.005714344792068005,-0.0025068335235118866,-0.028783177956938744
1690838821393582300,1.148582275390625,-0.003884486621245742,0.0002902845444623381,-0.02900848165154457
1690838821403622400,1.158622314453125,-0.005789712071418762,-0.001683384063653648,-0.027765052393078804
1690838821413663500,1.16866357421875,-0.004318315535783768,0.00041625206358730793,-0.026091787964105606
1690838821423703300,1.178703369140625,-0.004893025849014521,-0.00205276464112103,-0.024297349154949188
1690838821433774300,1.1887744140625,-0.005374525208026171,-0.0026375947054475546,-0.021013937890529633
1690838821443814400,1.198814453125,-0.00643845833837986,-0.003855458227917552,-0.01992816850543022
1690838821453854200,1.208854248046875,-0.005110339727252722,-0.0018335863715037704,-0.018786204978823662
1690838821463895300,1.218895263671875,-0.002710299100726843,-0.0041486723348498344,-0.017418405041098595
1690838821473935400,1.228935302734375,-0.004048271104693413,-0.0016293219523504376,-0.01654968224465847
1690838821483975400,1.238975341796875,-0.004994758404791355,-0.00047377636656165123,-0.012377041392028332
1690838821494016500,1.2490166015625,-0.004295146092772484,-0.00242187874391675,-0.014727813191711903
1690838821504056300,1.259056396484375,-0.004552940372377634,-0.0020066918805241585,-0.012371715158224106
1690838821514096400,1.269096435546875,-0.003947603516280651,-0.0007789746159687638,-0.014941398985683918
1690838821524136200,1.27913623046875,-0.004816859494894743,-0.0012812467757612467,-0.01554993074387312
1690838821534177300,1.28917724609375,-0.0049470881931483746,-0.0008191883680410683,-0.018571287393569946
1690838821544217300,1.29921728515625,-0.004341751337051392,-0.002642122097313404,-0.01944054290652275
1690838821554257400,1.30925732421875,-0.004545216914266348,-0.0007590008899569511,-0.021247498691082
1690838821564297200,1.319297119140625,-0.004742290824651718,-0.002005093963816762,-0.023662718012928963
1690838821574338300,1.32933837890625,-0.003148389048874378,-0.0030652983114123344,-0.02472931519150734
1690838821584378400,1.33937841796875,-0.003910852130502462,-0.0022892532870173454,-0.025529328733682632
1690838821594418200,1.349418212890625,-0.00532632227987051,-0.0037555897142738104,-0.02388562448322773
1690838821604489200,1.3594892578125,-0.005035771057009697,-0.00318966805934906,-0.025251826271414757
1690838821614529300,1.369529296875,-0.005155347287654877,-0.0005334311863407493,-0.02255857177078724
1690838821624570400,1.3795703125,-0.00563897704705596,-0.0010780475568026304,-0.020014453679323196
1690838821634610400,1.3896103515625,-0.005584116093814373,-0.0025835325941443443,-0.020621655508875847
1690838821644650200,1.399650146484375,-0.00478303711861372,-0.0010253170039504766,-0.01853666640818119
1690838821654691300,1.40969140625,-0.005910619627684355,-0.00006258428766159341,-0.01810683123767376
1690838821664731400,1.4197314453125,-0.0057710702531039715,-0.0037414750549942255,-0.01817847043275833
1690838821674771200,1.429771240234375,-0.005110339727252722,-0.0000679106087773107,-0.01902136206626892
1690838821684811300,1.439811279296875,-0.005619269795715809,-0.0015046859625726938,-0.017732657492160797
1690838821694852400,1.449852294921875,-0.00427357479929924,-0.004562793765217066,-0.018554508686065674
1690838821704892400,1.459892333984375,-0.005243231542408466,-0.0023105584550648928,-0.01840643770992756
1690838821714932200,1.46993212890625,-0.004053863696753979,-0.0011369034182280302,-0.018132664263248444
1690838821724973300,1.479973388671875,-0.005001416429877281,-0.001871136948466301,-0.01834465190768242
1690838821735013000,1.49001318359375,-0.0055060856975615025,-0.0009629990672692657,-0.020133230835199356
1690838821745053200,1.50005322265625,-0.006661098450422287,-0.0009462211164645851,-0.01913241483271122
1690838821755093200,1.51009326171875,-0.005065065808594227,-0.0023941819090396166,-0.021199295297265053
1690838821765134300,1.52013427734375,-0.005323126446455717,-0.0011821772204712033,-0.02117878757417202
1690838821775204400,1.530204345703125,-0.003922037314623594,0.0001968075957847759,-0.021342040970921516
1690838821785245400,1.540245361328125,-0.004854942671954632,-0.0003885551996063441,-0.022334599867463112
1690838821795285200,1.55028515625,-0.0062789348885416985,-0.0034072482958436012,-0.020264791324734688
1690838821805325300,1.5603251953125,-0.004835501778870821,-0.0028458540327847004,-0.021331386640667915
1690838821815366100,1.5703662109375,-0.0036693033762276173,-0.003320429241284728,-0.02056732587516308
1690838821825406200,1.58040625,-0.0054791877046227455,-0.0017270599491894245,-0.019083678722381592
1690838821835446300,1.5904462890625,-0.004542820155620575,0.000794420950114727,-0.0193081833422184
1690838821845486300,1.600486328125,-0.005334577988833189,-0.0032613070216029882,-0.01859552226960659
1690838821855527400,1.61052734375,-0.0037649108562618494,-0.002537726191803813,-0.02069888636469841
1690838821865567200,1.620567138671875,-0.004575310740619898,-0.0023241406306624413,-0.02022138237953186
1690838821875607300,1.630607177734375,-0.005320729687809944,-0.0036131106317043304,-0.0200370904058218
1690838821885648100,1.640648193359375,-0.005526325665414333,-0.0031702269334346056,-0.020320450887084007
1690838821895688200,1.650688232421875,-0.002959304489195347,0.0002615224220789969,-0.019459452480077744
1690838821905728300,1.660728271484375,-0.004567321389913559,-0.0015076154377311468,-0.018511898815631866
1690838821915768300,1.670768310546875,-0.004511395003646612,-0.0012002866715192795,-0.01829352043569088
1690838821925809400,1.680809326171875,-0.003817375050857663,-0.0007358313887380064,-0.017914285883307457
1690838821935849500,1.690849365234375,-0.005694637540727854,-0.0018423747969791293,-0.017591243609786034
1690838821945897200,1.700897216796875,-0.005037102848291397,-0.00036378781078383327,-0.02045334316790104
1690838821955937300,1.710937255859375,-0.00512711750343442,-0.004917527083307505,-0.020687168464064598
1690838821965977300,1.720977294921875,-0.005316202063113451,-0.0034141724463552237,-0.02226216159760952
1690838821976018400,1.731018310546875,-0.004181961994618177,-0.00026551715563982725,-0.021209681406617165
1690838821986058500,1.74105859375,-0.0050099384970963,-0.0032477248460054398,-0.02346111834049225
1690838821996098600,1.7510986328125,-0.005001416429877281,-0.002426938619464636,-0.023967383429408073
1690838822006139400,1.761139404296875,-0.004252535756677389,-0.0035515916533768177,-0.022603046149015427
1690838822016179200,1.77117919921875,-0.005343100056052208,-0.0033902039285749197,-0.02286829799413681
1690838822026219300,1.78121923828125,-0.005672000348567963,-0.003954527899622917,-0.019956130534410477
1690838822036259300,1.79125927734375,-0.005155613645911217,-0.0038573225028812885,-0.018816830590367317
1690838822046300400,1.801300537109375,-0.004814994987100363,-0.002965962514281273,-0.01768924854695797
1690838822056340500,1.811340576171875,-0.0038088529836386442,-0.0014599448768422008,-0.019239474087953568
1690838822066380500,1.821380615234375,-0.005770271178334951,-0.0014807175612077117,-0.018128670752048492
1690838822076420600,1.831420654296875,-0.005693039391189814,-0.00016671388584654778,-0.01751774176955223
1690838822086461400,1.84146142578125,-0.005847236607223749,0.0007701861904934049,-0.019875703379511833
1690838822096501200,1.851501220703125,-0.005886651109904051,-0.003687146585434675,-0.021075723692774773
1690838822106541300,1.861541259765625,-0.004915129859000444,-0.0035276231355965137,-0.020302608609199524
1690838822116612400,1.8716123046875,-0.004966529086232185,-0.0027206854429095984,-0.02261875942349434
1690838822126652400,1.88165234375,-0.005078914575278759,-0.0024226775858551264,-0.01914067193865776
1690838822136693500,1.891693603515625,-0.004948419518768787,-0.0010420948965474963,-0.01847834326326847
1690838822146733600,1.901733642578125,-0.005302620120346546,-0.001966744428500533,-0.019902069121599197
1690838822156773400,1.9117734375,-0.00412390474230051,-0.0022189458832144737,-0.01914386637508869
1690838822166814200,1.921814208984375,-0.0049215215258300304,-0.0013568805297836661,-0.01896250620484352
1690838822176854300,1.931854248046875,-0.005303951445966959,-0.002082591876387596,-0.021710887551307678
1690838822186894300,1.941894287109375,-0.004595817066729069,-0.0039041941054165363,-0.021980132907629013
1690838822196934400,1.951934326171875,-0.004742290824651718,-0.0009531453251838684,-0.022158032283186913
1690838822206975500,1.9619755859375,-0.005546299275010824,-0.0022354573011398315,-0.02154497243463993
1690838822217015600,1.972015625,-0.0037619813811033964,-0.0012663330417126417,-0.022589731961488724
1690838822227055600,1.9820556640625,-0.005249623209238052,-0.001127582392655313,-0.01907915249466896
1690838822237096400,1.992096435546875,-0.005369198974221945,-0.0021859225817024708,-0.019627762958407402
1690838822247136300,2.00213623046875,-0.004279433749616146,-0.001776594785042107,-0.018735870718955994
1690838822257176300,2.01217626953125,-0.006449643522500992,-0.0016740630380809307,-0.018559036776423454
1690838822267216400,2.02221630859375,-0.003993942867964506,-0.002095108851790428,-0.018312161788344383
1690838822277257500,2.032257568359375,-0.0073407371528446674,-0.0033310819417238235,-0.020445886999368668
1690838822287327500,2.042327392578125,-0.00487145408987999,-0.0036573191173374653,-0.018265556544065475
1690838822297368600,2.05236865234375,-0.006764961872249842,-0.003719370812177658,-0.020780378952622414
1690838822307408400,2.062408447265625,-0.005336175672709942,-0.003349457634612918,-0.019343869760632515
1690838822317448400,2.072448486328125,-0.004922853317111731,-0.0035747610963881016,-0.02213859185576439
1690838822327489300,2.0824892578125,-0.005844040773808956,-0.0026578346733003855,-0.022720757871866226
1690838822337529300,2.092529296875,-0.004978779703378677,0.0000655137628200464,-0.020965470001101494
1690838822347569400,2.1025693359375,-0.0052024852484464645,-0.002846919232979417,-0.021791847422719002
1690838822357609500,2.112609375,-0.0051923650316894054,0.00007856325100874528,-0.02015693299472332
1690838822367650600,2.122650634765625,-0.00430180411785841,-0.0020788635592907667,-0.021397167816758156
1690838822377690600,2.132690673828125,-0.005095425993204117,-0.002763828495517373,-0.019589945673942566
1690838822387730400,2.14273046875,-0.0037585191894322634,-0.0032703618053346872,-0.022119948640465736
1690838822397771300,2.152771240234375,-0.006683735176920891,-0.0031188279390335083,-0.021893581375479698
1690838822407811300,2.162811279296875,-0.004764661658555269,-0.0026905916165560484,-0.020007530227303505
1690838822417851400,2.172851318359375,-0.005833121482282877,-0.003733219113200903,-0.02148744836449623
1690838822427891500,2.182891357421875,-0.004689293913543224,-0.00381391285918653,-0.019572636112570763
1690838822437932500,2.1929326171875,-0.006431267596781254,-0.002459961920976639,-0.01913481205701828
1690838822447972600,2.20297265625,-0.004503671545535326,-0.0006841660942882299,-0.018935341387987137
1690838822458043400,2.21304345703125,-0.005338040180504322,-0.0019462381023913622,-0.019597670063376427
1690838822468083500,2.22308349609375,-0.005425125360488892,-0.0007800398743711412,-0.01968076080083847
1690838822478123500,2.23312353515625,-0.004122839774936438,-0.0024583640042692423,-0.019395269453525543
1690838822488164400,2.243164306640625,-0.0057678744196891785,-0.0030900659039616585,-0.021831529214978218
1690838822498204400,2.253204345703125,-0.004848817363381386,-0.003299656556919217,-0.019844278693199158
1690838822508244500,2.263244384765625,-0.00478463526815176,-0.003855724586173892,-0.021017933264374733
1690838822518285600,2.27328564453125,-0.005597432143986225,-0.0032461269292980433,-0.02153591811656952
1690838822528325400,2.283325439453125,-0.00404507527127862,-0.003882888937368989,-0.019100191071629524
1690838822538365400,2.293365478515625,-0.005375324282795191,-0.0049558766186237335,-0.02171781286597252
1690838822548405500,2.303405517578125,-0.003939081449061632,-0.0035385421942919493,-0.020009128376841545
1690838822558446300,2.3134462890625,-0.0064863949082791805,-0.0008977515972219408,-0.021136177703738213
1690838822568486400,2.323486328125,-0.003680488560348749,-0.0013662016717717052,-0.020438162609934807
1690838822578526500,2.3335263671875,-0.004520183429121971,-0.0000876179983606562,-0.020317522808909416
1690838822588566500,2.34356640625,-0.0062917182222008705,0.00046924897469580173,-0.02040274254977703
1690838822598607600,2.353607666015625,-0.005741775035858154,-0.000371777277905494,-0.01775822415947914
1690838822608647400,2.3636474609375,-0.0059873186983168125,-0.0011725898366421461,-0.01967676542699337
1690838822618687500,2.3736875,-0.004504470620304346,-0.002365419641137123,-0.019394736737012863
1690838822628758500,2.383758544921875,-0.0054304515942931175,-0.0026589001063257456,-0.02191328816115856
1690838822638798600,2.393798583984375,-0.0054331147111952305,-0.0019230686593800783,-0.020355071872472763
1690838822648839400,2.40383935546875,-0.0054911719635128975,-0.003111903788521886,-0.018251441419124603
1690838822658879500,2.41387939453125,-0.003397927153855562,-0.001439971150830388,-0.01918727718293667
1690838822668919300,2.423919189453125,-0.0046751792542636395,0.0003091930120717734,-0.02020993083715439
1690838822678960400,2.43396044921875,-0.005691441707313061,-0.0013720606220886111,-0.018939869478344917
1690838822689000400,2.44400048828125,-0.0028908613603562117,-0.0007821703911758959,-0.022491727024316788
1690838822699040500,2.45404052734375,-0.005554288625717163,-0.004789428785443306,-0.021874938160181046
1690838822709080600,2.46408056640625,-0.004998486954718828,-0.0007552724564447999,-0.022835008800029755
1690838822719121400,2.474121337890625,-0.004904477391391993,-0.0034163030795753,-0.02388456091284752
1690838822729161500,2.484161376953125,-0.005151618737727404,-0.00358754419721663,-0.022110894322395325
1690838822739201500,2.494201416015625,-0.003997670952230692,-0.0021441110875457525,-0.021825935691595078
1690838822749242600,2.50424267578125,-0.004458131734281778,-0.0025507756508886814,-0.021616078913211823
1690838822759282400,2.514282470703125,-0.0057106162421405315,-0.0007206514128483832,-0.01895105466246605
1690838822769322500,2.524322509765625,-0.00529729388654232,-0.004789162427186966,-0.020534036681056023
1690838822779362600,2.534362548828125,-0.0043808999471366405,-0.003871171036735177,-0.01884106546640396
1690838822789403400,2.5444033203125,-0.0054512242786586285,-0.000020506340661086142,-0.021512215957045555
1690838822799473400,2.554473388671875,-0.004313788376748562,-0.0018109495285898447,-0.018621088936924934
1690838822809514500,2.564514404296875,-0.004188353195786476,-0.0021377194207161665,-0.019993947818875313
1690838822819554300,2.57455419921875,-0.004935636185109615,-0.0008647284121252596,-0.018761437386274338
1690838822829594400,2.584594482421875,-0.004282096866518259,-0.0035212314687669277,-0.019342804327607155
1690838822839635500,2.594635498046875,-0.004756139125674963,-0.003156644757837057,-0.01942909136414528
1690838822849675500,2.604675537109375,-0.004040281753987074,-0.0038394792936742306,-0.019884757697582245
1690838822859715600,2.614715576171875,-0.0046568033285439014,-0.0035228293854743242,-0.020169183611869812
1690838822869755400,2.62475537109375,-0.0035694348625838757,-0.0013901700731366873,-0.02046079933643341
1690838822879796500,2.63479638671875,-0.004727110732346773,-0.0020868529099971056,-0.01998595893383026
1690838822889836500,2.64483642578125,-0.004453870467841625,-0.003719637170433998,-0.019335348159074783
1690838822899876400,2.65487646484375,-0.0044011399149894714,-0.001930525409989059,-0.020675983279943466
1690838822909917400,2.66491748046875,-0.005460012704133987,-0.0007046724203974009,-0.019899139180779457
1690838822919957500,2.67495751953125,-0.005334311630576849,-0.0024748756550252438,-0.019842414185404778
1690838822929997600,2.68499755859375,-0.003322559641674161,-0.0005629922379739583,-0.021853899583220482
1690838822940037400,2.695037353515625,-0.0054999603889882565,-0.002314553363248706,-0.020795293152332306
1690838822950088200,2.705088134765625,-0.004486893769353628,0.00030067088664509356,-0.019992882385849953
1690838822960128300,2.715128173828125,-0.0043808999471366405,-0.0027081684675067663,-0.019454391673207283
1690838822970199300,2.72519921875,-0.005853095557540655,-0.0017438378417864442,-0.02027065120637417
1690838822980239400,2.7352392578125,-0.0038695731200277805,-0.0024833977222442627,-0.019304189831018448
1690838822990279400,2.745279541015625,-0.003998736385256052,-0.0003579288604669273,-0.018749719485640526
1690838823000320500,2.755320556640625,-0.004848018288612366,-0.003319630166515708,-0.021811023354530334
1690838823010360300,2.7653603515625,-0.004824848845601082,-0.002959570847451687,-0.02100035734474659
1690838823020400400,2.775400390625,-0.004358263220638037,-0.0036040558479726315,-0.020597420632839203
1690838823030440400,2.7854404296875,-0.004275172483175993,-0.0016000272007659078,-0.021449897438287735
1690838823040481300,2.795481201171875,-0.004110322799533606,-0.002453836612403393,-0.021943381056189537
1690838823050521300,2.805521240234375,-0.005049619823694229,-0.0025331987999379635,-0.01846635900437832
1690838823060561400,2.8155615234375,-0.005110606085509062,-0.004193413536995649,-0.020676782354712486
1690838823070602500,2.8256025390625,-0.0035902075469493866,-0.0021044297609478235,-0.021086642518639565
1690838823080642600,2.835642578125,-0.005566006526350975,-0.00020453077740967274,-0.02178279310464859
1690838823090682400,2.845682373046875,-0.003992611076682806,-0.0016799219883978367,-0.021920477971434593
1690838823100722400,2.855722412109375,-0.005801429972052574,-0.0026133600622415543,-0.01900724694132805
1690838823110763300,2.86576318359375,-0.0059958407655358315,-0.0009273127070628107,-0.018937472254037857
1690838823120803300,2.87580322265625,-0.005601692944765091,-0.0025398568250238895,-0.0191904716193676
1690838823130843400,2.885843505859375,-0.0056890444830060005,-0.0034911378752440214,-0.021513547748327255
1690838823140914400,2.89591455078125,-0.004393416922539473,-0.003613909473642707,-0.02022244781255722
1690838823150954200,2.905954345703125,-0.005600627511739731,-0.001592037733644247,-0.021588116884231567
1690838823160995300,2.915995361328125,-0.003835484618321061,-0.003623763332143426,-0.020318321883678436
1690838823171035400,2.926035400390625,-0.005682386923581362,-0.0029113676864653826,-0.020908476784825325
1690838823181075500,2.936075439453125,-0.00577905960381031,-0.00126739835832268,-0.0200424175709486
1690838823191116300,2.9461162109375,-0.0020482372492551804,-0.0009811085183173418,-0.01882561855018139
1690838823201156400,2.95615625,-0.005768939387053251,0.0007028082036413252,-0.017773404717445374
1690838823211196400,2.966196533203125,-0.005191033706068993,-0.0034056503791362047,-0.01944187469780445
1690838823221236500,2.976236572265625,-0.005452556069940329,-0.0037702370900660753,-0.018752116709947586
1690838823231277600,2.986277587890625,-0.005472263321280479,-0.001324123702943325,-0.020432304590940475
1690838823241317400,2.9963173828125,-0.004763862583786249,-0.001907355966977775,-0.020126573741436005
1690838823251357400,3.006357421875,-0.005332181230187416,-0.0019270633347332478,-0.02051299810409546
1690838823261398300,3.016398193359375,-0.004656270612031221,-0.0013382384786382318,-0.020438162609934807
1690838823271438300,3.026438232421875,-0.005045624915510416,0.00014460964302998036,-0.020919928327202797
1690838823281478400,3.036478515625,-0.003742273896932602,-0.001945439144037664,-0.0215351190418005
1690838823291518500,3.0465185546875,-0.0046754456125199795,-0.0036666402593255043,-0.019903134554624557
1690838823301589200,3.05658935546875,-0.006647782865911722,0.00017204020696226507,-0.018627746030688286
1690838823311629300,3.06662939453125,-0.00418435875326395,-0.0011853729374706745,-0.02124669961631298
1690838823321670400,3.07667041015625,-0.0054850466549396515,-0.003240001853555441,-0.019408851861953735
1690838823331710500,3.08671044921875,-0.0046237800270318985,-0.004041080828756094,-0.021555358543992043
1690838823341750300,3.096750244140625,-0.003734018187969923,-0.0018381137633696198,-0.020791297778487206
1690838823351791400,3.106791259765625,-0.004699414130300283,-0.0027438548859208822,-0.020008862018585205
1690838823361831400,3.11683154296875,-0.00561101408675313,-0.0028820729348808527,-0.020803814753890038
1690838823371871500,3.12687158203125,-0.005372128449380398,-0.0025249430909752846,-0.02178945206105709
1690838823381911300,3.136911376953125,-0.005564142484217882,-0.0008431567694060504,-0.02087651938199997
1690838823391952400,3.146952392578125,-0.005565473809838295,-0.002834668615832925,-0.020714599639177322
1690838823401992400,3.156992431640625,-0.00381417921744287,0.0001001348573481664,-0.019648004323244095
1690838823412032300,3.1670322265625,-0.005576393101364374,0.00006471481174230576,-0.016869794577360153
1690838823422073300,3.1770732421875,-0.005567871034145355,0.0003408846096135676,-0.019643209874629974
1690838823432113400,3.187113525390625,-0.0038570561446249485,-0.0025659557431936264,-0.020718328654766083
1690838823442153500,3.197153564453125,-0.0056770602241158485,-0.003605387406423688,-0.019632557407021523
1690838823452193300,3.207193359375,-0.003938548732548952,-0.003878627670928836,-0.020597953349351883
1690838823462234400,3.217234375,-0.005048288032412529,-0.002487658755853772,-0.020475447177886963
1690838823472305400,3.227305419921875,-0.00296276668086648,-0.0003579288604669273,-0.022526348009705544
1690838823482345200,3.23734521484375,-0.0038743666373193264,-0.001455151243135333,-0.019576631486415863
1690838823492385300,3.24738525390625,-0.0055034225806593895,-0.0018695390317589045,-0.019905265420675278
1690838823502425300,3.25742529296875,-0.0043678502552211285,-0.0019883159548044205,-0.01925678551197052
1690838823512466400,3.267466552734375,-0.003828826593235135,-0.002662894781678915,-0.01896197348833084
1690838823522506200,3.27750634765625,-0.005334844347089529,-0.0014383733505383134,-0.019835757091641426
1690838823532546300,3.28754638671875,-0.004295146092772484,-0.002995789982378483,-0.019120164215564728
1690838823542586400,3.29758642578125,-0.005520466715097427,-0.003977164626121521,-0.020434968173503876
1690838823552627200,3.307627197265625,-0.005298358853906393,-0.0012831110507249832,-0.019816847518086433
1690838823562667300,3.317667236328125,-0.005209143273532391,-0.002350772265344858,-0.02008769102394581
1690838823572707300,3.327707275390625,-0.0043473439291119576,-0.0011867046123370528,-0.0199808981269598
1690838823582748400,3.33774853515625,-0.004577441141009331,-0.003599528456106782,-0.020922591909766197
1690838823592788500,3.34778857421875,-0.006800914648920298,-0.0025009745731949806,-0.018809374421834946
1690838823602828300,3.357828369140625,-0.005019525997340679,-0.001329716295003891,-0.020719127729535103
1690838823612868400,3.367868408203125,-0.0038184402510523796,-0.0018825886072590947,-0.0189577117562294
1690838823622909200,3.3779091796875,-0.0049462891183793545,-0.0013946974650025368,-0.018862370401620865
1690838823632949200,3.38794921875,-0.005181978922337294,-0.0020455741323530674,-0.01872255466878414
1690838823643020300,3.398020263671875,-0.005107410252094269,-0.0012325108982622623,-0.018975555896759033
1690838823653060400,3.408060302734375,-0.004312989301979542,-0.0013281183782964945,-0.01930791698396206
1690838823663100200,3.41810009765625,-0.005138303153216839,-0.0019859191961586475,-0.022170815616846085
1690838823673141200,3.428141357421875,-0.003975833300501108,-0.0019560917280614376,-0.019402459263801575
1690838823683181300,3.438181396484375,-0.0057526943273842335,-0.0016953683225437999,-0.02262461930513382
1690838823693221400,3.448221435546875,-0.004964132327586412,-0.00361763802357018,-0.020553745329380035
1690838823703262200,3.45826220703125,-0.005536179058253765,-0.0025249430909752846,-0.019052520394325256
1690838823713302300,3.46830224609375,-0.00418276060372591,-0.000009321063771494664,-0.01938514970242977
1690838823723342300,3.47834228515625,-0.005242698825895786,-0.0023132218047976494,-0.019773438572883606
1690838823733382400,3.48838232421875,-0.0057436395436525345,-0.002939597237855196,-0.019782492890954018
1690838823743423500,3.498423583984375,-0.004819522611796856,-0.0008130630594678223,-0.021148428320884705
1690838823753463300,3.50846337890625,-0.004434429574757814,-0.002519882982596755,-0.02016465738415718
1690838823763503400,3.51850341796875,-0.005371329374611378,-0.0022056300658732653,-0.02034229040145874
1690838823773544200,3.528544189453125,-0.005559614859521389,-0.0026522420812398195,-0.020916733890771866
1690838823783584300,3.538584228515625,-0.004193679895251989,-0.0010665960144251585,-0.020292488858103752
1690838823793624300,3.548624267578125,-0.005739378277212381,-0.0008721852791495621,-0.02039635181427002
1690838823803664400,3.558664306640625,-0.004087419714778662,-0.0025566346012055874,-0.021454425528645515
1690838823813735200,3.568735107421875,-0.0037923413328826427,-0.001975532853975892,-0.019175559282302856
1690838823823775200,3.578775146484375,-0.0036858150269836187,0.00004314320904086344,-0.020563066005706787
1690838823833816300,3.58881640625,-0.0068113007582724094,-0.0010538127971813083,-0.01938195340335369
1690838823843856400,3.5988564453125,-0.005557484459131956,-0.003025617217645049,-0.02028582990169525
1690838823853896400,3.608896484375,-0.003805390791967511,-0.0022985744290053844,-0.018632806837558746
1690838823863937300,3.618937255859375,-0.00449994346126914,-0.0013467605458572507,-0.019645607098937035
1690838823873977300,3.628977294921875,-0.005327919963747263,-0.00045566685730591416,-0.021621938794851303
1690838823884017400,3.639017333984375,-0.004518585279583931,-0.00230789533816278,-0.01985013671219349
1690838823894057200,3.64905712890625,-0.005136438645422459,-0.0018375811632722616,-0.019097527489066124
1690838823904098300,3.659098388671875,-0.0036365464329719543,-0.002014415105804801,-0.021444572135806084
1690838823914138400,3.669138427734375,-0.005366003140807152,-0.0008934905636124313,-0.020115388557314873
1690838823924178400,3.679178466796875,-0.0057372478768229485,-0.002916427794843912,-0.019965719431638718
1690838823934219300,3.68921923828125,-0.004711132030934095,-0.003421362955123186,-0.019277824088931084
1690838823944259300,3.69925927734375,-0.006130064371973276,-0.0023374564480036497,-0.019727632403373718
1690838823954286600,3.70928662109375,-0.005470665637403727,-0.0013574132462963462,-0.018928417935967445
1690838823964326400,3.719326416015625,-0.005305283237248659,-0.0018362496048212051,-0.021287711337208748
1690838823974367500,3.729367431640625,-0.004318581894040108,-0.0014215953415259719,-0.021142037585377693
1690838823984438500,3.7394384765625,-0.00515747768804431,-0.0011291803093627095,-0.019338810816407204
1690838823994478600,3.749478515625,-0.005132444202899933,-0.0014452975010499358,-0.020857878029346466
1690838824004518400,3.759518310546875,-0.005571865476667881,-0.0023241406306624413,-0.021267738193273544
1690838824014558500,3.769558349609375,-0.0049438923597335815,-0.003212837502360344,-0.021344969049096107
1690838824024599600,3.779599609375,-0.004727377090603113,-0.0029001825023442507,-0.021799305453896523
1690838824034639600,3.7896396484375,-0.005599562544375658,-0.002150236163288355,-0.020138291642069817
1690838824044679400,3.799679443359375,-0.005232844967395067,-0.0008998821140266955,-0.02046000212430954
1690838824054719500,3.809719482421875,-0.004539357963949442,-0.0018293253378942609,-0.020203538239002228
1690838824064760300,3.81976025390625,-0.0040884846821427345,-0.0007310376968234777,-0.021521802991628647
1690838824074800400,3.82980029296875,-0.006186523009091616,-0.0020956413354724646,-0.021742846816778183
1690838824084840400,3.83984033203125,-0.004141481593251228,-0.00219524372369051,-0.020253339782357216
1690838824094881500,3.849881591796875,-0.003973436541855335,-0.0010836402652785182,-0.01938461698591709
1690838824104921600,3.859921630859375,-0.005730589851737022,-0.005940180737525225,-0.020301010459661484
1690838824114961400,3.86996142578125,-0.005739910993725061,-0.003136138431727886,-0.021643510088324547
1690838824125001500,3.88000146484375,-0.004021106753498316,-0.003847468877211213,-0.020114056766033173
1690838824135042300,3.890042236328125,-0.005543103441596031,-0.0008945558220148087,-0.02185123600065708
1690838824145082400,3.900082275390625,-0.0052259210497140884,-0.0037294907961040735,-0.01840430684387684
1690838824155153400,3.9101533203125,-0.005329251755028963,-0.003704457078129053,-0.020315391942858696
1690838824165193500,3.920193359375,-0.006500776391476393,-0.0002170476218452677,-0.018157165497541428
1690838824175233300,3.9302333984375,-0.004828843753784895,-0.0019835224375128746,-0.020687967538833618
1690838824185274400,3.9402744140625,-0.0038892803713679314,-0.0023899206425994635,-0.018394986167550087
1690838824195314400,3.950314453125,-0.0036581179592758417,-0.002498843939974904,-0.0201627928763628
1690838824205354500,3.9603544921875,-0.0054360441863536835,-0.0017294568242505193,-0.02183552458882332
1690838824215395300,3.970395263671875,-0.005077050067484379,-0.0007057376787997782,-0.01986078917980194
1690838824225435400,3.980435302734375,-0.005616340320557356,-0.002800047630444169,-0.02250930294394493
1690838824235475500,3.990475341796875,-0.004765460267663002,-0.000743820914067328,-0.020058929920196533
1690838824245515500,4.000515625,-0.00439075380563736,-0.0025513083674013615,-0.02008689194917679
1690838824255556600,4.010556640625,-0.005714344792068005,-0.0008636631537228823,-0.021191038191318512
1690838824265596400,4.020596435546875,-0.003774498123675585,-0.0022213426418602467,-0.021735921502113342
1690838824275636500,4.030636474609375,-0.004482100252062082,-0.003266367129981518,-0.018974224105477333
1690838824285677300,4.04067724609375,-0.0043678502552211285,-0.0010753844399005175,-0.021267738193273544
1690838824295717400,4.05071728515625,-0.005529255140572786,0.0002950782363768667,-0.019958527758717537
1690838824305757400,4.06075732421875,-0.004449076950550079,-0.002139317337423563,-0.02015906386077404
1690838824315797500,4.070797607421875,-0.005078115500509739,-0.0036996633280068636,-0.020192353054881096
1690838824325868300,4.080868408203125,-0.00564004248008132,-0.00196408131159842,-0.019887154921889305
1690838824335908400,4.090908447265625,-0.006551376078277826,-0.0010868359822779894,-0.02190663106739521
1690838824345949400,4.100949462890625,-0.005464806687086821,-0.0037585191894322634,-0.020783042535185814
1690838824355989500,4.110989501953125,-0.005064267199486494,-0.0010242518037557602,-0.019402459263801575
1690838824366029600,4.121029541015625,-0.005152950529009104,-0.0036629117093980312,-0.019227756187319756
1690838824376070400,4.1310703125,-0.0044173854403197765,-0.002132392954081297,-0.018970761448144913
1690838824386110500,4.1411103515625,-0.005567071959376335,-0.00023675501870457083,-0.018911639228463173
1690838824396150500,4.151150634765625,-0.003970507066696882,-0.0006924218614585698,-0.021210480481386185
1690838824406190300,4.1611904296875,-0.007183610461652279,-0.003038134193047881,-0.016634637489914894
1690838824416231400,4.1712314453125,-0.005089567042887211,-0.001580319833010435,-0.019957995042204857
1690838824426271500,4.181271484375,-0.004157460760325193,-0.0006317017832770944,-0.02293434366583824
1690838824436311600,4.1913115234375,-0.004504470620304346,-0.00276089902035892,-0.020738035440444946
1690838824446352400,4.201352294921875,-0.005081844050437212,-0.0020160130225121975,-0.020848557353019714
1690838824456392400,4.211392333984375,-0.00523657351732254,-0.0008287757518701255,-0.02069356106221676
1690838824466432500,4.2214326171875,-0.003864513011649251,-0.0023132218047976494,-0.02088450826704502
1690838824476472300,4.231472412109375,-0.005591306835412979,-0.003053047927096486,-0.019468240439891815
1690838824486513400,4.241513427734375,-0.004452539142221212,-0.0020578245166689157,-0.020671457052230835
1690838824496584400,4.25158447265625,-0.006388657260686159,-0.003561178920790553,-0.0219095591455698
1690838824506624500,4.26162451171875,-0.004826446995139122,-0.0036796897184103727,-0.02124962769448757
1690838824516664600,4.27166455078125,-0.005200620740652084,-0.002987001556903124,-0.02046186476945877
1690838824526704600,4.28170458984375,-0.004228833597153425,-0.002767024328932166,-0.021466409787535667
1690838824536745500,4.291745361328125,-0.007004113402217627,-0.20792843401432037,-0.016980847343802452
1690838824546785500,4.30178564453125,0.01305295154452324,-0.2754025459289551,-0.002528937766328454
1690838824556825300,4.311825439453125,-0.009563411585986614,0.03044738806784153,-0.05720869451761246
1690838824566865400,4.321865478515625,-0.009317335672676563,-0.020473316311836243,-0.061162158846855164
1690838824576906500,4.331906494140625,-0.02328268624842167,-0.027347201481461525,-0.0736616998910904
1690838824586946600,4.341946533203125,-0.017435980960726738,-0.02364780567586422,-0.06911621987819672
1690838824596986600,4.351986572265625,-0.006672816351056099,-0.008864331990480423,-0.06226204335689545
1690838824607027500,4.36202734375,-0.00012596751912496984,0.008345015347003937,-0.054003048688173294
1690838824617067500,4.372067626953125,0.006444050930440426,0.023542610928416252,-0.040949296206235886
1690838824627107300,4.382107421875,0.00603339122608304,0.022173745557665825,-0.031616516411304474
1690838824637147400,4.3921474609375,0.0031457259319722652,0.018434934318065643,-0.01858779974281788
1690838824647188500,4.4021884765625,-0.004012318328022957,0.008375375531613827,-0.007873103022575378
1690838824657259500,4.412259521484375,-0.01290354784578085,-0.006286924239248037,0.004096474498510361
1690838824667299600,4.422299560546875,-0.014342187903821468,-0.017476728186011314,0.011772236786782742
1690838824677339600,4.432339599609375,-0.011458250693976879,-0.020425645634531975,0.018187260255217552
1690838824687379500,4.44237939453125,-0.007428621407598257,-0.01599920727312565,0.01786874607205391
1690838824697420500,4.452420654296875,-0.0028250813484191895,-0.005905826110392809,0.01619574800133705
1690838824707460400,4.46246044921875,0.0016413062112405896,0.0024639565963298082,0.011710451915860176
1690838824717500400,4.47250048828125,-0.0004058657505083829,0.009531186893582344,0.006595318205654621
1690838824727541500,4.48254150390625,-0.0026048377621918917,0.012998889200389385,-0.004316451493650675
1690838824737581600,4.49258154296875,-0.0048919604159891605,0.01076902449131012,-0.014225008897483349
1690838824747621600,4.50262158203125,-0.009018794633448124,0.0015520902816206217,-0.025316275656223297
1690838824757661700,4.51266162109375,-0.008046741597354412,-0.005960953421890736,-0.033906035125255585
1690838824767702500,4.52270263671875,-0.006867759861052036,-0.011990616098046303,-0.043117642402648926
1690838824777742300,4.532742431640625,-0.0037593182642012835,-0.010779410600662231,-0.047216515988111496
1690838824787782400,4.542782470703125,-0.0005640574963763356,-0.009908290579915047,-0.05023094639182091
1690838824797823500,4.552823486328125,-0.0024282701779156923,-0.004535363521426916,-0.04927380755543709
1690838824807863600,4.562863525390625,-0.0038370825350284576,-0.00014860439114272594,-0.049733467400074005
1690838824817903600,4.572903564453125,-0.0036045885644853115,0.004250671248883009,-0.044802360236644745
1690838824827974700,4.582974609375,-0.00669332267716527,0.008213721215724945,-0.03737986087799072
1690838824838014500,4.593014404296875,-0.0060024987906217575,0.0018461032304912806,-0.03027454949915409
1690838824848054500,4.603054443359375,-0.007193997036665678,-0.0009243832319043577,-0.02238493412733078
1690838824858095400,4.613095458984375,-0.004899151157587767,-0.003242398612201214,-0.01581571437418461
1690838824868135400,4.623135498046875,-0.0030722226947546005,-0.008027832955121994,-0.010745855048298836
1690838824878175500,4.633175537109375,-0.0018599516479298472,-0.008354602381587029,-0.005471996963024139
1690838824888216600,4.643216552734375,-0.0040852888487279415,-0.006928213406354189,-0.000574177538510412
1690838824898256600,4.653256591796875,-0.004309793468564749,-0.0009656621841713786,-0.0001203748834086582
1690838824908296700,4.663296630859375,-0.005727394018322229,0.001714010490104556,0.0021933794487267733
1690838824918336500,4.67333642578125,-0.0047031426802277565,0.003855724586173892,-0.0006998787284828722
1690838824928377300,4.68337744140625,-0.005116997752338648,0.003194994293153286,-0.004098072182387114
1690838824938417400,4.69341748046875,-0.004912200383841991,-0.000007989483492565341,-0.009106412529945374
1690838824948445700,4.70344580078125,-0.0029206888284534216,-0.0033878071699291468,-0.012614861130714417
1690838824958486800,4.71348681640625,-0.003974767867475748,-0.0046424223110079765,-0.019424032419919968
1690838824968526600,4.723526611328125,-0.002514024032279849,-0.007006510626524687,-0.024349547922611237
1690838824978566700,4.733566650390625,-0.0035268242936581373,-0.008016115054488182,-0.03470125421881676
1690838824988606700,4.743606689453125,-0.0049103363417088985,-0.0057558901607990265,-0.034028273075819016
1690838824998677800,4.753677734375,-0.006329801399260759,-0.0005616606795229018,-0.0368802547454834
1690838825008718800,4.76371875,-0.006702910177409649,0.0005962817813269794,-0.03906697407364845
1690838825018758700,4.773758544921875,-0.004188885912299156,0.0032842103391885757,-0.037339914590120316
1690838825028798500,4.783798583984375,-0.004008057527244091,0.0017172062071040273,-0.03464213386178017
1690838825038838500,4.793838623046875,-0.004574511665850878,-0.002755839144811034,-0.031025826930999756
1690838825048879600,4.803879638671875,-0.0025936525780707598,-0.004181961994618177,-0.026860110461711884
1690838825058919700,4.813919677734375,-0.004893025849014521,-0.00509782275184989,-0.02232661098241806
1690838825068959700,4.823959716796875,-0.0051276502199471,-0.003180346917361021,-0.016867397353053093
1690838825078999800,4.833999755859375,-0.0038812910206615925,-0.004114317707717419,-0.015631956979632378
1690838825089040600,4.84404052734375,-0.004162254277616739,-0.006052033510059118,-0.011292601935565472
1690838825099080700,4.854080810546875,-0.004088218789547682,0.001350222621113062,-0.009863549843430519
1690838825109120500,4.86412060546875,-0.0054365769028663635,-0.0009435579413548112,-0.008388690650463104
1690838825119161600,4.87416162109375,-0.004443484358489513,0.0016916398890316486,-0.00797270517796278
1690838825129201700,4.88420166015625,-0.004315918777137995,-0.0005744438385590911,-0.009946906939148903
1690838825139241700,4.89424169921875,-0.004086354281753302,-0.0006657902849838138,-0.010950918309390545
1690838825149281800,4.90428173828125,-0.00535428524017334,-0.0036844832357019186,-0.01503780484199524
1690838825159322600,4.914322509765625,-0.004583566449582577,-0.002207760466262698,-0.01501117367297411
1690838825169393700,4.9243935546875,-0.0049590724520385265,-0.005510080140084028,-0.019711120054125786
1690838825179433500,4.93443359375,-0.005319397896528244,-0.002228266792371869,-0.02167147397994995
1690838825189473500,4.9444736328125,-0.004942027851939201,-0.0034139060880988836,-0.025359418243169785
1690838825199513600,4.954513671875,-0.004025101661682129,-0.00034221619716845453,-0.02864442765712738
1690838825209554700,4.9645546875,-0.0043742419220507145,0.00016192019393201917,-0.031447138637304306
1690838825219594800,4.9745947265625,-0.00615110294893384,-0.001683384063653648,-0.03219655156135559
1690838825229634800,4.984634765625,-0.004920722916722298,-0.0003685815026983619,-0.03009665012359619
1690838825239675600,4.994675537109375,-0.005123655777424574,0.0002008023438975215,-0.030181603506207466
1690838825249715700,5.0047158203125,-0.004370247479528189,-0.0018780612153932452,-0.026083532720804214
1690838825259755500,5.014755615234375,-0.004364654887467623,-0.003023220458999276,-0.0242515429854393
1690838825269795600,5.024795654296875,-0.004958007019013166,-0.0033300165086984634,-0.02130688726902008
1690838825279836700,5.034836669921875,-0.005745503585785627,-0.0026903252582997084,-0.019592342898249626
1690838825289876700,5.044876708984375,-0.006458431947976351,-0.0035183019936084747,-0.016682572662830353
1690838825299916800,5.054916748046875,-0.005746036302298307,-0.0019571571610867977,-0.01576405018568039
1690838825309957600,5.06495751953125,-0.004537227563560009,-0.0020969731267541647,-0.014319551177322865
1690838825319997700,5.074997802734375,-0.0037289580795913935,-0.0009648632840253413,-0.011464642360806465
1690838825330037500,5.08503759765625,-0.0056919739581644535,-0.00233825552277267,-0.012804478406906128
1690838825340108500,5.095108642578125,-0.0057127466425299644,-0.0016056197928264737,-0.01525778230279684
1690838825350148600,5.105148681640625,-0.0041252365335822105,-0.002095108851790428,-0.01583249308168888
1690838825360188700,5.115188720703125,-0.004592088516801596,-0.002350772265344858,-0.014515825547277927
1690838825370229800,5.125229736328125,-0.005152151454240084,-0.0013422331539914012,-0.016711601987481117
1690838825380269800,5.135269775390625,-0.004893558565527201,-0.004185423720628023,-0.021528195589780807
1690838825390309600,5.1453095703125,-0.004256796557456255,-0.0022863238118588924,-0.022051772102713585
1690838825400350500,5.1553505859375,-0.004250138532370329,-0.0011728560784831643,-0.02310904674232006
1690838825410390500,5.165390625,-0.005184642039239407,-0.0037918086163699627,-0.02273727022111416
1690838825420430600,5.1754306640625,-0.005176119972020388,-0.002240517409518361,-0.02486034296452999
1690838825430470700,5.185470703125,-0.005318865180015564,-0.0017278589075431228,-0.02593519352376461
1690838825440511700,5.19551171875,-0.006717557553201914,-0.0020804614759981632,-0.0246100053191185
1690838825450551800,5.2055517578125,-0.004639759194105864,-0.006584665738046169,-0.03135659173130989
1690838825460591900,5.215591796875,-0.0049489522352814674,-0.003376621985808015,-0.0234691072255373
1690838825470632700,5.2256328125,-0.004570517223328352,-0.0009765811264514923,-0.023086676374077797
1690838825480672500,5.235672607421875,-0.0041550640016794205,-0.0026501116808503866,-0.02098996937274933
1690838825490712600,5.245712646484375,-0.006469883490353823,-0.0010817759903147817,-0.017960358411073685
1690838825500752600,5.255752685546875,-0.006364156026393175,-0.0034208304714411497,-0.015735819935798645
1690838825510823700,5.26582373046875,-0.003849865635856986,-0.002040780382230878,-0.01666766032576561
1690838825520863700,5.27586376953125,-0.005532184615731239,-0.0016200009267777205,-0.016657274216413498
1690838825530904800,5.28590478515625,-0.003935885615646839,-0.003459712490439415,-0.01647964119911194
1690838825540944600,5.295944580078125,-0.005502357147634029,-0.004911934491246939,-0.01799684390425682
1690838825550984700,5.305984619140625,-0.005042695440351963,-0.0019923108629882336,-0.016558470204472542
1690838825561025500,5.316025634765625,-0.005080778617411852,-0.0015933692920953035,-0.01558029092848301
1690838825571065600,5.326065673828125,-0.0041193775832653046,0.00031185615807771683,-0.020374247804284096
1690838825581105700,5.336105712890625,-0.004172907210886478,0.0001478054327890277,-0.018136659637093544
1690838825591145700,5.346145751953125,-0.006667756475508213,-0.0016695356462150812,-0.021618742495775223
1690838825601186800,5.356186767578125,-0.00571860559284687,-0.0017486315919086337,-0.021452294662594795
1690838825611227000,5.366226806640625,-0.005273858085274696,-0.002606702037155628,-0.022049641236662865
1690838825621266700,5.3762666015625,-0.006669886875897646,-0.004583566449582577,-0.02220756746828556
1690838825631307500,5.3863076171875,-0.005271727219223976,-0.003697799053043127,-0.02315751649439335
1690838825641347600,5.39634765625,-0.003973702434450388,-0.002353169023990631,-0.023374298587441444
1690838825651387600,5.4063876953125,-0.005007009021937847,-0.0018069547368213534,-0.02352743037045002
1690838825661427700,5.416427734375,-0.004187021870166063,-0.0010809770319610834,-0.023667512461543083
1690838825671468800,5.42646875,-0.005044293589890003,-0.0008356999605894089,-0.022181201726198196
1690838825681539800,5.436539794921875,-0.0055002267472445965,-0.002522546099498868,-0.021558554843068123
1690838825691579600,5.44657958984375,-0.005877064075320959,-0.0021888520568609238,-0.019389409571886063
1690838825701619700,5.45661962890625,-0.00395639194175601,-0.0035483958199620247,-0.019335614517331123
1690838825711659800,5.46665966796875,-0.005269064102321863,-0.003576359013095498,-0.015989618375897408
1690838825721700600,5.47670068359375,-0.0038860845379531384,-0.0036669063847512007,-0.016759805381298065
1690838825731740700,5.48674072265625,-0.0036738307680934668,-0.003082342678681016,-0.016630642116069794
1690838825741780700,5.49678076171875,-0.004573180340230465,-0.00449887802824378,-0.01769537292420864
1690838825751821800,5.50682177734375,-0.00443842401728034,-0.0013523531379178166,-0.018455706536769867
1690838825761862000,5.51686181640625,-0.0052054147236049175,-0.0015550197567790747,-0.01792440563440323
1690838825771901700,5.526901611328125,-0.004200071096420288,-0.000577107013668865,-0.017651431262493134
1690838825781941800,5.536941650390625,-0.00574816670268774,-0.0016189356101676822,-0.02058943174779415
1690838825791982600,5.546982666015625,-0.005046157632023096,-0.000248472933890298,-0.02207307703793049
1690838825802022700,5.557022705078125,-0.004821919370442629,-0.002441585995256901,-0.022173212841153145
1690838825812062700,5.567062744140625,-0.0054450989700853825,-0.0030298782512545586,-0.022528212517499924
1690838825822103800,5.577103759765625,-0.004601942375302315,-0.0017267935909330845,-0.022523151710629463
1690838825832144000,5.587143798828125,-0.003893807763233781,-0.0023153522051870823,-0.021192103624343872
1690838825842183700,5.59718359375,-0.0043654534965753555,-0.0023395870812237263,-0.02269466035068035
1690838825852254700,5.607254638671875,-0.00493244081735611,-0.0013936321483924985,-0.021928202360868454
1690838825862294800,5.617294677734375,-0.00570049649104476,-0.0017587515758350492,-0.022543391212821007
1690838825872334600,5.62733447265625,-0.0037891454994678497,-0.002519350266084075,-0.021497568115592003
1690838825882375700,5.637375732421875,-0.004730306565761566,-0.003085272153839469,-0.02172739990055561
1690838825892415700,5.647415771484375,-0.005058141890913248,-0.0012114719720557332,-0.01816675253212452
1690838825902455800,5.657455810546875,-0.005605954211205244,0.0012207929976284504,-0.021614747121930122
1690838825912497000,5.667496826171875,-0.004752677399665117,-0.0016468988033011556,-0.018330536782741547
1690838825922536700,5.67753662109375,-0.0044256411492824554,-0.0013068130938336253,-0.019582223147153854
1690838825932576800,5.68757666015625,-0.00566986994817853,0.0012564794160425663,-0.019813651219010353
1690838825942616600,5.697616455078125,-0.004501541145145893,-0.0032589102629572153,-0.01877368800342083
1690838825952645600,5.707645751953125,-0.0043910201638937,-0.0019174759509041905,-0.02046079933643341
1690838825962685700,5.717685791015625,-0.004211523104459047,-0.0016785904299467802,-0.019637349992990494
1690838825972725500,5.7277255859375,-0.003885019337758422,-0.0017933726776391268,-0.018066618591547012
1690838825982766300,5.737766357421875,-0.003775563556700945,-0.0008735168376006186,-0.021588383242487907
1690838825992806400,5.747806396484375,-0.00404454255476594,-0.002537726191803813,-0.020387830212712288
1690838826002846500,5.757846435546875,-0.0048948898911476135,-0.0036096484400331974,-0.022405439987778664
1690838826012886500,5.767886474609375,-0.007389739155769348,-0.0026607641484588385,-0.02053004316985607
1690838826022957600,5.77795751953125,-0.004908738657832146,-0.0037982002831995487,-0.02094150148332119
1690838826032997400,5.787997314453125,-0.0047835698351264,-0.0023489079903811216,-0.022124743089079857
1690838826043038500,5.79803857421875,-0.00544430036097765,-0.001219727797433734,-0.023860326036810875
1690838826053078500,5.80807861328125,-0.005481318105012178,-0.002267149044200778,-0.02226109616458416
1690838826063118300,5.818118408203125,-0.005437375977635384,-0.002435727044939995,-0.020364394411444664
1690838826073159400,5.828159423828125,-0.0029912625905126333,-0.0015571502735838294,-0.019102588295936584
1690838826083199500,5.838199462890625,-0.004877845756709576,-0.003614708548411727,-0.020363595336675644
1690838826093239600,5.848239501953125,-0.003769438248127699,-0.00381391285918653,-0.019171031191945076
1690838826103279600,5.858279541015625,-0.0041673146188259125,-0.0036693033762276173,-0.021638449281454086
1690838826113320700,5.86832080078125,-0.0037707698065787554,-0.0035630431957542896,-0.019694076851010323
1690838826123360500,5.878360595703125,-0.00561021501198411,-0.0020722055342048407,-0.019806994125247
1690838826133400300,5.888400390625,-0.005056011490523815,-0.0005965480813756585,-0.01938488334417343
1690838826143441400,5.89844140625,-0.005215800832957029,-0.002049835165962577,-0.020250409841537476
1690838826153481500,5.9084814453125,-0.004110589157789946,-0.001088433898985386,-0.017728131264448166
1690838826163521500,5.918521484375,-0.003787015099078417,0.0014290522085502744,-0.020131099969148636
1690838826173561600,5.9285615234375,-0.0038101845420897007,-0.0026647590566426516,-0.019951870664954185
1690838826183602700,5.938602783203125,-0.004444815684109926,-0.0022386531345546246,-0.019220566377043724
1690838826193673500,5.948673583984375,-0.004704740364104509,-0.002689792774617672,-0.01956464722752571
1690838826203713500,5.958713623046875,-0.006847786251455545,-0.0007472829893231392,-0.020736970007419586
1690838826213753300,5.96875341796875,-0.003349191276356578,-0.0012088088551536202,-0.021572403609752655
1690838826223793400,5.97879345703125,-0.0046357642859220505,-0.0007624630234204233,-0.02003655955195427
1690838826233834500,5.98883447265625,-0.005227252375334501,-0.0007712514488957822,-0.0224994495511055
1690838826243874600,5.99887451171875,-0.003471696749329567,-0.000847950461320579,-0.02124323695898056
1690838826253914600,6.00891455078125,-0.004739894066005945,-0.00216594897210598,-0.02250131405889988
1690838826263955700,6.018955810546875,-0.005339637864381075,-0.0014602112350985408,-0.02207360975444317
1690838826273995500,6.02899560546875,-0.0049401638098061085,-0.0016852483386173844,-0.0227362047880888
1690838826284035300,6.039035400390625,-0.0057044909335672855,-0.0013174657942727208,-0.01888873614370823
1690838826294075400,6.049075439453125,-0.005087436642497778,-0.0019504991360008717,-0.02058889903128147
1690838826304116500,6.059116455078125,-0.004916728008538485,-0.004908738657832146,-0.021755894646048546
1690838826314156500,6.069156494140625,-0.004325239919126034,-0.0038714371621608734,-0.018138524144887924
1690838826324196600,6.079196533203125,-0.004757204558700323,-0.0020003002136945724,-0.01798326149582863
1690838826334237700,6.08923779296875,-0.0027087011840194464,0.00029348034877330065,-0.017827199772000313
1690838826344277500,6.099277587890625,-0.00427250936627388,-0.001755023142322898,-0.019719641655683517
1690838826354348500,6.1093486328125,-0.005775863770395517,-0.0019526296528056264,-0.01780296489596367
1690838826364388400,6.119388427734375,-0.003689010627567768,0.0009422263829037547,-0.017795508727431297
1690838826374428400,6.129428466796875,-0.004673315212130547,-0.0007411577389575541,-0.019961191341280937
1690838826384468500,6.139468505859375,-0.0035425368696451187,0.0002668487431947142,-0.019992882385849953
1690838826394509600,6.149509521484375,-0.004682635888457298,-0.003212304785847664,-0.022544456645846367
1690838826404549400,6.15954931640625,-0.005496231839060783,-0.0036874127108603716,-0.019879965111613274
1690838826414589400,6.16958935546875,-0.00436065997928381,-0.0023196132387965918,-0.022638732567429543
1690838826424630500,6.179630615234375,-0.0038983351550996304,-0.0027987160719931126,-0.020957479253411293
1690838826434670300,6.18967041015625,-0.005257346201688051,-0.0011587414192035794,-0.021079452708363533
1690838826444710400,6.19971044921875,-0.005246161017566919,-0.0016559535870328546,-0.021886123344302177
1690838826454750500,6.20975048828125,-0.0052118063904345036,-0.004732171073555946,-0.02130022831261158
1690838826464791600,6.21979150390625,-0.004494883120059967,-0.0009805759182199836,-0.022473083809018135
1690838826474831600,6.22983154296875,-0.00498064374551177,-0.0037984666414558887,-0.018862636759877205
1690838826484871400,6.239871337890625,-0.006524744443595409,-0.0024740765802562237,-0.0190192312002182
1690838826494912500,6.24991259765625,-0.00347409350797534,-0.0006285060080699623,-0.020717263221740723
1690838826504952300,6.259952392578125,-0.0038693067617714405,-0.002114816103130579,-0.02116999961435795
1690838826514992400,6.269992431640625,-0.004485561978071928,0.00016644757124595344,-0.01907968521118164
1690838826525063400,6.2800634765625,-0.0052086105570197105,-0.00029640982393175364,-0.01949487254023552
1690838826535103500,6.290103515625,-0.004190750420093536,-0.0002681803307496011,-0.018094316124916077
1690838826545143300,6.300143310546875,-0.0043745082803070545,-0.0013275857781991363,-0.01954973302781582
1690838826555184400,6.310184326171875,-0.005510080140084028,-0.002499376656487584,-0.02039182372391224
1690838826565224400,6.320224365234375,-0.003838147735223174,-0.003454119898378849,-0.021563615649938583
1690838826575264500,6.330264404296875,-0.004495948553085327,-0.0007105313707143068,-0.018756642937660217
1690838826585305300,6.340305419921875,-0.004928978625684977,-0.001972337020561099,-0.021561484783887863
1690838826595345400,6.350345458984375,-0.004463724326342344,-0.00012543488992378116,-0.020384367555379868
1690838826605385500,6.360385498046875,-0.004518585279583931,-0.00033902039285749197,-0.019770508632063866
1690838826615425500,6.370425537109375,-0.0059870523400604725,-0.002570749493315816,-0.020124975591897964
1690838826625466600,6.380466552734375,-0.0037326866295188665,-0.002507898723706603,-0.019711652770638466
1690838826635506400,6.39050634765625,-0.006078665144741535,-0.0010410296963527799,-0.020626448094844818
1690838826645546500,6.40054638671875,-0.005511411931365728,-0.00173744629137218,-0.019898872822523117
1690838826655587300,6.41058740234375,-0.005430984310805798,-0.0029321403708308935,-0.020196082070469856
1690838826665627400,6.42062744140625,-0.004078897647559643,-0.0016106797847896814,-0.019835224375128746
1690838826675667500,6.43066748046875,-0.0057617491111159325,-0.0030093719251453876,-0.021753232926130295
1690838826685707500,6.44070751953125,-0.004628307651728392,-0.001883387565612793,-0.021289309486746788
1690838826695778300,6.4507783203125,-0.0060182115994393826,-0.002481799805536866,-0.020244551822543144
1690838826705819400,6.4608193359375,-0.0048978193663060665,-0.0006380933918990195,-0.021350296214222908
1690838826715859500,6.470859375,-0.005362008698284626,-0.0008354336023330688,-0.020474914461374283
1690838826725899500,6.4808994140625,-0.003953196108341217,-0.0013851100811734796,-0.0204597357660532
1690838826735939600,6.490939697265625,-0.005616073962301016,-0.00148125016130507,-0.019895942881703377
1690838826745980400,6.50098046875,-0.0049436260014772415,-0.0007555388147011399,-0.019157715141773224
1690838826756020500,6.5110205078125,-0.0038655782118439674,-0.0019323896849527955,-0.020624585449695587
1690838826766060500,6.521060546875,-0.005062935408204794,-0.0020154803059995174,-0.020233899354934692
1690838826776101600,6.5311015625,-0.004315386060625315,-0.00259418529458344,-0.02147599682211876
1690838826786141400,6.541141357421875,-0.0054216631688177586,-0.00012170646368758753,-0.020862936973571777
1690838826796181500,6.551181396484375,-0.004259992390871048,-0.0033188313245773315,-0.02076253667473793
1690838826806221600,6.5612216796875,-0.003734018187969923,-0.00276063266210258,-0.020623786374926567
1690838826816262400,6.571262451171875,-0.0054855793714523315,-0.0012098740553483367,-0.020178504288196564
1690838826826302500,6.581302490234375,-0.006472546607255936,-0.0028104339726269245,-0.021338844671845436
1690838826836342500,6.591342529296875,-0.005003546830266714,-0.0019244002178311348,-0.021684788167476654
1690838826846383600,6.601383544921875,-0.005151086021214724,-0.0003201119543518871,-0.02056972309947014
1690838826856423400,6.61142333984375,-0.005489840172231197,-0.0022189458832144737,-0.020798755809664726
1690838826866494500,6.621494384765625,-0.005365736782550812,-0.0026375947054475546,-0.02058117464184761
1690838826876534500,6.631534423828125,-0.0036525253672152758,-0.0006436860421672463,-0.02112259529531002
1690838826886574600,6.64157470703125,-0.004049869254231453,-0.0027630296535789967,-0.019844545051455498
1690838826896614700,6.65161474609375,-0.0049521480686962605,-0.001862082164734602,-0.021351361647248268
1690838826906655500,6.661655517578125,-0.006164951715618372,-0.0007360977469943464,-0.019271166995167732
1690838826916695600,6.671695556640625,-0.003867975203320384,0.00024980452144518495,-0.02022537589073181
1690838826926735400,6.6817353515625,-0.005524727515876293,-0.0019321233266964555,-0.020807810127735138
1690838826936776400,6.6917763671875,-0.004367584362626076,-0.0013579458463937044,-0.019878633320331573
1690838826946816500,6.70181640625,-0.006143113598227501,-0.0017686053179204464,-0.017130250111222267
1690838826956851000,6.711850830078125,-0.003710049670189619,-0.001139300293289125,-0.01955106481909752
1690838826966891000,6.72189111328125,-0.004628574009984732,-0.0026176210958510637,-0.01672917976975441
1690838826976932000,6.73193212890625,-0.005331648513674736,-0.00159470085054636,-0.01948688179254532
1690838826986972200,6.74197216796875,-0.003981159534305334,-0.0007470166892744601,-0.01769990101456642
1690838826997012200,6.75201220703125,-0.004002464935183525,0.00018988338706549257,-0.018750252202153206
1690838827007053000,6.762052978515625,-0.0040852888487279415,0.0003025351034011692,-0.019996345043182373
1690838827017093000,6.772093017578125,-0.0034591800067573786,0.0002764361270237714,-0.021772140637040138
1690838827027133000,6.7821328125,-0.004740959499031305,-0.0027750139124691486,-0.01840324141085148
1690838827037204000,6.792203857421875,-0.005185707006603479,-0.0014295848086476326,-0.02009221911430359
1690838827047244000,6.802244140625,-0.004118045791983604,-0.0034080471377819777,-0.022049641236662865
1690838827057284000,6.8122841796875,-0.004628041293472052,-0.0002569950302131474,-0.020115388557314873
1690838827067325200,6.8223251953125,-0.005053880624473095,-0.0007121292874217033,-0.02255883812904358
1690838827077365200,6.832365234375,-0.003477822057902813,-0.0028868666850030422,-0.02094043605029583
1690838827087405300,6.8424052734375,-0.005258411634713411,-0.001416002749465406,-0.02165256440639496
1690838827097446100,6.852446044921875,-0.005684250965714455,-0.0017510283505544066,-0.01949114352464676
1690838827107486000,6.86248583984375,-0.006329801399260759,-0.0018876485992223024,-0.021865883842110634
1690838827117526000,6.872526123046875,-0.004907673224806786,-0.002004827605560422,-0.021438179537653923
1690838827127566000,6.882566162109375,-0.0054541537538170815,-0.0004961469094268978,-0.019706860184669495
1690838827137607200,6.892607177734375,-0.0037055222783237696,0.0008013451588340104,-0.01986158825457096
1690838827147647200,6.902647216796875,-0.00549303600564599,-0.0015092133544385433,-0.020357735455036163
1690838827157687300,6.912687255859375,-0.0036674391012638807,-0.003136138431727886,-0.019719375297427177
1690838827167728000,6.92272802734375,-0.004070641472935677,-0.0007041397620923817,-0.019026687368750572
1690838827177768000,6.932767822265625,-0.005327919963747263,-0.0023784691002219915,-0.021103154867887497
1690838827187808000,6.94280810546875,-0.005689843557775021,-0.0024285365361720324,-0.019846143200993538
1690838827197848000,6.95284814453125,-0.004854942671954632,-0.0014705975772812963,-0.02058224007487297
1690838827207919000,6.962919189453125,-0.005584915168583393,-0.0015198660548776388,-0.01919526606798172
1690838827217960200,6.972960205078125,-0.005052016582340002,-0.0008159925346262753,-0.02020966447889805
1690838827228000300,6.983000244140625,-0.004797950852662325,-0.0009483516332693398,-0.020850952714681625
1690838827238040300,6.993040283203125,-0.004819522611796856,-0.0035920715890824795,-0.020024308934807777
1690838827248080100,7.003080078125,-0.00461658975109458,-0.0016993631143122911,-0.019989952445030212
1690838827258121000,7.013120849609375,-0.004255997482687235,-0.003427754621952772,-0.020128438249230385
1690838827268161000,7.0231611328125,-0.005285309627652168,-0.002885801251977682,-0.021216604858636856
1690838827278201000,7.033201171875,-0.003911118488758802,-0.0009648632840253413,-0.020012324675917625
1690838827288242200,7.0432421875,-0.004388090688735247,-0.00293400464579463,-0.019893281161785126
1690838827298282200,7.0532822265625,-0.0039041941054165363,-0.001127582392655313,-0.018256235867738724
1690838827308322300,7.063322265625,-0.003863980295136571,-0.002357163932174444,-0.019990218803286552
1690838827318362000,7.073362060546875,-0.005003813188523054,-0.0019736685790121555,-0.02143152244389057
1690838827328403000,7.08340283203125,-0.0038157771341502666,-0.0015267902053892612,-0.020123111084103584
1690838827338443000,7.093443115234375,-0.005624329671263695,-0.001505484920926392,-0.01907995156943798
1690838827348483000,7.103483154296875,-0.005067463032901287,-0.0034229608718305826,-0.017711885273456573
1690838827358523100,7.113523193359375,-0.004215517546981573,-0.0013558153295889497,-0.01954733580350876
1690838827368564200,7.123564208984375,-0.005298625212162733,-0.004391552414745092,-0.02015986293554306
1690838827378635300,7.13363525390625,-0.004830974154174328,-0.0025808694772422314,-0.019947342574596405
1690838827388675300,7.14367529296875,-0.005245095584541559,-0.0014889733865857124,-0.018208032473921776
1690838827398715100,7.153715087890625,-0.003916178364306688,-0.0023196132387965918,-0.02172127366065979
1690838827408755000,7.1637548828125,-0.003658917034044862,0.00024501082953065634,-0.01998382806777954
1690838827418796000,7.173796142578125,-0.005407282151281834,-0.003884486621245742,-0.02052578143775463
1690838827428836000,7.183836181640625,-0.0037063213530927896,-0.0029459886718541384,-0.019717512652277946
1690838827438876200,7.193876220703125,-0.00410473020747304,-0.0011118697002530098,-0.01961205154657364
1690838827448917200,7.203917236328125,-0.005757487844675779,-0.001972869737073779,-0.018217885866761208
1690838827458957300,7.213957275390625,-0.00398701848462224,-0.0026024410035461187,-0.021075723692774773
1690838827468997000,7.2239970703125,-0.005676794331520796,-0.001496430253610015,-0.02009781077504158
1690838827479037000,7.234036865234375,-0.004307663068175316,-0.0035063179675489664,-0.02088051475584507
1690838827489078000,7.244078125,-0.0044019389897584915,-0.002424009144306183,-0.021527929231524467
1690838827499118000,7.2541181640625,-0.004138019867241383,-0.003234142903238535,-0.0198671817779541
1690838827509158100,7.264158203125,-0.004083158448338509,-0.00279046013019979,-0.019519904628396034
1690838827519199200,7.27419921875,-0.005651494022458792,-0.0025473134592175484,-0.020388362929224968
1690838827529239300,7.2842392578125,-0.004502340219914913,-0.0032352081034332514,-0.021504493430256844
1690838827539279000,7.294279052734375,-0.005369998048990965,-0.00452790642157197,-0.02088850364089012
1690838827549350100,7.30435009765625,-0.0054882424883544445,-0.0008034756756387651,-0.01902003027498722
1690838827559390000,7.314389892578125,-0.004116714466363192,-0.0005060005933046341,-0.021886922419071198
1690838827569430000,7.324429931640625,-0.004702343605458736,-0.002213619416579604,-0.01997770369052887
1690838827579471000,7.33447119140625,-0.003964381758123636,-0.0028519791085273027,-0.019532155245542526
1690838827589511200,7.34451123046875,-0.004517520312219858,-0.0034314829390496016,-0.018997393548488617
1690838827599551200,7.35455126953125,-0.006673082709312439,-0.0018018947448581457,-0.020973725244402885
1690838827609592300,7.36459228515625,-0.005076251458376646,-0.0032258869614452124,-0.02184457890689373
1690838827619632000,7.374632080078125,-0.004801146686077118,-0.004825115203857422,-0.01925545372068882
1690838827629672000,7.384671875,-0.004004861693829298,-0.0017084177816286683,-0.01998169720172882
1690838827639712000,7.3947119140625,-0.0038426751270890236,-0.00199284334667027,-0.019727366045117378
1690838827649753000,7.404753173828125,-0.006702910177409649,-0.0023278691805899143,-0.01883281022310257
1690838827659793200,7.414793212890625,-0.005044027231633663,0.00012756542128045112,-0.02070474624633789
1690838827669833200,7.424833251953125,-0.005228051450103521,-0.0011488876771181822,-0.020843496546149254
1690838827679874300,7.434874267578125,-0.0039015309885144234,-0.0012572783743962646,-0.021133514121174812
1690838827689914000,7.4449140625,-0.003777960315346718,-0.002472212305292487,-0.02082165889441967
1690838827699954000,7.454953857421875,-0.005772135220468044,-0.0013230583863332868,-0.018846658989787102
1690838827709994000,7.464993896484375,-0.004248274490237236,-0.0018053569365292788,-0.019940685480833054
1690838827720065000,7.47506494140625,-0.004972121678292751,-0.0030565098859369755,-0.01990899257361889
1690838827730106000,7.485106201171875,-0.005604089703410864,-0.0038314899429678917,-0.02118358202278614
1690838827740146200,7.495146240234375,-0.004260525107383728,-0.0006271744496189058,-0.02009088732302189
1690838827750186200,7.505186279296875,-0.005658418405801058,-0.0011044129496440291,-0.018906844779849052
1690838827760226000,7.51522607421875,-0.005104214418679476,-0.0017214673571288586,-0.020679445937275887
1690838827770267100,7.52526708984375,-0.004848551005125046,-0.003817907767370343,-0.020651748403906822
1690838827780307000,7.535306884765625,-0.004606469534337521,-0.0018887137994170189,-0.020323114469647408
1690838827790347000,7.545346923828125,-0.0046538738533854485,-0.00034700988908298314,-0.02130315825343132
1690838827800388000,7.55538818359375,-0.004098072182387114,-0.0013145363191142678,-0.021621938794851303
1690838827810428200,7.56542822265625,-0.006733536254614592,-0.001415736391209066,-0.020062657073140144
1690838827820468200,7.57546826171875,-0.004985437728464603,-0.0035483958199620247,-0.018209630623459816
1690838827830508000,7.585508056640625,-0.0036876790691167116,-0.001970206620171666,-0.020551614463329315
1690838827840549000,7.595549072265625,-0.0037180392537266016,-0.0017712684348225594,-0.020482638850808144
1690838827850589000,7.6055888671875,-0.00535348616540432,-0.000835966260638088,-0.021439777687191963
1690838827860629000,7.61562890625,-0.005688778590410948,-0.0020732709672302008,-0.020725518465042114
1690838827870669000,7.6256689453125,-0.005375856999307871,-0.001894839107990265,-0.020783308893442154
1690838827880710100,7.635710205078125,-0.0052086105570197105,-0.0037790255155414343,-0.02208426408469677
1690838827890781200,7.64578125,-0.0054914383217692375,-0.002710299100726843,-0.019409118220210075
1690838827900821200,7.6558212890625,-0.005528722424060106,-0.0030575753189623356,-0.021407287567853928
1690838827910861000,7.665861083984375,-0.004490089602768421,-0.0008064051507972181,-0.018992865458130836
1690838827920901000,7.675901123046875,-0.0056770602241158485,-0.0017121462151408195,-0.020798223093152046
1690838827930942000,7.68594189453125,-0.00512924836948514,-0.001960619119927287,-0.02293061651289463
1690838827940982000,7.69598193359375,-0.005282113794237375,-0.0011773834703490138,-0.01937955617904663
1690838827951022800,7.70602294921875,-0.0046301716938614845,-0.0024114924017339945,-0.02027704194188118
1690838827961064000,7.71606396484375,-0.00552179804071784,-0.003469033632427454,-0.020329773426055908
1690838827971104000,7.72610400390625,-0.005672266706824303,-0.00373002327978611,-0.01871855929493904
1690838827981144000,7.73614404296875,-0.0046269758604466915,-0.00410499656572938,-0.02021738700568676
1690838827991184000,7.746183837890625,-0.005508216097950935,-0.0018961706664413214,-0.020855747163295746
1690838828001224700,7.756224609375,-0.004382497631013393,-0.003937217406928539,-0.021687451750040054
1690838828011264800,7.7662646484375,-0.005537244491279125,-0.00041012681322172284,-0.02124163880944252
1690838828021304800,7.776304931640625,-0.004679440520703793,-0.002642388455569744,-0.022551115602254868
1690838828031346000,7.786345947265625,-0.00466532539576292,-0.002538258908316493,-0.021767878904938698
1690838828041386000,7.796385986328125,-0.003826962551102042,-0.002882871776819229,-0.020663199946284294
1690838828051426000,7.806426025390625,-0.00552392890676856,-0.0021291973534971476,-0.021506890654563904
1690838828061497000,7.8164970703125,-0.004012851044535637,-0.002369148191064596,-0.021752167493104935
1690838828071537000,7.826536865234375,-0.003923901356756687,-0.001967010786756873,-0.01942616142332554
1690838828081576700,7.83657666015625,-0.005637912079691887,-0.0015507587231695652,-0.01950392685830593
1690838828091617800,7.84661767578125,-0.00532605592161417,-0.0009017463307827711,-0.020023776218295097
1690838828101657900,7.856657958984375,-0.005264803301542997,-0.002124403603374958,-0.01900804601609707
1690838828111698000,7.866697998046875,-0.0046160570345819,-0.0010902981739491224,-0.018976354971528053
1690838828121739000,7.876739013671875,-0.005759884603321552,-0.001746501075103879,-0.01992816850543022
1690838828131779000,7.886779052734375,-0.0057159424759447575,-0.0024927188642323017,-0.021528195589780807
1690838828141819000,7.89681884765625,-0.00424268189817667,-0.0010008158860728145,-0.02045813761651516
1690838828151858700,7.906858642578125,-0.0052115400321781635,-0.003762780223041773,-0.022247781977057457
1690838828161899800,7.916899658203125,-0.005544701125472784,-0.0025393241085112095,-0.02190663106739521
1690838828171939800,7.92693994140625,-0.005028314422816038,-0.0020682108588516712,-0.022232068702578545
1690838828181980000,7.93697998046875,-0.005503688473254442,-0.0026141589041799307,-0.019287943840026855
1690838828192021000,7.94702099609375,-0.0067995828576385975,-0.0037380128633230925,-0.01896117441356182
1690838828202061000,7.95706103515625,-0.0038695731200277805,-0.0012389025650918484,-0.018579542636871338
1690838828212100900,7.967100830078125,-0.005401955917477608,-0.0019592875614762306,-0.019272496923804283
1690838828222140700,7.977140625,-0.005599296186119318,-0.001094559207558632,-0.019295400008559227
1690838828232211700,7.987211669921875,-0.004281297791749239,-0.003861050819978118,-0.021147629246115685
1690838828242252800,7.997252685546875,-0.005215002223849297,-0.0012301141396164894,-0.02070075087249279
1690838828252292900,8.00729296875,-0.00418462511152029,-0.0019345202017575502,-0.02256256714463234
1690838828262333000,8.0173330078125,-0.0049026133492589,-0.001258343574590981,-0.020915402099490166
1690838828272373000,8.027373046875,-0.004900216590613127,-0.0026783409994095564,-0.02009035460650921
1690838828282414000,8.0374140625,-0.004007791168987751,-0.0003020024741999805,-0.020242154598236084
1690838828292454000,8.047453857421875,-0.019238941371440887,-0.05495272949337959,0.04440554603934288
1690838828302493700,8.05749365234375,-0.015851134434342384,-0.02719353698194027,0.054727692157030106
1690838828312534800,8.06753466796875,-0.006368683185428381,-0.009331982582807541,-0.032586172223091125
1690838828322574800,8.077574951171876,0.001674595638178289,-0.07214636355638504,-0.04773662984371185
1690838828332615000,8.087614990234375,0.01019884180277586,-0.0784844234585762,-0.07244384288787842
1690838828342655000,8.097655029296876,0.007216633763164282,-0.05766382813453674,-0.07082810252904892
1690838828352696000,8.107696044921875,0.0028573055751621723,-0.017836520448327065,-0.06654520332813263
1690838828362735900,8.11773583984375,-0.004603273700922728,0.015741411596536636,-0.06554758548736572
1690838828372775700,8.127775634765625,-0.010180465877056122,0.03966698423027992,-0.05746542289853096
1690838828382815700,8.137815673828126,-0.013105149380862713,0.05570454150438309,-0.04874703288078308
1690838828392856800,8.14785693359375,-0.012194082140922546,0.0528312548995018,-0.03972770646214485
1690838828402927900,8.157927978515625,-0.007872303947806358,0.036315396428108215,-0.027244403958320618
1690838828412968000,8.167968017578126,-0.0015784555580466986,0.010489392094314098,-0.01738405041396618
1690838828423008000,8.178008056640625,0.00020879182557109743,-0.017164872959256172,-0.004767058417201042
1690838828433047800,8.1880478515625,0.0013558153295889497,-0.036182504147291183,0.00318940170109272
1690838828443089000,8.1980888671875,-0.000365918327588588,-0.04610491171479225,0.008791893720626831
1690838828453128700,8.208128662109376,-0.006335393991321325,-0.03843341022729874,0.016594689339399338
1690838828463168800,8.218168701171875,-0.0073045180179178715,-0.028618061915040016,0.018929217010736465
1690838828473209900,8.2282099609375,-0.008527175523340702,-0.006828611250966787,0.015246863476932049
1690838828483250000,8.23825,-0.008834504522383213,0.013680924661457539,0.014200241304934025
1690838828493290000,8.2482900390625,-0.007497331127524376,0.027182884514331818,0.005967611446976662
1690838828503329800,8.258329833984375,-0.0026346652302891016,0.03567091375589371,0.0006953513366170228
1690838828513371000,8.268370849609376,-0.0008487494196742773,0.02628832869231701,-0.007097324356436729
1690838828523410700,8.27841064453125,-0.0015933692920953035,0.01315042283385992,-0.017728930339217186
1690838828533450800,8.28845068359375,-0.002802710747346282,-0.00532578956335783,-0.02418603003025055
1690838828543491800,8.298491943359375,-0.003955326974391937,-0.018746256828308105,-0.03297046571969986
1690838828553532000,8.308531982421876,-0.005813680589199066,-0.02480042167007923,-0.038239262998104095
1690838828563572000,8.318572021484375,-0.00749014038592577,-0.02509709820151329,-0.04416799545288086
1690838828573643000,8.32864306640625,-0.005751895252615213,-0.01878167688846588,-0.047388020902872086
1690838828583682800,8.338682861328126,-0.002763828495517373,-0.00893597025424242,-0.04808204248547554
1690838828593723000,8.348722900390625,-0.0026407905388623476,0.004719920456409454,-0.04808390513062477
1690838828603763700,8.358763671875,-0.0032855418976396322,0.009601227939128876,-0.0439903624355793
1690838828613803800,8.3688037109375,-0.002757969545200467,0.014844459481537342,-0.04198606684803963
1690838828623843800,8.37884375,-0.0038256309926509857,0.011902998201549053,-0.03316887095570564
1690838828633885000,8.388885009765625,-0.005401689559221268,0.002531600883230567,-0.0296148844063282
1690838828643925000,8.398925048828126,-0.005437109619379044,0.0014239922165870667,-0.02237987332046032
1690838828653964800,8.40896484375,-0.0065476479940116405,-0.008624646812677383,-0.014657772146165371
1690838828664004900,8.4190048828125,-0.005594236310571432,-0.011127219535410404,-0.010216951370239258
1690838828674045700,8.429045654296875,-0.0029885992407798767,-0.01263856329023838,-0.0043806335888803005
1690838828684085800,8.439085693359376,-0.0030565098859369755,-0.009119728580117226,-0.0012434299569576979
1690838828694125800,8.449125732421875,-0.0043742419220507145,-0.005343899130821228,0.00009454221435589716
1690838828704167000,8.4591669921875,-0.004875182639807463,-0.0006508765509352088,0.0000828243064461276
1690838828714207000,8.46920703125,-0.00552259711548686,0.003652791725471616,-0.00034674355993047357
1690838828724246800,8.479246826171876,-0.0057739997282624245,0.005762547720223665,-0.004650145769119263
1690838828734286800,8.489286865234375,-0.00583818182349205,0.004218979738652706,-0.00697987899184227
1690838828744358000,8.49935791015625,-0.004637895151972771,0.0024498419370502234,-0.011529357172548771
1690838828754398700,8.509398681640626,-0.004020840395241976,-0.0015989618841558695,-0.01594274677336216
1690838828764438800,8.519438720703125,-0.005392102058976889,-0.003369697602465749,-0.02089116722345352
1690838828774478800,8.529478759765626,-0.003192597534507513,-0.006338856182992458,-0.0261080339550972
1690838828784519000,8.539518798828125,-0.003900465788319707,-0.005541771650314331,-0.02917812578380108
1690838828794560000,8.54956005859375,-0.004179032519459724,-0.004959871061146259,-0.03086204268038273
1690838828804599800,8.559599853515625,-0.0043321643024683,-0.004668521229177713,-0.03516358137130737
1690838828814639900,8.569639892578126,-0.0052136704325675964,-0.0023246733471751213,-0.03778759390115738
1690838828824680700,8.5796806640625,-0.006196376867592335,0.00015100123709999025,-0.03720462694764137
1690838828834720800,8.589720703125,-0.004742823541164398,-0.0008780442294664681,-0.03393799439072609
1690838828844760800,8.5997607421875,-0.005273325368762016,-0.0009731190511956811,-0.033494044095277786
1690838828854801000,8.60980078125,-0.004926049150526524,-0.0008234494016505778,-0.030411701649427414
1690838828864842000,8.619842041015625,-0.0049438923597335815,-0.0021228056866675615,-0.027187945321202278
1690838828874881800,8.6298818359375,-0.005742840468883514,-0.0035694348625838757,-0.022219019010663033
1690838828884921900,8.639921875,-0.004069310147315264,-0.0035715652629733086,-0.01792334020137787
1690838828894962000,8.6499619140625,-0.00643686018884182,-0.0034993935842067003,-0.012685701251029968
1690838828905002800,8.660002685546875,-0.005536711774766445,-0.004747617058455944,-0.010186591185629368
1690838828915073800,8.67007373046875,-0.004436826333403587,-0.004656270612031221,-0.008570585399866104
1690838828925113900,8.68011376953125,-0.005648031830787659,-0.0035060516092926264,-0.005930326879024506
1690838828935154000,8.69015380859375,-0.003905259305611253,-0.0013614079216495156,-0.007093595806509256
1690838828945193700,8.70019384765625,-0.0051747881807386875,-0.0020812603179365396,-0.009639844298362732
1690838828955219000,8.710218994140625,-0.005058940965682268,-0.000642354425508529,-0.010866229422390461
1690838828965259000,8.720259033203124,-0.00392762990668416,0.0003123887872789055,-0.012927250005304813
1690838828975299000,8.730299072265625,-0.0054520233534276485,0.00033875409280881286,-0.01617950201034546
1690838828985340200,8.740340087890624,-0.004421912599354982,-0.0024341291282325983,-0.01889086700975895
1690838828995380200,8.750380126953125,-0.003946005832403898,-0.003611512714996934,-0.02190556563436985
1690838829005420000,8.760419921875,-0.007166299968957901,-0.001984587637707591,-0.023143136873841286
1690838829015460000,8.770460205078125,-0.004165183752775192,-0.002773415995761752,-0.02527686022222042
1690838829025501000,8.7805009765625,-0.006742058787494898,-0.0020477045327425003,-0.028253741562366486
1690838829035541000,8.790541015625,-0.0027742148377001286,-0.001586178783327341,-0.027814587578177452
1690838829045581000,8.8005810546875,-0.006071208510547876,-0.0029172266367822886,-0.029619410634040833
1690838829055622100,8.8106220703125,-0.005244829226285219,-0.0029920614324510098,-0.028113126754760742
1690838829065662200,8.820662109375,-0.006596117280423641,-0.004363589454442263,-0.026432406157255173
1690838829075702000,8.830701904296875,-0.0043590618297457695,-0.0018849853659048676,-0.025439312681555748
1690838829085773000,8.84077294921875,-0.004559331573545933,-0.0019049590919166803,-0.02371358498930931
1690838829095813000,8.850813232421874,-0.0052144695073366165,-0.001979261403903365,-0.022455774247646332
1690838829105853200,8.860853271484375,-0.002691656816750765,-0.00024048343766480684,-0.022899456322193146
1690838829115894000,8.87089404296875,-0.005406217183917761,0.0012607404496520758,-0.017958760261535645
1690838829125934000,8.88093408203125,-0.004324174486100674,-0.0009571401169523597,-0.016802415251731873
1690838829135974100,8.89097412109375,-0.00606534956023097,-0.003457049373537302,-0.01455870270729065
1690838829146015200,8.90101513671875,-0.005096491426229477,-0.0036072516813874245,-0.014839399605989456
1690838829156055000,8.911054931640624,-0.006399309728294611,-0.0035025894176214933,-0.013831393793225288
1690838829166095000,8.92109521484375,-0.006611830089241266,-0.003376355627551675,-0.013198093511164188
1690838829176135200,8.93113525390625,-0.006057359743863344,-0.004276504274457693,-0.016142217442393303
1690838829186176000,8.941176025390625,-0.00452684098854661,-0.0028096348978579044,-0.015149392187595367
1690838829196216000,8.951216064453124,-0.0049095372669398785,-0.0006399576086550951,-0.016175774857401848
1690838829206256000,8.961256103515625,-0.006036054342985153,-0.002555303042754531,-0.018672486767172813
1690838829216297200,8.971297119140624,-0.005633118096739054,0.0013105415273457766,-0.02100115641951561
1690838829226337000,8.9813369140625,-0.006592122372239828,-0.0012695288751274347,-0.020554011687636375
1690838829236377000,8.991377197265624,-0.005543902516365051,-0.0012112056137993932,-0.020959610119462013
1690838829246417200,9.001417236328125,-0.005096757784485817,-0.001246625673957169,-0.023273363709449768
1690838829256488200,9.01148828125,-0.0036946034524589777,-0.0029760824982076883,-0.025675268843770027
1690838829266529000,9.021529052734374,-0.004743888974189758,-0.004017644561827183,-0.024890169501304626
1690838829276569000,9.031569091796875,-0.00478330347687006,-0.00490208063274622,-0.024398816749453545
1690838829286609200,9.041609130859374,-0.006564159411936998,-0.005340703297406435,-0.024477912113070488
1690838829296649000,9.05164892578125,-0.005447496194392443,-0.004760134033858776,-0.022829148918390274
1690838829306690000,9.06168994140625,-0.0038104509003460407,-0.0034325483720749617,-0.02286510169506073
1690838829316730000,9.071730224609375,-0.003994741477072239,-0.001574194524437189,-0.022467492148280144
1690838829326770200,9.081770263671874,-0.006100769154727459,-0.0003347593592479825,-0.019566243514418602
1690838829336811000,9.09181103515625,-0.005530852824449539,0.0018849853659048676,-0.021259216591715813
1690838829346851000,9.10185107421875,-0.004221110139042139,0.0013933659065514803,-0.02045014686882496
1690838829356891100,9.11189111328125,-0.004567321389913559,-0.0002612560929264873,-0.01804558001458645
1690838829366931000,9.121930908203124,-0.00443895673379302,-0.0021350563038140535,-0.01936677284538746
1690838829376972000,9.131971923828125,-0.005619003437459469,-0.0030455910600721836,-0.0169755220413208
1690838829387012000,9.14201220703125,-0.004426972474902868,-0.005781989078968763,-0.017408818006515503
1690838829397052200,9.15205224609375,-0.006848851218819618,-0.00523657351732254,-0.015855396166443825
1690838829407092000,9.162092041015624,-0.003939081449061632,-0.0037025928031653166,-0.014611166901886463
1690838829417133000,9.172133056640625,-0.004087686073035002,-0.0011622034944593906,-0.015801865607500076
1690838829427204000,9.1822041015625,-0.0056986319832503796,0.0002846919232979417,-0.018433868885040283
1690838829437244200,9.192244140625,-0.004507666453719139,-0.0007643272401764989,-0.01883494108915329
1690838829447284000,9.202283935546875,-0.0055180699564516544,0.0019028285751119256,-0.018940934911370277
1690838829457324000,9.212323974609374,-0.005273325368762016,0.00041332258842885494,-0.023813188076019287
1690838829467365000,9.222365234375,-0.003840810852125287,-0.0011036139912903309,-0.022763369604945183
1690838829477405200,9.2324052734375,-0.004613660275936127,-0.003881823504343629,-0.020905282348394394
1690838829487445000,9.242445068359375,-0.005815544631332159,-0.005751895252615213,-0.021193169057369232
1690838829497486000,9.252486083984374,-0.0037353497464209795,-0.004889830015599728,-0.021136710420250893
1690838829507526100,9.262526123046875,-0.002654106356203556,-0.00227806787006557,-0.020914603024721146
1690838829517566000,9.27256591796875,-0.006554571911692619,-0.004836034029722214,-0.022977221757173538
1690838829527606000,9.28260595703125,-0.004713262431323528,-0.0023987090680748224,-0.022834209725260735
1690838829537647000,9.292647216796874,-0.004644286818802357,-0.0007427555974572897,-0.023301327601075172
1690838829547687200,9.302687255859375,-0.0037979339249432087,0.001317998394370079,-0.025114940479397774
1690838829557727000,9.31272705078125,-0.004531901329755783,0.0027654264122247696,-0.021271999925374985
1690838829567768000,9.32276806640625,-0.002906573936343193,0.00025353292585350573,-0.019458919763565063
1690838829577808100,9.33280810546875,-0.004875448998063803,-0.0011089402250945568,-0.018501512706279755
1690838829587848000,9.342847900390625,-0.004599279258400202,-0.0038402783684432507,-0.016589095816016197
1690838829597919000,9.3529189453125,-0.004118045791983604,-0.0030450583435595036,-0.014781076461076736
1690838829607959000,9.362958984375,-0.006494118366390467,-0.005271727219223976,-0.017597902566194534
1690838829617999000,9.3729990234375,-0.006764429155737162,-0.005338306538760662,-0.01714196801185608
1690838829628040200,9.383040283203124,-0.005257878918200731,-0.0036693033762276173,-0.016937438398599625
1690838829638080000,9.393080078125,-0.005049619823694229,-0.0012341088149696589,-0.016634104773402214
1690838829648120000,9.4031201171875,-0.004887166898697615,0.00017603494052309543,-0.018980881199240685
1690838829658161200,9.4131611328125,-0.004181162919849157,0.00101120222825557,-0.02508750930428505
1690838829668201000,9.423200927734374,-0.003916711080819368,0.0009464874165132642,-0.02093910425901413
1690838829678241000,9.433240966796875,-0.003783819265663624,0.0007390272221527994,-0.022010227665305138
1690838829688281000,9.443281005859374,-0.005305016878992319,-0.00250576832331717,-0.019577164202928543
1690838829698322200,9.453322265625,-0.004708468914031982,-0.004171309061348438,-0.02165389619767666
1690838829708362000,9.463362060546874,-0.0057502975687384605,-0.00401684595271945,-0.021800637245178223
1690838829718402000,9.473402099609375,-0.004092213232070208,-0.0057015614584088326,-0.020979050546884537
1690838829728443100,9.483443115234374,-0.00481259822845459,-0.0007030745036900043,-0.021009411662817
1690838829738483000,9.49348291015625,-0.005037901923060417,-0.0012756541837006807,-0.021743111312389374
1690838829748523000,9.50352294921875,-0.0030535804107785225,-0.0017113472567871213,-0.02207600697875023
1690838829758563000,9.51356298828125,-0.006066414527595043,-0.000218645524000749,-0.023482955992221832
1690838829768634000,9.523634033203125,-0.0052173989824950695,0.0011198592837899923,-0.022164158523082733
1690838829778675200,9.53367529296875,-0.003974767867475748,-0.000009054747351910919,-0.02087518759071827
1690838829788715000,9.543715087890625,-0.004490622319281101,-0.0011078750248998404,-0.01979500986635685
1690838829798755000,9.553755126953124,-0.0038549257442355156,-0.0003171824791934341,-0.017905764281749725
1690838829808795000,9.563794921875,-0.006359096150845289,-0.001520132296718657,-0.018156899139285088
1690838829818836000,9.5738359375,-0.004247475415468216,-0.004345213528722525,-0.017853299155831337
1690838829828876000,9.5838759765625,-0.004830707795917988,-0.003233077470213175,-0.017606157809495926
1690838829838916000,9.593916015625,-0.004781173076480627,-0.005967611446976662,-0.01806049235165119
1690838829848956200,9.6039560546875,-0.004219512455165386,-0.0028538433834910393,-0.018922824412584305
1690838829858997000,9.6139970703125,-0.0035867453552782536,-0.0023792681749910116,-0.021214740350842476
1690838829869037000,9.624037109375,-0.005179848056286573,-0.0026999127585440874,-0.02040008082985878
1690838829879076900,9.634076904296874,-0.005336708389222622,0.00042637207661755383,-0.02293221279978752
1690838829889118000,9.644117919921875,-0.005455751903355122,-0.0023646207991987467,-0.02285684645175934
1690838829899158000,9.654157958984374,-0.005633118096739054,-0.001463673310354352,-0.020626714453101158
1690838829909198000,9.664197998046875,-0.004667189903557301,-0.002433330286294222,-0.019209647551178932
1690838829919238100,9.674238037109374,-0.005233644042164087,-0.0024833977222442627,-0.019837087020277977
1690838829929279000,9.684279052734375,-0.004068244714289904,-0.002775280037894845,-0.019342537969350815
1690838829939350000,9.69435009765625,-0.005020591430366039,-0.002394714392721653,-0.020114855840802193
1690838829949390000,9.70439013671875,-0.001680454588495195,-0.0021411816123872995,-0.02376152202486992
1690838829959446800,9.71444677734375,-0.005378253757953644,-0.0017528926255181432,-0.021615546196699142
1690838829969486800,9.72448681640625,-0.004619785584509373,-0.0026961842086166143,-0.02136787213385105
1690838829979528000,9.73452783203125,-0.005043228156864643,-0.002338521648198366,-0.02178412489593029
1690838829989567700,9.744567626953126,-0.0037878139410167933,-0.0023315974976867437,-0.020910074934363365
1690838829999607800,9.75460791015625,-0.005757754202932119,-0.0019387812353670597,-0.020869862288236618
1690838830009649000,9.76464892578125,-0.0033816818613559008,0.00043010051012970507,-0.01878061145544052
1690838830019689000,9.77468896484375,-0.006095975637435913,0.00029108350281603634,-0.019096462056040764
1690838830029728800,9.784728759765626,-0.005545766558498144,-0.0020564929582178593,-0.020847225561738014
1690838830039768800,9.794768798828125,-0.005696767941117287,-0.0009105347562581301,-0.01774916984140873
1690838830049810000,9.804809814453124,-0.0037377465050667524,-0.001627457677386701,-0.019124159589409828
1690838830059849700,9.814849609375,-0.004797950852662325,-0.0023883229587227106,-0.020662667229771614
1690838830069889800,9.824889892578126,-0.004388090688735247,-0.003051982494071126,-0.019947608932852745
1690838830079931000,9.834930908203125,-0.0032866070978343487,-0.0028605014085769653,-0.0190218947827816
1690838830089971000,9.844970947265624,-0.005556419026106596,-0.0043593281880021095,-0.020711669698357582
1690838830100010800,9.8550107421875,-0.005634982604533434,-0.0025537051260471344,-0.0203420240432024
1690838830110081800,9.865081787109375,-0.005394499283283949,-0.0011981561547145247,-0.020243220031261444
1690838830120121900,9.875121826171876,-0.004525509662926197,0.00028868665685877204,-0.020242420956492424
1690838830130161700,9.88516162109375,-0.004711132030934095,0.0011267834343016148,-0.019641345366835594
1690838830140202800,9.89520263671875,-0.004673847462981939,-0.0006093312404118478,-0.020552147179841995
1690838830150242800,9.905242919921875,-0.006010754499584436,0.0014226606581360102,-0.01877075806260109
1690838830160283000,9.915282958984376,-0.005653624422848225,-0.0030005834996700287,-0.01830204203724861
1690838830170324000,9.925323974609375,-0.004979312419891357,-0.002907106652855873,-0.02143178880214691
1690838830180363800,9.93536376953125,-0.0038456046022474766,-0.003912449814379215,-0.02004428207874298
1690838830190403800,9.94540380859375,-0.004727377090603113,-0.0038685076870024204,-0.020119382068514824
1690838830200443600,9.955443603515626,-0.0057593523524701595,-0.0038373488932847977,-0.01884213089942932
1690838830210484700,9.965484619140625,-0.00561074772849679,-0.0012383698485791683,-0.01823439821600914
1690838830220524800,9.97552490234375,-0.003406981937587261,-0.001678057829849422,-0.02034388668835163
1690838830230564900,9.98556494140625,-0.004036819562315941,-0.00047590688336640596,-0.019723903387784958
1690838830240606000,9.99560595703125,-0.00506985979154706,-0.002145176287740469,-0.01679176278412342
1690838830250645800,10.005645751953125,-0.0059873186983168125,0.0001781654718797654,-0.0201561339199543
1690838830260685800,10.015685791015626,-0.0049553439021110535,-0.0013824469642713666,-0.01889219880104065
1690838830270726000,10.025725830078125,-0.005690908990800381,-0.0030900659039616585,-0.019931895658373833
1690838830280796700,10.035796630859375,-0.005132976453751326,-0.0036629117093980312,-0.020830713212490082
1690838830290837800,10.045837646484374,-0.005212072748690844,-0.00404614070430398,-0.02052471600472927
1690838830300877800,10.0558779296875,-0.005752161610871553,-0.005810484755784273,-0.019666112959384918
1690838830310918000,10.06591796875,-0.0039017973467707634,-0.0029470541048794985,-0.020183831453323364
1690838830320958000,10.0759580078125,-0.003683151677250862,-0.0014365090755745769,-0.01894412934780121
1690838830330998800,10.085998779296874,-0.004751878324896097,-0.0017699368763715029,-0.021389711648225784
1690838830341038800,10.096038818359375,-0.004877046681940556,-0.000013582121027866378,-0.020666662603616714
1690838830351078700,10.10607861328125,-0.004846420604735613,0.0007036071619950235,-0.020264524966478348
1690838830361118700,10.11611865234375,-0.004168379586189985,-0.0023350596893578768,-0.022415559738874435
1690838830371159800,10.126159912109374,-0.004859203472733498,-0.0014676681021228433,-0.02291889861226082
1690838830381200000,10.136199951171875,-0.005299424286931753,-0.00436065997928381,-0.021092236042022705
1690838830391240000,10.146239990234376,-0.005649363622069359,-0.0033068470656871796,-0.021650167182087898
1690838830401280800,10.15628076171875,-0.004299673717468977,-0.003581685246899724,-0.019752399995923042
1690838830411320800,10.16632080078125,-0.004412857815623283,-0.0029435919132083654,-0.02256735973060131
1690838830421361000,10.17636083984375,-0.00498117646202445,-0.002662095706909895,-0.020666129887104034
1690838830431400700,10.186400634765626,-0.005678924731910229,-0.0005001416429877281,-0.021157748997211456
1690838830441441800,10.19644189453125,-0.006243514828383923,0.0003683151735458523,-0.017911888659000397
1690838830451512800,10.206512939453125,-0.004475175868719816,-0.0005728459218516946,-0.020372116938233376
1690838830461553000,10.216552978515624,-0.005356681998819113,-0.000040480048483004794,-0.020257867872714996
1690838830471593000,10.226593017578125,-0.004782238509505987,0.0004644552827812731,-0.019643209874629974
1690838830481633000,10.236633056640626,-0.004735899157822132,-0.002558765234425664,-0.02069968543946743
1690838830491673900,10.246673828125,-0.004785966593772173,-0.00021305288828443736,-0.02045094594359398
1690838830501713700,10.256713623046876,-0.004671717062592506,-0.003692206460982561,-0.017841048538684845
1690838830511753700,10.266753662109375,-0.005663744639605284,-0.002566754585132003,-0.019180884584784508
1690838830521794800,10.276794921875,-0.003943342715501785,-0.004854143597185612,-0.019598202779889107
1690838830531835000,10.2868349609375,-0.004963599611073732,-0.001790975802578032,-0.018740132451057434
1690838830541875000,10.296875,-0.004204066004604101,-0.0024916534312069416,-0.01774863712489605
1690838830551915000,10.3069150390625,-0.00458622956648469,-0.0014623417519032955,-0.020742828026413918
1690838830561955800,10.316955810546874,-0.004446413833647966,0.0012458267156034708,-0.02130422368645668
1690838830571995600,10.32699560546875,-0.0036666402593255043,-0.000022636868379777297,-0.021157216280698776
1690838830582035700,10.33703564453125,-0.004174504894763231,0.0006583334179595113,-0.02160436101257801
1690838830592076800,10.347076904296875,-0.006735134404152632,-0.0024639565963298082,-0.01991991139948368
1690838830602116900,10.357116943359374,-0.005008607171475887,-0.0034176346380263567,-0.021927669644355774
1690838830612157000,10.367156982421875,-0.004453337751328945,-0.0015448997728526592,-0.022120747715234756
1690838830622228000,10.37722802734375,-0.004614192992448807,-0.00413509039208293,-0.021040836349129677
1690838830632268000,10.38726806640625,-0.0030802120454609394,-0.003385144053027034,-0.020311130210757256
1690838830642307800,10.397307861328125,-0.00487251952290535,-0.0016879114555194974,-0.02142912521958351
1690838830652348700,10.4073486328125,-0.004642955027520657,-0.0018985675415024161,-0.021875737234950066
1690838830662388700,10.417388671875,-0.0036999296862632036,-0.005664543714374304,-0.021256819367408752
1690838830672428800,10.4274287109375,-0.004216849338263273,-0.0031728900503367186,-0.020236827433109283
1690838830682470000,10.437469970703125,-0.004964132327586412,-0.0013547500129789114,-0.02064003050327301
1690838830692510000,10.447510009765624,-0.003944141324609518,-0.0006503439508378506,-0.020495686680078506
1690838830702550000,10.457550048828125,-0.004593953024595976,-0.0013262542197480798,-0.019644541665911674
1690838830712589800,10.46758984375,-0.006043511442840099,-0.005789712071418762,-0.020779579877853394
1690838830722630700,10.477630615234375,-0.005614742636680603,-0.0032551817130297422,-0.019685819745063782
1690838830732670700,10.487670654296876,-0.00475507415831089,-0.001945705502294004,-0.019588615745306015
1690838830742710800,10.497710693359375,-0.004355333745479584,-0.00199337606318295,-0.020652281120419502
1690838830752751900,10.507751953125,-0.003724430687725544,-0.002160090021789074,-0.020656010136008263
1690838830762792000,10.5177919921875,-0.0049185920506715775,-0.0007725830073468387,-0.019027752801775932
1690838830772832000,10.52783203125,-0.006689594127237797,-0.00261841993778944,-0.019720973446965218
1690838830782872000,10.5378720703125,-0.00498011102899909,-0.0014511564513668418,-0.020323114469647408
1690838830792942800,10.54794287109375,-0.004336957819759846,-0.0016817862633615732,-0.01932256482541561
1690838830802983700,10.557983642578124,-0.005146292503923178,-0.0010492854053154588,-0.01967729814350605
1690838830813023700,10.568023681640625,-0.0038954056799411774,-0.001990180229768157,-0.020482372492551804
1690838830823063800,10.578063720703126,-0.0034381409641355276,-0.001458080718293786,-0.01992896758019924
1690838830833104000,10.588103759765625,-0.004024302586913109,-0.0024799355305731297,-0.019418971613049507
1690838830843145000,10.59814501953125,-0.0052179316990077496,-0.005618470720946789,-0.020190222188830376
1690838830853185000,10.60818505859375,-0.005542837083339691,-0.003346261801198125,-0.020685836672782898
1690838830863224800,10.618224853515626,-0.006535663735121489,-0.0037864823825657368,-0.019213907420635223
1690838830873265000,10.628264892578125,-0.006678408943116665,-0.003388073528185487,-0.018820026889443398
1690838830883305700,10.6383056640625,-0.005074386950582266,-0.0002210423699580133,-0.021763619035482407
1690838830893345800,10.648345703125,-0.0046970173716545105,-0.002543318783864379,-0.018932145088911057
1690838830903385900,10.6583857421875,-0.005685849115252495,-0.00148151651956141,-0.020609138533473015
1690838830913427000,10.668427001953125,-0.0037982002831995487,-0.0017358483746647835,-0.019340142607688904
1690838830923467000,10.678467041015624,-0.00629065278917551,-0.0019294602097943425,-0.01973668672144413
1690838830933507000,10.688507080078125,-0.004686364438384771,-0.0021398498211055994,-0.019935091957449913
1690838830943547000,10.698546875,-0.0037705034483224154,-0.0025965820532292128,-0.019302325323224068
1690838830953555200,10.70855517578125,-0.0043649207800626755,-0.0025720810517668724,-0.019294869154691696
1690838830963626200,10.718626220703126,-0.005795304663479328,-0.002776345470920205,-0.019473299384117126
1690838830973666300,10.728666259765625,-0.005547098349779844,-0.0036248285323381424,-0.021191837266087532
1690838830983706000,10.7387060546875,-0.004864796530455351,-0.0034815503749996424,-0.020789701491594315
1690838830993746200,10.74874609375,-0.0038783615455031395,-0.0033425334841012955,-0.020306870341300964
1690838831003787300,10.758787353515626,-0.0059660132974386215,-0.0012634035665541887,-0.021037107333540916
1690838831013827000,10.7688271484375,-0.006362025626003742,-0.0027121631428599358,-0.02118491381406784
1690838831023867100,10.7788671875,-0.005654423497617245,-0.0014421016676351428,-0.020372916013002396
1690838831033908200,10.788908203125,-0.0049185920506715775,-0.0018279937794432044,-0.020615529268980026
1690838831043948300,10.7989482421875,-0.00458729499951005,0.00029827404068782926,-0.021643243730068207
1690838831053988000,10.808988037109375,-0.005340703297406435,-0.002900714986026287,-0.019835490733385086
1690838831064028200,10.819028076171875,-0.004569185432046652,-0.002353169023990631,-0.020667994394898415
1690838831074069200,10.8290693359375,-0.005440039094537497,-0.001704689348116517,-0.019362246617674828
1690838831084109300,10.839109375,-0.003215234261006117,-0.004933505784720182,-0.02076013945043087
1690838831094149000,10.849149169921875,-0.0052384380251169205,-0.0033995250705629587,-0.01920352131128311
1690838831104190200,10.859190185546876,-0.005359877832233906,-0.0023185480386018753,-0.020351611077785492
1690838831114230300,10.869230224609375,-0.005664010997861624,-0.0018628811230883002,-0.019362246617674828
1690838831124270000,10.87927001953125,-0.005872802808880806,-0.0004844290087930858,-0.01799311488866806
1690838831134341000,10.889341064453125,-0.004085022956132889,-0.00011930961773032323,-0.019832827150821686
1690838831144381200,10.899381103515625,-0.005781190004199743,-0.00105354655534029,-0.01943734660744667
1690838831154421000,10.9094208984375,-0.004692489746958017,-0.0023584954906255007,-0.01967303641140461
1690838831164462000,10.919462158203125,-0.005289836786687374,-0.0035382758360356092,-0.021500231698155403
1690838831174502100,10.929502197265625,-0.005714611150324345,-0.0023012375459074974,-0.0192546546459198
1690838831184542200,10.939542236328125,-0.003989415243268013,-0.0024290692526847124,-0.021221932023763657
1690838831194583300,10.949583251953126,-0.005885053426027298,-0.0031180288642644882,-0.020839767530560493
1690838831204623000,10.959623046875,-0.005511678289622068,0.00010359696898376569,-0.019043732434511185
1690838831214663200,10.9696630859375,-0.004168379586189985,-0.0027209515683352947,-0.02058543637394905
1690838831224703000,10.979702880859374,-0.0057739997282624245,-0.0013073458103463054,-0.018863702192902565
1690838831234744000,10.989744140625,-0.004917527083307505,-0.001350755337625742,-0.020292488858103752
1690838831244784000,10.9997841796875,-0.005507683381438255,-0.001972869737073779,-0.02155269682407379
1690838831254824200,11.00982421875,-0.006439523305743933,-0.001919340225867927,-0.02117106504738331
1690838831264865300,11.019865234375,-0.005089567042887211,-0.0026082999538630247,-0.019818978384137154
1690838831274905000,11.029905029296875,-0.004520716145634651,-0.0016418388113379478,-0.020309532061219215
1690838831284945200,11.039945068359375,-0.003832821501418948,-0.001981924520805478,-0.02243979461491108
1690838831294985200,11.049985107421875,-0.005662412848323584,-0.0024431839119642973,-0.018245583400130272
1690838831305056000,11.060055908203125,-0.004283428192138672,-0.001793905277736485,-0.01906690187752247
1690838831315097000,11.07009716796875,-0.005561745725572109,-0.0017395768081769347,-0.020242687314748764
1690838831325137200,11.08013720703125,-0.004723649006336927,-0.0021065603941679,-0.019088473170995712
1690838831335177200,11.09017724609375,-0.004768389742821455,-0.002861832967028022,-0.01962030678987503
1690838831345217300,11.10021728515625,-0.003388339886441827,-0.0019973707385361195,-0.017837053164839745
1690838831355258000,11.110258056640625,-0.0038890140131115913,0.0001102548703784123,-0.021574800834059715
1690838831365298200,11.120298095703125,-0.004543086513876915,-0.0013054815353825688,-0.020169716328382492
1690838831375338000,11.130337890625,-0.004852279555052519,-0.001258876291103661,-0.01978941820561886
1690838831385378000,11.1403779296875,-0.0030594393610954285,-0.00387330143712461,-0.020369453355669975
1690838831395419100,11.150419189453125,-0.006291984114795923,-0.002541188383474946,-0.01991405338048935
1690838831405459200,11.160459228515625,-0.005137504078447819,-0.0013219931861385703,-0.01980060338973999
1690838831415499300,11.170499267578125,-0.005513808690011501,-0.0013640711549669504,-0.019766513258218765
1690838831425540000,11.1805400390625,-0.003864779369905591,-0.0027164241764694452,-0.01930765062570572
1690838831435580200,11.190580078125,-0.004508465528488159,-0.0033454629592597485,-0.02058490365743637
1690838831445620200,11.2006201171875,-0.0052024852484464645,-0.0026873957831412554,-0.02137133479118347
1690838831455660000,11.210659912109374,-0.005758020561188459,-0.0005025385180488229,-0.020176108926534653
1690838831465701000,11.220701171875,-0.0049220542423427105,-0.003091397462412715,-0.02046426199376583
1690838831475772200,11.230772216796876,-0.005285841878503561,-0.00006338323146337643,-0.019898340106010437
1690838831485812200,11.240812255859375,-0.006334062200039625,-0.0026759442407637835,-0.019002186134457588
1690838831495852300,11.250852294921875,-0.004512726329267025,-0.001790975802578032,-0.020615529268980026
1690838831505892400,11.260892333984375,-0.005514874123036861,-0.0013795174891129136,-0.020627513527870178
1690838831515933200,11.27093310546875,-0.004325772635638714,-0.0022040321491658688,-0.021317007020115852
1690838831525973000,11.280972900390625,-0.003824033075943589,-0.003082076320424676,-0.02076653018593788
1690838831536013000,11.291012939453125,-0.0054970309138298035,-0.0006673881434835494,-0.020479975268244743
1690838831546054100,11.30105419921875,-0.0043931505642831326,-0.0007643272401764989,-0.019837353378534317
1690838831556094200,11.31109423828125,-0.003894074121490121,-0.0014468954177573323,-0.020440293475985527
1690838831566134300,11.32113427734375,-0.0057553574442863464,-0.001838912721723318,-0.02112472616136074
1690838831576174300,11.33117431640625,-0.005584116093814373,-0.0006849650526419282,-0.019228555262088776
1690838831586215200,11.341215087890625,-0.0038181741256266832,-0.00273133791051805,-0.01997211016714573
1690838831596255200,11.351255126953125,-0.004343349486589432,-0.00301656243391335,-0.019532155245542526
1690838831606295000,11.361294921875,-0.004778243601322174,-0.0033939324785023928,-0.022159630432724953
1690838831616336100,11.371336181640626,-0.005380117800086737,-0.0029470541048794985,-0.021142037585377693
1690838831626376200,11.381376220703125,-0.0030509172938764095,0.001112935016863048,-0.019656259566545486
1690838831636416300,11.391416259765625,-0.006445382256060839,-0.0007952199084684253,-0.02136148139834404
1690838831646487300,11.4014873046875,-0.003659183392301202,-0.002802977105602622,-0.021470405161380768
1690838831656527400,11.41152734375,-0.0040456079877913,-0.001505484920926392,-0.01984880492091179
1690838831666567200,11.421567138671875,-0.005144162103533745,-0.002283926820382476,-0.019786221906542778
1690838831676608000,11.43160791015625,-0.004424042999744415,-0.0011704593198373914,-0.018808042630553246
1690838831686648000,11.44164794921875,-0.005649896338582039,-0.0024549018125981092,-0.020010193809866905
1690838831696688000,11.451688232421875,-0.005494633689522743,-0.002689792774617672,-0.021091969683766365
1690838831706729200,11.461729248046876,-0.0050701261498034,-0.002403769176453352,-0.02016119472682476
1690838831716769300,11.471769287109375,-0.0030059099663048983,-0.0018343853298574686,-0.019932428374886513
1690838831726809300,11.481809326171875,-0.00566827179864049,-0.0016879114555194974,-0.019359583035111427
1690838831736849200,11.49184912109375,-0.005818474106490612,-0.0020389161072671413,-0.019836023449897766
1690838831746890200,11.50189013671875,-0.003656520042568445,-0.0011171960504725575,-0.020492492243647575
1690838831756930000,11.511929931640625,-0.005489041097462177,-0.0022421153262257576,-0.018881546333432198
1690838831766970000,11.52197021484375,-0.0036629117093980312,-0.003715908620506525,-0.02046346291899681
1690838831777011200,11.53201123046875,-0.0029465213883668184,-0.0019270633347332478,-0.021014204248785973
1690838831787051300,11.54205126953125,-0.004428570624440908,-0.0029827402904629707,-0.02099369838833809
1690838831797091300,11.55209130859375,-0.0051654670387506485,0.0001328917423961684,-0.019034411758184433
1690838831807131400,11.56213134765625,-0.005130579695105553,-0.0013851100811734796,-0.01984907127916813
1690838831817202200,11.5722021484375,-0.003977164626121521,-0.0013760552974417806,-0.021682659164071083
1690838831827242200,11.5822421875,-0.003973702434450388,-0.0015912387752905488,-0.020626181736588478
1690838831837283000,11.592282958984375,-0.002670884132385254,-0.001978995045647025,-0.018035726621747017
1690838831847323100,11.6023232421875,-0.005647499579936266,-0.0008652610122226179,-0.020843230187892914
1690838831857363200,11.61236328125,-0.007817708887159824,-0.003531085327267647,-0.020313261076807976
1690838831867404300,11.622404296875,-0.004179831128567457,-0.0040978058241307735,-0.02063923142850399
1690838831877444400,11.6324443359375,-0.0046301716938614845,-0.0036908749025315046,-0.02052471600472927
1690838831887484200,11.642484130859375,-0.004458664450794458,-0.0024836640805006027,-0.020351611077785492
1690838831897524200,11.652524169921875,-0.005361742340028286,-0.002296443795785308,-0.019572369754314423
1690838831907565000,11.66256494140625,-0.004834436345845461,-0.002323608146980405,-0.018005099147558212
1690838831917605000,11.672605224609375,-0.005606752820312977,-0.0027446537278592587,-0.019749470055103302
1690838831927645200,11.682645263671875,-0.0051841093227267265,-0.0013883059145882726,-0.019934559240937233
1690838831937686300,11.692686279296876,-0.0060147494077682495,-0.002582467393949628,-0.017967814579606056
1690838831947726300,11.702726318359375,-0.00398728484287858,-0.0003414172388147563,-0.019356386736035347
1690838831957760300,11.71276025390625,-0.0035420041531324387,-0.0030719563364982605,-0.0209518875926733
1690838831967800300,11.72280029296875,-0.004346545320004225,-0.0033430662006139755,-0.020914070308208466
1690838831977841400,11.73284130859375,-0.005277586169540882,-0.003824033075943589,-0.020246682688593864
1690838831987912400,11.742912353515624,-0.004535629414021969,-0.004944158717989922,-0.020410733297467232
1690838831997952500,11.752952392578125,-0.00401551416143775,-0.0037920749746263027,-0.018756110221147537
