time,seconds_elapsed,z,y,x
1690838820439616500,0.194616455078125,-0.0013060793280601501,0.0017106309533119202,0.034851863980293274
1690838820449656300,0.20465625,-0.00019101379439234734,0.004051549360156059,0.05674571171402931
1690838820459696400,0.2146962890625,-0.0007478808984160423,0.009294514544308186,0.07489142566919327
1690838820469737200,0.2247373046875,-0.0002948339097201824,0.005853571463376284,0.08312685042619705
1690838820479777300,0.23477734375,0.0006750891916453838,0.006286068819463253,0.08894665539264679
1690838820489817300,0.2448173828125,0.0003304341807961464,0.004032261669635773,0.08359993249177933
1690838820499857400,0.254857421875,0.00017410656437277794,0.0023488779552280903,0.06899169832468033
1690838820509898500,0.2648984375,0.00048329681158065796,-0.0009341086260974407,0.05248183012008667
1690838820519938600,0.2749384765625,0.0005450821481645107,0.0012398299295455217,0.031628478318452835
1690838820529978400,0.284978271484375,-0.00004010181874036789,0.001985038397833705,0.009156834334135056
1690838820540019200,0.295019287109375,-0.0001442311331629753,-0.0005324478261172771,-0.013600144535303116
1690838820550059300,0.305059326171875,0.00016225269064307213,0.00044783041812479496,-0.03631310909986496
1690838820560099300,0.315099365234375,0.00021258648484945297,-0.0010232997592538595,-0.050556764006614685
1690838820570139400,0.325139404296875,-0.0020087119191884995,-0.00202936097048223,-0.060227204114198685
1690838820580210400,0.33521044921875,-0.0006177425384521484,-0.003449358744546771,-0.06806620955467224
1690838820590250200,0.345250244140625,0.0005130874924361706,-0.003831536741927266,-0.0652364194393158
1690838820600291300,0.355291259765625,0.001026012236252427,-0.0049149105325341225,-0.05718328803777695
1690838820610331400,0.365331298828125,-0.0005217795260250568,-0.002814514096826315,-0.04560497775673866
1690838820620371500,0.375371337890625,-0.0002088579349219799,-0.0011031667236238718,-0.03427668660879135
1690838820630412300,0.385412353515625,-0.00031582359224557877,0.0009120547911152244,-0.015520146116614342
1690838820640452400,0.395452392578125,0.0007140208035707474,0.002110210945829749,0.002289744094014168
1690838820650492400,0.405492431640625,-0.0019376017153263092,0.0014051628531888127,0.0185574758797884
1690838820660532200,0.4155322265625,-0.00028963759541511536,0.002832084661349654,0.03238833695650101
1690838820670573600,0.425573486328125,-0.0006502298638224602,0.003286952618509531,0.04239223524928093
1690838820680613400,0.43561328125,0.00007335096597671509,0.0009593496797606349,0.04991992563009262
1690838820690653400,0.4456533203125,-0.00016139866784214973,0.002791434060782194,0.05137230455875397
1690838820700694300,0.4556943359375,-0.000346221961081028,0.0008449296001344919,0.04880554974079132
1690838820710734300,0.465734375,-0.002033606171607971,0.0024225201923400164,0.041835516691207886
1690838820720774400,0.4757744140625,-0.0000034784898161888123,0.002551417099311948,0.030827339738607407
1690838820730814500,0.485814453125,-0.00041054049506783485,0.0024598361924290657,0.017495160922408104
1690838820740855600,0.49585546875,-0.0016454481519758701,0.010440263897180557,0.010869217105209827
1690838820750925300,0.50592529296875,-0.00024152174592018127,-0.0005034152418375015,-0.0111155416816473
1690838820760966400,0.51596630859375,0.0006663501262664795,0.0012295035412535071,-0.02163289673626423
1690838820771006500,0.52600634765625,-0.0006738342344760895,-0.002442287979647517,-0.029465066269040108
1690838820781046300,0.53604638671875,0.00020101433619856834,-0.0018619855400174856,-0.03548061102628708
1690838820791087400,0.54608740234375,-0.000696117989718914,-0.004928727634251118,-0.0386614054441452
1690838820801127400,0.55612744140625,0.000045039691030979156,-0.0029177742544561625,-0.03699213266372681
1690838820811167200,0.566167236328125,0.0004261448048055172,-0.0036865591537207365,-0.03211430460214615
1690838820821207300,0.576207275390625,0.0006586387753486633,-0.0011605508625507355,-0.024494463577866554
1690838820831248400,0.586248291015625,0.0011743935756385326,0.000014945631846785545,-0.01462487317621708
1690838820841288400,0.596288330078125,0.00005986075848340988,-0.000516887754201889,-0.006597837433218956
1690838820851328300,0.606328369140625,-0.0006754673086106777,-0.00035650678910315037,0.0035298317670822144
1690838820861369300,0.616369384765625,0.0010334830731153488,0.0010509738931432366,0.012337970547378063
1690838820871409400,0.626409423828125,0.0010972113814204931,-0.0011045043356716633,0.02038935199379921
1690838820881449500,0.636449462890625,-0.0016836612485349178,0.0004723534220829606,0.026500508189201355
1690838820891489300,0.6464892578125,-0.0006590932607650757,0.0007798282895237207,0.031037770211696625
1690838820901530400,0.6565302734375,0.000053835101425647736,0.0003334825159981847,0.027472596615552902
1690838820911570400,0.6665703125,0.00034554582089185715,0.0015315967611968517,0.026588493958115578
1690838820921641500,0.676641357421875,0.0014656712301075459,-0.0018985546194016933,0.02065470442175865
1690838820931681300,0.686681396484375,0.002056669443845749,0.0024882820434868336,0.014776892960071564
1690838820941721300,0.696721435546875,0.001006851438432932,0.002105053048580885,0.004759945906698704
1690838820951749400,0.706749267578125,0.0010195404756814241,0.0001149128656834364,-0.0035595744848251343
1690838820961789400,0.71678955078125,-0.00022096000611782074,0.0031130993738770485,-0.00996740534901619
1690838820971829500,0.72682958984375,-0.0007931292057037354,-0.00024180207401514053,-0.015412751585245132
1690838820981870300,0.736870361328125,-0.0009137704037129879,0.0009718002984300256,-0.018613871186971664
1690838820991910100,0.74691015625,-0.0013860687613487244,-0.0009815141092985868,-0.021290985867381096
1690838821001950200,0.7569501953125,0.000009160954505205154,-0.002627613954246044,-0.020544765517115593
1690838821011990300,0.766990234375,0.0005723834037780762,0.0006261997623369098,-0.018533926457166672
1690838821022031400,0.77703125,0.0012909041251987219,-0.0030364454723894596,-0.017166391015052795
1690838821032071400,0.787071533203125,-0.0006453180685639381,0.0007675777887925506,-0.009947746992111206
1690838821042111500,0.797111572265625,-0.0011718249879777431,-0.00042818160727620125,-0.005257386714220047
1690838821052151300,0.8071513671875,0.000803082250058651,-0.0004770704545080662,0.0018278565257787704
1690838821062192000,0.817192138671875,-0.001333571970462799,0.002377305645495653,0.006366414949297905
1690838821072232200,0.827232177734375,0.0007900632917881012,0.001357159810140729,0.010478499345481396
1690838821082272300,0.837272216796875,-0.000048566143959760666,0.0029758289456367493,0.01432197354733944
1690838821092343300,0.84734326171875,0.00014588842168450356,0.001470344141125679,0.01589243859052658
1690838821102383400,0.85738330078125,0.0005038175731897354,-0.00009080092422664165,0.017346791923046112
1690838821112424400,0.867424560546875,-0.0005774814635515213,0.001059266272932291,0.01630246452987194
1690838821122464500,0.877464599609375,0.00015994766727089882,0.0023519645910710096,0.013245421461760998
1690838821132504300,0.88750439453125,0.0006345799192786217,-0.00013131671585142612,0.008618165738880634
1690838821142545200,0.897545166015625,0.00018956558778882027,0.0007190305041149259,0.0037397872656583786
1690838821152585200,0.907585205078125,0.0004436615854501724,-0.0021598481107503176,-0.0036423243582248688
1690838821162625300,0.917625244140625,-0.0018929960206151009,-0.002210447797551751,-0.005171244964003563
1690838821172665300,0.927665283203125,-0.0020537315867841244,-0.0009017335250973701,-0.009996416047215462
1690838821182706400,0.93770654296875,-0.0015669059939682484,-0.0021425001323223114,-0.012379411607980728
1690838821192746500,0.94774658203125,-0.0004504825919866562,0.001028603408485651,-0.013688571751117706
1690838821202786300,0.957786376953125,-0.0006773839704692364,0.001296517439186573,-0.011491462588310242
1690838821212827100,0.9678271484375,-0.0006221337243914604,-0.0002383347600698471,-0.010888498276472092
1690838821222867200,0.9778671875,-0.0017009805887937546,-0.0007147742435336113,-0.011098887771368027
1690838821232907300,0.9879072265625,-0.0004583890549838543,-0.0005392772145569324,-0.006693562492728233
1690838821242947300,0.997947265625,-0.00016464199870824814,-0.002323595341295004,-0.002143818885087967
1690838821252988400,1.007988525390625,-0.0005814339965581894,-0.0013669875916093588,-0.0010625757277011871
1690838821263058400,1.018058349609375,0.0004755747504532337,0.000804021256044507,0.0050280736759305
1690838821273099500,1.028099609375,0.0010550306178629398,-0.0015833505894988775,0.007234770804643631
1690838821283139300,1.038139404296875,0.0007413104176521301,-0.000510096549987793,0.0086433170363307
1690838821293179400,1.048179443359375,0.0010464468505233526,0.0004639355465769768,0.010512321256101131
1690838821303220200,1.05822021484375,-0.0009272219613194466,0.0009832519572228193,0.009825492277741432
1690838821313260300,1.06826025390625,-0.00044541992247104645,0.0013898202450945973,0.009341297671198845
1690838821323300400,1.07830029296875,-0.0005327719263732433,0.0007783584296703339,0.008328231051564217
1690838821333340400,1.08834033203125,0.0004869098775088787,0.000037185847759246826,0.003252647817134857
1690838821343381500,1.098381591796875,-0.0019213869236409664,0.0012273526517674327,0.0002086535096168518
1690838821353421300,1.10842138671875,-0.0005469080060720444,-0.0003069352824240923,-0.003550868481397629
1690838821363461400,1.11846142578125,-0.00017193472012877464,-0.003740815445780754,-0.006669962778687477
1690838821373502200,1.128502197265625,-0.00011570332571864128,-0.0014713441487401724,-0.008579771965742111
1690838821383542300,1.138542236328125,-0.0008504693396389484,-0.00037332274951040745,-0.008601076900959015
1690838821393582300,1.148582275390625,0.0009814545046538115,0.0024219693150371313,-0.008826170116662979
1690838821403622400,1.158622314453125,-0.0009237709455192089,0.00044830061960965395,-0.007582740858197212
1690838821413663500,1.16866357421875,0.0005493960343301296,0.002551588462665677,-0.005909902974963188
1690838821423703300,1.178703369140625,-0.00002531427890062332,0.00008257175795733929,-0.00411546416580677
1690838821433774300,1.1887744140625,-0.0005044140852987766,-0.0005036280490458012,-0.0008318889886140823
1690838821443814400,1.198814453125,-0.0015683472156524658,-0.0017214915715157986,0.0002538803964853287
1690838821453854200,1.208854248046875,-0.00023781508207321167,0.0003022091696038842,0.00139562226831913
1690838821463895300,1.218895263671875,0.0021622255444526672,-0.00201287679374218,0.002763422206044197
1690838821473935400,1.228935302734375,0.0008265743963420391,0.0005078449612483382,0.003631971776485443
1690838821483975400,1.238975341796875,-0.00011991290375590324,0.0016633905470371246,0.0078046126291155815
1690838821494016500,1.2490166015625,0.000581854023039341,-0.00028516841121017933,0.005453898571431637
1690838821504056300,1.259056396484375,0.00032405974343419075,0.00013001845218241215,0.007809996604919434
1690838821514096400,1.269096435546875,0.0009311395697295666,0.001360024674795568,0.005240012891590595
1690838821524136200,1.27913623046875,0.0000618835911154747,0.0008577525150030851,0.004631481133401394
1690838821534177300,1.28917724609375,-0.00006583193317055702,0.0013156922068446875,0.0016106534749269485
1690838821544217300,1.29921728515625,0.0005395049229264259,-0.0005072415806353092,0.000741397961974144
1690838821554257400,1.30925732421875,0.00033790525048971176,0.0013799984008073807,-0.0010660868138074875
1690838821564297200,1.319297119140625,0.0001408313401043415,0.00013390532694756985,-0.0034813061356544495
1690838821574338300,1.32933837890625,0.001737183891236782,-0.0009290466550737619,-0.004547543823719025
1690838821584378400,1.33937841796875,0.0009747208096086979,-0.00015300163067877293,-0.005347557365894318
1690838821594418200,1.349418212890625,-0.0004387311637401581,-0.0016211674083024263,-0.0037036295980215073
1690838821604489200,1.3594892578125,-0.00014817994087934494,-0.001055245753377676,-0.005069831386208534
1690838821614529300,1.369529296875,-0.0002659503370523453,0.0016005354700610042,-0.002376522868871689
1690838821624570400,1.3795703125,-0.0007495800964534283,0.001055919099599123,0.00016759522259235382
1690838821634610400,1.3896103515625,-0.0006930315867066383,-0.0004454494919627905,-0.0004401206970214844
1690838821644650200,1.399650146484375,0.00010804738849401474,0.0011127660982310772,0.001644868403673172
1690838821654691300,1.40969140625,-0.0010174792259931564,0.0020741261541843414,0.00207488052546978
1690838821664731400,1.4197314453125,-0.0008779298514127731,-0.0016047647222876549,0.002003241330385208
1690838821674771200,1.429771240234375,-0.00021593831479549408,0.0020755536388605833,0.0011595357209444046
1690838821684811300,1.439811279296875,-0.0007248683832585812,0.0006387783214449883,0.0024482402950525284
1690838821694852400,1.449852294921875,0.0006230738945305347,-0.0024213213473558426,0.0016269665211439133
1690838821704892400,1.459892333984375,-0.0003465828485786915,-0.00016908603720366955,0.0017750374972820282
1690838821714932200,1.46993212890625,0.0008448841981589794,0.00100610195659101,0.0020489301532506943
1690838821724973300,1.479973388671875,-0.00010266853496432304,0.00027186842635273933,0.001836942508816719
1690838821735013000,1.49001318359375,-0.0006053349934518337,0.0011841474333778024,0.00004824437201023102
1690838821745053200,1.50005322265625,-0.0017603477463126183,0.001200925325974822,0.0010490603744983673
1690838821755093200,1.51009326171875,-0.0001619495451450348,-0.000243418850004673,-0.0010178834199905396
1690838821765134300,1.52013427734375,-0.00042001018300652504,0.0009685858385637403,-0.0009973756968975067
1690838821775204400,1.530204345703125,0.0009832470677793026,0.002350389026105404,-0.0011607520282268524
1690838821785245400,1.540245361328125,0.000050341710448265076,0.0017650262452661991,-0.002153310924768448
1690838821795285200,1.55028515625,-0.0013716677203774452,-0.0012539515737444162,-0.00008343905210494995
1690838821805325300,1.5603251953125,0.00007176538929343224,-0.0006925573106855154,-0.0011500343680381775
1690838821815366100,1.5703662109375,0.0012394837103784084,-0.001164488960057497,-0.0003862939774990082
1690838821825406200,1.58040625,-0.0005704006180167198,0.0004288803320378065,0.0010973531752824783
1690838821835446300,1.5904462890625,0.000366999302059412,0.002955376636236906,0.0008720848709344864
1690838821845486300,1.600486328125,-0.00042475853115320206,-0.0011003513354808092,0.0015847459435462952
1690838821855527400,1.61052734375,0.001147029222920537,-0.0003845319151878357,-0.0005175340920686722
1690838821865567200,1.620567138671875,0.00033662933856248856,-0.00017094635404646397,-0.0000400301069021225
1690838821875607300,1.630607177734375,-0.00040728552266955376,-0.0014605824835598469,0.000144321471452713
1690838821885648100,1.640648193359375,-0.000612881500273943,-0.001017698785290122,-0.00013903900980949402
1690838821895688200,1.650688232421875,0.001956272404640913,0.002409094711765647,0.0007225964218378067
1690838821905728300,1.660728271484375,0.0003482555039227009,0.0006399569101631641,0.0016701500862836838
1690838821915768300,1.670768310546875,0.000405285507440567,0.0009520433377474546,0.0018879547715187073
1690838821925809400,1.680809326171875,0.001099305460229516,0.0014164985623210669,0.00226718932390213
1690838821935849500,1.690849365234375,-0.000776887871325016,0.00031180621590465307,0.0025899801403284073
1690838821945897200,1.700897216796875,-0.00011935317888855934,0.0017903931438922882,-0.0002721194177865982
1690838821955937300,1.710937255859375,-0.00020819343626499176,-0.002766692079603672,-0.0005055144429206848
1690838821965977300,1.720977294921875,-0.00039727799594402313,-0.001263337442651391,-0.0020805075764656067
1690838821976018400,1.731018310546875,0.0007378184236586094,0.0018839797703549266,-0.0010279696434736252
1690838821986058500,1.74105859375,-0.00009015807881951332,-0.001098227920010686,-0.003279406577348709
1690838821996098600,1.7510986328125,-0.00008149491623044014,-0.00027241348288953304,-0.003786485642194748
1690838822006139400,1.761139404296875,0.0006673857569694519,-0.001397066516801715,-0.002422148361802101
1690838822016179200,1.77117919921875,-0.0004230099730193615,-0.0012333469931036234,-0.002687811851501465
1690838822026219300,1.78121923828125,-0.0007519102655351162,-0.0017976709641516209,0.00022435560822486877
1690838822036259300,1.79125927734375,-0.00023477990180253983,-0.001703403191640973,0.0013641342520713806
1690838822046300400,1.801300537109375,0.00010583875700831413,-0.0008120432030409575,0.002491716295480728
1690838822056340500,1.811340576171875,0.0011122829746454954,0.0006932845572009683,0.0009416230022907257
1690838822066380500,1.821380615234375,-0.0008491352200508118,0.0006725118728354573,0.0020524263381958008
1690838822076420600,1.831420654296875,-0.0007710522040724754,0.001983312191441655,0.0026637334376573563
1690838822086461400,1.84146142578125,-0.000925249420106411,0.002920212224125862,0.0003057718276977539
1690838822096501200,1.851501220703125,-0.0009640445932745934,-0.001535807503387332,-0.0008945614099502563
1690838822106541300,1.861541259765625,0.0000074766576290130615,-0.0013762840535491705,-0.00012144632637500763
1690838822116612400,1.8716123046875,-0.000042815227061510086,-0.000571876298636198,-0.0024373475462198257
1690838822126652400,1.88165234375,-0.00015520071610808372,-0.0002738684415817261,0.0010407399386167526
1690838822136693500,1.891693603515625,-0.00002420227974653244,0.001111831865273416,0.0017022807151079178
1690838822146733600,1.901733642578125,-0.00037840288132429123,0.00018718233332037926,0.00027855485677719116
1690838822156773400,1.9117734375,0.0008017155341804028,-0.00006819237023591995,0.0010371655225753784
1690838822166814200,1.921814208984375,0.000004098750650882721,0.0007938729831948876,0.001218525692820549
1690838822176854300,1.931854248046875,-0.0003773667849600315,0.00007031159475445747,-0.0015302635729312897
1690838822186894300,1.941894287109375,0.00033076759427785873,-0.0017512906342744827,-0.0017995089292526245
1690838822196934400,1.951934326171875,0.00018578022718429565,0.001197676407173276,-0.001977134495973587
1690838822206975500,1.9619755859375,-0.0006182282231748104,-0.00008463556878268719,-0.0013640746474266052
1690838822217015600,1.972015625,0.0011703639756888151,0.000882522901520133,-0.0024252403527498245
1690838822227055600,1.9820556640625,-0.00031727785244584084,0.0010212735505774617,0.0010853391140699387
1690838822237096400,1.992096435546875,-0.0004325481131672859,-0.00004211673513054848,0.0005203448235988617
1690838822247136300,2.00213623046875,0.0006572171114385128,0.0003672110615298152,0.00141223706305027
1690838822257176300,2.01217626953125,-0.001509909052401781,0.00047424319200217724,0.001573445275425911
1690838822267216400,2.02221630859375,0.0009457916021347046,0.00005319737829267979,0.001820320263504982
1690838822277257500,2.032257568359375,-0.002398565411567688,-0.0011818897910416126,-0.0003266315907239914
1690838822287327500,2.042327392578125,0.00007071765139698982,-0.0015081269666552544,0.0018536988645792007
1690838822297368600,2.05236865234375,-0.0018206252716481686,-0.0015718606300652027,-0.0006716754287481308
1690838822307408400,2.062408447265625,-0.00039183907210826874,-0.0012019474525004625,0.0007648337632417679
1690838822317448400,2.072448486328125,0.00002362765371799469,-0.0014298420865088701,-0.0020379722118377686
1690838822327489300,2.0824892578125,-0.0008975598029792309,-0.000512915663421154,-0.0026201382279396057
1690838822337529300,2.092529296875,-0.00003015296533703804,0.0022107604891061783,-0.0008683521300554276
1690838822347569400,2.1025693359375,-0.0002538585104048252,-0.0007016723975539207,-0.0016947295516729355
1690838822357609500,2.112609375,-0.00024301419034600258,0.0022351129446178675,-0.00006121397018432617
1690838822367650600,2.122650634765625,0.000647546723484993,0.00007768603973090649,-0.001301448792219162
1690838822377690600,2.132690673828125,-0.00014465022832155228,-0.0006090409588068724,0.0005074869841337204
1690838822387730400,2.14273046875,0.0011922565754503012,-0.0011155742686241865,-0.00202251598238945
1690838822397771300,2.152771240234375,-0.0017323736101388931,-0.0009611384011805058,-0.0017949193716049194
1690838822407811300,2.162811279296875,0.00018669990822672844,-0.0005329020787030458,0.0000911317765712738
1690838822417851400,2.172851318359375,-0.00088135851547122,-0.0015724517870694399,-0.001388508826494217
1690838822427891500,2.182891357421875,0.0002624690532684326,-0.001653145533055067,0.0005263034254312515
1690838822437932500,2.1929326171875,-0.0014795479364693165,-0.0002939326222985983,0.0009642783552408218
1690838822447972600,2.20297265625,0.00044804811477661133,0.0014818632043898106,0.001163749024271965
1690838822458043400,2.21304345703125,-0.00038725417107343674,0.00022985367104411125,0.0005009118467569351
1690838822468083500,2.22308349609375,-0.0004743393510580063,0.0013960518408566713,0.00041782110929489136
1690838822478123500,2.23312353515625,0.0008284347131848335,-0.00028691207990050316,0.0007045529782772064
1690838822488164400,2.243164306640625,-0.0008165999315679073,-0.0009186139795929193,-0.0017317067831754684
1690838822498204400,2.253204345703125,0.00010232813656330109,-0.0011249987874180079,0.00025633908808231354
1690838822508244500,2.263244384765625,0.0001665102317929268,-0.0016810668166726828,-0.0009173154830932617
1690838822518285600,2.27328564453125,-0.0006460603326559067,-0.001070232829079032,-0.0014326367527246475
1690838822528325400,2.283325439453125,0.0009062965400516987,-0.0017069948371499777,0.0010030902922153473
1690838822538365400,2.293365478515625,-0.00042429473251104355,-0.0027701782528311014,-0.0016119498759508133
1690838822548405500,2.303405517578125,0.001011948101222515,-0.0013528438284993172,0.00009673461318016052
1690838822558446300,2.3134462890625,-0.0015356354415416718,0.0012950357049703598,-0.0010272860527038574
1690838822568486400,2.323486328125,0.0012702709063887596,0.0008265856886282563,-0.00032927095890045166
1690838822578526500,2.3335263671875,0.0004303157329559326,0.0021053834352642298,-0.00020574592053890228
1690838822588566500,2.34356640625,-0.0013412190601229668,0.002662250306457281,-0.00029096566140651703
1690838822598607600,2.353607666015625,-0.0007922598160803318,0.0018302679527550936,0.0023532025516033173
1690838822608647400,2.3636474609375,-0.00103780347853899,0.0010294553358107805,0.00043466128408908844
1690838822618687500,2.3736875,0.0004452248103916645,-0.00016211695037782192,0.0007154345512390137
1690838822628758500,2.383758544921875,-0.00048075616359710693,-0.0004555974155664444,-0.0018031168729066849
1690838822638798600,2.393798583984375,-0.0004834807477891445,0.00028424011543393135,-0.00024625658988952637
1690838822648839400,2.40383935546875,-0.0005415380001068115,-0.0009045950137078762,0.0018573738634586334
1690838822658879500,2.41387939453125,0.0015520686283707619,0.0007688156329095364,0.0009209085255861282
1690838822668919300,2.423919189453125,0.00027481652796268463,0.0025179798249155283,-0.0001017451286315918
1690838822678960400,2.43396044921875,-0.0007410501129925251,0.0008343389490619302,0.001169135794043541
1690838822689000400,2.44400048828125,0.002059530233964324,0.0014242292381823063,-0.0023827217519283295
1690838822699040500,2.45404052734375,-0.0006049354560673237,-0.0025791828520596027,-0.001764664426445961
1690838822709080600,2.46408056640625,-0.0000491337850689888,0.0014549734769389033,-0.00272473506629467
1690838822719121400,2.474121337890625,0.00004371022805571556,-0.0012039926368743181,-0.003771590068936348
1690838822729161500,2.484161376953125,-0.0002034311182796955,-0.0013752337545156479,-0.0019979234784841537
1690838822739201500,2.494201416015625,0.0009495769627392292,0.00006765872240066528,-0.0017084460705518723
1690838822749242600,2.50424267578125,0.0004891161806881428,-0.0003390058409422636,-0.0014985892921686172
1690838822759282400,2.514282470703125,-0.0007642810232937336,0.00148808304220438,0.0011722482740879059
1690838822769322500,2.524322509765625,-0.0003509586676955223,-0.0025804280303418636,-0.00041073374450206757
1690838822779362600,2.534362548828125,0.0005639572627842426,-0.0016575183253735304,0.0012877359986305237
1690838822789403400,2.5444033203125,-0.0005063670687377453,0.0021931463852524757,-0.0013834144920110703
1690838822799473400,2.554473388671875,0.000630019698292017,0.000404855702072382,0.0015133395791053772
1690838822809514500,2.564514404296875,0.0007554548792541027,0.00007808580994606018,0.00014048069715499878
1690838822819554300,2.57455419921875,0.0000071409158408641815,0.001349742291495204,0.0013783667236566544
1690838822829594400,2.584594482421875,0.0006606802344322205,-0.001306760823354125,0.0007969997823238373
1690838822839635500,2.594635498046875,0.0001852116547524929,-0.0009419589769095182,0.0007157158106565475
1690838822849675500,2.604675537109375,0.000901069026440382,-0.0016247935127466917,0.0002600494772195816
1690838822859715600,2.614715576171875,0.0002827863208949566,-0.001304894220083952,-0.000019494444131851196
1690838822869755400,2.62475537109375,0.0013701547868549824,0.000827765092253685,-0.00031111016869544983
1690838822879796500,2.63479638671875,0.00021117506548762321,0.00012794137001037598,0.00017018616199493408
1690838822889836500,2.64483642578125,0.00048441532999277115,-0.0015048428904265165,0.000820796936750412
1690838822899876400,2.65487646484375,0.0005345633253455162,0.0002938642865046859,-0.0005148239433765411
1690838822909917400,2.66491748046875,-0.0005243094637989998,0.001519717276096344,0.00026202015578746796
1690838822919957500,2.67495751953125,-0.0004000905901193619,-0.0002535693347454071,0.00032568536698818207
1690838822929997600,2.68499755859375,0.0016116613987833261,0.0016583141405135393,-0.0016858000308275223
1690838822940037400,2.695037353515625,-0.0005686073563992977,-0.00008846796117722988,-0.000621940940618515
1690838822950088200,2.705088134765625,0.0004444592632353306,0.002526756376028061,0.0001804698258638382
1690838822960128300,2.715128173828125,0.0005483413115143776,-0.0004902679938822985,0.000725211575627327
1690838822970199300,2.72519921875,-0.000923854298889637,0.00047406263183802366,-0.00009104795753955841
1690838822980239400,2.7352392578125,0.0010568061843514442,-0.0002621754538267851,0.0008792504668235779
1690838822990279400,2.745279541015625,0.0009276429191231728,0.0018632933497428894,0.0014337208122015
1690838823000320500,2.755320556640625,0.00007634423673152924,-0.0011032801121473312,-0.0016239695250988007
1690838823010360300,2.7653603515625,0.00009951367974281311,-0.0007432207930833101,-0.0008133035153150558
1690838823020400400,2.775400390625,0.0005638408474624157,-0.0013890534173697233,-0.00040741264820098877
1690838823030440400,2.7854404296875,0.0006469315849244595,0.0006149752298370004,-0.0012598894536495209
1690838823040481300,2.795481201171875,0.0008101398125290871,-0.0002480396069586277,-0.001748954877257347
1690838823050521300,2.805521240234375,-0.00012915721163153648,-0.0003274017944931984,0.0017280671745538712
1690838823060561400,2.8155615234375,-0.00019277306273579597,-0.001984152477234602,-0.0004796776920557022
1690838823070602500,2.8256025390625,0.0013276254758238792,0.00010483129881322384,-0.0008895378559827805
1690838823080642600,2.835642578125,-0.000650591216981411,0.0020022625103592873,-0.0015818122774362564
1690838823090682400,2.845682373046875,0.000922804232686758,0.0005268712993711233,-0.0017194971442222595
1690838823100722400,2.855722412109375,-0.0008893893100321293,-0.0004042333457618952,0.001196911558508873
1690838823110763300,2.86576318359375,-0.0010838001035153866,0.0012818139512091875,0.0012666862457990646
1690838823120803300,2.87580322265625,-0.0006921039894223213,-0.00033740815706551075,0.001017468050122261
1690838823130843400,2.885843505859375,-0.0007794555276632309,-0.0012886892072856426,-0.0013056080788373947
1690838823140914400,2.89591455078125,0.0005137743428349495,-0.0014138312544673681,-0.000010969117283821106
1690838823150954200,2.905954345703125,-0.0006934362463653088,0.0006080404855310917,-0.001376638188958168
1690838823160995300,2.915995361328125,0.0010703110601752996,-0.0014315890148282051,-0.00010208785533905029
1690838823171035400,2.926035400390625,-0.000776591245085001,-0.0007191933691501617,-0.000692242756485939
1690838823181075500,2.936075439453125,-0.0008753403089940548,0.0009317538933828473,0.00017659179866313934
1690838823191116300,2.9461162109375,0.002855482045561075,0.0012180437333881855,0.0013933908194303513
1690838823201156400,2.95615625,-0.0008665258064866066,0.0028920178301632404,0.0024506375193595886
1690838823211196400,2.966196533203125,-0.00028862012550234795,-0.0012164406944066286,0.0007821675390005112
1690838823221236500,2.976236572265625,-0.0005523343570530415,-0.0015847000759094954,0.001475820317864418
1690838823231277600,2.986277587890625,-0.0005720416083931923,0.0008614133112132549,-0.00020436756312847137
1690838823241317400,2.9963173828125,0.00013384129852056503,0.0002771493745967746,0.00010434910655021667
1690838823251357400,3.006357421875,-0.0004344773478806019,0.0002574420068413019,-0.00028207525610923767
1690838823261398300,3.016398193359375,0.00023875804618000984,0.0008462999248877168,-0.00020406395196914673
1690838823271438300,3.026438232421875,-0.0001505962572991848,0.002329148119315505,-0.0006858296692371368
1690838823281478400,3.036478515625,0.0011507989838719368,0.00023227010387927294,-0.0012965630739927292
1690838823291518500,3.0465185546875,0.00021762726828455925,-0.0014889310114085674,0.0003354214131832123
1690838823301589200,3.05658935546875,-0.001756830606609583,0.0023505105637013912,0.001613592728972435
1690838823311629300,3.06662939453125,0.0007065935060381889,0.0009930974338203669,-0.0010053608566522598
1690838823321670400,3.07667041015625,-0.0005956320092082024,-0.0010672882199287415,0.0008356384932994843
1690838823331710500,3.08671044921875,0.00026563461869955063,-0.0018683671951293945,-0.001310868188738823
1690838823341750300,3.096750244140625,0.0011531217023730278,0.0003359190886840224,-0.0005449950695037842
1690838823351791400,3.106791259765625,0.0001877257600426674,-0.00056982203386724,0.00023744069039821625
1690838823361831400,3.11683154296875,-0.0007261037826538086,-0.0007066188845783472,-0.0005562566220760345
1690838823371871500,3.12687158203125,-0.00048721814528107643,-0.0003494890406727791,-0.0015418939292430878
1690838823381911300,3.136911376953125,-0.0006806701421737671,0.001325014978647232,-0.0006263349205255508
1690838823391952400,3.146952392578125,-0.0006820014677941799,-0.0006664968095719814,-0.00046441517770290375
1690838823401992400,3.156992431640625,0.001067619537934661,0.0022648130543529987,0.0006041210144758224
1690838823412032300,3.1670322265625,-0.0006945943459868431,0.002229392994195223,0.003382330760359764
1690838823422073300,3.1770732421875,-0.0006879051215946674,0.002507185097783804,0.0006092675030231476
1690838823432113400,3.187113525390625,0.0010229097679257393,-0.00039965519681572914,-0.0004658512771129608
1690838823442153500,3.197153564453125,-0.0007988233119249344,-0.0014387057162821293,0.000620473176240921
1690838823452193300,3.207193359375,0.000939688179641962,-0.0017119459807872772,-0.0003449227660894394
1690838823462234400,3.217234375,-0.00017145369201898575,-0.00032431213185191154,-0.00022114068269729614
1690838823472305400,3.227305419921875,0.0019140676595270634,0.0018054177053272724,-0.0022720415145158768
1690838823482345200,3.23734521484375,0.001000983640551567,0.0007041830103844404,0.0006795469671487808
1690838823492385300,3.24738525390625,-0.000628072302788496,0.000289795221760869,0.00035091303288936615
1690838823502425300,3.25742529296875,0.0005058939568698406,0.00017018895596265793,0.0010010246187448502
1690838823512466400,3.267466552734375,0.001044917618855834,-0.0005043898709118366,0.0012958366423845291
1690838823522506200,3.27750634765625,-0.0004626605659723282,0.0007159904344007373,0.0004240274429321289
1690838823532546300,3.28754638671875,0.000577037688344717,-0.0008414261974394321,0.0011396203190088272
1690838823542586400,3.29758642578125,-0.0006495299749076366,-0.0018280588556081057,-0.00017370469868183136
1690838823552627200,3.307627197265625,-0.0004274221137166023,0.0008659947197884321,0.00044441595673561096
1690838823562667300,3.317667236328125,-0.0003402228467166424,-0.00019543012604117393,0.00017330050468444824
1690838823572707300,3.327707275390625,0.0005215764977037907,0.0009686375269666314,0.00028009340167045593
1690838823582748400,3.33774853515625,0.00029004644602537155,-0.0014470596797764301,-0.0006607323884963989
1690838823592788500,3.34778857421875,-0.0019334270618855953,-0.0003485057968646288,0.0014524850994348526
1690838823602828300,3.357828369140625,-0.00015304237604141235,0.0008217657450586557,-0.0004566386342048645
1690838823612868400,3.367868408203125,0.0010480433702468872,0.000268893432803452,0.0013047773391008377
1690838823622909200,3.3779091796875,-0.00008086394518613815,0.0007557091303169727,0.0014002509415149689
1690838823632949200,3.38794921875,-0.0003165537491440773,0.00010483246296644211,0.0015400666743516922
1690838823643020300,3.398020263671875,-0.00024260301142930984,0.0009141790214926004,0.0012867897748947144
1690838823653060400,3.408060302734375,0.0005518179386854172,0.0008185715414583683,0.0009544286876916885
1690838823663100200,3.41810009765625,-0.0002750055864453316,0.00016547064296901226,-0.001909961923956871
1690838823673141200,3.428141357421875,0.0008874642662703991,0.0001952981110662222,0.0008583944290876389
1690838823683181300,3.438181396484375,-0.0008901329711079597,0.0004528494318947196,-0.0023645441979169846
1690838823693221400,3.448221435546875,-0.0001015709713101387,-0.0014694202691316605,-0.0002936702221632004
1690838823703262200,3.45826220703125,-0.0006749029271304607,-0.000370813999325037,0.0012050624936819077
1690838823713302300,3.46830224609375,0.0006785155273973942,0.0021448079496622086,0.0008724331855773926
1690838823723342300,3.47834228515625,-0.00038178684189915657,-0.00016698450781404972,0.00048372335731983185
1690838823733382400,3.48838232421875,-0.0008827275596559048,-0.0007933599408715963,0.00047466903924942017
1690838823743423500,3.498423583984375,0.000040164217352867126,0.0013338576536625624,-0.0008933618664741516
1690838823753463300,3.50846337890625,0.00042525725439190865,-0.00037296232767403126,0.00009040907025337219
1690838823763503400,3.51850341796875,-0.0005134167149662971,-0.0000546781811863184,-0.00009022653102874756
1690838823773544200,3.528544189453125,-0.0007017021998763084,-0.0005012901965528727,-0.0006646700203418732
1690838823783584300,3.538584228515625,0.0006630304269492626,0.0010810554958879948,-0.00004240870475769043
1690838823793624300,3.548624267578125,-0.0008826679550111294,0.001275466289371252,-0.00014627166092395782
1690838823803664400,3.558664306640625,0.0007686996832489967,-0.0004104564432054758,-0.0012062694877386093
1690838823813735200,3.568735107421875,0.0010637780651450157,0.0001706453040242195,0.0010725967586040497
1690838823823775200,3.578775146484375,0.001169722294434905,0.0021866324823349714,-0.0003166496753692627
1690838823833816300,3.58881640625,-0.0019557634368538857,0.0010896763997152448,0.0008644629269838333
1690838823843856400,3.5988564453125,-0.0007024258375167847,-0.0008831224404275417,-0.00004161708056926727
1690838823853896400,3.608896484375,0.0010496678296476603,-0.00015607965178787708,0.0016114059835672379
1690838823863937300,3.618937255859375,0.0003545563668012619,0.0007929737912490964,0.000596189871430397
1690838823873977300,3.628977294921875,-0.0004734201356768608,0.0016840675380080938,-0.0013801418244838715
1690838823884017400,3.639017333984375,0.00033535202965140343,-0.0001707524061203003,0.0003892853856086731
1690838823894057200,3.64905712890625,-0.00028250133618712425,0.0002995617687702179,0.0011418946087360382
1690838823904098300,3.659098388671875,0.0012163440696895123,0.00012616021558642387,-0.0012085270136594772
1690838823914138400,3.669138427734375,-0.0005131126381456852,0.0012470846995711327,0.0001206565648317337
1690838823924178400,3.679178466796875,-0.0008851094171404839,-0.0007726021576672792,0.0002666190266609192
1690838823934219300,3.68921923828125,0.00014100642874836922,-0.0012775373179465532,0.0009545143693685532
1690838823944259300,3.69925927734375,-0.0012774993665516376,-0.00020242109894752502,0.0005021989345550537
1690838823954286600,3.70928662109375,-0.0006181006319820881,0.0007776221027597785,0.0013014134019613266
1690838823964326400,3.719326416015625,-0.00045309681445360184,0.00030063954181969166,-0.0010623354464769363
1690838823974367500,3.729367431640625,0.0005336045287549496,0.0007152938051149249,-0.0009166616946458817
1690838823984438500,3.7394384765625,-0.0003050863742828369,0.0010010319529101253,0.0008830428123474121
1690838823994478600,3.749478515625,-0.00028005288913846016,0.000684914761222899,-0.0006360244005918503
1690838824004518400,3.759518310546875,-0.0007201191037893295,-0.00019321544095873833,-0.0010504703968763351
1690838824014558500,3.769558349609375,-0.00009214598685503006,-0.001081912312656641,-0.0011277012526988983
1690838824024599600,3.779599609375,0.00012355903163552284,-0.000767948105931282,-0.0015856381505727768
1690838824034639600,3.7896396484375,-0.000748626422137022,-0.000018001766875386238,0.00007537566125392914
1690838824044679400,3.799679443359375,-0.00038210349157452583,0.001230546971783042,-0.00024927593767642975
1690838824054719500,3.809719482421875,0.00031138351187109947,0.00030110368970781565,0.000007187947630882263
1690838824064760300,3.81976025390625,0.0007625720463693142,0.00139400246553123,-0.0013135578483343124
1690838824074800400,3.82980029296875,-0.001335466280579567,0.000029398826882243156,-0.0015346016734838486
1690838824084840400,3.83984033203125,0.000710382591933012,-0.0000725574791431427,-0.00004813447594642639
1690838824094881500,3.849881591796875,0.0008784276433289051,0.001039045979268849,0.0008205883204936981
1690838824104921600,3.859921630859375,-0.000878035556524992,-0.0038199182599782944,-0.00009898096323013306
1690838824114961400,3.86996142578125,-0.000887356698513031,-0.0010158759541809559,-0.001441480591893196
1690838824125001500,3.88000146484375,0.0008326270617544651,-0.0017308953683823347,0.00008555501699447632
1690838824135042300,3.890042236328125,-0.0006893696263432503,0.0012220176868140697,-0.0016516242176294327
1690838824145082400,3.900082275390625,-0.00037123169749975204,-0.0016106360126286745,0.0017927736043930054
1690838824155153400,3.9101533203125,-0.0004745624028146267,-0.001585602294653654,-0.00011831149458885193
1690838824165193500,3.920193359375,-0.001644819974899292,0.0019021971384063363,0.002038024365901947
1690838824175233300,3.9302333984375,0.00002711266279220581,0.00013572233729064465,-0.0004927776753902435
1690838824185274400,3.9402744140625,0.0009689759463071823,-0.0002800123766064644,0.0018000192940235138
1690838824195314400,3.950314453125,0.001200138358399272,-0.000388935673981905,0.00003221258521080017
1690838824205354500,3.9603544921875,-0.0005772956646978855,0.0003840102581307292,-0.0016421247273683548
1690838824215395300,3.970395263671875,-0.00021830154582858086,0.0014077294617891312,0.00033261068165302277
1690838824225435400,3.980435302734375,-0.0007560183294117451,-0.0006941822357475758,-0.002315700054168701
1690838824235475500,3.990475341796875,0.0000948617234826088,0.0013620444806292653,0.00013467296957969666
1690838824245515500,4.000515625,0.0004701055586338043,-0.0004428713582456112,0.00010586902499198914
1690838824255556600,4.010556640625,-0.0008534854277968407,0.001244773855432868,-0.0009982772171497345
1690838824265596400,4.020596435546875,0.0010876688174903393,-0.00011600088328123093,-0.0015427470207214355
1690838824275636500,4.030636474609375,0.0003800666891038418,-0.001161025371402502,0.0012189503759145737
1690838824285677300,4.04067724609375,0.0004951772280037403,0.0010339405853301287,-0.0010751020163297653
1690838824295717400,4.05071728515625,-0.0006662276573479176,0.0024044031742960215,0.00023410841822624207
1690838824305757400,4.06075732421875,0.0004155924543738365,-0.00003363681025803089,0.00003394670784473419
1690838824315797500,4.070797607421875,-0.00021344609558582306,-0.0015939828008413315,6.575137376785278e-7
1690838824325868300,4.080868408203125,-0.0007736734114587307,0.00014037545770406723,0.0003060773015022278
1690838824335908400,4.090908447265625,-0.0016850070096552372,0.001017620787024498,-0.0017133988440036774
1690838824345949400,4.100949462890625,-0.0005957745015621185,-0.0016636962536722422,-0.0005878917872905731
1690838824355989500,4.110989501953125,-0.000195235013961792,0.001070571132004261,0.0007926914840936661
1690838824366029600,4.121029541015625,-0.0002824030816555023,-0.001563456142321229,0.0009671524167060852
1690838824376070400,4.1310703125,0.0004531620070338249,-0.00003293738700449467,0.001224147155880928
1690838824386110500,4.1411103515625,-0.0006941733881831169,0.0018556974828243256,0.001284286379814148
1690838824396150500,4.151150634765625,0.000902391504496336,0.0014000306837260723,-0.0010145548731088638
1690838824406190300,4.1611904296875,-0.0023096268996596336,-0.0009436116088181734,0.003560967743396759
1690838824416231400,4.1712314453125,-0.00021558348089456558,0.0005142027512192726,0.00023761019110679626
1690838824426271500,4.181271484375,0.0007185698486864567,0.0014556493842974305,-0.0027374811470508575
1690838824436311600,4.1913115234375,0.000371559988707304,-0.0006735478527843952,-0.0005411729216575623
1690838824446352400,4.201352294921875,-0.00020446907728910446,0.00006729736924171448,-0.0006505437195301056
1690838824456392400,4.211392333984375,-0.00035919854417443275,0.0012545345816761255,-0.00049554742872715
1690838824466432500,4.2214326171875,0.0010146184358745813,-0.00023685419000685215,-0.0006844624876976013
1690838824476472300,4.231472412109375,-0.0007121753878891468,-0.0009766803123056889,0.0007318053394556046
1690838824486513400,4.241513427734375,0.00042752083390951157,0.00002214685082435608,-0.00047108158469200134
1690838824496584400,4.25158447265625,-0.0015085972845554352,-0.0014812075532972813,-0.0017091836780309677
1690838824506624500,4.26162451171875,0.000055322423577308655,-0.001601100666448474,-0.0010476652532815933
1690838824516664600,4.27166455078125,-0.0003188513219356537,-0.000908412504941225,-0.00025990232825279236
1690838824526704600,4.28170458984375,0.0006550094112753868,-0.000692862318828702,-0.0012621227651834488
1690838824536745500,4.291745361328125,-0.0021202703937888145,-0.20585426688194275,0.0032234396785497665
1690838824546785500,4.30178564453125,0.017937343567609787,-0.2733260989189148,0.017675496637821198
1690838824556825300,4.311825439453125,-0.004679020494222641,0.03252384439110756,-0.0370042622089386
1690838824566865400,4.321865478515625,-0.004431469365954399,-0.01840098574757576,-0.040957145392894745
1690838824576906500,4.331906494140625,-0.01839682087302208,-0.02527487277984619,-0.053456686437129974
1690838824586946600,4.341946533203125,-0.012550408020615578,-0.021572265774011612,-0.04891165345907211
1690838824596986600,4.351986572265625,-0.0017872434109449387,-0.006788792088627815,-0.042057476937770844
1690838824607027500,4.36202734375,0.004759563598781824,0.010421013459563255,-0.03379854932427406
1690838824617067500,4.372067626953125,0.011329581961035728,0.02561860904097557,-0.020744796842336655
1690838824627107300,4.382107421875,0.010919174179434776,0.02424699068069458,-0.011411625891923904
1690838824637147400,4.3921474609375,0.008031507954001427,0.02050817757844925,0.0016170907765626907
1690838824647188500,4.4021884765625,0.0008734641596674919,0.010448619723320007,0.012331787496805191
1690838824657259500,4.412259521484375,-0.0080177653580904,-0.004213680047541857,0.02430136501789093
1690838824667299600,4.422299560546875,-0.009456447325646877,-0.015403023920953274,0.03197706118226051
1690838824677339600,4.432339599609375,-0.006572510115802288,-0.01835194230079651,0.0383920855820179
1690838824687379500,4.44237939453125,-0.002542543690651655,-0.013929166831076145,0.0380740612745285
1690838824697420500,4.452420654296875,0.0020609963685274124,-0.003835785435512662,0.036401063203811646
1690838824707460400,4.46246044921875,0.006527172401547432,0.004536285996437073,0.031915463507175446
1690838824717500400,4.47250048828125,0.004480000585317612,0.011603516526520252,0.026800330728292465
1690838824727541500,4.48254150390625,0.002281282329931855,0.015068471431732178,0.015888921916484833
1690838824737581600,4.49258154296875,-0.000005840323865413666,0.012838606722652912,0.005980364046990871
1690838824747621600,4.50262158203125,-0.004133179783821106,0.0036271701101213694,-0.0051116421818733215
1690838824757661700,4.51266162109375,-0.003161126747727394,-0.003885873593389988,-0.013701401650905609
1690838824767702500,4.52270263671875,-0.001981851179152727,-0.00991874560713768,-0.022912565618753433
1690838824777742300,4.532742431640625,0.0011265904176980257,-0.008707540109753609,-0.027011439204216003
1690838824787782400,4.542782470703125,0.004321683198213577,-0.007834586314857006,-0.03002612106502056
1690838824797823500,4.552823486328125,0.0024574704002588987,-0.002461659489199519,-0.02906898222863674
1690838824807863600,4.562863525390625,0.0010490799322724342,0.001920521492138505,-0.029528038576245308
1690838824817903600,4.572903564453125,0.0012815739028155804,0.00631979713216424,-0.024596931412816048
1690838824827974700,4.582974609375,-0.0018079578876495361,0.010291557759046555,-0.01717563532292843
1690838824838014500,4.593014404296875,-0.0011171340011060238,0.003923939540982246,-0.010070323944091797
1690838824848054500,4.603054443359375,-0.0023084240965545177,0.0011511568445712328,-0.0021803677082061768
1690838824858095400,4.613095458984375,-0.000013578217476606369,-0.0011668584775179625,0.004388852044939995
1690838824868135400,4.623135498046875,0.0018136859871447086,-0.005955962464213371,0.009459221735596657
1690838824878175500,4.633175537109375,0.00302595691755414,-0.006282731890678406,0.014733079820871353
1690838824888216600,4.643216552734375,0.0008006622083485126,-0.004856799729168415,0.019630959257483482
1690838824898256600,4.653256591796875,0.0005761575885117054,0.0011057512601837516,0.020084761083126068
1690838824908296700,4.663296630859375,-0.0008417372591793537,0.0037886323407292366,0.022398078814148903
1690838824918336500,4.67333642578125,0.00018251407891511917,0.0059303464367985725,0.019504819065332413
1690838824928377300,4.68337744140625,-0.00023134099319577217,0.005269615910947323,0.016106626018881798
1690838824938417400,4.69341748046875,-0.000026543624699115753,0.002066632267087698,0.011098286136984825
1690838824948445700,4.70344580078125,0.0019655588548630476,-0.0013195963110774755,0.007590681314468384
1690838824958486800,4.71348681640625,0.0009114798158407211,-0.0025742114521563053,0.0007815100252628326
1690838824968526600,4.723526611328125,0.002372096059843898,-0.004936928860843182,-0.004144174978137016
1690838824978566700,4.733566650390625,0.0013592957984656096,-0.0059465328231453896,-0.014495881274342537
1690838824988606700,4.743606689453125,-0.000024427659809589386,-0.0036840196698904037,-0.013823196291923523
1690838824998677800,4.753677734375,-0.0014438927173614502,0.0015102098695933819,-0.016675177961587906
1690838825008718800,4.76371875,-0.0018171276897192001,0.002669526031240821,-0.018862083554267883
1690838825018758700,4.773758544921875,0.0006968965753912926,0.005357454530894756,-0.017135024070739746
1690838825028798500,4.783798583984375,0.0008779782801866531,0.0037877033464610577,-0.014436878263950348
1690838825038838500,4.793838623046875,0.0003115241415798664,-0.000685341889038682,-0.010820571333169937
1690838825048879600,4.803879638671875,0.0022920880001038313,-0.0021082579623907804,-0.006655285134911537
1690838825058919700,4.813919677734375,-0.000007285270839929581,-0.003024118719622493,-0.002121785655617714
1690838825068959700,4.823959716796875,-0.00024178391322493553,-0.0011080172844231129,0.0033376161009073257
1690838825078999800,4.833999755859375,0.0010045752860605717,-0.0020419880747795105,0.004573056474328041
1690838825089040600,4.84404052734375,0.0007236544042825699,-0.0039801630191504955,0.008912474848330021
1690838825099080700,4.854080810546875,0.0007976898923516273,0.0034220931120216846,0.010341526940464973
1690838825109120500,4.86412060546875,-0.0005510039627552032,0.0011319821933284402,0.011815875768661499
1690838825119161600,4.87416162109375,0.0004420885816216469,0.0037671800237149,0.012231861241161823
1690838825129201700,4.88420166015625,0.000569863710552454,0.0014988003531470895,0.010257983580231667
1690838825139241700,4.89424169921875,0.0007994282059371471,0.0014074539067223668,0.009253972209990025
1690838825149281800,4.90428173828125,-0.00046912766993045807,-0.0016043467912822962,0.005166064947843552
1690838825159322600,4.914322509765625,0.000301591120660305,-0.00012762402184307575,0.005192696116864681
1690838825169393700,4.9243935546875,-0.00007333187386393547,-0.0034363761078566313,0.0004937052726745605
1690838825179433500,4.93443359375,-0.00043365731835365295,-0.00015456276014447212,-0.0014666486531496048
1690838825189473500,4.9444736328125,-0.000055992044508457184,-0.0013434088323265314,-0.005154162645339966
1690838825199513600,4.954513671875,0.0008609341457486153,0.0017282810295000672,-0.008439172059297562
1690838825209554700,4.9645546875,0.0005112891085445881,0.002237918321043253,-0.011242639273405075
1690838825219594800,4.9745947265625,-0.0012655719183385372,0.00039261404890567064,-0.01199205219745636
1690838825229634800,4.984634765625,-0.000035108067095279694,0.0017064983258023858,-0.009892016649246216
1690838825239675600,4.994675537109375,-0.00023804092779755592,0.002275882288813591,-0.00997697003185749
1690838825249715700,5.0047158203125,0.0005157883279025555,0.000192436040379107,-0.005878277122974396
1690838825259755500,5.014755615234375,0.0005213809199631214,-0.0009527232032269239,-0.004046287387609482
1690838825269795600,5.024795654296875,-0.00007235025987029076,-0.001255394658073783,-0.001102188602089882
1690838825279836700,5.034836669921875,-0.0008598468266427517,-0.0006157034076750278,0.0006123557686805725
1690838825289876700,5.044876708984375,-0.0015750043094158173,-0.0014409262221306562,0.0035217218101024628
1690838825299916800,5.054916748046875,-0.0008626086637377739,0.00012021861039102077,0.004440244287252426
1690838825309957600,5.06495751953125,0.000344614963978529,-0.00002281111665070057,0.005885212682187557
1690838825319997700,5.074997802734375,0.0011528844479471445,0.0011092987842857838,0.008740121498703957
1690838825330037500,5.08503759765625,-0.0008115577511489391,-0.00026455149054527283,0.0074003469198942184
1690838825340108500,5.095108642578125,-0.0008323304355144501,0.00046808423940092325,0.004947043024003506
1690838825350148600,5.105148681640625,0.0007539661601185799,-0.00002186466008424759,0.0043723974376916885
1690838825360188700,5.115188720703125,0.0002871141768991947,-0.0002775280736386776,0.005689064972102642
1690838825370229800,5.125229736328125,-0.00027473829686641693,0.0007333069806918502,0.003492964431643486
1690838825380269800,5.135269775390625,-0.000016145408153533936,-0.0021098835859447718,-0.0013236291706562042
1690838825390309600,5.1453095703125,0.0006192843429744244,-0.00021307962015271187,-0.0018468815833330154
1690838825400350500,5.1553505859375,0.0006259423680603504,0.0009003881132230163,-0.0029041562229394913
1690838825410390500,5.165390625,-0.0003096712753176689,-0.0017208545468747616,-0.0025320742279291153
1690838825420430600,5.1754306640625,-0.00030114920809865,-0.00016956334002315998,-0.004655146971344948
1690838825430470700,5.185470703125,-0.00044505437836050987,0.0003440115833655,-0.005730116739869118
1690838825440511700,5.19551171875,-0.0018437467515468597,-0.000008590985089540482,-0.004404928535223007
1690838825450551800,5.2055517578125,0.0002331305295228958,-0.0045127952471375465,-0.011151514947414398
1690838825460591900,5.215591796875,-0.00007606251165270805,-0.0013047514948993921,-0.0032640304416418076
1690838825470632700,5.2256328125,0.00030150357633829117,0.0010952893644571304,-0.0028815995901823044
1690838825480672500,5.235672607421875,0.0007169567979872227,-0.0005782411899417639,-0.0007848925888538361
1690838825490712600,5.245712646484375,-0.001598911825567484,0.0009951411047950387,0.0022440068423748016
1690838825500752600,5.255752685546875,-0.0014931843616068363,-0.0013439133763313293,0.004468545317649841
1690838825510823700,5.26582373046875,0.0010209151078015566,0.000035217730328440666,0.003536839038133621
1690838825520863700,5.27586376953125,-0.0006614038720726967,0.0004559971857815981,0.003547225147485733
1690838825530904800,5.28590478515625,0.0009352662600576878,-0.0013887584209442139,0.003725554794073105
1690838825540944600,5.295944580078125,-0.0006312052719295025,-0.0028409804217517376,0.0022083520889282227
1690838825550984700,5.305984619140625,-0.00017130328342318535,0.00007635587826371193,0.0036470163613557816
1690838825561025500,5.316025634765625,-0.0002093864604830742,0.00047529744915664196,0.004625195637345314
1690838825571065600,5.326065673828125,0.0007517826743423939,0.0023851003497838974,-0.0001693572849035263
1690838825581105700,5.336105712890625,0.00069825304672122,0.00222104974091053,0.0020682308822870255
1690838825591145700,5.346145751953125,-0.0017964113503694534,0.0004050862044095993,-0.0014140438288450241
1690838825601186800,5.356186767578125,-0.0008472604677081108,0.0003259902587160468,-0.0012475959956645966
1690838825611227000,5.366226806640625,-0.0004020310007035732,-0.00053437240421772,-0.001844627782702446
1690838825621266700,5.3762666015625,-0.0017980597913265228,-0.0025112368166446686,-0.002002554014325142
1690838825631307500,5.3863076171875,-0.00039935484528541565,-0.0016254694201052189,-0.00295250304043293
1690838825641347600,5.39634765625,0.0008986699394881725,-0.00028083939105272293,-0.0031692851334810257
1690838825651387600,5.4063876953125,-0.00013383151963353157,0.0002626272616907954,-0.0033220574259757996
1690838825661427700,5.416427734375,0.0006861556321382523,0.0009886049665510654,-0.003462139517068863
1690838825671468800,5.42646875,-0.000170897226780653,0.0012366296723484993,-0.0019761882722377777
1690838825681539800,5.436539794921875,-0.0006268303841352463,-0.0004502164665609598,-0.0013535413891077042
1690838825691579600,5.44657958984375,-0.0010031177662312984,-0.0001156078651547432,0.0008154809474945068
1690838825701619700,5.45661962890625,0.0009175543673336506,-0.0014751516282558441,0.0008692760020494461
1690838825711659800,5.46665966796875,-0.0003946218639612198,-0.0015017986297607422,0.004215015098452568
1690838825721700600,5.47670068359375,0.000988357700407505,-0.0015923460014164448,0.0034448280930519104
1690838825731740700,5.48674072265625,0.0012015101965516806,-0.0010105830151587725,0.003574434667825699
1690838825741780700,5.49678076171875,0.0003021606244146824,-0.0024271183647215366,0.0025097038596868515
1690838825751821800,5.50682177734375,0.00043722521513700485,0.0007242466090247035,0.0017488598823547363
1690838825761862000,5.51686181640625,-0.0003297654911875725,0.0005215799901634455,0.0022801607847213745
1690838825771901700,5.526901611328125,0.0006765527650713921,0.0014980502892285585,0.0025535225868225098
1690838825781941800,5.536941650390625,-0.0008715428411960602,0.00045622175093740225,-0.000384477898478508
1690838825791982600,5.546982666015625,-0.00016848836094141006,0.0018252087756991386,-0.0018677636981010437
1690838825802022700,5.557022705078125,0.00005574990063905716,-0.0003679043147712946,-0.0019678995013237
1690838825812062700,5.567062744140625,-0.0005669477395713329,-0.0009501082822680473,-0.002323513850569725
1690838825822103800,5.577103759765625,0.00027620885521173477,0.00035297637805342674,-0.0023184530436992645
1690838825832144000,5.587143798828125,0.0009855583775788546,-0.0002390146255493164,-0.0009867306798696518
1690838825842183700,5.59718359375,0.0005139126442372799,-0.0002632495015859604,-0.002489287406206131
1690838825852254700,5.607254638671875,-0.00005275057628750801,0.00068785494659096,-0.0017232485115528107
1690838825862294800,5.617294677734375,-0.0008208062499761581,0.00032273551914840937,-0.0023384373635053635
1690838825872334600,5.62733447265625,0.0010909875854849815,-0.00043280771933496,-0.001293068751692772
1690838825882375700,5.637375732421875,0.0001498265191912651,-0.000998729607090354,-0.0015229005366563797
1690838825892415700,5.647415771484375,-0.00017756689339876175,0.0008792184526100755,0.002037404105067253
1690838825902455800,5.657455810546875,-0.0007253792136907578,0.003311483422294259,-0.00141059048473835
1690838825912497000,5.667496826171875,0.00012879539281129837,0.0004420109326019883,0.001874096691608429
1690838825922536700,5.67753662109375,0.0004558316431939602,0.0007820966420695186,0.0006224103271961212
1690838825932576800,5.68757666015625,-0.000787599477916956,0.003345370991155505,0.0003911741077899933
1690838825942616600,5.697616455078125,0.0003807293251156807,-0.0011700186878442764,0.0014311373233795166
1690838825952645600,5.707645751953125,0.0004919660277664661,0.0001711397198960185,-0.0002557225525379181
1690838825962685700,5.717685791015625,0.0006714630872011185,0.00041002524085342884,0.0005677267909049988
1690838825972725500,5.7277255859375,0.0009983915369957685,0.00029721204191446304,0.0021383948624134064
1690838825982766300,5.737766357421875,0.0011078473180532455,0.0012170679401606321,-0.0013833697885274887
1690838825992806400,5.747806396484375,0.0008393083699047565,-0.0004474627785384655,-0.00018263421952724457
1690838826002846500,5.757846435546875,-0.000011038966476917267,-0.00151938502676785,-0.0022002439945936203
1690838826012886500,5.767886474609375,-0.002505755517631769,-0.00056698196567595,-0.000325152650475502
1690838826022957600,5.77795751953125,-0.000024755019694566727,-0.0017044181004166603,-0.0007366109639406204
1690838826032997400,5.787997314453125,0.00010090135037899017,-0.00025546480901539326,-0.001919606700539589
1690838826043038500,5.79803857421875,-0.0005598291754722595,0.0008737153839319944,-0.003655189648270607
1690838826053078500,5.80807861328125,-0.0005965987220406532,-0.00017317547462880611,-0.002055840566754341
1690838826063118300,5.818118408203125,-0.0005526565946638584,-0.0003417534753680229,-0.00015913881361484528
1690838826073159400,5.828159423828125,0.001893296604976058,0.0005417674547061324,0.0011021755635738373
1690838826083199500,5.838199462890625,0.000006713438779115677,-0.0015157908201217651,-0.00015883147716522217
1690838826093239600,5.848239501953125,0.0011156778782606125,-0.0017168272752314806,0.0010341648012399673
1690838826103279600,5.858279541015625,0.0007178015075623989,-0.0015722177922725677,-0.001433253288269043
1690838826113320700,5.86832080078125,0.001114800339564681,-0.0014690798707306385,0.0005116816610097885
1690838826123360500,5.878360595703125,-0.0007246448658406734,0.000021757790818810463,0.00039876438677310944
1690838826133400300,5.888400390625,-0.00017143459990620613,0.001509404624812305,0.0008194819092750549
1690838826143441400,5.89844140625,-0.0003312239423394203,0.00005611754022538662,-0.00004604458808898926
1690838826153481500,5.9084814453125,0.0007745418697595596,0.0010117711499333382,0.002477182075381279
1690838826163521500,5.918521484375,0.0010981159284710884,0.0035292571410536766,0.00007421337068080902
1690838826173561600,5.9285615234375,0.0010741213336586952,-0.0005575497634708881,0.0002525635063648224
1690838826183602700,5.938602783203125,0.0004394901916384697,-0.00013144384138286114,0.0009838677942752838
1690838826193673500,5.948673583984375,0.00017952360212802887,-0.000588009599596262,0.000654313713312149
1690838826203713500,5.958713623046875,-0.001963522285223007,0.0013545001856982708,-0.0005180090665817261
1690838826213753300,5.96875341796875,0.0015347518492490053,0.000894558965228498,-0.0013406071811914444
1690838826223793400,5.97879345703125,0.0002481788396835327,0.001340904738754034,0.00019523687660694122
1690838826233834500,5.98883447265625,-0.00034440215677022934,0.001334399450570345,-0.0022567491978406906
1690838826243874600,5.99887451171875,0.001411153469234705,0.001257700496353209,-0.0010005366057157516
1690838826253914600,6.00891455078125,0.00014169467613101006,-0.00006037321873009205,-0.00224931538105011
1690838826263955700,6.018955810546875,-0.00045804912224411964,0.0006453645182773471,-0.001821611076593399
1690838826273995500,6.02899560546875,-0.0000596875324845314,0.00042193487752228975,-0.002476625144481659
1690838826284035300,6.039035400390625,-0.0008240146562457085,0.0007897174218669534,0.0013708434998989105
1690838826294075400,6.049075439453125,-0.00020744185894727707,0.000152861000970006,-0.00032286159694194794
1690838826304116500,6.059116455078125,-0.000036733224987983704,-0.002805378520861268,-0.0014898572117090225
1690838826314156500,6.069156494140625,0.0005544228479266167,-0.0017692337278276682,0.0021340064704418182
1690838826324196600,6.079196533203125,0.00012245820835232735,0.00010190322063863277,0.002289269119501114
1690838826334237700,6.08923779296875,0.002170878229662776,0.002395445480942726,0.002452034503221512
1690838826344277500,6.099277587890625,0.0006070700474083424,0.0003469421062618494,0.0005595926195383072
1690838826354348500,6.1093486328125,-0.0008967285975813866,0.00015215517487376928,0.002483110874891281
1690838826364388400,6.119388427734375,0.0011901245452463627,0.003047011326998472,0.0024905670434236526
1690838826374428400,6.129428466796875,0.0002060122787952423,0.0013535893522202969,0.000333249568939209
1690838826384468500,6.139468505859375,0.0013367906212806702,0.0023615958634763956,0.0003015585243701935
1690838826394509600,6.149509521484375,0.00019510788843035698,-0.0011174764949828386,-0.0022435393184423447
1690838826404549400,6.15954931640625,-0.0006184880621731281,-0.0015925844199955463,0.0004209522157907486
1690838826414589400,6.16958935546875,0.0005158046260476112,-0.00022766925394535065,-0.0023320764303207397
1690838826424630500,6.179630615234375,0.0009781294502317905,-0.0007067720871418715,-0.0006508231163024902
1690838826434670300,6.18967041015625,-0.00038204947486519814,0.0009276162600144744,-0.0007676407694816589
1690838826444710400,6.19971044921875,-0.00037086429074406624,0.00043040409218519926,-0.0015743114054203033
1690838826454750500,6.20975048828125,-0.0003374968655407429,-0.002650932176038623,-0.0009840168058872223
1690838826464791600,6.21979150390625,0.00037942640483379364,0.00110066297929734,-0.0021568723022937775
1690838826474831600,6.22983154296875,-0.00010824808850884438,-0.0017152633517980576,0.0014567002654075623
1690838826484871400,6.239871337890625,-0.0016523487865924835,-0.0003908732905983925,0.0013001058250665665
1690838826494912500,6.24991259765625,0.0013975510373711586,0.001448734663426876,-0.0003948323428630829
1690838826504952300,6.259952392578125,0.001002337783575058,-0.00003757537342607975,-0.0008475687354803085
1690838826514992400,6.269992431640625,0.00038478337228298187,0.0022410161327570677,0.001245010644197464
1690838826525063400,6.2800634765625,-0.00033826520666480064,0.0017781587084755301,0.0008298233151435852
1690838826535103500,6.290103515625,0.0006788121536374092,0.0017996751703321934,0.0022329557687044144
1690838826545143300,6.300143310546875,0.0004950542934238911,0.0007402697810903192,0.0007775388658046722
1690838826555184400,6.310184326171875,-0.0006419946439564228,-0.0004309960640966892,-0.00006282888352870941
1690838826565224400,6.320224365234375,0.0010299377609044313,-0.0013857393059879541,-0.0012346208095550537
1690838826575264500,6.330264404296875,0.0003708386793732643,0.001356031047180295,0.0015750303864479065
1690838826585305300,6.340305419921875,-0.00006219139322638512,0.00009422539733350277,-0.0012298114597797394
1690838826595345400,6.350345458984375,0.00040248408913612366,0.0019352426752448082,-0.00004931539297103882
1690838826605385500,6.360385498046875,0.00034762313589453697,0.0017216572305187583,0.0005645435303449631
1690838826615425500,6.370425537109375,-0.001122055109590292,-0.0005098679102957249,0.00021172314882278442
1690838826625466600,6.380466552734375,0.001132310600951314,-0.000447017140686512,0.000625045970082283
1690838826635506400,6.39050634765625,-0.001214751973748207,0.0010149810696020722,-0.00028814561665058136
1690838826645546500,6.40054638671875,-0.0006474987603724003,0.0003185644745826721,0.0004394296556711197
1690838826655587300,6.41058740234375,-0.000568704679608345,-0.0008754960726946592,0.0001416914165019989
1690838826665627400,6.42062744140625,0.0007833819836378098,0.00044596451334655285,0.0005025491118431091
1690838826675667500,6.43066748046875,-0.0009006536565721035,-0.0009609104599803686,-0.001415332779288292
1690838826685707500,6.44070751953125,0.00023278780281543732,0.00016507389955222607,-0.0009514093399047852
1690838826695778300,6.4507783203125,-0.0011583543382585049,-0.00044280989095568657,0.00009362958371639252
1690838826705819400,6.4608193359375,-0.00003796210512518883,0.001400896580889821,-0.0010121148079633713
1690838826715859500,6.470859375,-0.0005039866082370281,0.001201410312205553,-0.00013747066259384155
1690838826725899500,6.4808994140625,0.0009048259817063808,0.0006517338333651423,-0.00012229196727275848
1690838826735939600,6.490939697265625,-0.0007602307014167309,0.0005530663765966892,0.0004409216344356537
1690838826745980400,6.50098046875,-0.00008778274059295654,0.0012787777232006192,0.0011791493743658066
1690838826756020500,6.5110205078125,0.0009880317375063896,0.00009810703340917826,-0.0002884473651647568
1690838826766060500,6.521060546875,-0.00020932545885443687,0.000015016412362456322,0.000102238729596138
1690838826776101600,6.5311015625,0.0005364189855754375,-0.0005680280737578869,-0.0011404380202293396
1690838826786141400,6.541141357421875,-0.0005698581226170063,0.0019044507062062621,-0.0005273781716823578
1690838826796181500,6.551181396484375,0.0005906037986278534,-0.0012999738100916147,-0.00042674317955970764
1690838826806221600,6.5612216796875,0.0011165780015289783,-0.0007417751476168633,-0.0002879928797483444
1690838826816262400,6.571262451171875,-0.0006370088085532188,0.0008040297543630004,0.00015737488865852356
1690838826826302500,6.581302490234375,-0.001623976044356823,-0.0007965301629155874,-0.0010029654949903488
1690838826836342500,6.591342529296875,-0.0001571313478052616,0.00008980161510407925,-0.0013490580022335052
1690838826846383600,6.601383544921875,-0.0003046705387532711,0.0016940898494794965,-0.00023399293422698975
1690838826856423400,6.61142333984375,-0.0006443187594413757,-0.00021253665909171104,-0.00046214833855628967
1690838826866494500,6.621494384765625,-0.0005202153697609901,-0.0006311854813247919,-0.0002445671707391739
1690838826876534500,6.631534423828125,0.0011917173396795988,0.0013612370239570737,-0.0007863286882638931
1690838826886574600,6.64157470703125,0.0007943734526634216,-0.0007581065874546766,0.0004917215555906296
1690838826896614700,6.65161474609375,-0.00010876310989260674,0.00013368576765060425,-0.0010142698884010315
1690838826906655500,6.661655517578125,-0.0013215667568147182,0.001259670127183199,0.0010659247636795044
1690838826916695600,6.671695556640625,0.0009738791268318892,0.002245134674012661,0.00011075474321842194
1690838826926735400,6.6817353515625,-0.00068287318572402,0.00006320688407868147,-0.0004716794937849045
1690838826936776400,6.6917763671875,0.0004734201356768608,0.0006321764085441828,0.0004576537758111954
1690838826946816500,6.70181640625,-0.0013021090999245644,0.0002215169370174408,0.0032060369849205017
1690838826956851000,6.711850830078125,0.0011297063902020454,0.0008555896347388625,0.000783553346991539
1690838826966891000,6.72189111328125,0.00021118205040693283,-0.0006227311678230762,0.003605438396334648
1690838826976932000,6.73193212890625,-0.0004913029260933399,0.0003898940049111843,0.0008478108793497086
1690838826986972200,6.74197216796875,0.000859186053276062,0.0012375782243907452,0.0026347916573286057
1690838826997012200,6.75201220703125,0.0008371737785637379,0.002181118121370673,0.0015815813094377518
1690838827007053000,6.762052978515625,0.0007543498650193214,0.002293769735842943,0.0003354884684085846
1690838827017093000,6.772093017578125,0.0013810268137603998,0.0022566462866961956,-0.0014409497380256653
1690838827027133000,6.7821328125,0.00009924732148647308,-0.000794803723692894,0.0019279494881629944
1690838827037204000,6.792203857421875,-0.0003454829566180706,0.0005467580631375313,0.00023663602769374847
1690838827047244000,6.802244140625,0.0007221782580018044,-0.0014317042659968138,-0.0017207860946655273
1690838827057284000,6.8122841796875,0.0002121427096426487,0.001714067766442895,0.00021123886108398438
1690838827067325200,6.8223251953125,-0.00021369662135839462,0.001258933451026678,-0.002232210710644722
1690838827077365200,6.832365234375,0.0013621337711811066,-0.000918263103812933,-0.0006163548678159714
1690838827087405300,6.8424052734375,-0.0004184558056294918,0.0005526008317247033,-0.0013284832239151
1690838827097446100,6.852446044921875,-0.000845084898173809,0.0002180860610678792,0.0008306633681058884
1690838827107486000,6.86248583984375,-0.0014906353317201138,0.0000814658123999834,-0.0015440769493579865
1690838827117526000,6.872526123046875,-0.00006838515400886536,-0.00003984500654041767,-0.0011176858097314835
1690838827127566000,6.882566162109375,-0.0006148656830191612,0.0014688356313854456,0.000613633543252945
1690838827137607200,6.892607177734375,0.0011339120101183653,0.0027640764601528645,0.00045753084123134613
1690838827147647200,6.902647216796875,-0.0006536017172038555,0.0004535180050879717,-0.0000386163592338562
1690838827157687300,6.912687255859375,0.0011728669051080942,-0.0011801100336015224,0.0005992036312818527
1690838827167728000,6.92272802734375,0.0007696645334362984,0.001251888694241643,0.001291891559958458
1690838827177768000,6.932767822265625,-0.000486989039927721,-0.0004256097599864006,-0.0007861591875553131
1690838827187808000,6.94280810546875,-0.0008489126339554787,-0.0004756771959364414,0.00047085247933864594
1690838827197848000,6.95284814453125,-0.000013436190783977509,0.0004817860899493098,-0.000267714262008667
1690838827207919000,6.962919189453125,-0.0007434086874127388,0.00043251761235296726,0.0011192597448825836
1690838827217960200,6.972960205078125,-0.00020939111709594727,0.0011334638111293316,0.0001024734228849411
1690838827228000300,6.983000244140625,0.00004467461258172989,0.001001104712486267,-0.0005388148128986359
1690838827238040300,6.993040283203125,0.000024656765162944794,-0.0016471479320898652,0.0002858433872461319
1690838827248080100,7.003080078125,0.00022758962586522102,0.0002455605426803231,0.0003201998770236969
1690838827258121000,7.013120849609375,0.0005896100774407387,-0.001487397588789463,0.00017982721328735352
1690838827268161000,7.0231611328125,-0.0004397020675241947,-0.000945444218814373,-0.0009083393961191177
1690838827278201000,7.033201171875,0.0009361375123262405,0.0009712455212138593,0.0002944245934486389
1690838827288242200,7.0432421875,0.0004591653123497963,-0.0009978958405554295,0.0004134681075811386
1690838827298282200,7.0532822265625,0.0009442046284675598,0.0008100838167592883,0.002048071473836899
1690838827308322300,7.063322265625,0.0009844184387475252,-0.00041949772275984287,0.00031408853828907013
1690838827318362000,7.073362060546875,-0.00015375949442386627,-0.000042143044993281364,-0.0011289138346910477
1690838827328403000,7.08340283203125,0.0010342765599489212,0.0004047353286296129,0.00017949752509593964
1690838827338443000,7.093443115234375,-0.0007729423232376575,0.00042240426409989595,0.0012204833328723907
1690838827348483000,7.103483154296875,-0.00021607568487524986,-0.0014950716868042946,0.002588549628853798
1690838827358523100,7.113523193359375,0.0006371475756168365,0.0005695725558325648,0.0007505100220441818
1690838827368564200,7.123564208984375,-0.0004459600895643234,-0.002466164529323578,0.00013798289000988007
1690838827378635300,7.13363525390625,0.000022543594241142273,-0.0006522563053295016,0.00034718774259090424
1690838827388675300,7.14367529296875,-0.0003915778361260891,0.0004396397853270173,0.0020864978432655334
1690838827398715100,7.153715087890625,0.0009387866593897343,-0.00039409834425896406,-0.001429777592420578
1690838827408755000,7.1637548828125,0.0011960479896515608,0.002170525724068284,0.000307668000459671
1690838827418796000,7.173796142578125,-0.0005510756745934486,-0.00196074484847486,-0.00023785047233104706
1690838827428836000,7.183836181640625,0.0011498851235955954,-0.0010222468990832567,0.0005704183131456375
1690838827438876200,7.193876220703125,0.0007519256323575974,0.0008118122350424528,0.0006716735661029816
1690838827448917200,7.203917236328125,-0.0009008320048451424,-0.0000491878017783165,0.002065839245915413
1690838827458957300,7.213957275390625,0.0008703344501554966,-0.0006816566456109285,-0.0007964223623275757
1690838827468997000,7.2239970703125,-0.0008194413967430592,0.0004243541043251753,0.00018149055540561676
1690838827479037000,7.234036865234375,0.0005498453974723816,-0.0015822170535102487,-0.0006066635251045227
1690838827489078000,7.244078125,0.00045556947588920593,-0.0004999082302674651,-0.0012540780007839203
1690838827499118000,7.2541181640625,0.0007201968692243099,-0.0013118593487888575,0.000402204692363739
1690838827509158100,7.264158203125,0.0007750582881271839,-0.0008681765757501125,0.0007494818419218063
1690838827519199200,7.27419921875,-0.0007930849678814411,-0.0006255058106034994,-0.00012336485087871552
1690838827529239300,7.2842392578125,0.00035606883466243744,-0.0013134004548192024,-0.0012394953519105911
1690838827539279000,7.294279052734375,-0.0005116988904774189,-0.0026066186837852,-0.0006275884807109833
1690838827549350100,7.30435009765625,-0.0006299433298408985,0.0011178120039403439,0.0012408848851919174
1690838827559390000,7.314389892578125,0.0007413639687001705,0.0014133164659142494,-0.0016293954104185104
1690838827569430000,7.324429931640625,0.0001557348296046257,-0.00029430235736072063,0.00027982331812381744
1690838827579471000,7.33447119140625,0.0008925474248826504,-0.0009252000600099564,0.0007216203957796097
1690838827589511200,7.34451123046875,0.00033940887078642845,-0.0015047038905322552,0.001256382092833519
1690838827599551200,7.35455126953125,-0.0018160650506615639,0.00012056890409439802,-0.0007214657962322235
1690838827609592300,7.36459228515625,-0.00021923379972577095,-0.0013034233124926686,-0.0015923194587230682
1690838827619632000,7.374632080078125,0.00005612056702375412,-0.0029050917364656925,0.0009956937283277512
1690838827629672000,7.384671875,0.000852405559271574,0.00021160568576306105,0.00026945024728775024
1690838827639712000,7.3947119140625,0.0010140780359506607,-0.00006795220542699099,0.0005222782492637634
1690838827649753000,7.404753173828125,-0.0018461570143699646,-0.00040297803934663534,0.001416834071278572
1690838827659793200,7.414793212890625,-0.0001867520622909069,0.0020516118966042995,-0.00045645982027053833
1690838827669833200,7.424833251953125,-0.0003707762807607651,0.0007751588709652424,-0.0005952101200819016
1690838827679874300,7.434874267578125,0.0009565348736941814,0.0006650586146861315,-0.0008870121091604233
1690838827689914000,7.4449140625,0.001080105546861887,-0.0005498753162100911,-0.0005751568824052811
1690838827699954000,7.454953857421875,-0.0009143054485321045,0.0006059735314920545,0.00139673613011837
1690838827709994000,7.464993896484375,0.0006095552816987038,0.00012367498129606247,0.0003027096390724182
1690838827720065000,7.47506494140625,-0.00011441484093666077,-0.0011275977594777942,0.0003316756337881088
1690838827730106000,7.485106201171875,-0.0007463828660547733,-0.0019025778165087104,-0.0009429138153791428
1690838827740146200,7.495146240234375,0.0005968599580228329,0.0013032567221671343,0.00014713779091835022
1690838827750186200,7.505186279296875,-0.0008010333403944969,0.0008260182803496718,0.0013311803340911865
1690838827760226000,7.51522607421875,-0.00024706264957785606,0.00020968203898519278,-0.00044418685138225555
1690838827770267100,7.52526708984375,0.000008600763976573944,-0.0018867583712562919,-0.0004164893180131912
1690838827780307000,7.535306884765625,0.00025066081434488297,0.000043391482904553413,-0.00009026750922203064
1690838827790347000,7.545346923828125,0.0002032564952969551,0.0015850954223424196,-0.0010703112930059433
1690838827800388000,7.55538818359375,0.0007586539722979069,0.0006205326644703746,-0.0013913549482822418
1690838827810428200,7.56542822265625,-0.0018768100999295712,0.0005193325923755765,0.00016792677342891693
1690838827820468200,7.57546826171875,-0.0001293378882110119,-0.0016059473855420947,0.0020184312015771866
1690838827830508000,7.585508056640625,0.00116842077113688,-0.000027758185751736164,-0.0003235526382923126
1690838827840549000,7.595549072265625,0.001138057792559266,0.00017006427515298128,-0.0002559460699558258
1690838827850589000,7.6055888671875,-0.0004973891191184521,0.0011053665075451136,-0.0012130849063396454
1690838827860629000,7.61562890625,-0.0008327038958668709,-0.00013181206304579973,-0.0005000587552785873
1690838827870669000,7.6256689453125,-0.0005197823047637939,0.00004661979619413614,-0.000557849183678627
1690838827880710100,7.635710205078125,-0.00035259174183011055,-0.0018367862794548273,-0.0018601417541503906
1690838827890781200,7.64578125,-0.0006354195065796375,-0.0007680598646402359,0.0008150041103363037
1690838827900821200,7.6558212890625,-0.0006729364395141602,-0.0011101560667157173,-0.001185121014714241
1690838827910861000,7.665861083984375,0.00036569638177752495,0.0011410140432417393,0.00122930109500885
1690838827920901000,7.675901123046875,-0.0008207093924283981,0.00023370550479739904,-0.0005774926394224167
1690838827930942000,7.68594189453125,-0.00027289753779768944,-0.000014767399989068508,-0.002709886059165001
1690838827940982000,7.69598193359375,-0.00042525073513388634,0.000770974438637495,0.0008398108184337616
1690838827951022800,7.70602294921875,0.0002266913652420044,-0.00046313449274748564,-0.000057674944400787354
1690838827961064000,7.71606396484375,-0.0006645917892456055,-0.0015165973454713821,-0.00011128000915050507
1690838827971104000,7.72610400390625,-0.000815060455352068,-0.001777586992830038,0.001499934121966362
1690838827981144000,7.73614404296875,0.0002310723066329956,-0.0021532527171075344,6.780028343200684e-7
1690838827991184000,7.746183837890625,-0.0006501679308712482,0.0000555732985958457,-0.0006376821547746658
1690838828001224700,7.756224609375,0.00047608232125639915,-0.001982055138796568,-0.0014697704464197159
1690838828011264800,7.7662646484375,-0.0006786645390093327,0.0015450355131179094,-0.0010239575058221817
1690838828021304800,7.776304931640625,0.00018025189638137817,-0.0006855030078440905,-0.0023331772536039352
1690838828031346000,7.786345947265625,0.00019436702132225037,-0.0005813734605908394,-0.0015499405562877655
1690838828041386000,7.796385986328125,0.001034193905070424,-0.0009247784037142992,-0.0004443936049938202
1690838828051426000,7.806426025390625,-0.0006627724505960941,-0.00017110398039221764,-0.0012880843132734299
1690838828061497000,7.8164970703125,0.0008495473302900791,-0.0004071162547916174,-0.001531999558210373
1690838828071537000,7.826536865234375,0.0009384970180690289,-0.000004978850483894348,0.0007940065115690231
1690838828081576700,7.83657666015625,-0.0007741781882941723,0.00041028927080333233,0.0007183458656072617
1690838828091617800,7.84661767578125,-0.00046232203021645546,0.0010593016631901264,0.0001984965056180954
1690838828101657900,7.856657958984375,-0.0003994428552687168,-0.0001668815966695547,0.0012162737548351288
1690838828111698000,7.866697998046875,0.0002493034116923809,0.0008672238327562809,0.0012479647994041443
1690838828121739000,7.876739013671875,-0.0008936170488595963,0.00021614390425384045,0.0002968795597553253
1690838828131779000,7.886779052734375,-0.0008496749214828014,-0.0005300738848745823,-0.0013031475245952606
1690838828141819000,7.89681884765625,0.0006254925392568111,0.000958923134021461,-0.00023147836327552795
1690838828151858700,7.906858642578125,-0.0003433655947446823,-0.0018030412029474974,-0.0020211227238178253
1690838828161899800,7.916899658203125,-0.0006751585751771927,-0.0005760341882705688,-0.001678435131907463
1690838828171939800,7.92693994140625,-0.00015877187252044678,-0.00010492093861103058,-0.0020038727670907974
1690838828181980000,7.93697998046875,-0.0006325878202915192,-0.0006485846824944019,0.0009425990283489227
1690838828192021000,7.94702099609375,-0.0019284822046756744,-0.0017724386416375637,0.0012693684548139572
1690838828202061000,7.95706103515625,0.00100361043587327,0.0007285824976861477,0.0016535595059394836
1690838828212100900,7.967100830078125,-0.0005287723615765572,0.000008197501301765442,0.0009606052190065384
1690838828222140700,7.977140625,-0.000723586417734623,0.0008718583267182112,0.0009401105344295502
1690838828232211700,7.987211669921875,0.0005944119766354561,-0.0018946332857012749,-0.0009121187031269073
1690838828242252800,7.997252685546875,-0.00033683981746435165,0.0007374435663223267,-0.00046299025416374207
1690838828252292900,8.00729296875,0.0006935372948646545,0.00003303750418126583,-0.0023248065263032913
1690838828262333000,8.0173330078125,-0.000022511929273605347,0.0007103708339855075,-0.0006745997816324234
1690838828272373000,8.027373046875,-0.000020115170627832413,-0.0007096265908330679,0.00015044771134853363
1690838828282414000,8.0374140625,0.0008739382028579712,0.0016690932679921389,0.0000016186386346817017
1690838828292454000,8.047453857421875,-0.014357211999595165,-0.05298163369297981,0.0646493211388588
1690838828302493700,8.05749365234375,-0.010969065129756927,-0.025226101279258728,0.07497192919254303
1690838828312534800,8.06753466796875,-0.0014866143465042114,-0.007364547811448574,-0.0123419389128685
1690838828322574800,8.077574951171876,0.006556409876793623,-0.07017618417739868,-0.027492737397551537
1690838828332615000,8.087614990234375,0.015080655924975872,-0.07651424407958984,-0.05219995230436325
1690838828342655000,8.097655029296876,0.012098873034119606,-0.0556982196867466,-0.05058365315198898
1690838828352696000,8.107696044921875,0.0077395448461174965,-0.01587091013789177,-0.04630075395107269
1690838828362735900,8.11773583984375,0.0002784556709229946,0.017712507396936417,-0.045303814113140106
1690838828372775700,8.127775634765625,-0.0052987365052104,0.0416380800306797,-0.037221647799015045
1690838828382815700,8.137815673828126,-0.00822325050830841,0.057673804461956024,-0.028503023087978363
1690838828392856800,8.14785693359375,-0.0073121837340295315,0.05480051785707474,-0.019483696669340134
1690838828402927900,8.157927978515625,-0.002990192733705044,0.038282375782728195,-0.007000116631388664
1690838828412968000,8.167968017578126,0.003303655656054616,0.012456371448934078,0.0028602369129657745
1690838828423008000,8.178008056640625,0.005090436432510614,-0.01519286073744297,0.015476591885089874
1690838828433047800,8.1880478515625,0.00623745983466506,-0.03421049192547798,0.023433052003383636
1690838828443089000,8.1980888671875,0.004515558481216431,-0.044131066650152206,0.02903529442846775
1690838828453128700,8.208128662109376,-0.001453917007893324,-0.03645956516265869,0.036838091909885406
1690838828463168800,8.218168701171875,-0.0024228310212492943,-0.026646509766578674,0.039172932505607605
1690838828473209900,8.2282099609375,-0.003645488526672125,-0.004857058636844158,0.035490576177835464
1690838828483250000,8.23825,-0.003952648490667343,0.01565064862370491,0.03444419056177139
1690838828493290000,8.2482900390625,-0.002615475095808506,0.029152607545256615,0.026211561635136604
1690838828503329800,8.258329833984375,0.0022470217663794756,0.0376424677670002,0.020939065143465996
1690838828513371000,8.268370849609376,0.0040329378098249435,0.02825988084077835,0.01314638927578926
1690838828523410700,8.27841064453125,0.0032889561261981726,0.015115120448172092,0.002515619620680809
1690838828533450800,8.28845068359375,0.002079614670947194,-0.0033610921818763018,-0.003941480070352554
1690838828543491800,8.298491943359375,0.0009268694557249546,-0.016780192032456398,-0.01272607035934925
1690838828553532000,8.308531982421876,-0.0009314841590821743,-0.022834356874227524,-0.017994867637753487
1690838828563572000,8.318572021484375,-0.0026083262637257576,-0.023126918822526932,-0.023924103006720543
1690838828573643000,8.32864306640625,-0.0008700811304152012,-0.016811497509479523,-0.02714412845671177
1690838828583682800,8.338682861328126,0.002118027536198497,-0.006966247223317623,-0.027838092297315598
1690838828593723000,8.348722900390625,0.0022410654928535223,0.006689643487334251,-0.02783995494246483
1690838828603763700,8.358763671875,0.0015965693164616823,0.011568207293748856,-0.023746075108647346
1690838828613803800,8.3688037109375,0.0021241416689008474,0.016811437904834747,-0.021741779521107674
1690838828623843800,8.37884375,0.0010565654374659061,0.013869063928723335,-0.012924475595355034
1690838828633885000,8.388885009765625,-0.0005194931291043758,0.004497666377574205,-0.009370489045977592
1690838828643925000,8.398925048828126,-0.0005550836212933064,0.003391885431483388,-0.0021356940269470215
1690838828653964800,8.40896484375,-0.0016656219959259033,-0.006656753830611706,0.005586407147347927
1690838828664004900,8.4190048828125,-0.0007127593271434307,-0.009153375402092934,0.010026449337601662
1690838828674045700,8.429045654296875,0.0018928777426481247,-0.01066471915692091,0.01586276665329933
1690838828684085800,8.439085693359376,0.001825558952987194,-0.007152293808758259,0.01900080405175686
1690838828694125800,8.449125732421875,0.000507826916873455,-0.0033764641266316175,0.02033877559006214
1690838828704167000,8.4591669921875,0.000006970949470996857,0.0013156469212844968,0.020327163860201836
1690838828714207000,8.46920703125,-0.0006404435262084007,0.005619315430521965,0.019897595047950745
1690838828724246800,8.479246826171876,-0.0008920589461922646,0.007731355726718903,0.015593919903039932
1690838828734286800,8.489286865234375,-0.0009562410414218903,0.006187788210809231,0.013264186680316925
1690838828744358000,8.49935791015625,0.0002443874254822731,0.004414994269609451,0.008715140633285046
1690838828754398700,8.509398681640626,0.000861442182213068,0.00036619044840335846,0.004301751032471657
1690838828764438800,8.519438720703125,-0.0005100332200527191,-0.0014022625982761383,-0.000646933913230896
1690838828774478800,8.529478759765626,0.0016894713044166565,-0.0043714214116334915,-0.005863800644874573
1690838828784519000,8.539518798828125,0.0009819457773119211,-0.0035779867321252823,-0.008933477103710175
1690838828794560000,8.54956005859375,0.0007033790461719036,-0.0029960861429572105,-0.010617394000291824
1690838828804599800,8.559599853515625,0.0005498193204402924,-0.002700172131881118,-0.014919457957148552
1690838828814639900,8.569639892578126,-0.0003316868096590042,-0.00035632424987852573,-0.017543470486998558
1690838828824680700,8.5796806640625,-0.0013146898709237576,0.0021225539967417717,-0.016960913315415382
1690838828834720800,8.589720703125,0.000138863455504179,0.0010935086756944656,-0.0136942807585001
1690838828844760800,8.5997607421875,-0.0003914269618690014,0.0009961453033611178,-0.013250034302473068
1690838828854801000,8.60980078125,-0.00004415074363350868,0.001145815011113882,-0.010167691856622696
1690838828864842000,8.619842041015625,-0.000061781145632267,-0.00015582633204758167,-0.006943657994270325
1690838828874881800,8.6298818359375,-0.0008607292547821999,-0.0016024555079638958,-0.001974731683731079
1690838828884921900,8.639921875,0.0008131014183163643,-0.0016077803447842598,0.0023213084787130356
1690838828894962000,8.6499619140625,-0.0015544486232101917,-0.0015356086660176516,0.007558947429060936
1690838828905002800,8.660002685546875,-0.0006543435156345367,-0.002783374860882759,0.010058009065687656
1690838828915073800,8.67007373046875,0.0004455419257283211,-0.0026920284144580364,0.01167401485145092
1690838828925113900,8.68011376953125,-0.0007658782415091991,-0.0015395281370729208,0.014314012601971626
1690838828935154000,8.69015380859375,0.0009768942836672068,0.00060511555057019,0.013150744140148163
1690838828945193700,8.70019384765625,-0.0002928045578300953,-0.00011291122063994408,0.01060427911579609
1690838828955219000,8.710218994140625,-0.00017695734277367592,0.0013259947299957275,0.00937789399176836
1690838828965259000,8.720259033203124,0.0009546093642711639,0.0022779987193644047,0.007317197509109974
1690838828975299000,8.730299072265625,-0.0005697840824723244,0.0023043639957904816,0.004064945504069328
1690838828985340200,8.740340087890624,0.0004603266716003418,-0.0004685192834585905,0.001353580504655838
1690838828995380200,8.750380126953125,0.0009362334385514259,-0.0016459028702229261,-0.0016611181199550629
1690838829005420000,8.760419921875,-0.002283974550664425,-0.000019890256226062775,-0.0028985869139432907
1690838829015460000,8.770460205078125,0.0007171416655182838,-0.0008087186142802238,-0.005032310262322426
1690838829025501000,8.7805009765625,-0.001859862357378006,-0.00008163903839886189,-0.008009346202015877
1690838829035541000,8.790541015625,0.0021079815924167633,0.00037988671101629734,-0.007570192217826843
1690838829045581000,8.8005810546875,-0.0011891825124621391,-0.0009493334218859673,-0.009375231340527534
1690838829055622100,8.8106220703125,-0.00036280322819948196,-0.0010241682175546885,-0.007868947461247444
1690838829065662200,8.820662109375,-0.001714430283755064,-0.00239203660748899,-0.0061886925250291824
1690838829075702000,8.830701904296875,0.0005226251669228077,0.00008656748104840517,-0.005195599049329758
1690838829085773000,8.84077294921875,0.00032149581238627434,0.00006065075285732746,-0.0034691374748945236
1690838829095813000,8.850813232421874,-0.0003336421214044094,-0.000013651559129357338,-0.0022113267332315445
1690838829105853200,8.860853271484375,0.0021866457536816597,0.0017329029506072402,-0.0026559941470623016
1690838829115894000,8.87089404296875,-0.0005279146134853363,0.003234126837924123,0.0022847019135951996
1690838829125934000,8.88093408203125,0.0005528279580175877,0.0010153291514143348,0.0034411754459142685
1690838829135974100,8.89097412109375,-0.001188347116112709,-0.0014845801051706076,0.005684887990355492
1690838829146015200,8.90101513671875,-0.00022011762484908104,-0.0016375286504626274,0.0054045505821704865
1690838829156055000,8.911054931640624,-0.001522935926914215,-0.0015328663866966963,0.006412556394934654
1690838829166095000,8.92109521484375,-0.001735827885568142,-0.0014098321553319693,0.0070462459698319435
1690838829176135200,8.93113525390625,-0.0011813575401902199,-0.0023099808022379875,0.004102122038602829
1690838829186176000,8.941176025390625,0.00034821080043911934,-0.0008389984723180532,0.005094440653920174
1690838829196216000,8.951216064453124,-0.000034485477954149246,0.001330678816884756,0.004068057984113693
1690838829206256000,8.961256103515625,-0.0011610668152570724,-0.0005869539454579353,0.0015716366469860077
1690838829216297200,8.971297119140624,-0.000758130569010973,0.003278890624642372,-0.0007570330053567886
1690838829226337000,8.9813369140625,-0.001717287115752697,0.0007020239718258381,-0.00031029805541038513
1690838829236377000,8.991377197265624,-0.0006690672598779202,0.0007603472331538796,-0.000715896487236023
1690838829246417200,9.001417236328125,-0.0002213902771472931,0.000722182565368712,-0.003029298037290573
1690838829256488200,9.01148828125,0.0011807640548795462,-0.0010072742588818073,-0.005431203171610832
1690838829266529000,9.021529052734374,0.0001311684027314186,-0.0020456325728446245,-0.00464651919901371
1690838829276569000,9.031569091796875,0.00009175390005111694,-0.0029300686437636614,-0.004155166447162628
1690838829286609200,9.041609130859374,-0.0016886964440345764,-0.003371895058080554,-0.004233846440911293
1690838829296649000,9.05164892578125,-0.0005720332264900208,-0.002791325794532895,-0.002585083246231079
1690838829306690000,9.06168994140625,0.0010649454779922962,-0.0014600791037082672,-0.002621510997414589
1690838829316730000,9.071730224609375,0.000880654901266098,0.00039827474392950535,-0.0022239014506340027
1690838829326770200,9.081770263671874,-0.0012246863916516304,0.001631764112971723,0.0006780959665775299
1690838829336811000,9.09181103515625,-0.0006547700613737106,0.0038515087217092514,-0.0010148771107196808
1690838829346851000,9.10185107421875,0.0006550764665007591,0.0033594314008951187,-0.00020575150847434998
1690838829356891100,9.11189111328125,0.0003088652156293392,0.0017048093723133206,0.00219881534576416
1690838829366931000,9.121930908203124,0.00043729087337851524,-0.00016853283159434795,0.0008775666356086731
1690838829376972000,9.131971923828125,-0.0007427558302879333,-0.001079067587852478,0.003268817439675331
1690838829387012000,9.14201220703125,0.0004491670988500118,-0.003809977089986205,0.0028348322957754135
1690838829397052200,9.15205224609375,-0.001972711645066738,-0.003264561528339982,0.004388254135847092
1690838829407092000,9.162092041015624,0.000938530545681715,-0.0017378954216837883,0.005633383058011532
1690838829417133000,9.172133056640625,0.0007899259217083454,0.0008024938870221376,0.004442684352397919
1690838829427204000,9.1822041015625,-0.0008205054327845573,0.002252127043902874,0.0018103644251823425
1690838829437244200,9.192244140625,0.0003704600967466831,0.0012031077640131116,0.001409292221069336
1690838829447284000,9.202283935546875,-0.0006397971883416176,0.0038766730576753616,0.001302465796470642
1690838829457324000,9.212323974609374,-0.00039505260065197945,0.002387166954576969,-0.0035697873681783676
1690838829467365000,9.222365234375,0.0010388593655079603,0.000863365363329649,-0.0025190822780132294
1690838829477405200,9.2324052734375,0.00026600994169712067,-0.001914844149723649,-0.0006609950214624405
1690838829487445000,9.242445068359375,-0.0009351959452033043,-0.003785371780395508,-0.0009488295763731003
1690838829497486000,9.252486083984374,0.0011449989397078753,-0.002923306543380022,-0.0008923709392547607
1690838829507526100,9.262526123046875,0.002226910088211298,-0.000315649202093482,-0.0006698090583086014
1690838829517566000,9.27256591796875,-0.0016735554672777653,-0.002873615361750126,-0.002732427790760994
1690838829527606000,9.28260595703125,0.0001680520363152027,-0.00043492414988577366,-0.0025895610451698303
1690838829537647000,9.292647216796874,0.00023702764883637428,0.001221029320731759,-0.003056678920984268
1690838829547687200,9.302687255859375,0.0010833810083568096,0.003287721425294876,-0.004870990291237831
1690838829557727000,9.31272705078125,0.00034941360354423523,0.004735149443149567,-0.0010280497372150421
1690838829567768000,9.32276806640625,0.001975951250642538,0.002215951681137085,0.0007858742028474808
1690838829577808100,9.33280810546875,0.000007076188921928406,0.000853478442877531,0.0017432812601327896
1690838829587848000,9.342847900390625,0.00028314022347331047,-0.001871929271146655,0.003655027598142624
1690838829597919000,9.3529189453125,0.0007643736898899078,-0.001076709246262908,0.005463046953082085
1690838829607959000,9.362958984375,-0.0016112090088427067,-0.003303834004327655,0.0026462767273187637
1690838829617999000,9.3729990234375,-0.0018815197981894016,-0.0033704133238643408,0.003102211281657219
1690838829628040200,9.383040283203124,-0.00037396466359496117,-0.0017041510436683893,0.003307059407234192
1690838829638080000,9.393080078125,-0.00016570556908845901,0.0007310435175895691,0.0036103930324316025
1690838829648120000,9.4031201171875,-0.0000024097971618175507,0.0021439280826598406,0.0012632980942726135
1690838829658161200,9.4131611328125,0.0007035941816866398,0.002979095559567213,-0.004843330010771751
1690838829668201000,9.423200927734374,0.0009687379933893681,0.0029184995219111443,-0.0006954539567232132
1690838829678241000,9.433240966796875,0.0011016298085451126,0.0027110392693430185,-0.0017665773630142212
1690838829688281000,9.443281005859374,-0.00041806744411587715,-0.0005392448510974646,0.0006671752780675888
1690838829698322200,9.453322265625,0.00017848052084445953,-0.0022047855891287327,-0.0014095567166805267
1690838829708362000,9.463362060546874,-0.0008621425367891788,-0.002053515985608101,-0.0015559401363134384
1690838829718402000,9.473402099609375,0.0007959417998790741,-0.0037382314912974834,-0.0007343534380197525
1690838829728443100,9.483443115234374,0.00007619475945830345,0.0012611676938831806,-0.0007648114114999771
1690838829738483000,9.49348291015625,-0.00014910893514752388,0.0006885880138725042,-0.0014985110610723495
1690838829748523000,9.50352294921875,0.001835421659052372,0.0002565459581092,-0.0018318276852369308
1690838829758563000,9.51356298828125,-0.0011774124577641487,0.0017492476617917418,-0.0032387766987085342
1690838829768634000,9.523634033203125,-0.0003279363736510277,0.0030877524986863136,-0.0019199792295694351
1690838829778675200,9.53367529296875,0.0009146947413682938,0.0019588384311646223,-0.0006310082972049713
1690838829788715000,9.543715087890625,0.00039924122393131256,0.0008577348198741674,0.0004494376480579376
1690838829798755000,9.553755126953124,0.0010349377989768982,0.0016484273364767432,0.002338683232665062
1690838829808795000,9.563794921875,-0.0014694593846797943,0.0004477609181776643,0.0020872801542282104
1690838829818836000,9.5738359375,0.000642161350697279,-0.0023773203138262033,0.002390880137681961
1690838829828876000,9.5838759765625,0.00005899369716644287,-0.0012683800887316465,0.002638392150402069
1690838829838916000,9.593916015625,0.00010852841660380363,-0.00400291383266449,0.0021840576082468033
1690838829848956200,9.6039560546875,0.0006692521274089813,-0.0008832069579511881,0.0013210084289312363
1690838829858997000,9.6139970703125,0.001302019227296114,-0.00040863174945116043,-0.0009709075093269348
1690838829869037000,9.624037109375,-0.0002914797514677048,-0.0007297331467270851,-0.00015618838369846344
1690838829879076900,9.634076904296874,-0.0004483400844037533,0.0023965516593307257,-0.002688320353627205
1690838829889118000,9.644117919921875,-0.000567262526601553,-0.0003999234177172184,-0.0026122964918613434
1690838829899158000,9.654157958984374,-0.0007446287199854851,0.0005010240711271763,-0.00038216449320316315
1690838829909198000,9.664197998046875,0.00022073416039347649,-0.000466350931674242,0.0010346397757530212
1690838829919238100,9.674238037109374,-0.00034571997821331024,-0.0005164183676242828,0.00040720030665397644
1690838829929279000,9.684279052734375,0.0008192313835024834,-0.000805557006970048,0.0009014122188091278
1690838829939350000,9.69435009765625,-0.00013311533257365227,-0.0004249913617968559,0.00012909434735774994
1690838829949390000,9.70439013671875,0.0032072816975414753,-0.00017648423090577126,-0.003516972064971924
1690838829959446800,9.71444677734375,-0.0004905173555016518,0.0002118047559633851,-0.0013709962368011475
1690838829969486800,9.72448681640625,0.00026766257360577583,-0.0007296607363969088,-0.0011235326528549194
1690838829979528000,9.73452783203125,-0.00015577999874949455,-0.0003719981759786606,-0.0015397854149341583
1690838829989567700,9.744567626953126,0.0010995615739375353,-0.00036598765291273594,-0.0006656274199485779
1690838829999607800,9.75460791015625,-0.0008703786879777908,0.00002682860940694809,-0.0006254147738218307
1690838830009649000,9.76464892578125,0.00150548224337399,0.0023947979789227247,0.0014639385044574738
1690838830019689000,9.77468896484375,-0.0012088115327060223,0.002255780855193734,0.0011480879038572311
1690838830029728800,9.784728759765626,-0.0006591281853616238,-0.00008722860366106033,-0.0006032157689332962
1690838830039768800,9.794768798828125,-0.0008101295679807663,0.0010587295982986689,0.0024948399513959885
1690838830049810000,9.804809814453124,0.001149201998487115,0.00033952167723327875,0.0011201277375221252
1690838830059849700,9.814849609375,0.00008899765089154243,-0.00042134360410273075,-0.00041837990283966064
1690838830069889800,9.824889892578126,0.0004990394227206707,-0.0010859169997274876,0.00029678642749786377
1690838830079931000,9.834930908203125,0.0016005230136215687,-0.0008944359142333269,0.0012225005775690079
1690838830089971000,9.844970947265624,-0.0006691352464258671,-0.0023955432698130608,-0.00046702101826667786
1690838830100010800,9.8550107421875,-0.000747698824852705,-0.0005899202078580856,-0.00009737536311149597
1690838830110081800,9.865081787109375,-0.0005077342502772808,0.0007724802708253264,6.128102540969849e-7
1690838830120121900,9.875121826171876,0.00036125537008047104,0.002259323140606284,0.0000014118850231170654
1690838830130161700,9.88516162109375,0.00017607444897294044,0.0030919357668608427,0.0006031524389982224
1690838830140202800,9.89520263671875,0.0002133590169250965,0.0013558210339397192,-0.0003076493740081787
1690838830150242800,9.905242919921875,-0.001123710535466671,0.003388270502910018,0.0014736894518136978
1690838830160283000,9.915282958984376,-0.0007665804587304592,-0.0010349736548960209,0.0019424054771661758
1690838830170324000,9.925323974609375,-0.00009252410382032394,-0.0009387575555592775,-0.0011876653879880905
1690838830180363800,9.93536376953125,0.001041183713823557,-0.0019441007170826197,0.00019984133541584015
1690838830190403800,9.94540380859375,0.00015949318185448647,-0.0019019842147827148,0.00012495741248130798
1690838830200443600,9.955443603515626,-0.0008724820800125599,-0.001870825421065092,0.0014022085815668106
1690838830210484700,9.965484619140625,-0.0007240087725222111,0.0007304383907467127,0.002009667456150055
1690838830220524800,9.97552490234375,0.0014797570183873177,0.000290750409476459,-0.00009982101619243622
1690838830230564900,9.98556494140625,0.0008495072834193707,0.0014879779191687703,0.0005220770835876465
1690838830240606000,9.99560595703125,-0.0001835329458117485,-0.0001812914852052927,0.0034542176872491837
1690838830250645800,10.005645751953125,-0.0011023818515241146,0.002144872909411788,0.00009151175618171692
1690838830260685800,10.015685791015626,-0.00007040705531835556,0.0005842604441568255,0.0013554468750953674
1690838830270726000,10.025725830078125,-0.000806804746389389,-0.001122935675084591,0.0003148149698972702
1690838830280796700,10.035796630859375,-0.00024887220934033394,-0.0016957814805209637,-0.0005840025842189789
1690838830290837800,10.045837646484374,-0.00032815150916576385,-0.002077486366033554,-0.0002801083028316498
1690838830300877800,10.0558779296875,-0.0008682403713464737,-0.0038418304175138474,0.0005784947425127029
1690838830310918000,10.06591796875,0.0009825564920902252,-0.0009768879972398281,0.000057620927691459656
1690838830320958000,10.0759580078125,0.0012012021616101265,0.0005336570320650935,0.0012973230332136154
1690838830330998800,10.085998779296874,0.00013214489445090294,0.00020810705609619617,-0.001153482124209404
1690838830341038800,10.096038818359375,0.0000069765374064445496,0.0019644617568701506,-0.00043043307960033417
1690838830351078700,10.10607861328125,0.00003831973299384117,0.0026766755618155003,-0.000032749027013778687
1690838830361118700,10.11611865234375,0.0007163607515394688,-0.0003619913477450609,-0.0021837837994098663
1690838830371159800,10.126159912109374,0.000024709850549697876,0.0005109686171635985,-0.0026931744068861008
1690838830381200000,10.136199951171875,-0.00041551096364855766,-0.002382023259997368,-0.0008665118366479874
1690838830391240000,10.146239990234376,-0.000765643548220396,-0.0013248345348984003,-0.0014298837631940842
1690838830401280800,10.15628076171875,0.0005840463563799858,-0.0015996727161109447,0.0004678834229707718
1690838830411320800,10.16632080078125,0.00047113047912716866,-0.0009591707494109869,-0.00235125795006752
1690838830421361000,10.17636083984375,-0.00009718816727399826,-0.0006776745431125164,-0.00045002810657024384
1690838830431400700,10.186400634765626,-0.0007952000014483929,0.001494895899668336,-0.0009453035891056061
1690838830441441800,10.19644189453125,-0.0013597900979220867,0.0023633528035134077,0.0023005567491054535
1690838830451512800,10.206512939453125,0.00040946854278445244,0.0014228365616872907,-0.0001620464026927948
1690838830461553000,10.216552978515624,-0.00047203758731484413,0.0019552025478333235,-0.00004779733717441559
1690838830471593000,10.226593017578125,0.00010400591418147087,0.0024586899671703577,0.000564349815249443
1690838830481633000,10.236633056640626,0.00015034526586532593,-0.0005645304918289185,-0.0004921257495880127
1690838830491673900,10.246673828125,0.000101516954600811,0.0017839919310063124,-0.0002471115440130234
1690838830501713700,10.256713623046876,0.00021576648578047752,-0.001695161685347557,0.0023627858608961105
1690838830511753700,10.266753662109375,-0.0007753623649477959,-0.0005655288696289062,0.0010180342942476273
1690838830521794800,10.276794921875,0.0009450395591557026,-0.002852917881682515,0.0006007160991430283
1690838830531835000,10.2868349609375,-0.0000743567943572998,0.00021093885879963636,0.001454126089811325
1690838830541875000,10.296875,0.0006851768121123314,-0.0004897387698292732,0.0024456214159727097
1690838830551915000,10.3069150390625,0.0003031250089406967,0.0005445850547403097,-0.0005544815212488174
1690838830561955800,10.316955810546874,0.00044294074177742004,0.003252753522247076,-0.0011158771812915802
1690838830571995600,10.32699560546875,0.0012222593650221825,0.0019904898945242167,-0.0009752456098794937
1690838830582035700,10.33703564453125,0.0007143947295844555,0.0026714601553976536,-0.001422390341758728
1690838830592076800,10.347076904296875,-0.0018465174362063408,-0.00045143626630306244,0.0002563837915658951
1690838830602116900,10.357116943359374,-0.00011999020352959633,-0.001405114307999611,-0.0017513744533061981
1690838830612157000,10.367156982421875,0.0004348349757492542,0.0004657851532101631,-0.0019495058804750443
1690838830622228000,10.37722802734375,0.0002739797346293926,-0.0021244054660201073,-0.0008695945143699646
1690838830632268000,10.38726806640625,0.0018067527562379837,-0.0013716693501919508,-0.0001444350928068161
1690838830642307800,10.397307861328125,0.00001444527879357338,0.0003255632473155856,-0.001262430101633072
1690838830652348700,10.4073486328125,0.00024268543347716331,0.00011602870654314756,-0.0017118379473686218
1690838830662388700,10.417388671875,0.0011857107747346163,-0.00364994746632874,-0.0010929200798273087
1690838830672428800,10.4274287109375,0.000666680745780468,-0.0011515268124639988,-0.00007555261254310608
1690838830682470000,10.437469970703125,-0.0000806022435426712,0.0006666132248938084,-0.0004787556827068329
1690838830692510000,10.447510009765624,0.0009379829280078411,0.0013739103451371193,-0.00033591315150260925
1690838830702550000,10.457550048828125,0.0002881712280213833,0.0006980000762268901,0.0005152318626642227
1690838830712589800,10.46758984375,-0.0011629830114543438,-0.00376262329518795,-0.0006213430315256119
1690838830722630700,10.477630615234375,-0.0007342142052948475,-0.0012280929367989302,0.00047241710126399994
1690838830732670700,10.487670654296876,0.00012386124581098557,0.00008778146002441645,0.0005676634609699249
1690838830742710800,10.497710693359375,0.000523601658642292,0.00004011089913547039,-0.0004960019141435623
1690838830752751900,10.507751953125,0.0011533494107425213,-0.00012416928075253963,-0.0005011800676584244
1690838830762792000,10.5177919921875,-0.00004081195220351219,0.0012633376754820347,0.001127077266573906
1690838830772832000,10.52783203125,-0.0018141120672225952,-0.0005702539347112179,0.0004314873367547989
1690838830782872000,10.5378720703125,-0.00010462896898388863,0.0005970095517113805,-0.00017065368592739105
1690838830792942800,10.54794287109375,0.0005376334302127361,0.0003653974272310734,0.0008291341364383698
1690838830802983700,10.557983642578124,-0.00027170125395059586,0.0009978982852771878,0.0004744008183479309
1690838830813023700,10.568023681640625,0.0009778887033462524,0.00005857227370142937,-0.0003315731883049011
1690838830823063800,10.578063720703126,0.0014351534191519022,0.0005906717851758003,0.00022183172404766083
1690838830833104000,10.588103759765625,0.0008479147218167782,-0.0004322680179029703,0.0007311385124921799
1690838830843145000,10.59814501953125,-0.00034571439027786255,-0.0035708032082766294,-0.00004011206328868866
1690838830853185000,10.60818505859375,-0.0006728339940309525,-0.0012861983850598335,-0.0005368702113628387
1690838830863224800,10.618224853515626,-0.0016656606458127499,-0.0017264189664274454,0.0009350590407848358
1690838830873265000,10.628264892578125,-0.0018089697696268559,-0.001327963313087821,0.001329699531197548
1690838830883305700,10.6383056640625,-0.00020494777709245682,0.0018390677869319916,-0.0016138926148414612
1690838830893345800,10.648345703125,0.0001717577688395977,-0.00048162229359149933,0.0012183934450149536
1690838830903385900,10.6583857421875,-0.0008170739747583866,0.0005801799707114697,-0.0004585999995470047
1690838830913427000,10.668427001953125,0.001069806981831789,0.0003273750189691782,0.0008113924413919449
1690838830923467000,10.678467041015624,-0.0014226455241441727,0.00013376318383961916,0.00041484832763671875
1690838830933507000,10.688507080078125,0.00018172850832343102,-0.00007764110341668129,0.00021797791123390198
1690838830943547000,10.698546875,0.001097589498385787,-0.0005343733355402946,0.0008507445454597473
1690838830953555200,10.70855517578125,0.0005029179155826569,-0.0005075689405202866,0.0008591394871473312
1690838830963626200,10.718626220703126,-0.0009274659678339958,-0.0007118333596736193,0.0006807092577219009
1690838830973666300,10.728666259765625,-0.0006793616339564323,-0.001555505907163024,-0.0010380204766988754
1690838830983706000,10.7387060546875,0.0000029401853680610657,-0.001412227749824524,-0.000635884702205658
1690838830993746200,10.74874609375,0.0009892345406115055,-0.0012681619264185429,-0.00015364587306976318
1690838831003787300,10.758787353515626,-0.0010984172113239765,0.0008109679911285639,-0.0008838828653097153
1690838831013827000,10.7688271484375,-0.0014937566593289375,-0.0006379792466759682,-0.0010314751416444778
1690838831023867100,10.7788671875,-0.00078615453094244,0.0006320822285488248,-0.0002194773405790329
1690838831033908200,10.788908203125,-0.00004913564771413803,0.00024279591161757708,-0.0004615858197212219
1690838831043948300,10.7989482421875,0.0002821614034473896,0.00236906367354095,-0.0014893002808094025
1690838831053988000,10.808988037109375,-0.0004710610955953598,-0.0008261904586106539,0.0003190673887729645
1690838831064028200,10.819028076171875,0.00030045676976442337,-0.0002786444965749979,-0.0005134362727403641
1690838831074069200,10.8290693359375,-0.0005700201727449894,0.0003691120073199272,0.0007938630878925323
1690838831084109300,10.839109375,0.0016547846607863903,-0.002859704429283738,-0.0006040297448635101
1690838831094149000,10.849149169921875,-0.00036877067759633064,-0.0013225327711552382,0.0009538624435663223
1690838831104190200,10.859190185546876,-0.000490210484713316,-0.00024155573919415474,-0.00019422732293605804
1690838831114230300,10.869230224609375,-0.0007941457442939281,0.00021170906256884336,0.0007976628839969635
1690838831124270000,10.87927001953125,-0.0010029375553131104,0.0015901611186563969,0.0021667946130037308
1690838831134341000,10.889341064453125,0.0007848958484828472,0.001958091277629137,0.0003286600112915039
1690838831144381200,10.899381103515625,-0.0009112711995840073,0.001023854361847043,0.0007241405546665192
1690838831154421000,10.9094208984375,0.00017848145216703415,-0.0002844023983925581,0.0004909392446279526
1690838831164462000,10.919462158203125,-0.0004188655875623226,-0.0014641827438026667,-0.0013362560421228409
1690838831174502100,10.929502197265625,-0.0008426103740930557,-0.0002258282620459795,0.0009115356951951981
1690838831184542200,10.939542236328125,0.0008825855329632759,-0.0003536599688231945,-0.0010557416826486588
1690838831194583300,10.949583251953126,-0.0010121962986886501,-0.0010380381718277931,-0.0006716959178447723
1690838831204623000,10.959623046875,-0.0006388211622834206,0.0021835877560079098,0.0011243391782045364
1690838831214663200,10.9696630859375,0.0007056212052702904,-0.0006387974135577679,-0.0004160366952419281
1690838831224703000,10.979702880859374,-0.0008999989368021488,0.0007748083444312215,0.0013056974858045578
1690838831234744000,10.989744140625,-0.00004197238013148308,0.0007313392125070095,-0.00012235529720783234
1690838831244784000,10.9997841796875,-0.0006321286782622337,0.00010922481305897236,-0.0013825632631778717
1690838831254824200,11.00982421875,-0.001562120858579874,0.00016161950770765543,-0.001000288873910904
1690838831264865300,11.019865234375,-0.00021216459572315216,-0.0005273402202874422,0.00035179778933525085
1690838831274905000,11.029905029296875,0.0003588451072573662,0.00043767085298895836,-0.00013856776058673859
1690838831284945200,11.039945068359375,0.0010467397514730692,0.00009758514352142811,-0.0022688303142786026
1690838831294985200,11.049985107421875,-0.0007810769602656364,-0.0003629231359809637,0.0019256379455327988
1690838831305056000,11.060055908203125,0.0005979076959192753,0.0002863554982468486,0.0011043194681406021
1690838831315097000,11.07009716796875,-0.000678767915815115,0.00034152099397033453,-0.00007126666605472565
1690838831325137200,11.08013720703125,0.00015932880342006683,-0.000025462592020630836,0.0010829474776983261
1690838831335177200,11.09017724609375,0.00011636363342404366,-0.0007842108607292175,0.0005516074597835541
1690838831345217300,11.10021728515625,0.0014964134898036718,0.00008025136776268482,0.00233486108481884
1690838831355258000,11.110258056640625,0.0009968318045139313,0.0021884324960410595,-0.0014035440981388092
1690838831365298200,11.120298095703125,0.00034275930374860764,0.0007726961048319936,0.0000015404075384140015
1690838831375338000,11.130337890625,0.00003452552482485771,0.000819508801214397,0.00038129836320877075
1690838831385378000,11.1403779296875,0.001827365718781948,-0.001794916344806552,-0.0001987367868423462
1690838831395419100,11.150419189453125,-0.0014050370082259178,-0.000458382535725832,0.00025571323931217194
1690838831405459200,11.160459228515625,-0.00025055697187781334,0.0007608126616105437,0.00036916323006153107
1690838831415499300,11.170499267578125,-0.0006258026696741581,0.0007120359223335981,0.000403696671128273
1690838831425540000,11.1805400390625,0.0010232266504317522,-0.0006403170991688967,0.0008625593036413193
1690838831435580200,11.190580078125,0.00037958426401019096,-0.001264333026483655,-0.00041569583117961884
1690838831445620200,11.2006201171875,-0.0003144354559481144,-0.0006062658503651619,-0.0012021269649267197
1690838831455660000,11.210659912109374,-0.0008690669201314449,0.0015739562222734094,-0.000006632879376411438
1690838831465701000,11.220701171875,-0.00003310060128569603,-0.0010149027220904827,-0.0002947859466075897
1690838831475772200,11.230772216796876,-0.0003970228135585785,0.0020154290832579136,0.00027094222605228424
1690838831485812200,11.240812255859375,-0.0014452431350946426,-0.0005971319042146206,0.001167096197605133
1690838831495852300,11.250852294921875,0.00037605268880724907,0.00029151246417313814,-0.0004471093416213989
1690838831505892400,11.260892333984375,-0.0006260951049625874,0.0007029707776382565,-0.0004590936005115509
1690838831515933200,11.27093310546875,0.0005636527203023434,-0.00012503843754529953,-0.0011487025767564774
1690838831525973000,11.280972900390625,0.001065392279997468,-0.0010030826088041067,-0.0005982257425785065
1690838831536013000,11.291012939453125,-0.0006078761070966721,0.001412511570379138,-0.0003120899200439453
1690838831546054100,11.30105419921875,0.0004960042424499989,0.0013155724154785275,0.000330531969666481
1690838831556094200,11.31109423828125,0.0009951789397746325,0.0006295019993558526,-0.000272190198302269
1690838831566134300,11.32113427734375,-0.0008661043830215931,0.00023748469538986683,-0.0009566228836774826
1690838831576174300,11.33117431640625,-0.0006953333504498005,0.001393532264046371,0.0009395387023687363
1690838831586215200,11.341215087890625,0.0010706086177378893,-0.000652840593829751,0.00019598379731178284
1690838831596255200,11.351255126953125,0.0005448660813271999,-0.0009375922381877899,0.0006360094994306564
1690838831606295000,11.361294921875,0.00010997196659445763,-0.0013149622827768326,-0.00199146568775177
1690838831616336100,11.371336181640626,-0.0004928684793412685,-0.000866306247189641,-0.0009736847132444382
1690838831626376200,11.381376220703125,0.0018363320268690586,0.0031936829909682274,0.0005120933055877686
1690838831636416300,11.391416259765625,-0.0015591476112604141,0.0012805050937458873,-0.0011923089623451233
1690838831646487300,11.4014873046875,0.0012270512524992228,-0.0007272521033883095,-0.0013012327253818512
1690838831656527400,11.41152734375,0.000839069951325655,0.0005676363361999393,0.00032087787985801697
1690838831666567200,11.421567138671875,-0.00025948416441679,-0.00021080556325614452,0.0003834608942270279
1690838831676608000,11.43160791015625,0.00045885052531957626,0.0009029338834807277,0.0013616550713777542
1690838831686648000,11.44164794921875,-0.0007670028135180473,-0.0003815086092799902,0.00015950389206409454
1690838831696688000,11.451688232421875,-0.000613450538367033,-0.0006116698496043682,-0.0009230077266693115
1690838831706729200,11.461729248046876,-0.00018894299864768982,-0.0003256462514400482,0.00000776723027229309
1690838831716769300,11.471769287109375,0.0018742235843092203,0.0002424281556159258,0.0002363249659538269
1690838831726809300,11.481809326171875,-0.000788138248026371,0.000388902029953897,0.0008091703057289124
1690838831736849200,11.49184912109375,-0.0009399484843015671,0.000042712315917015076,0.000332096591591835
1690838831746890200,11.50189013671875,0.0012220055796205997,0.0009644323727115989,-0.00032437220215797424
1690838831756930000,11.511929931640625,-0.0006120163016021252,-0.0001615225337445736,0.0012869630008935928
1690838831766970000,11.52197021484375,0.0012141130864620209,-0.001635315828025341,-0.0002949535846710205
1690838831777011200,11.53201123046875,0.0019287948962301016,0.00014984933659434319,-0.0008451342582702637
1690838831787051300,11.54205126953125,0.0004467456601560116,-0.0009058276191353798,-0.0008246283978223801
1690838831797091300,11.55209130859375,-0.00029235146939754486,0.00221127737313509,0.0011345390230417252
1690838831807131400,11.56213134765625,-0.00025746412575244904,0.0006932754768058658,0.0003198795020580292
1690838831817202200,11.5722021484375,0.0008942335844039917,0.000698274583555758,-0.001513022929430008
1690838831827242200,11.5822421875,0.0008976957760751247,0.00048309110570698977,-0.00045654550194740295
1690838831837283000,11.592282958984375,0.002197637688368559,0.00009961542673408985,0.0021341275423765182
1690838831847323100,11.6023232421875,-0.0007789777591824532,0.0012133494019508362,-0.0006733760237693787
1690838831857363200,11.61236328125,-0.002951310947537422,-0.001457009231671691,-0.0001423116773366928
1690838831867404300,11.622404296875,0.000686566811054945,-0.0020237297285348177,-0.0004682820290327072
1690838831877444400,11.6324443359375,0.0002330513671040535,-0.0016119952779263258,-0.00035345926880836487
1690838831887484200,11.642484130859375,0.00040455861017107964,-0.0004047844558954239,-0.00018035434186458588
1690838831897524200,11.652524169921875,-0.0005015889182686806,-0.00021261023357510567,0.0005987305194139481
1690838831907565000,11.66256494140625,0.000025717075914144516,-0.00023977458477020264,0.0021660011261701584
1690838831917605000,11.672605224609375,-0.0007486129179596901,-0.0006652476731687784,0.0004222337156534195
1690838831927645200,11.682645263671875,-0.0003259694203734398,0.0006911001401022077,0.00023714452981948853
1690838831937686300,11.692686279296876,-0.0011588037014007568,-0.000503934221342206,0.0022041350603103638
1690838831947726300,11.702726318359375,0.0008686608634889126,0.0017371159046888351,0.000815562903881073
1690838831957760300,11.71276025390625,0.001311762724071741,-0.000992870656773448,-0.0007795318961143494
1690838831967800300,11.72280029296875,0.000507221557199955,-0.001263980520889163,-0.0007417146116495132
1690838831977841400,11.73284130859375,-0.0004263552837073803,-0.0017400090582668781,-0.00007410161197185516
