time,seconds_elapsed,z,y,x
1690839493900713000,0.192712890625,0.27676643859148026,0.051181659109564494,-0.0039923758381046354
1690839493910753000,0.2027529296875,0.2745201209694147,0.0677459043515846,-0.001320224886247888
1690839493920794000,0.212794189453125,0.28470073872208596,0.07564520623404532,-0.0012791165577247738
1690839493930834200,0.222834228515625,0.26376433367729185,0.060443545448966324,0.0006856213437160477
1690839493940874000,0.2328740234375,0.2586918527185917,0.0372090103964787,0.0036599655459634956
1690839493950913800,0.242913818359375,0.2485299396663904,0.004183290733746253,-0.0022592410357203333
1690839493960955000,0.252954833984375,0.22459727541506289,-0.03335240346698556,0.005362358150212094
1690839493970995000,0.262994873046875,0.21891630716919896,-0.059470782293519,-0.005947176867420785
1690839493981035000,0.273034912109375,0.2101268515139818,-0.1302927422227338,-0.005999797537224367
1690839493991076000,0.283076171875,0.2188186920136213,-0.14312333562807178,0.005494724958762526
1690839494001116200,0.2931162109375,0.2155857014417648,-0.135826867610123,-0.0023228123578010124
1690839494011156000,0.303156005859375,0.22141689181327817,-0.110607561081741,0.008094491094420663
1690839494021195800,0.31319580078125,0.25334230838418004,-0.0777889493976254,0.002063695630733855
1690839494031236900,0.32323681640625,0.2483604283183813,-0.04659653240954503,-0.00086620664158836
1690839494041277000,0.33327685546875,0.24743922182023523,-0.01418550601247698,-0.004826625572005286
1690839494051348000,0.343347900390625,0.2535480600893497,0.009530410215631127,0.004578317933320067
1690839494061388000,0.353387939453125,0.2561889299869537,0.01774671475854702,0.005097026311489753
1690839494071428000,0.363427978515625,0.25281097798645497,0.013125580596807412,-0.002601597333140671
1690839494081469200,0.37346923828125,0.23953531682789325,0.0014925492458511143,0.0038108726582024243
1690839494091509000,0.383509033203125,0.22653438095748424,-0.017789343757298775,0.007332110153487883
1690839494101548800,0.393548828125,0.22593992219567297,-0.030707346018031236,0.0012247651551384477
1690839494111590000,0.40358984375,0.21815467514693737,-0.04160761981476098,-0.0029091289123520255
1690839494121630000,0.4136298828125,0.21963936074674129,-0.04995395764524582,0.0023035825009457764
1690839494131670000,0.423669921875,0.23129180461764334,-0.04845140759518835,-0.00374405906626489
1690839494141710000,0.4337099609375,0.2290285358607769,-0.03564807208953425,-0.005430783743923529
1690839494151751200,0.443751220703125,0.22856968617737292,-0.01912741939406842,0.0029356150604784486
1690839494161791000,0.453791015625,0.23529928669333455,-0.001429366082837805,0.003629588674008846
1690839494171830800,0.463830810546875,0.2469756959617138,0.003976753577287309,0.001040079070883803
1690839494181871900,0.473871826171875,0.2418985388278961,0.009502549527748488,-0.0029580232551088556
1690839494191912000,0.483911865234375,0.24580431409478187,0.01420794617314823,-0.0064954812328331165
1690839494201952000,0.493951904296875,0.23444646925628185,0.008026175098563544,-0.004800376885896548
1690839494211992000,0.503991943359375,0.23700316800177096,0.002368427898082882,-0.009952279756357893
1690839494222063000,0.51406298828125,0.22713526946008203,-0.013565515517187304,-0.008197156884451396
1690839494232103000,0.52410302734375,0.21860884865522384,-0.022225038349535316,-0.006423886434501037
1690839494242143700,0.534143798828125,0.21980478044152257,-0.028567301782034336,-0.00008247238537296652
1690839494252183800,0.544183837890625,0.21636019294559955,-0.026219318450358693,-0.004114604845130816
1690839494262224000,0.554223876953125,0.21994623473882674,-0.031481481328839434,-0.0009464962030295282
1690839494272265000,0.564264892578125,0.21620003394782542,-0.024262060602474957,0.002552789755351841
1690839494282305000,0.574304931640625,0.21903905676603316,-0.012920751340244896,0.0009836498756427318
1690839494292345000,0.584344970703125,0.21364976494312285,-0.01037756053030025,-0.004628025126829743
1690839494302385200,0.59438525390625,0.22442601050138472,-0.001858893773634918,-0.0025081012302543967
1690839494312426000,0.604426025390625,0.2202402492493391,0.01162331824111752,0.0003342688890872523
1690839494322465800,0.6144658203125,0.22278993373215197,0.013035262831696308,0.004305734369903802
1690839494332505900,0.624505859375,0.2259393376737833,0.01655035371398553,0.00515203986777924
1690839494342547000,0.634546875,0.23028525792360305,0.004018423594813794,0.0009435827267356217
1690839494352587000,0.6445869140625,0.2283440607279539,-0.007214299309963826,-0.0016895924881799146
1690839494362627000,0.654626953125,0.21278408802449703,-0.011770003552676643,-0.0012683348688064143
1690839494372667100,0.664667236328125,0.21293489467203616,-0.014999792953871655,-0.009622034021839499
1690839494382738000,0.674738037109375,0.2163759750366211,-0.019994674065138676,-0.003082731913588941
1690839494392778800,0.68477880859375,0.21712065592408178,-0.013436954950785729,-0.002677064588991925
1690839494402818800,0.69481884765625,0.21427286527752876,-0.015949967534886672,-0.0057509784418856725
1690839494412859000,0.70485888671875,0.21337036347985266,-0.0063982268368592485,-0.0005925453659379854
1690839494422899000,0.71489892578125,0.21980185783207415,-0.00009294811361469327,0.0008288794390391558
1690839494432940000,0.72493994140625,0.23252163867354392,0.00746501581815537,-0.00013150829202495515
1690839494442980000,0.73497998046875,0.2277344043970108,0.01122713113091886,0.008625314602069556
1690839494453020200,0.745020263671875,0.23102993881106376,0.01121734038926661,0.004544671392044983
1690839494463060000,0.75506005859375,0.22624562714397906,0.007481208901130594,-0.0026689360814634707
1690839494473100800,0.765100830078125,0.20709610551595686,-0.0016596288914675823,-0.00137459912172053
1690839494483140900,0.775140869140625,0.2139829424202442,-0.003236454320710618,-0.006360666738869622
1690839494493181000,0.785180908203125,0.20844752012491224,-0.009528608700900804,-0.01078594953494612
1690839494503222000,0.795221923828125,0.21592940031290053,-0.00589762950411532,0.00042673751208931204
1690839494513262000,0.805261962890625,0.20949381430745123,-0.005463672233372926,-0.010737310920516028
1690839494523302100,0.81530224609375,0.2186193700492382,-0.015366169447696301,-0.0034324358338257296
1690839494533342000,0.825342041015625,0.2041015998750925,-0.01826116936999606,0.008018361684866249
1690839494543413000,0.8354130859375,0.21053484779298304,-0.003928309042390901,0.0037022018190706147
1690839494553453800,0.845453857421875,0.2154728887170553,0.000072688493586611,0.00017155717462301253
1690839494563494000,0.855493896484375,0.21562252632081508,0.00026936412644572554,0.003607171346223913
1690839494573534000,0.865533935546875,0.21592355509400366,0.003465541235695127,0.005859868476726114
1690839494583554800,0.875554931640625,0.21876783860921858,0.004375160044035874,0.0014941932136658578
1690839494593595600,0.885595703125,0.2145803237915039,0.001189065937383566,-0.004993027080898173
1690839494603635700,0.8956357421875,0.22326105837523935,0.0005862823052215389,-0.006746757146739401
1690839494613675500,0.905675537109375,0.20919629266560077,-0.001240944538381882,-0.0018438469015527516
1690839494623716600,0.915716552734375,0.20321137303709982,-0.008624905893404502,0.0006105833461275324
1690839494633756700,0.925756591796875,0.21039514706134796,-0.011446036861895117,0.0023741635191254318
1690839494643796700,0.935796630859375,0.20964695904254912,-0.00858779788656393,0.0014487923025153576
1690839494653836800,0.9458369140625,0.1997702926725149,-0.005920941881043836,-0.005332282672356814
1690839494663877600,0.955877685546875,0.20620412511229513,-0.004818981121666729,-0.0018520028085447847
1690839494673917700,0.965917724609375,0.20755027902424333,-0.008107839199760929,0.006520090517704375
1690839494683957500,0.97595751953125,0.20889701745808123,0.0006833928540116176,0.0007643674020422622
1690839494693998600,0.98599853515625,0.20590426538288592,0.0007600908024352975,-0.00005848872158676386
1690839494704068600,0.996068603515625,0.2063537627160549,0.009267286317015531,-0.002266346629941836
1690839494714109700,1.006109619140625,0.2102449249356985,0.005534986187203321,0.0030447288576047867
1690839494724149800,1.016149658203125,0.21249124255776405,-0.00007387123709777369,0.0048785338557558134
1690839494734189800,1.02618994140625,0.2056096663504839,0.0018084353781654499,0.0006474630241049453
1690839494744230000,1.03622998046875,0.20306758065223693,-0.00526306934406748,0.0008150427099317312
1690839494754270700,1.046270751953125,0.20755729328691958,-0.003576408598490525,0.002499648495740257
1690839494764310500,1.056310546875,0.20276888996660708,-0.004162782235257327,-0.003503984966385178
1690839494774350600,1.0663505859375,0.20381576867103576,-0.0023049022417748347,0.0005089815685991198
1690839494784391700,1.0763916015625,0.20082301659584045,-0.0006925351416924968,0.008889911221852526
1690839494794431700,1.086431640625,0.20471242524981498,0.00020601656665094196,-0.0008512145684333518
1690839494804471800,1.096471923828125,0.1999228528857231,-0.001971071744104847,0.00046513329371809955
1690839494814511900,1.106511962890625,0.20441198099851607,-0.0005598441061563789,0.006669093367224559
1690839494824552700,1.116552734375,0.20216800146400926,0.002103436269366648,0.005227539089671336
1690839494834592500,1.126592529296875,0.20755495519936085,0.005791296752542257,0.0016857291638152673
1690839494844632600,1.136632568359375,0.20516192258298396,0.0018729976475122384,0.0012909576925681904
1690839494854673700,1.146673583984375,0.20142098248898982,0.008460367548034992,-0.006244648276921361
1690839494864743700,1.15674365234375,0.20830431226193905,0.005488338600459974,-0.006492878283793106
1690839494874784800,1.16678466796875,0.2136918505191803,-0.001150389311253093,0.0011613445301074533
1690839494884824800,1.176824951171875,0.2039659907966852,0.0011042691641836425,0.0003077873075380921
1690839494894865000,1.186864990234375,0.20770693089067935,-0.00008341766686644404,-0.005805991998175159
1690839494904905700,1.19690576171875,0.2023188081115484,0.0006070396821713075,-0.008182265275996178
1690839494914945500,1.206945556640625,0.1919932289302349,0.0006626514600822701,-0.0012333777198567986
1690839494924985600,1.216985595703125,0.20620880128741262,-0.00450260179900797,0.007354655345436185
1690839494935025700,1.227025634765625,0.203216633734107,-0.007343581395572982,0.009899366825609468
1690839494945066800,1.237066650390625,0.19977555336952207,-0.004124464085442014,0.00040584542111027984
1690839494955106800,1.24710693359375,0.19423954655230044,-0.002172553699533455,-0.00006177665721625089
1690839494965147000,1.25714697265625,0.1982797618538141,0.0007882825671695173,0.00443444335006643
1690839494975186700,1.267186767578125,0.20217092407345771,0.0026842089991201646,0.001030347694735974
1690839494985227500,1.2772275390625,0.19902794987261294,-0.0006064231942407787,-0.007989765778044238
1690839494995267600,1.287267578125,0.19872809014320372,0.0020015011316980233,-0.001159960857196711
1690839495005307600,1.2973076171875,0.20261866784095764,-0.0022381183325895105,-0.006208987875073216
1690839495015348700,1.3073486328125,0.2005231568664312,-0.00866298658120213,-0.0017202753208111971
1690839495025418800,1.317418701171875,0.19857786801755428,-0.0009615385085344314,0.0012698190064169466
1690839495035459800,1.3274599609375,0.1958843911498785,-0.0066583025451516726,0.00024218842515256255
1690839495045500000,1.3375,0.19438801511228082,-0.0036904337494634088,-0.0071333498781081285
1690839495055539700,1.347539794921875,0.20516250710487363,0.0008708896665717475,-0.006996265795244835
1690839495065580500,1.35758056640625,0.2017220112621784,0.003377899484860245,-0.00040118751230183985
1690839495075620600,1.36762060546875,0.1961854199230671,-0.0029372567450045607,-0.0054665720099350435
1690839495085660700,1.37766064453125,0.19498948813676834,0.0050797966154757885,0.003501108022709377
1690839495095700700,1.38770068359375,0.199029703438282,-0.0062848547064349985,0.0007387032378232106
1690839495105741800,1.397741943359375,0.19439152224361894,-0.0017639432158903217,0.00004942406571935862
1690839495115782000,1.407781982421875,0.19738485884070395,0.0008811507656821049,-0.00506851260305848
1690839495125821700,1.41782177734375,0.19110066400468348,-0.005036078488046769,0.0045733266643714155
1690839495135862500,1.427862548828125,0.19693653055131435,0.002321474350662902,0.003868607894540764
1690839495145902600,1.437902587890625,0.1949912417024374,0.000184108412230853,0.004130213406216353
1690839495155942700,1.447942626953125,0.1966372553437948,-0.0013952400509500875,0.0009070683749392628
1690839495165982700,1.457982666015625,0.2003770263940096,-0.00032951051557902244,-0.0013628173523815349
1690839495176023800,1.46802392578125,0.20576398012936115,0.003981678630865644,-0.0034261111243162304
1690839495186093600,1.478093505859375,0.20187281790971756,0.0010859366397606208,-0.004539369595842436
1690839495196135000,1.488135009765625,0.20022680426836012,0.005782423892919905,-0.0016581150711048394
1690839495206174700,1.4981748046875,0.20187281790971756,0.006827307003084569,0.005452748980559408
1690839495216214800,1.50821484375,0.20905600741207597,0.0006911195027409121,0.0027002765012206506
1690839495226255600,1.518255615234375,0.20486615450680254,-0.00047257681465707715,-0.004713191792787984
1690839495236295700,1.528295654296875,0.2023234842866659,0.0021158984587178564,-0.0033223356560105454
1690839495246335700,1.538335693359375,0.19125088613033295,0.0027150516619556583,-0.0018893528439803049
1690839495256375800,1.548375732421875,0.19065292023718355,0.006156385471578687,0.0017033881180919706
1690839495266417000,1.5584169921875,0.18975509461462498,-0.0038003375644562764,0.007877615207037888
1690839495276456700,1.568456787109375,0.18751053055822847,-0.0038952447397168724,0.009466199572733603
1690839495286496500,1.57849658203125,0.1861637921243906,0.0032448636727407574,-0.0021750744501827283
1690839495296537600,1.58853759765625,0.1931955904573202,0.007336635631555691,-0.005744023544713855
1690839495306577700,1.59857763671875,0.19439210676550864,0.00266741084465757,-0.01056836126151029
1690839495316617700,1.60861767578125,0.19917992556393146,0.006401459973561577,-0.010548715846124105
1690839495326657800,1.61865771484375,0.19633622657060623,0.007481051354215014,-0.009439133469294756
1690839495336699000,1.628698974609375,0.198580206105113,0.002603949120431207,-0.0022353852360974995
1690839495346769700,1.638769775390625,0.1925947019547224,0.0024790783484582787,-0.0007480281885946169
1690839495356809700,1.648809814453125,0.19274492408037183,0.003778733087424189,-0.005140486427303403
1690839495366849500,1.658849609375,0.18735855486690997,0.006481692452786955,-0.0005664108442608267
1690839495376889600,1.6688896484375,0.19828326898515222,0.0031331857424811457,0.006218020564899779
1690839495386930700,1.6789306640625,0.1917003834635019,-0.0029488969504483974,0.007197268260060809
1690839495396970800,1.688970703125,0.18451836300492286,-0.0070387874794309024,-0.0055371575946919615
1690839495407010800,1.6990107421875,0.18362053738236425,-0.007806257870723493,-0.0024404382549459112
1690839495417050600,1.709050537109375,0.1879594433695078,-0.005310504665388726,-0.002087154138134792
1690839495427091700,1.719091796875,0.19738602788448334,-0.005192604773608036,0.004834032560326159
1690839495437131500,1.729131591796875,0.18945523488521576,-0.0022781101329717784,-0.008606797131267377
1690839495447171600,1.739171630859375,0.18855682474076746,0.000004774356528650969,-0.0029665581880137324
1690839495457212700,1.749212646484375,0.19005203173458576,0.002310206321266014,-0.0006310690117301419
1690839495467252700,1.759252685546875,0.19573826067745684,0.0035871446216362525,0.0007001978583401068
1690839495477292800,1.769292724609375,0.18990297865271566,0.003126835916796699,-0.004585332195996307
1690839495487332600,1.77933251953125,0.1893050127595663,0.0028821016248199156,-0.0021703754421789198
1690839495497373700,1.789373779296875,0.19319675950109957,0.007220192477921955,-0.007064586357679217
1690839495507444700,1.79944482421875,0.19409516964554785,-0.0019168093897751531,-0.00669167965836823
1690839495517484500,1.809484619140625,0.18885785351395606,0.0014269252472906373,0.005808366618352011
1690839495527524600,1.819524658203125,0.1800286503702402,-0.0005035450583673082,0.0009610133521491661
1690839495537564700,1.829564697265625,0.1788309650182724,-0.010357588604639749,0.0037173034900799392
1690839495547605800,1.839605712890625,0.18706044870316982,-0.007484741148643661,-0.005852045929874293
1690839495557645800,1.849645751953125,0.19528993238806724,-0.007146152277465443,-0.0006598795476835221
1690839495567685600,1.859685546875,0.19528934786617755,-0.005386334964132402,0.0018465046495199202
1690839495577729800,1.869729736328125,0.19005261625647543,-0.0017230609329417347,-0.0006524862590944395
1690839495587769900,1.879769775390625,0.19169862989783287,0.001264266048464924,0.007414504907047375
1690839495597809700,1.8898095703125,0.1867605889737606,0.00289230107513722,0.008468881931342183
1690839495607849700,1.899849609375,0.1922977648347616,0.0044874087964533824,0.002284151714690961
1690839495617890800,1.909890869140625,0.19813480042517184,0.004478083845681977,0.006170098903100006
1690839495627931000,1.919930908203125,0.19319734402298927,-0.005736148482223507,0.007223772674496285
1690839495637971000,1.929970947265625,0.19050445167720317,-0.0025748577399761414,-0.002381707504764199
1690839495648012000,1.940011962890625,0.19230010292232036,0.005887987176224124,0.0003181854039663449
1690839495658051800,1.9500517578125,0.1951438019156456,0.009284248868259602,0.0027723781896289434
1690839495668123000,1.960122802734375,0.18392098163366316,0.011319337175728287,-0.0032958221084205433
1690839495678162700,1.97016259765625,0.19230127196609972,0.008702329927613026,0.0032314699016278607
1690839495688202800,1.98020263671875,0.19469547362625597,-0.0005791926940204575,-0.0007897119058528914
1690839495698242800,1.990242919921875,0.19230127196609972,-0.0015622968636802397,0.0049872001283103595
1690839495708284000,2.000283935546875,0.18481997630000113,0.0018830874999752267,0.00424003045624122
1690839495718323700,2.01032373046875,0.18511925150752068,0.0032171102994238026,0.001476059335353784
1690839495728363800,2.02036376953125,0.19080489592850208,0.0008665582680376246,-0.0047279555370798336
1690839495738404900,2.03040478515625,0.18302257148921489,-0.003626967458659783,0.013661514104413798
1690839495748444700,2.040444580078125,0.1791314092695713,-0.0023662062582443465,0.006248091476177797
1690839495758484700,2.050484619140625,0.18556524170935154,0.007743513099127449,-0.0038755627917125817
1690839495768524800,2.06052490234375,0.18661387397944926,-0.002926002415339462,-0.005041766160028055
1690839495778566000,2.07056591796875,0.19215104984045028,-0.0022861450256663374,-0.00563005547595676
1690839495788606000,2.08060595703125,0.19424656081497668,-0.006074356044200249,-0.000017841617367230354
1690839495798645800,2.090645751953125,0.18601766165196895,-0.006863143218157347,0.005948345911200158
1690839495808686800,2.100686767578125,0.18212766847610473,-0.0071694715042598545,0.013449574687052518
1690839495818726700,2.1107265625,0.18347382238805293,-0.003792798145394772,0.00878298481523525
1690839495828797700,2.120797607421875,0.18511925150752068,-0.005338452118239365,0.0019302054441766813
1690839495838837800,2.130837646484375,0.1855669952750206,0.0006010551826679147,0.0029988393226871267
1690839495848877800,2.1408779296875,0.18451953204870222,-0.0006171158349025063,-0.001083918212610297
1690839495858919000,2.1509189453125,0.19005612338781355,0.004818944589048624,-0.004735873982054181
1690839495868958700,2.160958740234375,0.1893091044127941,-0.00010831692939391359,-0.006213773648045025
1690839495878998800,2.170998779296875,0.1884118633121252,0.0024535968473297543,-0.0016843591906363143
1690839495889038800,2.181038818359375,0.19634324083328247,0.004444640517095103,-0.0055265814017504454
1690839495899079700,2.19107958984375,0.1851215895950794,-0.0010798790750210173,-0.003359197067678906
1690839495909119700,2.20111962890625,0.17629297097325325,0.0005517155986279249,-0.00009071962391026317
1690839495919159800,2.211159912109375,0.17554478295445441,0.0006470132162445224,-0.005487975557567551
1690839495929199600,2.22119970703125,0.18975977078974246,-0.0009047508369782008,0.0052817991607123985
1690839495939240700,2.23124072265625,0.18706629392206667,0.0019901006715605032,0.0020856106350198387
1690839495949280800,2.24128076171875,0.18332418478429316,-0.0008607244655839167,0.0009183067215839401
1690839495959320800,2.25132080078125,0.18571780192255974,-0.0022185551155940626,0.0017101055532461032
1690839495969361700,2.261361572265625,0.18871055399775505,0.003896110106108244,-0.001544950719946064
1690839495979432000,2.271431884765625,0.19364917944371698,0.00002217073261272162,-0.008112063283729367
1690839495989472800,2.28147265625,0.18541969575881956,0.0026285492721479383,0.0010232421005144715
1690839495999512800,2.291512939453125,0.19065759641230104,0.004766228021122515,-0.004162083548936061
1690839496009552600,2.301552734375,0.1882633947521448,0.0013984275218797847,0.0017520130327902733
1690839496019593700,2.31159375,0.1873655691295862,0.0009426694112829863,-0.005501497192843817
1690839496029633800,2.3216337890625,0.1948468647956848,-0.0006886010353802703,-0.0078084726606961335
1690839496039673900,2.331673828125,0.18167817114293575,-0.00027733052048133685,-0.008130215428350494
1690839496049714000,2.3417138671875,0.19529519308507443,0.005499743627174757,0.0038251706116134297
1690839496059754800,2.351754638671875,0.18856208543777464,0.007827022097539157,0.0019648041168111377
1690839496069794800,2.361794921875,0.18541969575881956,-0.002778575034975074,-0.00034426056013908235
1690839496079834600,2.371834716796875,0.18467209226191042,0.0031563086064532397,0.0018393670892575755
1690839496089875700,2.381875732421875,0.18766542885899543,0.0002653455384541303,-0.0064629352366784585
1690839496099915800,2.391915771484375,0.1933528268456459,0.0017644569558324292,-0.004462669364130124
1690839496109955800,2.401955810546875,0.18542320289015768,0.0003128288088366389,0.0067732273118454025
1690839496119996000,2.411995849609375,0.1836281361669302,-0.0012124833455891349,0.009573966229567304
1690839496130036700,2.42203662109375,0.17869009524285792,0.0037725293922121635,0.0015180558631545864
1690839496140107000,2.43210693359375,0.19260522334873675,0.0000969393021427095,0.00641297916470794
1690839496150147800,2.44214794921875,0.18751696029901505,-0.0017457180060329845,-0.0010380241111153737
1690839496160187600,2.452187744140625,0.18617022186517715,0.0065810018085292535,0.00459150392516749
1690839496170227700,2.462227783203125,0.1851227586388588,0.009497517159604467,0.004122384009498637
1690839496180268800,2.472268798828125,0.1749479861050844,0.009070149459852836,-0.000652061567408964
1690839496190308900,2.482308837890625,0.17554770556390284,0.00733912213287549,-0.007718570454115979
1690839496200349000,2.492348876953125,0.1761474250227213,0.002706491612875834,0.0030910065515898167
1690839496210389000,2.502388916015625,0.18108663499057293,0.0005243344013579189,0.0032501791686750945
1690839496220429800,2.512429931640625,0.1792915682673454,-0.005803781774779781,0.002746563328360207
1690839496230469600,2.5224697265625,0.1854272945433855,-0.004227093342854641,-0.0010348640396492556
1690839496240509700,2.532509765625,0.1840805561095476,-0.00019304520393488927,0.004476640807266813
1690839496250550800,2.54255078125,0.18931728771924972,-0.0003647576421848498,0.0026861109785502775
1690839496260590800,2.5525908203125,0.1920101800650358,-0.001085021041019354,0.0006001898162765428
1690839496270631000,2.562630859375,0.18707213914096354,-0.0026976507192943244,0.0051511539517901835
1690839496280671000,2.5726708984375,0.18647358872592448,-0.0024350519770639945,0.0006896399317076429
1690839496290711800,2.5827119140625,0.18602526043653486,0.006447335808747448,-0.0013540974730974994
1690839496300782800,2.592782958984375,0.1897667850524187,0.0006392226354335434,-0.003435543389653321
1690839496310822700,2.60282275390625,0.19784780017733572,-0.002654275085160043,0.005787803320935927
1690839496320862700,2.61286279296875,0.18348259021639823,0.0024906820212840103,0.007267177991382778
1690839496330902800,2.62290283203125,0.1800409253299236,0.0032614197986084036,0.002459122405818198
1690839496340944000,2.63294384765625,0.174055421179533,0.0034667924778652376,0.007251939323055558
1690839496350984000,2.64298388671875,0.18019056293368338,-0.0005248709741863421,-0.001203067063272465
1690839496361024000,2.65302392578125,0.16986498375236986,0.0018558843992184846,-0.004792079415009357
1690839496371064800,2.66306494140625,0.1810878040343523,-0.004022750426770653,-0.0029506482328288254
1690839496381104600,2.673104736328125,0.192759537127614,0.0008601330938283353,0.00251819793258328
1690839496391144700,2.683144775390625,0.18258359555006026,0.001860994399175979,-0.0026395684230839833
1690839496401184800,2.693184814453125,0.18467910652458666,0.0026310654562199487,-0.0010387090977048501
1690839496411225900,2.703225830078125,0.18333295261263846,-0.0007620156147517263,0.007663362818292808
1690839496421266000,2.713265869140625,0.17764730819165706,0.005207452999579254,0.002499244353652466
1690839496431306000,2.723305908203125,0.18722353031039238,0.00031762599825160576,0.006988785741687752
1690839496441346000,2.733345947265625,0.18587679187655448,0.0005825011792476288,0.0018944788269582204
1690839496451387000,2.743386962890625,0.189169403681159,0.009653723784757312,0.002194744981743861
1690839496461457700,2.753457763671875,0.185129772901535,0.004245135889621451,0.011344060625031124
1690839496471497700,2.763497802734375,0.17450550303459167,-0.0019373247381299732,0.013455860580655279
1690839496481537800,2.773537841796875,0.189618901014328,0.0024384403773932716,-0.0002538605966372415
1690839496491577900,2.783577880859375,0.19575462729036808,-0.006238583862315863,0.004712479406734928
1690839496501619000,2.793618896484375,0.18722528387606144,0.0010194564079632983,-0.002559411292383447
1690839496511659000,2.803658935546875,0.18707506175041197,-0.0009843531285412608,0.007008481389423832
1690839496521698800,2.81369873046875,0.18722528387606144,-0.0033937614909838884,0.0014044965030625461
1690839496531739600,2.82373974609375,0.17330840220451355,-0.004290799378964584,-0.0009430530037730932
1690839496541779700,2.83377978515625,0.1644791990607977,0.0018535828442778437,-0.001991954701929353
1690839496551819800,2.84381982421875,0.18393208754956722,-0.0019500997380237095,-0.0039877133627189325
1690839496561859800,2.85385986328125,0.18527882598340512,0.003007036328874528,-0.0017856687072198836
1690839496571901000,2.86390087890625,0.1782464431285858,-0.008092184972902759,-0.00199728389759548
1690839496581929500,2.873929443359375,0.18273557124137876,0.0005016955945757217,-0.0012214954858180134
1690839496591969500,2.883969482421875,0.1821370208263397,0.009827523148816544,0.007883821185538546
1690839496602010400,2.89401025390625,0.17809563648104668,0.013620599855424369,0.0003201010831282474
1690839496612050400,2.904050537109375,0.1751005463182926,0.02237755289697088,0.0026924767872551453
1690839496622121200,2.914121337890625,0.18287994814813135,0.02733352676995564,0.00873407677274663
1690839496632161300,2.924161376953125,0.18213117560744285,0.023338059359043834,0.017437196718226185
1690839496642201300,2.934201416015625,0.18467618391513824,0.01535468222259078,0.016795193037239368
1690839496652241400,2.944241455078125,0.18797113380730152,0.006489727345481515,0.012923852046206592
1690839496662282500,2.954282470703125,0.19306348851025104,-0.009636873114656191,0.008747915785142685
1690839496672322600,2.964322509765625,0.18259411694407462,-0.026942031817894892,-0.0039829823886742815
1690839496682362600,2.974362548828125,0.17795885835886,-0.03212254201162141,-0.015952387820836154
1690839496692403500,2.984403564453125,0.18080255735218523,-0.0349999583281693,-0.01865298854904249
1690839496702443300,2.994443359375,0.17197101612091065,-0.03901606438502203,-0.015593678610236384
1690839496712483300,3.0044833984375,0.16657763264477252,-0.02003659524441464,-0.0013179415976163
1690839496722523400,3.0145234375,0.16043430758416652,-0.002135390893765725,0.017879049601056612
1690839496732564500,3.024564453125,0.1638683736860752,0.020757313017686827,0.021875001069158316
1690839496742604500,3.0346044921875,0.18556115005612372,0.043835392566560764,0.02751847771569155
1690839496752644600,3.04464453125,0.19289280811846254,0.05642082013837062,0.022432461421983314
1690839496762685400,3.054685546875,0.20516718327999114,0.053026190997706724,0.00961835336056538
1690839496772725200,3.064725341796875,0.20921441284418105,0.03593809997809585,-0.005945893659209832
1690839496782796300,3.07479638671875,0.20054361513257027,0.017725566939241252,-0.0041230484464904295
1690839496792836400,3.08483642578125,0.18588614422678945,-0.004659582459006924,-0.008436002575047313
1690839496802876400,3.09487646484375,0.1700292344033718,-0.02880973908564774,-0.013828045760758686
1690839496812917500,3.10491748046875,0.16105156269967555,-0.045049421698553485,-0.00344155072204303
1690839496822957600,3.11495751953125,0.1616471905052662,-0.051685850338614545,0.003568401105259545
1690839496832997400,3.124997314453125,0.16687866141796112,-0.0492174143984681,-0.010037425872718449
1690839496843037400,3.135037353515625,0.16971417710483072,-0.023221253162517677,-0.005088144318712875
1690839496853078300,3.145078369140625,0.1762906328856945,0.001460567221988458,0.0029832170618698
1690839496863118300,3.155118408203125,0.20082535468339918,0.009967637155693956,0.006646196548826992
1690839496873158400,3.165158447265625,0.20067454803586005,0.03726226582052186,0.005483265133120585
1690839496883199500,3.175199462890625,0.1936439187467098,0.04364103903823997,0.002889522312872577
1690839496893239600,3.185239501953125,0.19768997926712034,0.04049321969891898,0.007988329589494969
1690839496903279600,3.195279541015625,0.18782032715976238,0.028515815906680654,0.001642269048001617
1690839496913319400,3.2053193359375,0.18408581680655478,0.012784639938338659,-0.013902805197134148
1690839496923360300,3.2153603515625,0.17271686605215072,-0.00047858643033541734,-0.009378710802237037
1690839496933400300,3.225400390625,0.16179332097768784,-0.01946475017321063,-0.00438590748362476
1690839496943471400,3.235471435546875,0.1638859093427658,-0.010889850584126542,-0.007473121492797509
1690839496953511400,3.245511474609375,0.16777181086540222,-0.016047600956773385,-0.0028845698598306624
1690839496963551500,3.255551513671875,0.1809358283430338,-0.0135203383683227,0.004410742814070545
1690839496973592600,3.265592529296875,0.18213000656366346,-0.006125241414643824,0.013025335092726163
1690839496983632400,3.27563232421875,0.17928572304844856,-0.0038115530782146375,0.010245189155172555
1690839496993672400,3.28567236328125,0.19305296711623668,0.005750361953955143,0.0010264843703713267
1690839497003712500,3.29571240234375,0.19754443331658839,0.007200359832867979,0.0077754974062787365
1690839497013753300,3.30575341796875,0.19126199204623698,0.013387893927958793,-0.00042117085440549997
1690839497023793400,3.31579345703125,0.18288403980135917,0.011404289212555159,-0.0059521955358330155
1690839497033833500,3.32583349609375,0.18108955760002135,0.01070937945068581,-0.008272845619299914
1690839497043874600,3.33587451171875,0.18468027556836605,0.010792552805668675,-0.012465436187642625
1690839497053914600,3.34591455078125,0.1745043339908123,-0.0002766112845623866,-0.0009177267662715166
1690839497063954400,3.355954345703125,0.18288287075757978,0.0009111006626626476,-0.002268369623669423
1690839497073994500,3.365994384765625,0.17884323997795581,0.011078822401142678,-0.004410119476274121
1690839497084035300,3.376035400390625,0.18482932865023613,0.004961656978388782,-0.0018631932061281985
1690839497094075400,3.386075439453125,0.1912649146556854,-0.0056066083849989805,0.0023719304628437386
1690839497104146400,3.396146484375,0.18632804277539253,-0.0049145938331144855,0.007679503385629505
1690839497114186500,3.4061865234375,0.17316110268831253,-0.0063985784633085125,0.008608253869414328
1690839497124226300,3.416226318359375,0.166278357437253,-0.008153331442456693,0.00841880256178556
1690839497134267400,3.426267333984375,0.16942074711620805,-0.0019590593626140616,0.003697763105970807
1690839497144307500,3.436307373046875,0.1689712497830391,-0.0019150512575288302,0.0022451554281520654
1690839497154347500,3.446347412109375,0.1695674621105194,0.005020255297829863,-0.005419438082713167
1690839497164387600,3.4563876953125,0.1884200466185808,0.012574109310063067,-0.005960908565251157
1690839497174428400,3.466428466796875,0.19156068273186683,0.016316766437108162,0.0024122921559843235
1690839497184468500,3.476468505859375,0.19545126042962074,0.015910660721093883,0.006575259337620809
1690839497194508500,3.486508544921875,0.18647417324781418,0.011965510141756385,0.003396407822507899
1690839497204549600,3.496549560546875,0.1782464431285858,0.004479216356843244,0.005524197648419067
1690839497214589400,3.50658935546875,0.18573124592602253,-0.004119207955012098,0.004024453760089818
1690839497224629500,3.51662939453125,0.18498481147289275,-0.004949034958833362,0.011735626359039452
1690839497234669600,3.526669677734375,0.17540917387604713,-0.006812360595702193,0.004924953113636002
1690839497244710400,3.53671044921875,0.17451134825348852,-0.009908057022141292,-0.0025308587680454363
1690839497254750500,3.54675048828125,0.1775023467630148,-0.008443861654517241,-0.006422247033263557
1690839497264821500,3.556821533203125,0.17660218305289743,-0.000531321264570579,-0.005760504322056658
1690839497274861300,3.566861328125,0.18842180018424987,-0.0006057199413422495,-0.002132614414789714
1690839497284901400,3.5769013671875,0.19216157123446465,0.012899934597790706,-0.0028335223758942448
1690839497294942500,3.5869423828125,0.19066519519686698,0.011769074254203588,0.0007042369959293864
1690839497304982500,3.596982421875,0.1830342619270086,0.014562465549109038,0.00952024958122056
1690839497315022600,3.607022705078125,0.1872264529198408,0.008931830117839854,0.010114395532489289
1690839497325063400,3.6170634765625,0.1800461860269308,0.008148194043035618,0.012439790289732628
1690839497335103500,3.627103515625,0.17361352263092994,0.0019491247737780213,0.011099463330372235
1690839497345143300,3.637143310546875,0.1779535976618528,-0.01055162703912938,0.007019023333035875
1690839497355183400,3.647183349609375,0.17615794641673563,-0.016585018601990305,0.003377429127402138
1690839497365224400,3.657224365234375,0.16747779635488985,-0.0020847795179579406,-0.00806819217596203
1690839497375264500,3.667264404296875,0.16912205643057823,-0.00033633069872157645,-0.0010995952723547816
1690839497385304600,3.6773046875,0.18917174176871776,-0.00012162165225017815,-0.004561439863755367
1690839497395344400,3.687344482421875,0.1821376053482294,0.004319845093647018,-0.00639556908889208
1690839497405385500,3.697385498046875,0.1834837592601776,0.010149795639433431,-0.001888453228259459
1690839497415425500,3.707425537109375,0.18393384111523628,0.009894546803308184,-0.0017859038859489372
1690839497425496300,3.717496337890625,0.1872270374417305,0.008829219126736279,0.010481746990559622
1690839497435536400,3.727536376953125,0.18199089035391808,0.006003619762393646,0.010466675002302509
1690839497445576400,3.737576416015625,0.17346388502717017,-0.002327550181711558,0.007248719886085018
1690839497455617500,3.747617431640625,0.17870120115876198,-0.0021882261927006763,0.003328993725660257
1690839497465657600,3.75765771484375,0.17406243544220923,-0.007514519798976834,-0.0003068671422195621
1690839497475697400,3.767697509765625,0.17106909884512422,-0.0056101474823779425,-0.004378970852761995
1690839497485738500,3.777738525390625,0.1935135703653097,-0.0025347609083168207,0.0035933163508074357
1690839497495778300,3.7877783203125,0.18707798435986042,-0.00024064035546034573,0.002276000374276191
1690839497505818400,3.797818359375,0.19261399117708206,0.0071368935420643535,-0.005058007192064542
1690839497515858400,3.8078583984375,0.18692834675610065,0.00921460856499616,-0.0013064269730472006
1690839497525899500,3.8178994140625,0.1852835021585226,0.015803736597765235,-0.004344529727043118
1690839497535939300,3.827939208984375,0.18109540281891823,0.0040731951225083315,0.008968597914674319
1690839497545979400,3.8379794921875,0.1840893239378929,0.002033980912482366,0.012280154165055136
1690839497556020500,3.8480205078125,0.17750643841624258,-0.0024777129418565892,0.010890590369643178
1690839497566060500,3.858060546875,0.17586042477488517,-0.008684024802653584,0.01013668271282222
1690839497576100400,3.868100341796875,0.17107143693268298,0.004469443881500047,0.004305681854265276
1690839497586177000,3.878177001953125,0.17346505407094953,0.004491119140479714,-0.0058961065505980514
1690839497596217000,3.888217041015625,0.18483692743480204,0.006513249784964137,-0.005855884138063993
1690839497606257200,3.898257080078125,0.18319091379344463,0.005357261849986389,-0.00112656319438247
1690839497616298200,3.90829833984375,0.18348960447907448,0.003146205054258462,-0.002682375518348999
1690839497626338300,3.91833837890625,0.18423896154165267,0.0026068077977979554,-0.006905023298237938
1690839497636378400,3.92837841796875,0.1852875938117504,0.005210476073727477,0.005990057027922012
1690839497646419200,3.938419189453125,0.18528817833364009,0.0014770046168472617,0.011083676672773435
1690839497656459000,3.948458984375,0.17765724506378172,-0.005571402357588522,0.012367702301056124
1690839497666499000,3.9584990234375,0.176011815944314,-0.004993232576875016,0.007049525785865262
1690839497676539100,3.9685390625,0.17406652709543705,-0.0024712010026792996,-0.001499737038463354
1690839497686580200,3.978580322265625,0.18768296451568603,0.0044391606243792915,0.000980288874777034
1690839497696620300,3.988620361328125,0.17511223675608634,0.002181090915726963,0.006105404203012585
1690839497706660400,3.998660400390625,0.1740641890078783,0.00633865355317248,-0.005265044388733804
1690839497716701200,4.008701171875,0.1909732382327318,0.010446598045364953,-0.005432016719784587
1690839497726741000,4.018740966796875,0.18394085537791252,0.008646663350774906,0.0010738123771268874
1690839497736781000,4.028781005859375,0.1800502776801586,-0.0031042930081370285,-0.0017084889848949386
1690839497746852000,4.03885205078125,0.17526245888173578,0.008015279245213605,-0.0019581437638727947
1690839497756892200,4.04889208984375,0.18618658847808836,-0.00000937974969856441,0.0035587062617298214
1690839497766933200,4.058933349609375,0.1908253541946411,-0.0012358779209083878,0.006107895270909648
1690839497776973300,4.068973388671875,0.1848392655223608,0.003907117840601131,0.0022648898917948827
1690839497787013400,4.079013427734375,0.17616028450429438,0.0010367820020997897,0.0001121734038926661
1690839497797053200,4.08905322265625,0.17945231178700924,0.006838141207641456,0.006158305717317853
1690839497807094000,4.099093994140625,0.18558686901926993,0.010570731315109877,0.004646204670914448
1690839497817134000,4.109134033203125,0.17945114274322985,0.004866756652994081,0.004658029822737444
1690839497827174100,4.119174072265625,0.183192082837224,0.00636119646183215,0.002422231311397627
1690839497837215200,4.12921533203125,0.18813012376129626,0.006244748741621151,0.004807779307640157
1690839497847255300,4.13925537109375,0.18035013740956782,0.006599277250736486,0.007024857135489583
1690839497857295400,4.14929541015625,0.18020108432769774,0.0058796234899666155,0.002592975635267794
1690839497867335200,4.159335205078125,0.1812491320759058,-0.0003944586607045494,0.005869583869853522
1690839497877376000,4.1693759765625,0.17197160064280032,-0.004355825155903585,0.009848408389929682
1690839497887416000,4.179416015625,0.18439152175486087,0.0009566385711310431,0.009472437517275101
1690839497897487000,4.189487060546875,0.18409224654734133,-0.00805135748888133,0.009444423849054147
1690839497907527200,4.199527099609375,0.18319442092478275,-0.0009350843264488502,0.0049032664382131766
1690839497917567200,4.209567138671875,0.1885813746601343,0.003658221113448962,0.007693659775145352
1690839497927608300,4.2196083984375,0.18484043456614016,0.0034255380188697015,-0.00008552970885066314
1690839497937648400,4.2296484375,0.18184768249094485,0.0024506788044585844,-0.004849563489598222
1690839497947688200,4.239688232421875,0.168978848567605,-0.004330218073900323,0.008767485852004028
1690839497957728300,4.249728271484375,0.17541326552927494,0.008874957964604255,0.0056524705204530614
1690839497967769000,4.25976904296875,0.17795768931508063,0.004188852824852801,0.00130746130279731
1690839497977809200,4.26980908203125,0.17795827383697033,0.008849686526029837,0.00817279191146372
1690839497987849200,4.27984912109375,0.17915595918893812,0.005169025251909624,0.010443282710271886
1690839497997890300,4.289890380859375,0.18349544969797132,0.006122976392321288,-0.00421800585410092
1690839498007930400,4.299930419921875,0.17736030794382093,-0.0023109689396689647,0.004266911613300908
1690839498017970200,4.30997021484375,0.1713748037934303,0.00498786228201352,0.005756003960163797
1690839498028010200,4.32001025390625,0.18244798647165297,0.007388521082419902,0.009698062966694123
1690839498038051000,4.330051025390625,0.18753508047759532,0.0012533542120945638,0.0062429129775613545
1690839498048091100,4.340091064453125,0.17182313208281993,-0.005665574313909747,-0.0025515042638522573
1690839498058162200,4.350162109375,0.17840718664824962,0.007399955791886895,0.005074851012299768
1690839498068202200,4.3602021484375,0.18334522757232188,0.00777093082901556,0.005474533837393392
1690839498078242300,4.3702421875,0.17855740877389906,-0.00478834623809671,0.009568790014239494
1690839498088283400,4.380283447265625,0.17780922075510025,-0.0014591903989436103,0.0013726765926927328
1690839498098323200,4.3903232421875,0.18080138830840586,0.005492288689792621,-0.007494739669561386
1690839498108363300,4.40036328125,0.19217384619414804,0.003401022348832339,-0.004225202779867686
1690839498118403000,4.410403076171875,0.2937351090490818,-0.0018873686661594546,-0.02531635542837903
1690839498128444200,4.420444091796875,0.2713298004955053,-0.1265817680087406,-0.2431141068964265
1690839498138484200,4.430484130859375,-0.07101940959692,0.23665742330402134,0.3628955198410898
1690839498148524300,4.440524169921875,0.28886896431744097,-0.06667055760449729,0.056470335535635234
1690839498158565400,4.4505654296875,0.11649462809264659,-0.007907455506164115,0.060705045929364855
1690839498168605200,4.460605224609375,0.16557751569151877,-0.028479881510196717,-0.0290728241683566
1690839498178645200,4.470645263671875,0.22393150498270986,-0.02564587964368984,-0.09689364550323225
1690839498188685000,4.48068505859375,0.2010293528228998,0.006095172786654438,-0.09608395482185296
1690839498198726100,4.49072607421875,0.24037469026148317,0.036231128107919355,-0.051977134035923515
1690839498208766200,4.50076611328125,0.16375731452703474,0.029312699622125363,0.029002172368229367
1690839498218837200,4.510837158203125,0.17033727743923663,0.03771792803299613,0.10486110811792314
1690839498228877300,4.520877197265625,0.15029343731999398,0.035242080537951546,0.12177930876361205
1690839498238917000,4.530917236328125,0.17005436884462832,0.01887710017809877,0.07178369023399427
1690839498248958200,4.540958251953125,0.17874094864726064,0.004179237896425184,0.010954664015222805
1690839498258998300,4.550998291015625,0.19385843828022478,-0.005682605363812763,-0.04531815563733689
1690839498269038000,4.5610380859375,0.22363515238463877,-0.010503129988594446,-0.06173668139888905
1690839498279079200,4.5710791015625,0.15674246732890604,-0.008046710996516049,-0.03864093376258388
1690839498289119200,4.581119140625,0.20312311023175716,-0.009237199422717094,0.011118430609034839
1690839498299159300,4.5911591796875,0.15343699604272842,-0.0021987955357762982,0.05194569771804381
1690839498309199000,4.60119921875,0.1680991431236267,0.0006156933460850268,0.06996169897122308
1690839498319240200,4.611240234375,0.16525778221786022,0.00661025301918853,0.05924912063316442
1690839498329280300,4.6212802734375,0.17483634242415427,0.012783824804297182,0.023163013319391756
1690839498339320000,4.631320068359375,0.19922960992455482,0.023696748020045923,-0.009548429929511621
1690839498349361200,4.641361083984375,0.18501520661115645,0.02274916268833913,-0.024812333162687716
1690839498359401200,4.651401123046875,0.20551438928246496,0.02373024158098269,-0.023102396572800353
1690839498369441300,4.661441162109375,0.18875380861759183,0.017743440522649326,-0.010635638361040036
1690839498379512000,4.671511962890625,0.1811217063039541,0.009383304778963793,0.017070783691783435
1690839498389552000,4.68155224609375,0.16017244177758694,0.0029437116019660607,0.03817577078611357
1690839498399592200,4.69159228515625,0.18860592457950115,0.0015745695400750264,0.04772607072901446
1690839498409633300,4.70163330078125,0.1549398018211126,-0.008165789065230637,0.02650140506105963
1690839498419673000,4.711673095703125,0.1793319002777338,-0.0007786607888760045,0.000866423554008361
1690839498429713200,4.721713134765625,0.18486732257306573,-0.005342888548050541,-0.012927117148949764
1690839498439754200,4.731754150390625,0.18172259480655192,-0.005373907024110667,-0.01862023477362236
1690839498449794300,4.741794189453125,0.19683307017683982,0.0037705269480822604,-0.008647261572396382
1690839498459834000,4.751834228515625,0.17707856839299202,0.0031261235307436437,0.01109813217310002
1690839498469874200,4.761874267578125,0.1815659429401159,0.012584630704077426,0.014169127983122597
1690839498479915300,4.771915283203125,0.1742342848777771,0.01564533116566017,0.025726004808349533
1690839498489955000,4.781955078125,0.17214052746891975,0.02452858888444025,0.031130256738374006
1690839498499995100,4.7919951171875,0.17887655772566793,0.01921910028249258,0.017453487982612568
1690839498510036200,4.8020361328125,0.16915245156884193,0.01418835327340057,0.007844886547792702
1690839498520076300,4.812076171875,0.18681027333438396,0.01104879258906003,-0.010148580929881426
1690839498530116000,4.8221162109375,0.19518997914493083,0.007296383536269422,-0.009032319933804683
1690839498540187100,4.832187255859375,0.17379063276350498,0.00308343516648747,-0.0001977510618045926
1690839498550227200,4.842227294921875,0.16555998003482816,0.00010795616979012266,0.00889057794213295
1690839498560267300,4.852267333984375,0.17378887919783592,0.00007923011551611126,0.028258436762262133
1690839498570308000,4.86230810546875,0.17289105357527731,0.001409177244757302,0.02130481366550084
1690839498580347400,4.872347412109375,0.18531097468733787,0.0026331889146473256,0.012380226139200385
1690839498590387500,4.882387451171875,0.18396365173161028,0.004406324650568422,0.012650647428282535
1690839498600428300,4.89242822265625,0.18890110813379288,0.011995042196917346,0.003659990662138443
1690839498610468400,4.90246826171875,0.19204291329085826,0.013496822778705972,0.004474971723277122
1690839498620508400,4.91250830078125,0.1731885752171278,0.021925489147379993,0.0013736858062678948
1690839498630548200,4.92254833984375,0.1844119800209999,0.01485881129731424,0.01606498819970293
1690839498640589300,4.93258935546875,0.1830658261090517,0.010663531014963519,0.017242774691246448
1690839498650629400,4.94262939453125,0.1811217063039541,0.017719580156449227,0.018123439116450025
1690839498660669400,4.95266943359375,0.17902911793887613,0.008306649707490578,0.017050471556116827
1690839498670710300,4.962710205078125,0.17065058117210863,-0.006343195014260709,0.006499641384719871
1690839498680750300,4.972750244140625,0.18187340145409106,-0.002739514816354494,0.0022648853252176192
1690839498690790400,4.982790283203125,0.18336860844790934,0.00323769414643757,0.005224776310427114
1690839498700861400,4.992861328125,0.18665888216495513,-0.0008136910030618309,0.005698620350274723
1690839498710901200,5.0029013671875,0.18635785339176653,0.0029199722500634377,0.006338112413766793
1690839498720942300,5.0129423828125,0.1752840861916542,0.009937497745756991,0.02281650371995056
1690839498730982400,5.022982421875,0.17498422646224499,0.01463049841717584,0.023573961890593634
1690839498741022500,5.0330224609375,0.1814186434239149,0.009138301058928482,0.02594767331857001
1690839498751062300,5.043062255859375,0.18111995273828504,0.009337981499626766,0.013263886239088606
1690839498761103400,5.053103271484375,0.1821680004864931,0.013817522083455696,0.013462895392929204
1690839498771143400,5.063143310546875,0.1886030019700527,0.007545081617310643,0.01340468066597823
1690839498781183200,5.073183349609375,0.17543489283919333,0.006991822515567764,0.009536762324604205
1690839498791224300,5.083224365234375,0.17872750464379786,0.008060794320795685,-0.00018214935058495028
1690839498801264400,5.093264404296875,0.18501169947981833,0.0018362138676573522,0.011984182876185513
1690839498811304400,5.103304443359375,0.16585808619856834,0.0024786582233500666,0.015093652099650353
1690839498821344300,5.11334423828125,0.1730401066571474,0.0016000921403989195,0.008503053629002534
1690839498831385300,5.12338525390625,0.18216741596460342,0.004702268539974466,0.01199544862229377
1690839498841425400,5.13342529296875,0.16854980950057505,0.004173885867872741,0.004369061380100902
1690839498851465500,5.143465576171875,0.18186697171330451,0.010721958087757229,0.0033383049766998736
1690839498861536300,5.153536376953125,0.18605624009668825,0.01428063466673484,0.010686471215845084
1690839498871576300,5.163576416015625,0.18710370332300663,0.012091794269392267,0.004967513613728806
1690839498881617400,5.173617431640625,0.17812603161931037,0.006066907956684008,0.009286326660914347
1690839498891657500,5.183657470703125,0.17303893761336803,0.008690705705189612,0.01778434792177286
1690839498901697300,5.193697265625,0.17064473595321178,0.014657763166725634,0.015633202336449176
1690839498911737300,5.2037373046875,0.17214169651269912,0.009382014720886945,0.006862579245865344
1690839498921778400,5.2137783203125,0.18321487919092178,0.014013056071999016,0.009197449650929775
1690839498931818200,5.223818359375,0.17363807255029678,0.009192565696546808,0.005018693528405856
1690839498941858300,5.2338583984375,0.17079437355697155,0.0049258276131819,0.00663715015926864
1690839498951899400,5.2438994140625,0.16989654793441294,0.014894741127220912,0.00830425225442741
1690839498961939500,5.253939453125,0.17588205208480356,0.014787412861804477,0.008628196112322621
1690839498971979300,5.263979248046875,0.1814186434239149,0.010829147072567139,0.009821778394619469
1690839498982019300,5.274019287109375,0.18740356305241584,0.013707540636649354,0.016582383686909452
1690839498992060400,5.284060302734375,0.18156769650578497,0.005275814661209005,0.014655589475948362
1690839499002100500,5.2941005859375,0.178124862575531,0.008304973773634991,0.011678299831366167
1690839499012140300,5.304140380859375,0.17782500284612177,0.014243060869013424,0.01053348631095141
1690839499022211300,5.31421142578125,0.1815665274620056,0.013815665769798214,0.01204418541813502
1690839499032251400,5.32425146484375,0.18276362829208373,0.009890331852494274,0.004162716019887012
1690839499042292500,5.33429248046875,0.1785737753868103,0.010982093161554076,0.010727319249464198
1690839499052332300,5.344332275390625,0.1580740081936121,0.0070807999902521256,0.01730870465048356
1690839499062372400,5.354372314453125,0.17737784360051154,0.0051970845859032125,0.005474958529078867
1690839499072412200,5.364412109375,0.1775268966823816,-0.004028620761842467,0.009752613015391398
1690839499082453200,5.374453369140625,0.17782617188990116,-0.0039052683768095444,0.0079376108991215
1690839499092493300,5.384493408203125,0.1689969687461853,0.0020873459343798456,0.012668916020623873
1690839499102533400,5.394533447265625,0.18785072229802607,0.0010987892714678308,0.010484443554433528
1690839499112574500,5.404574462890625,0.1947340520709753,0.010496003844775259,0.006685610677185468
1690839499122614300,5.4146142578125,0.18276304377019403,0.008720888497610576,0.013849364826711825
1690839499132654300,5.424654296875,0.18575579584538934,0.011847094226744957,0.013742564000969286
1690839499142694100,5.434694091796875,0.18171558054387568,0.007892965756508056,0.010447625525249167
1690839499152735500,5.444735595703125,0.17647884893417357,0.009399867754697333,0.014423557118629105
1690839499162775300,5.454775390625,0.18246493760645388,0.005036710958997719,0.008634255960350857
1690839499172815400,5.4648154296875,0.19428689282536504,0.005768938790261745,0.005799929866858292
1690839499182886400,5.474886474609375,0.17992168286442756,0.0049558231759350745,0.0108614259239519
1690839499192926500,5.484926513671875,0.18470950166285036,0.0008696018917835317,0.019681046105280982
1690839499202967300,5.49496728515625,0.17348609685897826,0.0015747681861859745,0.011099687092658132
1690839499213007400,5.50500732421875,0.1815665274620056,0.00815145914577879,0.012638020842149853
1690839499223047200,5.515047119140625,0.19308803842961786,0.004279549615876749,0.015205788970924913
1690839499233088300,5.525088134765625,0.18276245924830437,0.01021445837348001,0.006310770032403525
1690839499243128300,5.53512841796875,0.18635317721664904,0.016679402904154265,0.004301651849830523
1690839499253168400,5.54516845703125,0.1845563569277525,0.00870395791240735,0.011288960303773637
1690839499263208400,5.55520849609375,0.18291092780828475,0.00560617684344761,0.0084195354974363
1690839499273249300,5.565249267578125,0.17797347140610217,0.009981487584533169,0.015535230987844987
1690839499283289300,5.575289306640625,0.17872224394679068,0.01052252880880842,0.01253166069111321
1690839499293329200,5.5853291015625,0.19129238718450067,0.0062539092956110836,0.006657884703332092
1690839499303370200,5.595370361328125,0.17827391565740108,0.006695844376832246,0.007244208107749
1690839499313410300,5.605410400390625,0.17632804228663443,0.0036126306893420404,0.0022290011610835788
1690839499323450400,5.615450439453125,0.17722528338730334,0.006337982266314793,0.007744698125927243
1690839499333490400,5.625490478515625,0.1854535980284214,0.013846341752563602,0.01297179197431542
1690839499343561500,5.6355615234375,0.17572598474025725,0.010955954073299653,0.015188700838806107
1690839499353601500,5.6456015625,0.1864993076890707,0.008798737223504577,0.013324943660385906
1690839499363642400,5.655642333984375,0.18485329404771328,0.009728490070998668,0.01927001990226563
1690839499373682200,5.66568212890625,0.18216098622381685,0.01103301963119302,0.012296481962059624
1690839499383722200,5.67572216796875,0.18470599453151226,0.006246180363593157,0.0022506353208678774
1690839499393763300,5.685763427734375,0.1818628800600767,0.0030605383480899035,0.006078326683130581
1690839499403803400,5.695803466796875,0.18261106807887553,0.008006116407935042,0.008166980941896326
1690839499413843500,5.705843505859375,0.1740823091864586,0.0077759243812528436,0.0039629807802615685
1690839499423883500,5.715883544921875,0.1727355707526207,-0.001488580890209414,0.0065249173898715524
1690839499433924400,5.72592431640625,0.184855632135272,0.004783722578617744,0.00544794950785581
1690839499443964200,5.735964111328125,0.17572715378403664,0.003953363568545319,0.005219648044160567
1690839499454004200,5.746004150390625,0.17378186493515968,0.008282364649605006,0.013946434276306536
1690839499464045300,5.75604541015625,0.18290975876450538,0.010960413335997145,0.010453251548437402
1690839499474085400,5.76608544921875,0.1872492492735386,0.011282185786403715,0.010924104480177629
1690839499484125400,5.77612548828125,0.1818628800600767,0.010322489891794975,0.020001064990018493
1690839499494196500,5.786196533203125,0.17946867839992045,0.019824607877992093,0.014700531446083914
1690839499504236500,5.796236572265625,0.17722469886541364,0.009752590182505082,0.005404786219564266
1690839499514277400,5.80627734375,0.18096622348129748,0.006998594749649055,0.010102960823022294
1690839499524317200,5.816317138671875,0.18231296191513538,0.0020284005550667643,0.010446719059662428
1690839499534357200,5.826357177734375,0.1740823091864586,0.002489435345691163,0.005936577841592953
1690839499544397300,5.836397216796875,0.18156360485255718,0.0027236756431171668,0.003968120462971274
1690839499554438400,5.8464384765625,0.18261106807887553,0.003321952063520439,0.013846003825846127
1690839499564478500,5.856478515625,0.1736316428095102,0.005985346603475045,0.012850846175500192
1690839499574518500,5.8665185546875,0.16884207044541835,0.008209372478630394,0.007366338933364022
1690839499584534000,5.876533935546875,0.17752105146348476,0.0069768167426809665,0.013199782910756765
1690839499594574800,5.886574951171875,0.17886778989732263,0.008010242310492322,0.007236412960360757
1690839499604614700,5.89661474609375,0.17407938657701014,0.009784275378845632,0.015566658172570169
1690839499614654700,5.90665478515625,0.18096330087184906,0.0033789840469602493,0.007516748288681265
1690839499624695800,5.91669580078125,0.18141221368312835,0.0023833788720425218,0.006450523279677145
1690839499634735900,5.92673583984375,0.17752105146348476,0.008864482236362527,0.0071352952400222415
1690839499644776000,5.93677587890625,0.1776706890672445,0.00881474536010064,0.004316598257212899
1690839499654847000,5.946846923828125,0.17153554731309412,0.008073393507464789,0.010413789471017662
1690839499664886800,5.95688671875,0.17796996427476405,0.015353177535382564,0.005958664092526305
1690839499674927600,5.966927734375,0.19053952299058435,0.005566296924208291,0.00546987364529632
1690839499684967700,5.9769677734375,0.1739297489732504,-0.0004884707868215627,0.005001525481184944
1690839499695007700,5.9870078125,0.1725830105394125,0.0039038367548375388,0.015283872875547966
1690839499705047800,5.9970478515625,0.1752759028851986,0.004445341486705001,0.011284080915967934
1690839499715089000,6.0070888671875,0.1803641659349203,0.010165239803737494,0.004397780584509019
1690839499725129000,6.01712890625,0.18051380353868007,0.005765002400660887,0.006718462634016759
1690839499735168800,6.027168701171875,0.17363047376573085,0.0026675227258005176,0.009463646856043487
1690839499745209600,6.037209716796875,0.1812619915574789,0.0023511479697190226,0.003131703888159245
1690839499755249700,6.047249755859375,0.18186054197251797,0.008098986889736261,0.013877917351049835
1690839499765289700,6.057289794921875,0.17198446012437343,0.011981700941442977,0.015587271702336147
1690839499775329800,6.067329833984375,0.1782686549603939,0.001780522174644284,0.01613153921344783
1690839499785371000,6.077370849609375,0.17931553366482256,0.0035117116151144726,0.014856094183842651
1690839499795411000,6.087410888671875,0.17707096960842608,0.004712716868752614,0.0017611005215439944
1690839499805451000,6.097450927734375,0.17632336611151694,0.005616581789741758,0.004419069967709947
1690839499815521800,6.107521728515625,0.1812614070355892,0.006246819684410002,0.01186811874846462
1690839499825561900,6.117561767578125,0.19263444944322108,0.0049871772954240435,0.012629568107635714
1690839499835602700,6.127602783203125,0.182908589720726,0.009719418565265368,0.008624280272319446
1690839499845642800,6.137642822265625,0.17677286344468593,0.007141788912890479,0.008670450651738793
1690839499855682800,6.147682861328125,0.18545125994086264,-0.004609610404015984,0.013401858521229586
1690839499865723000,6.157722900390625,0.17422785513699054,0.006748592910799198,0.013453926635184325
1690839499875764000,6.167763916015625,0.1695890894204378,0.008987649675016291,0.005591650561173446
1690839499885803800,6.1778037109375,0.17153379374742506,-0.0016802264382131398,0.01420640951989917
1690839499895843800,6.18784375,0.17632278158962725,0.009093628516851459,0.004810594602522905
1690839499905884700,6.197884765625,0.17856734564602375,0.00937123759854585,0.012923297207069117
1690839499915924700,6.2079248046875,0.1743774927407503,0.0034242685103905387,0.016330128242180216
1690839499925964800,6.21796484375,0.17901625845730304,0.005139493196748663,0.014305152620060834
1690839499936004900,6.2280048828125,0.17991349955797195,0.003260773627925664,0.009545952561346348
1690839499946046000,6.2380458984375,0.17961363982856274,0.0026471078421454876,0.006312498481897637
1690839499956086000,6.2480859375,0.17721943816840646,0.0004135583701077848,0.010512276842852587
1690839499966125800,6.258125732421875,0.17512451171576976,0.008216633336478844,0.00564290810766397
1690839499976196900,6.26819677734375,0.17647066562771796,0.009632578248740174,0.006681176530662924
1690839499986237000,6.27823681640625,0.18110943134427068,0.009896355167904403,0.0009348422978539019
1690839499996277800,6.28827783203125,0.17691899391710758,0.005718941619095858,0.006413709817070048
1690839500006317800,6.29831787109375,0.1650976232200861,0.005133415082411374,0.01174965716768056
1690839500016358000,6.30835791015625,0.17033493935167787,0.00887156043112045,0.00629417280734051
1690839500026397700,6.318397705078125,0.18095920921862124,0.006209433116356376,0.004833112395007629
1690839500036438800,6.328438720703125,0.18110884682238101,0.008966748450882732,0.0070321088601835065
1690839500046478800,6.338478759765625,0.18380290821194648,0.013576219574292189,0.007325326502963435
1690839500056519000,6.348518798828125,0.1775181288540363,0.00938823211583076,0.010199642113549635
1690839500066559700,6.358559814453125,0.18245675429999827,0.0037730157326906918,0.009664341076894198
1690839500076599800,6.368599853515625,0.18140929107367992,0.0031910648260032757,0.010722770938510075
1690839500086639900,6.378639892578125,0.18470073383450508,0.005376192596030887,0.013495231326529756
1690839500096680000,6.388679931640625,0.18170798175930974,0.0060601083231391385,0.0070639013710897414
1690839500106721000,6.398720947265625,0.1758721152126789,0.00450399460507324,0.007421140143810771
1690839500116760800,6.4087607421875,0.17617080589830875,0.0076154297400498755,0.012537273014569654
1690839500126801000,6.41880078125,0.18095862469673155,0.006165792620740831,0.00490802937829867
1690839500136872000,6.428871826171875,0.18170681271553038,0.007215890762140043,0.005130955980555154
1690839500146911700,6.438911865234375,0.17931261105537413,0.002816817836265545,0.00899302681974368
1690839500156952800,6.448952880859375,0.17407529492378235,0.012520230548223479,0.006927853901265189
1690839500166993000,6.458992919921875,0.1721300060749054,0.003576723692321684,0.008553053083457052
1690839500177032700,6.46903271484375,0.17796645714342593,-0.0015274493125849403,0.005287345268798526
1690839500187073800,6.47907373046875,0.1767693563133478,0.002710966858593747,0.002603022105246782
1690839500197113900,6.48911376953125,0.17437573917508123,-0.002134441045694984,0.0020651729184784926
1690839500207154000,6.49915380859375,0.1858978346645832,0.0012174083991674705,-0.00044641261022770776
1690839500217193700,6.50919384765625,0.18694529789090156,-0.0029704877277486955,0.009380389019381255
1690839500227234800,6.51923486328125,0.17796704166531563,0.005833834419748746,0.006036688631644938
1690839500237275000,6.52927490234375,0.1849994245201349,0.0014296674769371748,0.011327171139023266
1690839500247315000,6.53931494140625,0.17691957843899725,0.008275222522765397,0.00777093082901556
1690839500257356000,6.54935595703125,0.17362755115628242,0.003845080888480879,0.008813845744379796
1690839500267395800,6.559395751953125,0.17946341770291327,0.0008051789030432701,0.011139904938614926
1690839500277436000,6.569435791015625,0.18993863448798656,0.001582933226332534,0.010687329732370562
1690839500287475700,6.579475830078125,0.17542437144517897,0.009986339572875294,0.008404655305424238
1690839500297546800,6.589546630859375,0.17542495596706867,0.011165489187731872,0.00935873202671064
1690839500307586800,6.5995869140625,0.1787169832497835,0.003362578618142288,0.006661686378903686
1690839500317628000,6.6096279296875,0.1857499506264925,0.003960348148469347,0.0026268482221174054
1690839500327667700,6.619667724609375,0.17288111670315265,0.003702256617997773,0.009058851747703737
1690839500337707800,6.629707763671875,0.16869126379787922,0.001991815421322826,0.0007558827014872804
1690839500347748900,6.639748779296875,0.17886603633165357,0.010456824895145836,0.009975343254825565
1690839500357789000,6.649788818359375,0.1827560295075178,0.003966209350386634,0.008486887945490889
1690839500367828700,6.659828857421875,0.17991291503608225,0.0032288715191651136,0.012722415756550616
1690839500377868800,6.669868896484375,0.17422668609321115,0.011226674473192541,0.009063470840605442
1690839500387910000,6.679909912109375,0.18230653217434883,0.015028432243177667,0.009136684490577317
1690839500397949700,6.68994970703125,0.18485095596015452,0.002111176617827732,0.010781408073857891
1690839500407989800,6.69998974609375,0.17302958526313303,0.00768188257238362,0.00810982566087041
1690839500418030800,6.71003076171875,0.18170798175930974,0.006373549053329043,0.001031562404287979
1690839500428070700,6.720070556640625,0.18829203632473945,0.0029596421067486513,-0.0007443749267840757
1690839500438110700,6.73011083984375,0.17976210838854312,0.009195572787674609,0.004625465560273732
1690839500448150800,6.74015087890625,0.17706863152086733,0.009644339468481485,0.018240893766947555
1690839500458221800,6.750221923828125,0.1764689120620489,0.0036577918551862236,0.021330363665288312
1690839500468263000,6.760262939453125,0.17063304551541805,0.008410199130221735,0.017142778065626044
1690839500478302700,6.770302734375,0.18065876496732233,0.004032618800236378,0.007223124220524914
1690839500488342800,6.7803427734375,0.17961071721911429,0.00048521253394428636,0.005426911286404356
1690839500498382800,6.7903828125,0.18185586579740046,0.005672045153891667,0.007605077309394255
1690839500508423700,6.800423583984375,0.18170681271553038,0.007362729054037481,0.01680058388169855
1690839500518463700,6.810463623046875,0.18544775280952452,0.013901419240934774,0.01569981499898713
1690839500528503800,6.82050390625,0.17916355797350406,-0.0011118884983472525,0.007819953035935759
1690839500538543600,6.830543701171875,0.18230536313056944,0.0028465531041147185,0.009453924613050184
1690839500548584700,6.840584716796875,0.1733271069049835,0.006387495380290783,0.008619243337598163
1690839500558624800,6.850624755859375,0.17901275132596492,0.011588975296809804,0.007218964068638161
1690839500568664800,6.860664794921875,0.17811434118151664,0.003739195661479607,0.0023429075810476206
1690839500578705700,6.87070556640625,0.1800596300303936,0.01116820401791483,0.004261721698241308
1690839500588756200,6.880756103515625,0.17931085748970507,0.010812520164751913,0.008849771007709204
1690839500598796300,6.89079638671875,0.17631810541450976,0.010673947377700823,0.010432729350216685
1690839500608836400,6.90083642578125,0.17212825250923633,0.011089992249128409,0.00872485000338638
1690839500618907400,6.910907470703125,0.1752706421881914,0.013195976668607909,0.012981078109180089
1690839500628948500,6.920948486328125,0.18305179758369922,0.004444722715485841,0.009856404466717504
1690839500638988500,6.930988525390625,0.1921802759349346,0.010259461992408615,0.010559052293759304
1690839500649028600,6.941028564453125,0.18634382486641407,0.0031235730973421592,0.007167382295161951
1690839500659068400,6.951068359375,0.1703331857860088,0.0027425904061412435,0.004094194528053049
1690839500669109200,6.961109130859375,0.17586977712512014,0.007780038867366965,0.0034932352435076606
1690839500679149300,6.9711494140625,0.18035890523791312,0.005619999872823246,0.0007422103691613301
1690839500689189400,6.981189453125,0.1839502077281475,0.012038162102724891,0.005976361862709745
1690839500699230500,6.99123046875,0.16943477564156054,0.009706027077441103,0.0052692684727022425
1690839500709270500,7.0012705078125,0.17826280974149702,0.0019372311232960782,0.0054465841012541205
1690839500719310600,7.011310546875,0.17287644052803516,0.005579028541618026,0.008009555040614213
1690839500729350400,7.021350341796875,0.1730260781317949,0.008704825562087353,0.014800041731225792
1690839500739391200,7.03139111328125,0.17736556864082811,0.00683138952315785,0.014352450944064184
1690839500749431300,7.041431396484375,0.17556991739571093,0.007306149161746725,0.01901239187938627
1690839500759471400,7.051471435546875,0.1805085428416729,0.008818759381514973,0.009550302226189524
1690839500769512400,7.061512451171875,0.17706746247708796,0.012983888837485573,0.009687797301006502
1690839500779582500,7.07158251953125,0.18185586579740046,0.006227464246680028,0.0067081330362474545
1690839500789623600,7.08162353515625,0.17586977712512014,-0.0033010942218708803,0.0005172402235795743
1690839500799663600,7.09166357421875,0.1748223138988018,0.003970981423626654,0.0063425214441143905
1690839500809703400,7.101703369140625,0.17691724035143852,0.006357310304581187,0.006463286863127723
1690839500819743500,7.111743408203125,0.18125673086047173,0.0015789511709590441,0.009065133074729238
1690839500829784300,7.121784423828125,0.1866431000739336,0.005916818261775187,0.005641702531266492
1690839500839824400,7.131824462890625,0.18828852919340133,0.009364858090109191,0.005181930399255361
1690839500849864400,7.141864501953125,0.17422259443998336,0.008158578439732082,0.011306434311671183
1690839500859905500,7.151905517578125,0.1749707824587822,0.005426968368620146,0.01612869423581287
1690839500869945600,7.161945556640625,0.1736234595030546,0.0026035792276728896,0.011942581357317976
1690839500879985400,7.1719853515625,0.1784118628233671,0.010594703562452923,0.009865505655203013
1690839500890025500,7.182025390625,0.17721476199328898,0.008725012116879224,0.010184739088651258
1690839500900066300,7.19206640625,0.18095570208728312,0.0009323055641842074,0.010671956350014078
1690839500910106400,7.2021064453125,0.18275193785429,0.010721101854520384,-0.0006283998473198153
1690839500920146400,7.212146484375,0.18858780440092085,0.008502521622751374,0.0037720430517336353
1690839500930187500,7.2221875,0.1832008506655693,0.014408035322511567,0.005068950994475744
1690839500940257500,7.232257568359375,0.17871172255277631,0.014378777261986397,0.00620821612351574
1690839500950298600,7.242298583984375,0.18514613951444625,0.00019148115122225135,0.004698202002921607
1690839500960338400,7.25233837890625,0.178712307074666,-0.0040936488220701,0.007109907353727612
1690839500970378500,7.26237841796875,0.17512042006254194,0.0039347182335797695,0.010342617081082426
1690839500980419300,7.27241943359375,0.18379881655871866,0.006632590431871358,0.009882237594295292
1690839500990459400,7.28245947265625,0.17796236549019812,0.005050228027696721,0.00738002268213313
1690839501000499500,7.29249951171875,0.17841127830147743,-0.0027550160628743467,0.012159621641482226
1690839501010539500,7.30253955078125,0.18095511756539343,0.01458206529872259,0.00921683705470059
1690839501020580600,7.31258056640625,0.1815536679804325,0.002931406959530432,0.0014389855778426863
1690839501030620400,7.322620361328125,0.18095453304350376,0.006882464406557846,0.007259149948554113
1690839501040660500,7.332660400390625,0.1824509090811014,0.0125420976034482,0.002108023396227509
1690839501050700500,7.342700439453125,0.17616671424508093,0.00645572004460264,-0.0005823207994457333
1690839501060741400,7.352741455078125,0.17481997581124303,0.005133330600732006,0.0071388571702875195
1690839501070781400,7.362781494140625,0.17407178779244423,0.004393593033158685,-0.0006015323899919167
1690839501080821500,7.372821533203125,0.1794581570059061,-0.0003910999431274831,0.008513164031063206
1690839501090862600,7.382862548828125,0.1790092441946268,0.002465775908890646,0.005513543823664076
1690839501100932400,7.392932373046875,0.17661504253447055,0.004861055281281005,0.0014783312075422144
1690839501110973400,7.402973388671875,0.18005670742094515,0.010973585628112778,0.006432546948280651
1690839501121013500,7.413013427734375,0.17841069377958774,0.002243029686436057,0.015925474697735625
1690839501131053600,7.423053466796875,0.18050503571033477,0.008209089350840077,0.010559648232092149
1690839501141094400,7.433094482421875,0.18454466648995876,0.006772786637139506,0.012541985722305252
1690839501151134500,7.443134521484375,0.1962158150613308,0.003908681893313769,0.008551523280073888
1690839501161174500,7.453174560546875,0.17332126168608664,0.00469630915664602,0.0026482723193475975
1690839501171214300,7.46321435546875,0.1770616172581911,0.010637729853426571,0.004651074925565627
1690839501181255400,7.47325537109375,0.17810908048450946,0.005544806611607782,0.004806560031510889
1690839501191295500,7.48329541015625,0.18633914869129656,0.00553705484670354,0.004901960397115908
1690839501201335600,7.49333544921875,0.18244857099354267,0.008789120011788326,0.0033999446365982292
1690839501211376400,7.50337646484375,0.17496727532744408,0.010566224103351124,-0.00160575697949389
1690839501221416400,7.51341650390625,0.1821504648298025,0.005419323918281588,0.0008886719184345565
1690839501231456500,7.52345654296875,0.17631401376128195,0.004763526890671346,0.00857953238171758
1690839501241496300,7.533496337890625,0.1775105300694704,0.001326113487628754,0.01483359465766698
1690839501251567400,7.5435673828125,0.17825813356637954,0.002494826190150343,0.004451545181917026
1690839501261607400,7.553607421875,0.17691139513254164,0.003331840986583847,-0.0012475112764863297
1690839501271648500,7.5636484375,0.17302081743478773,0.004559900927217677,0.003416137719573453
1690839501281688600,7.5736884765625,0.17122516618967054,0.010230320379603653,0.0026988425959600135
1690839501291728400,7.583728271484375,0.1822983488678932,0.0035843384599080308,0.0010343982487684114
1690839501301769500,7.59376953125,0.17496610628366469,0.006864179831196088,0.0025801252868492153
1690839501311809500,7.6038095703125,0.1793055967926979,0.0006130013487883843,-0.0014312954617314972
1690839501321849300,7.613849365234375,0.1770616172581911,0.0023373454899410714,0.007507284057303332
1690839501331889400,7.623889404296875,0.1836450873017311,0.002349401253915857,0.005728264286578633
1690839501341930500,7.633930419921875,0.18873218130767344,0.007775472290103789,0.008317582093458621
1690839501351970600,7.643970458984375,0.18888240343332288,0.009930449233751278,0.002306945785100106
1690839501362010400,7.65401025390625,0.1802034224152565,0.007872591972048393,0.007680743211356457
1690839501372051500,7.664051513671875,0.18244740194976328,0.000002849544212222099,0.0005960570638533681
1690839501382091500,7.674091552734375,0.1858884823143482,0.007533946018654387,0.011176017431612126
1690839501392131300,7.68413134765625,0.17825696452260018,0.005993096085090656,0.0067936170793254855
1690839501402171400,7.69417138671875,0.17825696452260018,0.014720350391406099,0.0016303183153038843
1690839501412242400,7.704242431640625,0.1815495763272047,0.005225002356001642,0.005899800911603961
1690839501422283500,7.714283447265625,0.17212240729033945,0.0017446699765510856,0.006891227668325882
1690839501432323300,7.7243232421875,0.18035247549712657,0.0024322366821812463,0.003521123330853879
1690839501442363400,7.73436328125,0.1828963147610426,0.0033190431538037955,0.008189905159757472
1690839501452403500,7.744403564453125,0.185588622584939,0.013078677281737327,0.010569767767307349
1690839501462444500,7.754444580078125,0.1743652177810669,0.0030787201754632404,0.002256985146552324
1690839501472484400,7.764484375,0.1709229683727026,0.010854146799794398,0.012051087799668311
1690839501482524400,7.7745244140625,0.1770575256049633,0.0035748742285300976,0.005984887662460096
1690839501492565500,7.7845654296875,0.1739151359260082,0.013410032694530673,-0.0035288910787785424
1690839501502605300,7.794605224609375,0.17675825039744375,0.007551783069444354,0.004184541975916363
1690839501512645400,7.804645263671875,0.18394085537791252,-0.0013804352074628695,0.0035745477182557803
1690839501522685400,7.814685546875,0.1804997750133276,0.0062318778436048885,0.005848031908459961
1690839501532726500,7.8247265625,0.1698766741901636,0.006938274830579757,0.006188209948525764
1690839501542766300,7.834766357421875,0.17705986369252205,0.007380232744687237,-0.0031457620962639338
1690839501552806400,7.844806396484375,0.1733189235985279,0.004977900293713901,0.005505776075739413
1690839501562846500,7.854846435546875,0.17631167567372322,0.008137531085126102,0.007637924699648283
1690839501572917500,7.86491748046875,0.17227146037220953,0.0071706062987097535,0.0060232286451617255
1690839501582928000,7.874927978515625,0.18035189097523688,0.008303779613680671,0.00970748838216532
1690839501592968000,7.884968017578125,0.17496493723988532,0.0019443618336925281,0.004754916609241627
1690839501603008000,7.895008056640625,0.17631167567372322,0.012791163293959107,0.005786716475547291
1690839501613048000,7.905048095703125,0.1794534808307886,0.013081460610579233,0.006575697729038074
1690839501623089200,7.915089111328125,0.17257015105783938,0.007709656495298259,0.004584053554362617
1690839501633129000,7.92512890625,0.1772095012962818,0.004295023462933022,0.009035169478016905
1690839501643169000,7.9351689453125,0.18125030111968515,0.0012683166024973615,0.007688045168400276
1690839501653209900,7.9452099609375,0.18573884471058844,0.011359867832227609,0.0019151677052490412
1690839501663250000,7.95525,0.17691022608876228,0.010720784477400594,0.009010806788317859
1690839501673290000,7.9652900390625,0.17122399714589118,0.003829960951162502,0.010167552775121293
1690839501683330000,7.975330078125,0.1785562397301197,0.0013296388852759263,0.007424046770238783
1690839501693371100,7.98537109375,0.1842424686729908,0.0036629680705140342,0.002356993188615888
1690839501703411000,7.995410888671875,0.18319442092478275,0.007751543425244744,0.0009011615072493441
1690839501713451000,8.005450927734374,0.18244564838409422,0.010489925730437971,0.0009695414351881481
1690839501723491800,8.015491943359375,0.1778062981456518,0.004592428657063283,0.0011258919075247831
1690839501733562000,8.02556201171875,0.18274433906972407,0.004223778007761575,0.006381426399108022
1690839501743603000,8.03560302734375,0.18498890312612057,0.005481413386040367,0.0030198044789023696
1690839501753643000,8.04564306640625,0.17765724506378172,0.011096323808503802,0.010779145334823988
1690839501763683000,8.05568310546875,0.16838029815256594,0.008913764738186728,0.003518956489942502
1690839501773723000,8.065722900390625,0.17840660212635992,0.013152797397295943,0.007656864578847307
1690839501783764000,8.075763916015624,0.17930384322702883,0.009240560423582792,0.006991374990995973
1690839501793804000,8.085803955078125,0.19187281742095946,0.013465210647601634,0.0019456952742533758
1690839501803844000,8.095843994140624,0.1794528963088989,0.0014859596748603508,0.0024741784110548903
1690839501813885000,8.105885009765625,0.17286884174346923,0.005080483885353896,0.009660381854407023
1690839501823925000,8.115925048828124,0.1821463731765747,0.004435936620831489,0.00499697717023082
1690839501833965000,8.125965087890625,0.18618658847808836,0.0030343672937946393,0.002025313548836857
1690839501844004900,8.1360048828125,0.17661036635935307,0.012145821444992906,0.01173559439299861
1690839501854046000,8.1460458984375,0.18065058166086673,0.010396281213790643,0.0031826257912209257
1690839501864086000,8.1560859375,0.17406652709543705,0.011393356826587113,-0.0030731580843566917
1690839501874126000,8.1661259765625,0.16927753925323485,0.0030035657301545142,0.006573517188394907
1690839501884167000,8.1761669921875,0.17361702976226806,0.007530434320739005,0.0043179431142169045
1690839501894237000,8.18623681640625,0.18229484173655508,0.013992367193708196,0.009789010919467546
1690839501904278000,8.196278076171875,0.18124737851023673,0.010629688110866118,0.012083544747566339
1690839501914318000,8.206318115234374,0.1784036795169115,0.005361652614024933,0.003168094942369498
1690839501924358000,8.21635791015625,0.17810440430939198,0.012158628410927484,-0.000998708164168056
1690839501934399000,8.22639892578125,0.1870826605349779,0.011861794038955122,0.001966400135564618
1690839501944439000,8.23643896484375,0.18079846569895744,0.009977000922372099,0.0036244033255265094
1690839501954479000,8.24647900390625,0.17436346421539783,0.008828280695108697,0.00607120967246592
1690839501964519000,8.256518798828125,0.18079788117706774,0.0033211940116947515,0.013403123463131487
1690839501974560000,8.26656005859375,0.17541151196360588,-0.0014100403278600423,0.008598917502199765
1690839501984600000,8.27660009765625,0.1727174505740404,0.0007333375095389783,0.005051065994624514
1690839501994640000,8.286639892578124,0.17376432927846908,-0.00032577277208911253,0.003621498982387129
1690839502004680000,8.296679931640625,0.1793003360956907,0.011934761093754786,0.0006952910710708238
1690839502014721000,8.306720947265624,0.17615677737295626,0.01343102068363223,0.005504689230350777
1690839502024761000,8.316760986328125,0.18498481147289275,0.003928297625947743,0.005217762047750875
1690839502034801000,8.32680078125,0.1887257515668869,0.009359035704098642,0.010607195434556342
1690839502044842000,8.336842041015625,0.17271452796459197,0.0052308087589917705,0.004741312775574625
1690839502054912000,8.346912109375,0.17451076373159885,0.004213738387648482,0.00048065965641289944
1690839502064953000,8.356953125,0.1715185961782932,0.007475521229149308,0.008167206987470853
1690839502074993000,8.366992919921875,0.1758586712092161,0.0008598020169767551,0.0077437026120838704
1690839502085033000,8.377032958984374,0.1833405513972044,0.0025502142057754096,0.0068583368955878535
1690839502095074000,8.387073974609375,0.17885083876252172,0.009348587375320494,0.0040264927368378264
1690839502105113900,8.39711376953125,0.18274141646027564,0.0030206538622733203,0.0012150086628156713
1690839502115154000,8.40715380859375,0.17735446272492408,0.008839719971152953,0.0074212839909945615
1690839502125194000,8.417194091796874,0.17570786456167697,0.010035953151551074,0.010217536246555392
1690839502135235000,8.427235107421875,0.1764560525804758,0.0065182524703559465,0.008288518112467136
1690839502145275000,8.43727490234375,0.18453589866161346,0.005007895856467075,0.007029880370479077
1690839502155315000,8.44731494140625,0.18229191912710666,0.002220160267502069,0.001981746118457522
1690839502165356000,8.45735595703125,0.17525953627228735,0.012486061133851763,0.0039040171346394342
1690839502175395800,8.467395751953125,0.1824427257746458,0.012756916247773914,-0.001538685375940986
1690839502185436000,8.477435791015624,0.1854360623717308,0.006930251354328357,0.004525213206326589
1690839502195476000,8.48747607421875,0.18154548467397688,0.008440692449896595,0.003114798419130966
1690839502205517000,8.49751708984375,0.1767564968317747,0.007198179292224813,-0.0018151459634536877
1690839502215586800,8.5075869140625,0.17585808668732641,0.0005614606745075434,0.0021782619211124254
1690839502225628000,8.5176279296875,0.1790004763662815,0.006303365327371284,0.005388871697802096
1690839502235668000,8.52766796875,0.17106968336701392,0.01206688359042164,-0.0013287187199573962
1690839502245708000,8.5377080078125,0.17481062346100806,0.011743063030112534,0.005757371650054119
1690839502255748900,8.547748779296874,0.18019816171824932,0.008388106029422488,0.009538527306716423
1690839502265789000,8.557788818359375,0.17705577203929423,-0.001973081038100645,0.005102439988835249
1690839502275829000,8.5678291015625,0.17825345739126205,0.008477549294987693,0.005271581444086041
1690839502285868800,8.577868896484375,0.17989947103261947,0.002143565067066811,0.006096255065465812
1690839502295910000,8.587909912109374,0.17600889333486555,0.010333563841658178,0.007514115656889043
1690839502305950000,8.597949951171875,0.17780454457998274,0.0023996084876358507,0.0037996274616918526
1690839502315990000,8.607989990234374,0.18797990163564682,0.005177233674540184,0.004010875042597763
1690839502326030800,8.61803076171875,0.1767564968317747,0.009310938229074235,0.003054802727047354
1690839502336071000,8.62807080078125,0.1767564968317747,0.0114015743823722,0.010399514350492972
1690839502346111000,8.638111083984375,0.18752981978058814,0.009472471766604576,0.006897627726360224
1690839502356150800,8.64815087890625,0.18139526254832744,-0.0004572742142481729,0.01214276640480384
1690839502366191900,8.65819189453125,0.17870237020254134,-0.0023313838233239947,0.006433859839243814
1690839502376263000,8.668262939453125,0.18214403508901594,0.0030026501314132474,-0.0025323337725014425
1690839502386303000,8.678302978515624,0.1813964315921068,-0.0012328959459555334,0.009707988422375637
1690839502396343000,8.688343017578125,0.17615911546051502,0.0037886585431057026,0.01700267319190316
1690839502406383000,8.698383056640624,0.17301672578155994,0.012616587611765134,0.007378031654446385
1690839502416424000,8.708423828125,0.18693185388743877,0.01407350157194305,0.004958124730875715
1690839502426464000,8.718464111328124,0.18214345056712627,0.007087202331575099,0.008242356866202318
1690839502436503800,8.72850390625,0.17481120798289776,0.003594001337396912,0.008157304364675655
1690839502446545000,8.738544921875,0.18797873259186743,-0.0016455889496719465,0.011957459266041404
1690839502456585000,8.7485849609375,0.1846867053091526,0.013521283649816177,0.005892647368321195
1690839502466625000,8.758625,0.17810265074372292,0.01382483089036541,0.004209749482409097
1690839502476665000,8.7686650390625,0.17346388502717017,0.0028492199852364138,0.007144291397230699
1690839502486706000,8.778705810546874,0.1790004763662815,0.003458157080260571,0.007134094230202026
1690839502496746000,8.78874609375,0.1698725825369358,0.002639166564284824,0.00031370102509390563
1690839502506785800,8.798785888671874,0.16942425424754617,-0.0018059351771138607,0.003690744276717305
1690839502516825900,8.808825927734375,0.18019757719635962,-0.0018288776612840592,0.0006428096818737685
1690839502526867000,8.818866943359374,0.17705518751740454,0.0063605206083972,-0.0033951679967809466
1690839502536938000,8.82893798828125,0.18723054457306862,0.006975960509444121,0.003663041135750245
1690839502546978000,8.83897802734375,0.18797814806997776,0.007854448960581795,0.005425308417784981
1690839502557018000,8.84901806640625,0.1825911943346262,0.01783657586593181,0.005201103173894808
1690839502567058200,8.85905810546875,0.18423662345409392,0.020658668098936322,0.006895202873833477
1690839502577099000,8.86909912109375,0.1839367637246847,0.00591388880246086,-0.0016201942135114222
1690839502587138000,8.879137939453125,0.1804950988382101,0.009278504114062525,0.0006659896280616521
1690839502597178000,8.88917822265625,0.17570728003978728,0.00748587594309356,0.003321061580954119
1690839502607219200,8.89921923828125,0.1721159775495529,-0.0005048145668464713,0.008276875623734668
1690839502617259000,8.909259033203124,0.17136778953075407,0.0004812989772297442,-0.000571776572545059
1690839502627299000,8.919299072265625,0.17256430583894253,0.008992819040478207,0.006651690141274594
1690839502637339100,8.929339111328124,0.18139233993887902,0.004815341559587977,0.008078777502058073
1690839502647380200,8.939380126953125,0.17854922546744345,0.011619555381452665,0.0027950854950700883
1690839502657420000,8.949419921875,0.1770528494298458,0.010006898303714115,-0.003523653214657679
1690839502667460000,8.959460205078125,0.17555705791413784,0.005743295175640378,-0.0054524772692122496
1690839502677501200,8.969501220703124,0.18348785091340541,0.0013654796669259667,0.00028116416209377344
1690839502687571000,8.979571044921874,0.18528467120230196,0.0065041097805718885,0.0006596877514384687
1690839502697612000,8.989612060546875,0.18543489332795143,0.00663451981076505,0.0054799018489662555
1690839502707652000,8.999652099609374,0.17511048319041728,0.0021684003975125958,0.005153300243103876
1690839502717692200,9.009692138671875,0.17570903360545634,0.0013077969462261534,-0.0005793182748951949
1690839502727732200,9.019732177734374,0.18827859232127667,0.0024373215659637933,0.007622017027752008
1690839502737773000,9.02977294921875,0.1837894642084837,0.00655888587484369,0.002206821295316331
1690839502747812900,9.039812744140624,0.1790010608881712,0.009431600900099146,-0.0024091092516318894
1690839502757853000,9.04985302734375,0.17825287286937236,0.00975230020484887,0.0020912343749194405
1690839502767894000,9.05989404296875,0.1671796901911497,0.006194721887703054,-0.0014177235941053368
1690839502777934000,9.06993408203125,0.18349018900096414,0.00287556685275631,-0.0013417425983119754
1690839502787974100,9.07997412109375,0.17750468485057352,0.009307481330086012,0.0017803121120901777
1690839502798014200,9.09001416015625,0.18004910863637924,0.004760152190073859,0.01110537704792805
1690839502808055000,9.100054931640624,0.18079729665517805,0.0038100506742950527,0.010146368423197417
1690839502818095000,9.11009521484375,0.1854354778498411,0.007053446192445699,0.008745990972826257
1690839502828135000,9.120135009765624,0.18483634291291237,0.010325910258165094,0.005010247643757611
1690839502838176000,9.130176025390625,0.17540917387604713,0.008717623394867405,0.0028122078765183685
1690839502848246000,9.14024609375,0.17615736189484596,0.005529702657309826,0.006837906028912402
1690839502858287000,9.150287109375,0.17585808668732641,0.006132694068737328,0.005091445954074151
1690839502868327200,9.1603271484375,0.17959902678132056,0.008808644412877037,0.002034330255642999
1690839502878367200,9.1703671875,0.17436171064972877,0.0013511565973400137,0.003815820544667076
1690839502888408000,9.180407958984375,0.18573416853547095,0.008686426822294015,0.0016396980650024487
1690839502898448000,9.19044775390625,0.17645663710236548,0.0036624566138605584,-0.00007454480724409222
1690839502908488000,9.200488037109375,0.177205409643054,0.007626124664000235,0.0037523245711112395
1690839502918528000,9.210528076171874,0.18304186071157455,0.006474559459101874,0.012378196295606903
1690839502928569000,9.220569091796875,0.1836404111266136,0.00269021176493261,0.011801679615862667
1690839502938609200,9.230609130859374,0.17959961130321025,0.008364800502359866,0.008077128967666066
1690839502948649200,9.240649169921875,0.18453765222728252,0.015696702876582275,0.00037693898703437296
1690839502958690000,9.25068994140625,0.17301614125967024,0.009800203600339591,0.008825559015059842
1690839502968730000,9.260730224609375,0.18004910863637924,0.009452550073293969,0.01036746611126
1690839502978770000,9.27077001953125,0.1849871495604515,0.006882932480727322,0.002888487983122468
1690839502988810000,9.28081005859375,0.1779541821837425,0.00913913445927901,0.0007031181844999082
1690839502998851000,9.29085107421875,0.18004910863637924,0.0030938149966066703,0.0033847379343118515
1690839503008921000,9.300921142578124,0.18094634973704815,0.00516772377738962,-0.0008794451490743085
1690839503018962200,9.310962158203125,0.17301614125967024,0.004947352175111882,0.013519941076100803
1690839503029002200,9.321002197265624,0.17870237020254134,0.009454182624665554,0.01129999087115284
1690839503039042000,9.3310419921875,0.17107026788890362,0.012849314088828395,0.004431589239276945
1690839503049083000,9.341082763671874,0.17870237020254134,0.0136512210392626,-0.0012126774251228199
1690839503059123000,9.351123046875,0.18124620946645736,0.006661869041994214,0.00856124323977856
1690839503069163000,9.3611630859375,0.1752618743598461,0.003947730695491191,0.004268261036882177
1690839503079203000,9.371203125,0.18678396984934806,0.008706951303803362,0.008266596258315257
1690839503089244200,9.381244140625,0.18319325188100338,0.006588696491217706,0.010787362890609074
1690839503099284200,9.3912841796875,0.17690847252309322,0.007843062200176063,0.0031106314173783172
1690839503109324300,9.40132421875,0.17855448616445063,0.010921907956514041,0.006465750531561207
1690839503119365000,9.411365234375,0.17421499565541743,0.006302328714332543,0.0044070256201783195
1690839503129405000,9.421405029296874,0.18020049980580805,0.009009279268223326,0.006674943152698688
1690839503139445000,9.431445068359375,0.16957681446075437,0.01365373722333461,0.007206458496802952
1690839503149485000,9.441485107421874,0.16673311546742914,0.009308554475742857,0.005819118624518159
1690839503159526100,9.451526123046875,0.17107319049835204,0.011375608824053779,0.0015304038880742154
1690839503169596200,9.46159619140625,0.1724205134540796,0.005935484146338422,0.002647343020874541
1690839503179637200,9.47163720703125,0.17182137851715087,0.01460176094645867,0.01280026904902188
1690839503189677000,9.481677001953125,0.17675883491933345,0.009735664163879118,0.006876904598739929
1690839503199717000,9.491717041015624,0.1899275285720825,0.004693516694649588,0.0026988083466305394
1690839503209758000,9.501758056640625,0.17975275603830812,0.009342095985740888,0.006570973604859318
1690839503219798000,9.511798095703124,0.18065058166086673,0.006087717849272303,0.013977909410092979
1690839503229838000,9.521838134765625,0.18708499862253664,0.007998136314167641,0.011297278324258513
1690839503239878100,9.531878173828124,0.18618717299997806,0.012188756404421292,0.003212705835653469
1690839503249919200,9.541919189453125,0.18663608581125735,0.014806398406776134,0.011951406267879064
1690839503259959300,9.551959228515624,0.17631109115183352,0.009214759262045845,0.009161092846048996
1690839503269999000,9.5619990234375,0.1733183390766382,0.012238029773090965,0.006783956485125236
1690839503280040000,9.5720400390625,0.18005261576771736,0.015566628489817958,0.003639692226203624
1690839503290080000,9.582080078125,0.18094985686838627,0.013189802656148095,-0.004032643916411325
1690839503300120000,9.5921201171875,0.18139993872344493,0.01341053273474099,0.007467995509819593
1690839503310160100,9.60216015625,0.18095102591216564,0.010966301937378011,0.008780390999349765
1690839503320201200,9.612201171875,0.17556465669870375,0.009894836780964396,0.008988846118259243
1690839503330272300,9.622272216796874,0.1779594428807497,0.011759852051420602,0.0037377617562189694
1690839503340312000,9.63231201171875,0.17451836251616476,0.000008498400286771356,0.009236208475450985
1690839503350352100,9.64235205078125,0.18140227681100368,0.006524501831340603,0.0076734755036421114
1690839503360392200,9.65239208984375,0.18798633137643336,0.009957793898403178,0.0027934438105439766
1690839503370433000,9.66243310546875,0.18110241708159447,0.0051676324458443555,0.0015330684859072789
1690839503380473000,9.67247314453125,0.17646365136504172,0.0012458376259193754,0.002918972169642802
1690839503390513200,9.68251318359375,0.17780980527698992,0.005157556293113157,-0.0047973309788620095
1690839503400554200,9.69255419921875,0.1796054565221071,0.0005976644990500062,0.0007766583447461016
1690839503410594000,9.702593994140624,0.18140169228911399,0.0071859385818708685,-0.0032078721136203966
1690839503420634000,9.712634033203125,0.17885843754708766,0.01258048196863383,0.008912997553206514
1690839503430674200,9.722674072265624,0.1820014117479324,0.007764615252660587,0.0026818937444477342
1690839503440715000,9.732715087890625,0.1830488749742508,0.010851861227874177,0.007905258982500527
1690839503450755000,9.742755126953124,0.19322481655180454,0.0058394330434734,0.010829560347809455
1690839503460795100,9.752795166015625,0.18260113120675087,0.0018035788232460617,0.004573929452570155
1690839503470836200,9.762836181640624,0.1779629500120878,0.0070078306521638295,0.0035471048721927214
1690839503480876300,9.772876220703125,0.17092998263537884,0.010348711178440134,0.012076108076493255
1690839503490947000,9.782947021484375,0.17212708346545696,0.0020501580124371683,0.0027320050800452005
1690839503500987100,9.792987060546874,0.1827507688105106,0.008339782508823555,0.01092715495378943
1690839503511027200,9.803027099609375,0.18439619792997836,0.005681319872313179,0.008491527587990277
1690839503521067300,9.8130673828125,0.18080489543974398,0.007462755362410098,0.006279372530430555
1690839503531108000,9.823108154296875,0.18499474834501742,0.01273290061794687,0.007892513665359
1690839503541148200,9.833148193359374,0.1851438014268875,0.011275625898165161,0.0017767250656499525
1690839503551188000,9.84318798828125,0.18888474152088164,0.007629650061647408,0.0005102807598304934
1690839503561229000,9.85322900390625,0.1897831516653299,0.005839435326762031,0.009774498336925171
1690839503571269000,9.86326904296875,0.17392156566679476,0.01115602495635394,0.0018678077324526382
1690839503581309200,9.87330908203125,0.17945757248401642,0.015855740779638288,0.007475413914583623
1690839503591332600,9.88333251953125,0.18215163387358188,0.009453203093842602,0.010546533022192306
1690839503601373700,9.893373779296875,0.1773626460313797,0.00491205481615616,0.005288893338490743
1690839503611413800,9.903413818359375,0.1769131486982107,-0.00388240352445282,0.005183626882708631
1690839503621453800,9.913453857421874,0.17989070320427417,0.005414086054160725,0.0027916080464841795
1690839503631494700,9.92349462890625,0.5059662393659353,0.2076047126252204,-0.16181432723309844
1690839503641534700,9.93353466796875,-0.2968102787107229,0.022407619241671634,0.2909965143980458
1690839503651605500,9.94360546875,0.3764128077358007,-0.16565295554790646,-0.029559861049917525
1690839503661645600,9.9536455078125,0.08192775710225104,-0.21974512267615645,-0.05801199831995182
1690839503671685600,9.963685546875,-0.05096972425878048,-0.30734687029421326,0.15596253246497363
1690839503681725700,9.9737255859375,0.25890637225210666,0.10073984520314261,-0.02944339278010884
1690839503691766800,9.983766845703125,0.22611060258746146,0.054398575329454614,-0.18166008749697357
1690839503701806800,9.993806884765625,0.21396014606654642,-0.006722869381075724,-0.03718919145115651
1690839503711846700,10.0038466796875,0.2437204935580492,0.1523882724410854,-0.025010237204830626
1690839503721887500,10.013887451171875,0.2399772153764963,0.19677074553035198,0.005424139374005608
1690839503731927600,10.023927490234374,0.2570528533399105,0.17830873124245553,0.07614840651582926
1690839503741967600,10.033967529296875,0.19692659367918966,0.1525417642360553,0.08170556571893393
1690839503752007700,10.044007568359374,0.1790010608881712,0.08554368257708847,0.062272706238040695
1690839503762048800,10.054048828125,0.1773801816880703,0.011881309306889305,0.025229718324542044
1690839503772088800,10.0640888671875,0.18458032232522964,-0.048252692985581234,-0.018051415059855205
1690839503782128600,10.074128662109375,0.09136369396746158,-0.08573557928684167,-0.03722595696470234
1690839503792169500,10.08416943359375,0.1902729810088873,-0.10236947396527975,-0.03586860580530483
1690839503802209500,10.09420947265625,0.13205635436177254,-0.10571867479532956,-0.017604867735598235
1690839503812280600,10.104280517578125,0.11962298924624919,-0.0956705791148357,0.004096776927495375
1690839503822320600,10.114320556640624,0.16180384237170217,-0.06162469979124143,0.028074394565401596
1690839503832360700,10.124360595703125,0.14577508311271667,-0.020682434850302522,0.03564532757659908
1690839503842401800,10.13440185546875,0.20262217497229576,0.009759008506848476,0.03698379593901336
1690839503852441900,10.14444189453125,0.17388240270018576,0.0640968529252801,0.035882842109922784
1690839503862481700,10.154481689453124,0.22206278850138186,0.09710505063105374,0.007920326404180377
1690839503872521700,10.164521728515625,0.2392752045869827,0.12049325100844725,-0.00816053065151209
1690839503882562600,10.1745625,0.2214776820898056,0.118227625897713,-0.010535331208165735
1690839503892602600,10.1846025390625,0.20951894874870775,0.08677668583760968,-0.006881685805134475
1690839503902642700,10.194642578125,0.22224983550608157,0.042822484630392864,-0.012414690097805577
1690839503912683800,10.204683837890625,0.15701836166083813,0.014559200446365866,0.0093335747525678
1690839503922723800,10.214723876953125,0.15582885961532592,-0.023083283163665327,0.022658009239588862
1690839503932763600,10.224763671875,0.16361469118595123,-0.03804970128760906,0.034786484540847595
1690839503942803700,10.2348037109375,0.1308458095282316,-0.05663934912672266,0.019932965906581373
1690839503952844500,10.244844482421875,0.15299100584089756,-0.05293643948817625,0.00705990333269583
1690839503962884600,10.254884521484374,0.1390682789504528,-0.05067630340331234,-0.00043468335652723905
1690839503972955600,10.26495556640625,0.18335107279121873,-0.037975923665345176,-0.014914943665033206
1690839503982995700,10.27499560546875,0.16867489718496798,-0.013028285101638174,-0.0027460929709021
1690839503993035800,10.285035888671874,0.1683651005834341,0.015372297794383484,0.005037530659616459
1690839504003076900,10.295076904296875,0.20501871472001074,0.0497226650734432,0.014294976002629845
1690839504013116700,10.30511669921875,0.188856099948287,0.07439895076630637,0.024010012937011195
1690839504023156700,10.31515673828125,0.19379823252558706,0.0793990514753852,0.022278188742301426
1690839504033196800,10.32519677734375,0.20577625508904457,0.06967805059109813,0.01551321095228195
1690839504043237600,10.335237548828125,0.17810265074372292,0.05841994893318042,0.006822920805623289
1690839504053277700,10.345277587890624,0.18125439277291297,0.029014187033008784,-0.0026101299827569163
1690839504063317800,10.35531787109375,0.19113631983995436,-0.00003299352072644979,0.0015397699380409902
1690839504073358800,10.36535888671875,0.16061317128241062,-0.010827733716904184,-0.00587926958022872
1690839504083398700,10.375398681640625,0.15986556778550148,-0.026416788667661603,0.0074114590000128365
1690839504093438700,10.385438720703124,0.1489402691453695,-0.03436152114402503,0.008229835311346688
1690839504103478800,10.395478759765625,0.1680903752952814,-0.030152440665184983,0.012196989943226799
1690839504113519600,10.40551953125,0.16973112823963163,-0.024422338331257922,0.019537358751695138
1690839504123559700,10.4155595703125,0.1577548592418432,-0.008433952181856148,0.015436092878750059
1690839504133630700,10.425630615234375,0.1927642133027315,0.013550925302831454,0.0056179814456729215
1690839504143670800,10.4356708984375,0.18662497989535332,0.024023150979797354,0.0030088561099139042
1690839504153710600,10.445710693359375,0.18796996476352212,0.03205589966633124,-0.0010109397413674741
1690839504163751700,10.455751708984375,0.19844459702670572,0.04026563062127679,0.0039068484125426035
1690839504173791700,10.465791748046875,0.20203823760449885,0.04097591604879126,0.0030465372222010043
1690839504183831800,10.475831787109374,0.19246552261710165,0.03508563645078102,0.009867674779403023
1690839504193871600,10.48587158203125,0.19276947399973868,0.02646483134375885,0.009250659409200307
1690839504203912700,10.49591259765625,0.17451836251616476,0.01851330380042782,0.012445893520244862
1690839504213952800,10.505952880859375,0.17377309710681438,-0.00011395893560256808,0.009983003688184543
1690839504223992600,10.51599267578125,0.16704174302518368,-0.013801329000480473,0.010349049105157609
1690839504234033700,10.52603369140625,0.16195347997546194,-0.019683208379615097,0.008527420885278842
1690839504244073700,10.53607373046875,0.1733241842955351,-0.016500233245233538,0.004752934714709408
1690839504254113800,10.54611376953125,0.16344401079416274,-0.0059333995038177816,-0.0009346779010724276
1690839504264153600,10.556153564453124,0.17181962495148181,-0.008427595506305806,-0.00033803859861800443
1690839504274194700,10.566194580078125,0.1875268971711397,0.00538646282829577,0.005719249863061123
1690839504284234800,10.57623486328125,0.17480419372022152,0.020196087521908337,0.010587833146960475
1690839504294305800,10.586305908203125,0.180638891223073,0.026024818791565485,0.01540928250363795
1690839504304345600,10.596345703125,0.1902151133418083,0.03490223585802596,0.0185143289970234
1690839504314385700,10.6063857421875,0.1834831747382879,0.026213496064348144,0.010318957644281907
1690839504324426800,10.6164267578125,0.17555471982657908,0.023788638971024192,0.008667854552564677
1690839504334466800,10.626466796875,0.18857669848501682,0.014823374657751992,0.0032157768588629548
1690839504344506600,10.636506591796875,0.18738252026438712,0.008426225533126852,0.007919111694628372
1690839504354547700,10.646547607421875,0.17885493041574954,-0.00019203827364835886,0.00931939781345427
1690839504364587800,10.656587890625,0.1737684209316969,-0.004379680955526419,0.013489093846688047
1690839504374627600,10.666627685546874,0.17975450960397718,-0.006990902350249234,0.012804079857748
1690839504384667600,10.676667724609375,0.16344284175038337,-0.007250783979007974,0.00937329484160291
1690839504394708700,10.686708740234375,0.16718202827870846,-0.002945529099716805,0.01343801896328805
1690839504404748800,10.696748779296875,0.18558511545360087,0.0036169575212989,0.0004164147641859017
1690839504414788600,10.70678857421875,0.17795184409618375,0.01272847332129022,0.0016227994458400644
1690839504424829700,10.71682958984375,0.17600421715974807,0.013476745821768417,0.004811185974278487
1690839504434869800,10.726869873046875,0.18333587522208689,0.02388089068160625,0.009727389525878243
1690839504444909600,10.73690966796875,0.18333645974397658,0.021479492095683235,0.008629289807577151
1690839504454980600,10.746980712890625,0.1836369039952755,0.0168876525270869,0.012510880481277126
1690839504465020700,10.757020751953124,0.17121815192699433,0.02147251208233647,0.015587958972214254
1690839504475060700,10.767060791015625,0.17241759084463118,0.027327263709239196,0.006078029855608474
1690839504485101800,10.777101806640625,0.17616028450429438,0.018384617653151508,0.005991828859900124
1690839504495141600,10.7871416015625,0.16927812377512455,0.007928272248618305,0.004343657510785851
1690839504505181700,10.797181640625,0.17855565520823,0.001092594709410332,0.005215245863678865
1690839504515222800,10.807222900390625,0.1806517507046461,0.0007917851319303736,0.0010918868899345397
1690839504525262600,10.8172626953125,0.1815495763272047,0.0012850234254146926,0.002081738177500665
1690839504535302700,10.827302734375,0.18065058166086673,0.007817192539980169,0.010934648707078304
1690839504545342700,10.8373427734375,0.1778062981456518,0.0035712369497399774,0.007036307827976997
1690839504555383800,10.8473837890625,0.17391396688222885,0.007787452705553732,0.014824402137636207
1690839504565423600,10.857423583984374,0.18304127618968485,0.011163982217235024,0.014152752237056847
1690839504575463700,10.867463623046875,0.17196692446768283,0.0151440945120994,0.010720560715114697
1690839504585505300,10.87750537109375,0.17675591230988502,0.01615341768511571,0.01826160319483606
1690839504595545300,10.88754541015625,0.19127134439647198,0.023681539034470914,0.008304729461751412
1690839504605585200,10.897585205078125,0.1870826605349779,0.014427746953268069,0.0033626083008944986
1690839504615656200,10.90765625,0.18109774090647696,0.011795163110108114,0.007414778901683166
1690839504625696300,10.9176962890625,0.18454057483673095,0.004884262626932468,0.004987672769057099
1690839504635736300,10.927736328125,0.18005203124582767,0.006070031495532021,0.008481545050092971
1690839504645777200,10.937777099609375,0.18334405852854252,0.004632356525363866,0.015039186532632446
1690839504655817200,10.947817138671875,0.1737672518879175,0.0038467613889137282,0.009923512602888512
1690839504665857000,10.95785693359375,0.18498948764801024,0.004370027211192064,0.001276559274457395
1690839504675898000,10.967898193359375,0.1743652177810669,0.0046467047111247665,0.005667284497094806
1690839504685938200,10.977938232421875,0.17062310864329336,0.012600141083751805,0.008726749699527863
1690839504695978200,10.987978271484375,0.18558569997549057,0.0212196036170586,0.012070112160546704
1690839504706018300,10.998018310546875,0.17615736189484596,0.015344421123480423,0.009353144819429143
1690839504716059100,11.00805908203125,0.1840887394160032,0.020463396688585635,0.0063840978468069805
1690839504726099200,11.01809912109375,0.177654906976223,0.014858601234760134,0.005516653662780299
1690839504736139300,11.02813916015625,0.18723346718251704,0.017052195439033677,-0.00033900671299779783
1690839504746180400,11.038180419921876,0.17930384322702883,0.01202808366670506,0.00547970776943257
1690839504756220200,11.04822021484375,0.181548991805315,0.0019296939875232055,0.010055251507065259
1690839504766260200,11.05826025390625,0.17646189779937266,0.004282878650701605,0.009233466245804447
1690839504776331300,11.068331298828125,0.18274726167917252,0.00025548629814293235,0.014671704927110112
1690839504786371300,11.078371337890625,0.17137421927154065,0.01248614561553113,0.01345157713118242
1690839504796412200,11.088412109375,0.1676321101337671,0.004727832239493727,0.0199535177875543
1690839504806452200,11.0984521484375,0.18513795620799064,0.0069992340704659,0.011787632824201135
1690839504816492000,11.108491943359375,0.17720599416494368,0.013350594124873168,0.008039632801758125
1690839504826532000,11.118531982421874,0.18573475305736065,0.013496484851988497,0.003479254667216446
1690839504836573200,11.1285732421875,0.1860334437429905,0.018302759472420438,0.0009555288928560912
1690839504846613200,11.13861328125,0.18363924208283422,0.01848603220101213,0.012325580192380585
1690839504856653300,11.1486533203125,0.1845382367491722,0.01711017042067833,0.0050413825675379486
1690839504866694100,11.158694091796875,0.18424071510732173,0.007640233104454819,0.009071859643037895
1690839504876734200,11.168734130859375,0.1824462329059839,0.01078126194338547,0.012277407368831336
1690839504886774300,11.178774169921875,0.18050152857899665,0.0070960820410633455,0.0026835491287056355
1690839504896814000,11.18881396484375,0.16718319732248782,0.009070612967445048,0.00543679335960187
1690839504906855200,11.198855224609375,0.1700257272720337,0.009167805714625865,0.013902652216795831
1690839504916895200,11.208895263671875,0.18259411694407462,0.0064574507773853835,0.013404406671342439
1690839504926935300,11.218935302734375,0.1822942572146654,0.007301881695294286,0.0064287818053271615
1690839504937006300,11.22900634765625,0.1849865650385618,0.004571319653664249,0.009610307051427661
1690839504947046400,11.23904638671875,0.18618366586863994,0.01731007005708525,0.007752203295659273
1690839504957087200,11.249087158203125,0.1924684452265501,0.014966555121261625,0.010409964962559751
1690839504967127000,11.259126953125,0.1884288144469261,0.024350990128098056,0.009834843372169416
1690839504977167000,11.2691669921875,0.16867723527252673,0.01455883283689618,0.002340115119051188
1690839504987207200,11.279207275390625,0.18498831860423087,0.009093849995848722,0.006965735942951869
1690839504997248300,11.289248291015625,0.17750585389435292,0.0021178232710342853,0.010638442239479627
1690839505007288300,11.299288330078125,0.17181904042959212,0.007676503144367597,0.004453896969207562
1690839505017328400,11.309328369140625,0.17600889333486555,0.0072730117938364855,0.006871495487971697
1690839505027369200,11.319369140625,0.17271628153026103,0.0066621955522685305,0.007053978198696859
1690839505037409300,11.3294091796875,0.17690613443553446,0.00792144978218712,0.005866789124568459
1690839505047449000,11.339448974609375,0.18019757719635962,0.012393222618091384,0.008543184709991328
1690839505057489200,11.3494892578125,0.18094693425893782,0.0055665869018645025,0.012902099155413451
1690839505067530200,11.3595302734375,0.17720716320872307,0.0033681087432079946,0.010214223194750956
1690839505077570300,11.3695703125,0.17526245888173578,0.005146998366480693,0.012056229765666648
1690839505087641300,11.379641357421875,0.16927695473134516,0.006390438539336901,0.0075271600848413065
1690839505097681400,11.389681396484375,0.17825521095693111,0.007451238454552367,0.007972885425190906
1690839505107721200,11.39972119140625,0.1800502776801586,0.00814103593317559,0.014055518390680663
1690839505117762000,11.409761962890625,0.17451310181915758,0.012823853137297555,0.007977141475200187
1690839505127802000,11.419802001953125,0.18393910181224346,0.01689226705341134,0.007361897936975583
1690839505137842200,11.42984228515625,0.17391338236033915,0.016937142808176577,0.007634180106292478
1690839505147882200,11.43988232421875,0.1867828008055687,0.01697038292407524,-0.0004458714708220213
1690839505157923300,11.44992333984375,0.18738252026438712,0.012179700881708413,-0.0001869922057725489
1690839505167963400,11.45996337890625,0.18199615105092523,0.00873453571376158,0.006081406839494593
1690839505178003200,11.470003173828125,0.17885434589385985,0.005025837938534096,0.002979440502473153
1690839505188044000,11.4800439453125,0.1755629031330347,0.008418590215942823,0.016171414566109887
1690839505198084000,11.490083984375,0.18409283106923102,0.010103709741693456,0.015092366608150769
1690839505208124200,11.500124267578125,0.1807996347427368,0.013137807607429566,0.013341721265250817
1690839505218164200,11.510164306640625,0.18154665371775627,0.014417659384093713,0.01525226302773226
1690839505228205300,11.520205322265625,0.17286650365591047,0.009176865803916006,0.016296262505196498
1690839505238245400,11.530245361328125,0.1776543224543333,0.012210171368496957,0.008493502632656599
1690839505248316200,11.540316162109375,0.18154431563019752,0.004163871363934595,0.01782070700994227
1690839505258356000,11.55035595703125,0.18932547102570532,0.0028122946414863687,0.006635670588235371
1690839505268396000,11.56039599609375,0.1938145991384983,0.010405578765098471,0.008524388677976094
1690839505278437000,11.57043701171875,0.18693185388743877,0.005377567135787103,0.012329306519427336
1690839505288477200,11.580477294921875,0.1902238811701536,0.005840426274028141,0.01575235118711134
1690839505298517200,11.590517333984375,0.18274200098216534,0.005032754019799177,0.012686040685360785
1690839505308558300,11.600558349609376,0.18169453775584696,0.010119708745134993,0.013111068014265037
1690839505318598100,11.61059814453125,0.18438801462352275,0.0048522828863584435,0.008984336623211856
1690839505328638000,11.620637939453125,0.1776537379324436,0.008667893368471413,0.004160512646357529
1690839505338678000,11.630677978515624,0.17106909884512422,0.015116752130736131,0.0080052533248323
1690839505348719000,11.640718994140625,0.17974749534130097,0.0041132120390655474,0.011961014346440788
1690839505358759200,11.65075927734375,0.17510814510285852,0.0063699460238683964,0.013108478764956816
1690839505368799200,11.66079931640625,0.17166706473827362,0.009835998716217,0.009423703004722483
1690839505378840300,11.67084033203125,0.18363807303905486,0.015780415087682194,0.011485663336096331
1690839505388880100,11.680880126953125,0.17914952944815157,0.016390251798427197,0.004527733956975862
1690839505398920200,11.690920166015625,0.17241583727896212,0.008967533902171998,0.005871714178146794
1690839505408991000,11.700990966796875,0.18109540281891823,0.010698335183574817,0.003522568652557675
1690839505419031000,11.711031005859375,0.18723054457306862,0.012167804947937838,0.004384247532789595
1690839505429071000,11.721071044921874,0.18034604575634003,0.0008318317312397994,0.0061098771654418665
1690839505439112200,11.7311123046875,0.17899872280061244,0.010121756855037528,0.004746792668290436
1690839505449152300,11.74115234375,0.17420973495841025,0.015303130131866781,0.012764926024293527
1690839505459192300,11.7511923828125,0.16672785477042198,0.01766646401301259,0.010015268839837516
1690839505469233200,11.761233154296875,0.18558219284415245,0.009249008591519668,0.014343482186319305
1690839505479273000,11.77127294921875,0.1839367637246847,0.003717038628598675,0.009917813514464068
1690839505489313000,11.78131298828125,0.17061901699006557,-0.0012109877915354446,0.00867260379291838
1690839505499353000,11.79135302734375,0.17376199119091032,0.006318261502403766,0.010672552288346923
1690839505509394200,11.801394287109375,0.18767828834056854,0.006508548493671696,0.020266483593708834
1690839505519434200,11.811434326171875,0.17286416556835174,0.006524303185229655,0.01841459494959563
1690839505529474300,11.821474365234375,0.17256430583894253,0.007470799388259183,0.006014426567486953
1690839505539515100,11.83151513671875,0.1754062512665987,0.006739325042243581,0.01090485635701334
1690839505549555200,11.84155517578125,0.17735095559358596,0.011424012259754817,0.015949065635877197
1690839505559595000,11.851594970703125,0.18408347871899602,0.007393229223578237,0.004057675609679427
1690839505569666000,11.861666015625,0.18363456590771673,0.011551360399893018,-0.0009344176061684265
1690839505579706000,11.8717060546875,0.1824374650776386,0.00930762289398117,-0.0026405274043092503
1690839505589745700,11.88174560546875,0.17675298970043657,0.009577199366269632,0.005498412469902541
1690839505599785700,11.89178564453125,0.18558219284415245,0.0032999365945346653,0.004536211807664949
1690839505609825800,11.90182568359375,0.18752806621491908,0.013616987692809198,0.017083526725636327
1690839505619865900,11.911865966796874,0.17406068187654017,0.0008232579824281856,0.015684069440583696
1690839505629907000,11.921906982421875,0.18333762878775595,-0.0043540670236572624,0.01535925336643122
1690839505639946800,11.93194677734375,0.17196458638012407,0.004957458010595292,0.00771183018607553
1690839505649986800,11.94198681640625,0.17630407688915728,0.012045123849762604,0.013000351348519325
1690839505660027000,11.95202685546875,0.18393559468090534,0.006001745182427112,0.01595875134625239
1690839505670067700,11.962067626953125,0.18094225808382033,0.007534507707657758,0.014590538582834415
1690839505680107800,11.972107666015624,0.17779986840486525,0.015009277734847273,0.0047502267343923444
1690839505690147800,11.98214794921875,0.1845335605740547,0.009897706874774303,0.011115519416029564
1690839505700189000,11.99218896484375,0.17944646656811236,0.008429698415135498,0.016833577402425
1690839505710229000,12.00222900390625,0.1804939297944307,0.012642089662491343,0.0077598066468024625
1690839505720268800,12.012268798828124,0.17989537937939165,0.0030871500770910643,0.01218291803539032
1690839505730339800,12.02233984375,0.17495733845531938,0.014164657303981948,0.008191941853216849
1690839505740380000,12.0323798828125,0.18034429219067097,0.009111339986766689,0.01608068809233373
1690839505750420700,12.042420654296874,0.1884247227936983,0.006558047907915897,0.014327177222201134
1690839505760460800,12.052460693359375,0.17824995025992393,0.014076629677368327,0.007947634536214172
1690839505770500900,12.0625009765625,0.18124211781322955,0.005335495259461458,0.0051170005204388865
1690839505780540700,12.072540771484375,0.183936179202795,0.008186699422518722,0.007697555065550841
1690839505790581800,12.082581787109374,0.18333821330964564,0.011242689459654502,0.012126468290551565
1690839505800621800,12.092621826171875,0.17585633312165735,0.010004466601321474,0.005172792678151745
1690839505810662000,12.102661865234374,0.17420973495841025,0.0046494606405030935,0.007904843423969578
1690839505820702700,12.11270263671875,0.175405666744709,0.008381651172460987,0.006941795661649666
1690839505830742800,12.12274267578125,0.16986849088370798,0.003983270083041861,0.0027221481230226344
1690839505840782800,12.132782958984375,0.18064122931063173,0.004465614806464873,0.009942747026321011
1690839505850823000,12.142822998046874,0.17734803298413754,0.0118007206346374,0.007846770260913762
1690839505860864000,12.152864013671875,0.18497896625399587,0.014787723389058373,0.009234856768581084
1690839505870903800,12.16290380859375,0.1891688191592693,0.012371323596825823,0.012159137584292328
1690839505880943900,12.17294384765625,0.18034136958122252,0.015727006683300713,0.009155873248237184
1690839505891015000,12.183014892578125,0.1776496462792158,0.013345251229475252,0.006021671442314982
1690839505901055000,12.193054931640624,0.1822895810395479,0.011892273658898193,0.0103636712855543
1690839505911095800,12.203095703125,0.17869944759309292,0.008091091277648229,0.014630434485094155
1690839505921135900,12.213135986328124,0.1721159775495529,0.005985358019918203,0.01144785207635723
1690839505931175700,12.22317578125,0.17376257571280002,0.005632939269498456,0.019838280210318044
1690839505941215700,12.2332158203125,0.17406126639842986,0.0036546820160700006,0.013902814330288674
1690839505951256800,12.2432568359375,0.17435937256217002,0.006656934855261351,0.006109673952753655
1690839505961297000,12.253296875,0.17570494195222855,0.009232504981290548,0.01661705314149149
1690839505971337000,12.2633369140625,0.18962065457999705,0.008548831282777246,0.011774535880610346
1690839505981377800,12.273377685546874,0.19096739301383495,0.004108435399248264,-0.003799401416117325
