time,seconds_elapsed,z,y,x
1690839493737078000,0.029078125,-0.9849700927734375,-0.0023956298828125,0.00445556640625
1690839493747085000,0.0390849609375,-0.982666015625,0.0044708251953125,0.0060272216796875
1690839493757094000,0.049093994140625,-0.978515625,0.010772705078125,0.006988525390625
1690839493767135000,0.059135009765625,-0.9718017578125,0.017578125,0.0040435791015625
1690839493777175000,0.069175048828125,-0.9704132080078125,0.01898193359375,0.00299072265625
1690839493787215000,0.079215087890625,-0.97088623046875,0.0183258056640625,0.0011444091796875
1690839493797255000,0.0892548828125,-0.971527099609375,0.0146331787109375,0.00091552734375
1690839493807296000,0.0992958984375,-0.9717864990234375,0.007659912109375,0.0040740966796875
1690839493817336000,0.109336181640625,-0.97430419921875,0.00140380859375,0.0046539306640625
1690839493827406800,0.11940673828125,-0.976959228515625,-0.0035400390625,0.0043792724609375
1690839493837447000,0.129447021484375,-0.979827880859375,-0.00762939453125,0.0045928955078125
1690839493847487000,0.139487060546875,-0.9793701171875,-0.009033203125,0.0043182373046875
1690839493857528000,0.149528076171875,-0.97882080078125,-0.007781982421875,0.0041046142578125
1690839493867568000,0.159568115234375,-0.977813720703125,-0.004180908203125,0.003997802734375
1690839493877608000,0.16960791015625,-0.9764251708984375,0.0010986328125,0.003814697265625
1690839493887647700,0.179647705078125,-0.9739990234375,0.00537109375,0.0031280517578125
1690839493897688800,0.189688720703125,-0.9718017578125,0.0102081298828125,0.0037841796875
1690839493907729000,0.19972900390625,-0.971893310546875,0.0121612548828125,0.00390625
1690839493917769000,0.20976904296875,-0.9710540771484375,0.0128021240234375,0.0037841796875
1690839493927810000,0.21981005859375,-0.972747802734375,0.0112457275390625,0.0042266845703125
1690839493937850000,0.22985009765625,-0.9736785888671875,0.0087127685546875,0.0044708251953125
1690839493947890000,0.239889892578125,-0.9745941162109375,0.0050506591796875,0.003631591796875
1690839493957930000,0.249929931640625,-0.9769134521484375,0.0009765625,0.0045166015625
1690839493967971000,0.25997119140625,-0.97760009765625,-0.001800537109375,0.003509521484375
1690839493978011000,0.270010986328125,-0.9784393310546875,-0.0032196044921875,0.0031280517578125
1690839493988082000,0.28008203125,-0.9778289794921875,-0.0031890869140625,0.0043792724609375
1690839493998122000,0.2901220703125,-0.9777984619140625,-0.0020294189453125,0.0037384033203125
1690839494008162000,0.300162109375,-0.9776611328125,0.0006561279296875,0.004608154296875
1690839494018203100,0.310203125,-0.9742889404296875,0.0034637451171875,0.0041656494140625
1690839494028243000,0.320242919921875,-0.974517822265625,0.005584716796875,0.003936767578125
1690839494038282800,0.33028271484375,-0.9746551513671875,0.007598876953125,0.0036773681640625
1690839494048323800,0.34032373046875,-0.97406005859375,0.00872802734375,0.0044403076171875
1690839494058364000,0.350364013671875,-0.9739227294921875,0.0087127685546875,0.0047760009765625
1690839494068404000,0.360404052734375,-0.974090576171875,0.0069427490234375,0.0039215087890625
1690839494078444000,0.370444091796875,-0.9754791259765625,0.004974365234375,0.004241943359375
1690839494088485000,0.380485107421875,-0.976837158203125,0.00262451171875,0.004913330078125
1690839494098525000,0.39052490234375,-0.9770660400390625,0.000946044921875,0.004547119140625
1690839494108565000,0.40056494140625,-0.9776153564453125,-0.0001373291015625,0.003875732421875
1690839494118606000,0.410606201171875,-0.977630615234375,-0.0007171630859375,0.0042877197265625
1690839494128646000,0.42064599609375,-0.97650146484375,-0.00018310546875,0.00384521484375
1690839494138686000,0.43068603515625,-0.9766845703125,0.001312255859375,0.003631591796875
1690839494148726000,0.44072607421875,-0.9766693115234375,0.003326416015625,0.004364013671875
1690839494158797000,0.450797119140625,-0.9760894775390625,0.0050201416015625,0.004364013671875
1690839494168837000,0.460837158203125,-0.974761962890625,0.0056610107421875,0.0042724609375
1690839494178878000,0.4708779296875,-0.9752655029296875,0.00604248046875,0.0042266845703125
1690839494188917800,0.480917724609375,-0.975067138671875,0.006591796875,0.0034942626953125
1690839494198957800,0.490957763671875,-0.975982666015625,0.005462646484375,0.003814697265625
1690839494208999000,0.5009990234375,-0.975830078125,0.004425048828125,0.003082275390625
1690839494219039000,0.5110390625,-0.9768218994140625,0.0029296875,0.00323486328125
1690839494229079000,0.5210791015625,-0.9777984619140625,0.0018463134765625,0.00341796875
1690839494239119000,0.531119140625,-0.977447509765625,0.00128173828125,0.0041046142578125
1690839494249160000,0.541159912109375,-0.977874755859375,0.001251220703125,0.0037841796875
1690839494259200000,0.551199951171875,-0.9776611328125,0.0009002685546875,0.0040740966796875
1690839494269239800,0.56123974609375,-0.977874755859375,0.00146484375,0.0043487548828125
1690839494279281000,0.571281005859375,-0.97747802734375,0.003021240234375,0.0043792724609375
1690839494289321000,0.581321044921875,-0.978271484375,0.0035552978515625,0.0036468505859375
1690839494299361000,0.591361083984375,-0.977203369140625,0.004119873046875,0.0036163330078125
1690839494309401000,0.601401123046875,-0.97747802734375,0.0054931640625,0.004241943359375
1690839494319472000,0.61147216796875,-0.9772491455078125,0.0055694580078125,0.004364013671875
1690839494329512000,0.621511962890625,-0.977020263671875,0.0059051513671875,0.0045318603515625
1690839494339552800,0.631552734375,-0.9765777587890625,0.0042724609375,0.0043182373046875
1690839494349592800,0.6415927734375,-0.9763946533203125,0.0030364990234375,0.00390625
1690839494359633000,0.6516328125,-0.978271484375,0.0026092529296875,0.0038604736328125
1690839494369674000,0.661674072265625,-0.978179931640625,0.0022125244140625,0.0030670166015625
1690839494379714000,0.671714111328125,-0.9779205322265625,0.0016021728515625,0.0034637451171875
1690839494389754000,0.681754150390625,-0.977813720703125,0.002410888671875,0.0038604736328125
1690839494399794000,0.6917939453125,-0.97821044921875,0.00225830078125,0.0034942626953125
1690839494409834800,0.701834716796875,-0.978240966796875,0.0031585693359375,0.0038604736328125
1690839494419874800,0.711874755859375,-0.9777069091796875,0.0040130615234375,0.0041351318359375
1690839494429915000,0.721914794921875,-0.976287841796875,0.0046539306640625,0.0041351318359375
1690839494439956000,0.7319560546875,-0.976715087890625,0.0050811767578125,0.00494384765625
1690839494449996000,0.74199609375,-0.9765472412109375,0.0048675537109375,0.004638671875
1690839494460036000,0.7520361328125,-0.97674560546875,0.0047149658203125,0.0037841796875
1690839494470076200,0.762076171875,-0.9788665771484375,0.0036773681640625,0.0039825439453125
1690839494480147000,0.77214697265625,-0.9781036376953125,0.0034637451171875,0.003387451171875
1690839494490187800,0.782187744140625,-0.9786376953125,0.002777099609375,0.002899169921875
1690839494500227800,0.792227783203125,-0.9781036376953125,0.0028839111328125,0.00408935546875
1690839494510268000,0.802267822265625,-0.9786224365234375,0.003173828125,0.003143310546875
1690839494520308000,0.812307861328125,-0.977691650390625,0.0023345947265625,0.0035247802734375
1690839494530349000,0.82234912109375,-0.9789276123046875,0.001861572265625,0.004730224609375
1690839494540389000,0.83238916015625,-0.9788360595703125,0.003173828125,0.0046234130859375
1690839494550429000,0.842428955078125,-0.9780731201171875,0.00384521484375,0.00396728515625
1690839494560469800,0.8524697265625,-0.9782562255859375,0.003631591796875,0.0045623779296875
1690839494570509800,0.862509765625,-0.9781341552734375,0.00408935546875,0.004547119140625
1690839494580530700,0.87253076171875,-0.9776611328125,0.0040740966796875,0.004150390625
1690839494590570800,0.88257080078125,-0.9781951904296875,0.004150390625,0.0035247802734375
1690839494600611600,0.892611572265625,-0.9770965576171875,0.003692626953125,0.00335693359375
1690839494610651600,0.902651611328125,-0.97845458984375,0.0036773681640625,0.003753662109375
1690839494620691700,0.912691650390625,-0.9792633056640625,0.0029296875,0.004241943359375
1690839494630731500,0.9227314453125,-0.9785003662109375,0.0023651123046875,0.0042877197265625
1690839494640802600,0.932802490234375,-0.9784698486328125,0.0027008056640625,0.0043182373046875
1690839494650843600,0.94284375,-0.9796295166015625,0.003173828125,0.0034942626953125
1690839494660883700,0.9528837890625,-0.9790802001953125,0.0030975341796875,0.0038604736328125
1690839494670923800,0.962923828125,-0.978973388671875,0.0026397705078125,0.004669189453125
1690839494680963800,0.9729638671875,-0.9784698486328125,0.003631591796875,0.0041961669921875
1690839494691004700,0.983004638671875,-0.9788970947265625,0.003753662109375,0.0038909912109375
1690839494701044700,0.993044677734375,-0.9790802001953125,0.0045013427734375,0.0037689208984375
1690839494711084500,1.00308447265625,-0.9787750244140625,0.004302978515625,0.0042877197265625
1690839494721125600,1.013125732421875,-0.978363037109375,0.003570556640625,0.0044708251953125
1690839494731165700,1.023165771484375,-0.9789276123046875,0.0038909912109375,0.00421142578125
1690839494741205800,1.033205810546875,-0.979400634765625,0.00299072265625,0.0039215087890625
1690839494751245800,1.043245849609375,-0.978790283203125,0.003143310546875,0.0043487548828125
1690839494761286700,1.05328662109375,-0.979400634765625,0.0029754638671875,0.0036773681640625
1690839494771326700,1.06332666015625,-0.979156494140625,0.0031890869140625,0.00396728515625
1690839494781366500,1.073366455078125,-0.9794769287109375,0.00347900390625,0.0048828125
1690839494791407600,1.08340771484375,-0.9790496826171875,0.0037078857421875,0.004180908203125
1690839494801477600,1.0934775390625,-0.979766845703125,0.0033416748046875,0.003997802734375
1690839494811518700,1.103518798828125,-0.9790496826171875,0.0036773681640625,0.004669189453125
1690839494821558800,1.113558837890625,-0.9795379638671875,0.003631591796875,0.004669189453125
1690839494831598800,1.123598876953125,-0.9788360595703125,0.0042572021484375,0.0042572021484375
1690839494841639000,1.133638916015625,-0.9790802001953125,0.0038909912109375,0.003997802734375
1690839494851679700,1.1436796875,-0.9793701171875,0.004364013671875,0.00347900390625
1690839494861719600,1.153719482421875,-0.9787445068359375,0.0042724609375,0.0031280517578125
1690839494871759600,1.163759521484375,-0.9784088134765625,0.00347900390625,0.003997802734375
1690839494881800700,1.17380078125,-0.979248046875,0.0037689208984375,0.0039825439453125
1690839494891840800,1.1838408203125,-0.9788055419921875,0.0035400390625,0.0035247802734375
1690839494901880800,1.193880859375,-0.97906494140625,0.003509521484375,0.0032806396484375
1690839494911921000,1.2039208984375,-0.9803924560546875,0.003753662109375,0.003814697265625
1690839494921961700,1.213961669921875,-0.97918701171875,0.0031585693359375,0.0048675537109375
1690839494932001500,1.22400146484375,-0.9791717529296875,0.0028076171875,0.004974365234375
1690839494942041600,1.23404150390625,-0.979766845703125,0.002960205078125,0.004241943359375
1690839494952082700,1.244082763671875,-0.98004150390625,0.0034332275390625,0.00390625
1690839494962152700,1.254152587890625,-0.979827880859375,0.0036163330078125,0.004547119140625
1690839494972193800,1.26419384765625,-0.9793701171875,0.00372314453125,0.00433349609375
1690839494982233900,1.27423388671875,-0.979583740234375,0.0034027099609375,0.0030975341796875
1690839494992273700,1.284273681640625,-0.9797210693359375,0.0034942626953125,0.0038909912109375
1690839495002314800,1.294314697265625,-0.9794769287109375,0.003448486328125,0.0033416748046875
1690839495012354600,1.3043544921875,-0.979339599609375,0.0025634765625,0.00390625
1690839495022394600,1.31439453125,-0.9795989990234375,0.0035400390625,0.0042266845703125
1690839495032434700,1.3244345703125,-0.9800872802734375,0.0028839111328125,0.0040283203125
1690839495042475800,1.334475830078125,-0.98004150390625,0.0032501220703125,0.00335693359375
1690839495052515800,1.344515869140625,-0.979217529296875,0.00360107421875,0.0034027099609375
1690839495062556000,1.354555908203125,-0.9793548583984375,0.0038299560546875,0.0040740966796875
1690839495072596700,1.3645966796875,-0.9799346923828125,0.003265380859375,0.003387451171875
1690839495082636500,1.374636474609375,-0.9800872802734375,0.0037841796875,0.004180908203125
1690839495092676600,1.384676513671875,-0.979736328125,0.0027313232421875,0.0041961669921875
1690839495102716700,1.394716552734375,-0.9801483154296875,0.00311279296875,0.0039520263671875
1690839495112757800,1.4047578125,-0.979827880859375,0.003326416015625,0.00360107421875
1690839495122827800,1.414827880859375,-0.980438232421875,0.0028533935546875,0.004364013671875
1690839495132868900,1.424868896484375,-0.97998046875,0.0035858154296875,0.0044097900390625
1690839495142908700,1.43490869140625,-0.9802398681640625,0.0034637451171875,0.0045013427734375
1690839495152948700,1.44494873046875,-0.9799346923828125,0.0033111572265625,0.0040283203125
1690839495162989600,1.454989501953125,-0.9794769287109375,0.00341796875,0.0038604736328125
1690839495173029600,1.465029541015625,-0.979095458984375,0.003753662109375,0.0037384033203125
1690839495183069700,1.475069580078125,-0.97943115234375,0.0036468505859375,0.0037384033203125
1690839495193109800,1.48510986328125,-0.9795684814453125,0.0040435791015625,0.00360107421875
1690839495203150800,1.49515087890625,-0.97943115234375,0.00408935546875,0.0045013427734375
1690839495213191000,1.50519091796875,-0.9787139892578125,0.0034637451171875,0.004364013671875
1690839495223230700,1.515230712890625,-0.9790496826171875,0.0034332275390625,0.0036163330078125
1690839495233271600,1.525271484375,-0.9794464111328125,0.003570556640625,0.003631591796875
1690839495243311600,1.5353115234375,-0.980438232421875,0.0035552978515625,0.004058837890625
1690839495253351700,1.5453515625,-0.980499267578125,0.0040283203125,0.0041961669921875
1690839495263391700,1.555391845703125,-0.9807586669921875,0.0030059814453125,0.0048980712890625
1690839495273432800,1.565432861328125,-0.9807891845703125,0.002960205078125,0.0049591064453125
1690839495283502600,1.575502685546875,-0.980987548828125,0.0034637451171875,0.0040283203125
1690839495293543700,1.585543701171875,-0.9803466796875,0.004119873046875,0.00335693359375
1690839495303583700,1.595583740234375,-0.9802398681640625,0.0037384033203125,0.0030670166015625
1690839495313623600,1.60562353515625,-0.9797210693359375,0.0038909912109375,0.0029449462890625
1690839495323664600,1.61566455078125,-0.980072021484375,0.0042266845703125,0.0029144287109375
1690839495333704700,1.62570458984375,-0.979888916015625,0.003692626953125,0.003753662109375
1690839495343744800,1.635744873046875,-0.9803924560546875,0.0037384033203125,0.003936767578125
1690839495353784800,1.645784912109375,-0.98028564453125,0.0037841796875,0.0036163330078125
1690839495363826000,1.655825927734375,-0.9808349609375,0.0039520263671875,0.00390625
1690839495373865700,1.66586572265625,-0.9799957275390625,0.003692626953125,0.004669189453125
1690839495383905500,1.675905517578125,-0.9802398681640625,0.003021240234375,0.00506591796875
1690839495393946600,1.685946533203125,-0.981048583984375,0.002593994140625,0.00341796875
1690839495403986700,1.695986572265625,-0.9812164306640625,0.0024261474609375,0.0038604736328125
1690839495414026800,1.70602685546875,-0.9809722900390625,0.0027923583984375,0.00390625
1690839495424066800,1.71606689453125,-0.97991943359375,0.00286865234375,0.0044403076171875
1690839495434108000,1.72610791015625,-0.98065185546875,0.003143310546875,0.00323486328125
1690839495444178700,1.7361787109375,-0.980865478515625,0.0035400390625,0.0035400390625
1690839495454218800,1.74621875,-0.980804443359375,0.0036163330078125,0.0040283203125
1690839495464258600,1.756258544921875,-0.9802093505859375,0.0037994384765625,0.0040283203125
1690839495474298600,1.766298583984375,-0.9806976318359375,0.0035858154296875,0.0037841796875
1690839495484339700,1.776339599609375,-0.9806060791015625,0.0037078857421875,0.0035247802734375
1690839495494379800,1.7863798828125,-0.980255126953125,0.00396728515625,0.00341796875
1690839495504419800,1.796419921875,-0.9802703857421875,0.003326416015625,0.0031585693359375
1690839495514461000,1.8064609375,-0.980438232421875,0.00341796875,0.004608154296875
1690839495524500700,1.816500732421875,-0.9813995361328125,0.003265380859375,0.0041046142578125
1690839495534540500,1.82654052734375,-0.9816741943359375,0.00238037109375,0.00433349609375
1690839495544580600,1.83658056640625,-0.981170654296875,0.002655029296875,0.0035400390625
1690839495554621700,1.84662158203125,-0.980194091796875,0.002716064453125,0.00390625
1690839495564661800,1.856661865234375,-0.980224609375,0.00299072265625,0.0042266845703125
1690839495574701800,1.866701904296875,-0.98052978515625,0.0032958984375,0.003814697265625
1690839495584746000,1.87674609375,-0.9804840087890625,0.00341796875,0.004669189453125
1690839495594786000,1.8867861328125,-0.9809112548828125,0.0037689208984375,0.0049285888671875
1690839495604856800,1.89685693359375,-0.980499267578125,0.0037384033203125,0.0044403076171875
1690839495614897000,1.90689697265625,-0.979766845703125,0.004058837890625,0.00457763671875
1690839495624936700,1.916936767578125,-0.9801483154296875,0.002960205078125,0.0048370361328125
1690839495634976800,1.926976806640625,-0.98046875,0.0030975341796875,0.0037078857421875
1690839495645017900,1.937017822265625,-0.98046875,0.0039520263671875,0.0038299560546875
1690839495655058000,1.947057861328125,-0.9799652099609375,0.0043182373046875,0.0041656494140625
1690839495665097700,1.95709765625,-0.981048583984375,0.004547119140625,0.00360107421875
1690839495675138800,1.967138916015625,-0.9803619384765625,0.0045013427734375,0.0044097900390625
1690839495685179000,1.977178955078125,-0.9800262451171875,0.0033111572265625,0.0040283203125
1690839495695218700,1.98721875,-0.9801483154296875,0.0030670166015625,0.0043792724609375
1690839495705258800,1.9972587890625,-0.98101806640625,0.0036468505859375,0.004638671875
1690839495715299800,2.0072998046875,-0.9811859130859375,0.00372314453125,0.0040130615234375
1690839495725340000,2.01733984375,-0.9805908203125,0.0034027099609375,0.00360107421875
1690839495735379700,2.027379638671875,-0.981292724609375,0.0030059814453125,0.00531005859375
1690839495745420800,2.0374208984375,-0.9817962646484375,0.0030670166015625,0.004730224609375
1690839495755460900,2.0474609375,-0.981109619140625,0.0042724609375,0.003814697265625
1690839495765532000,2.057531982421875,-0.9810638427734375,0.00335693359375,0.0034027099609375
1690839495775571700,2.06757177734375,-0.9804534912109375,0.003143310546875,0.003387451171875
1690839495785611800,2.07761181640625,-0.98016357421875,0.0026092529296875,0.0038909912109375
1690839495795651800,2.08765185546875,-0.98095703125,0.0027008056640625,0.004486083984375
1690839495805693000,2.09769287109375,-0.9813690185546875,0.0026397705078125,0.00518798828125
1690839495815732700,2.107732666015625,-0.9812774658203125,0.00286865234375,0.0049285888671875
1690839495825772800,2.117772705078125,-0.98126220703125,0.0027923583984375,0.0043182373046875
1690839495835814000,2.12781396484375,-0.9810028076171875,0.0034637451171875,0.004058837890625
1690839495845853700,2.137853759765625,-0.9811859130859375,0.003509521484375,0.0040435791015625
1690839495855893800,2.147893798828125,-0.9805450439453125,0.00384521484375,0.003265380859375
1690839495865933800,2.157933837890625,-0.9806365966796875,0.0035400390625,0.0034027099609375
1690839495875975000,2.167974853515625,-0.98089599609375,0.0035858154296875,0.0037384033203125
1690839495886014700,2.1780146484375,-0.9800262451171875,0.003875732421875,0.00347900390625
1690839495896054800,2.1880546875,-0.9808197021484375,0.0033416748046875,0.003326416015625
1690839495906095600,2.198095703125,-0.9821014404296875,0.0033111572265625,0.00396728515625
1690839495916135700,2.2081357421875,-0.9820709228515625,0.0034637451171875,0.0034637451171875
1690839495926206700,2.218206787109375,-0.9807281494140625,0.0031585693359375,0.0042877197265625
1690839495936246800,2.228246826171875,-0.980743408203125,0.0035400390625,0.0042877197265625
1690839495946286800,2.238286865234375,-0.9812774658203125,0.003265380859375,0.004180908203125
1690839495956328000,2.248327880859375,-0.9810943603515625,0.0033416748046875,0.004180908203125
1690839495966367700,2.25836767578125,-0.980804443359375,0.0037994384765625,0.004119873046875
1690839495976407800,2.26840771484375,-0.9802703857421875,0.0033721923828125,0.0031280517578125
1690839495986448000,2.27844775390625,-0.9810333251953125,0.00341796875,0.00408935546875
1690839495996488700,2.28848876953125,-0.98046875,0.0037841796875,0.003265380859375
1690839496006528800,2.29852880859375,-0.980682373046875,0.0034942626953125,0.003997802734375
1690839496016568800,2.30856884765625,-0.98101806640625,0.0033416748046875,0.0035400390625
1690839496026610000,2.31860986328125,-0.97998046875,0.0032196044921875,0.0031890869140625
1690839496036649700,2.328649658203125,-0.9814605712890625,0.0032958984375,0.0032501220703125
1690839496046689800,2.338689697265625,-0.9803924560546875,0.00384521484375,0.0040740966796875
1690839496056729900,2.348729736328125,-0.980621337890625,0.0043792724609375,0.00433349609375
1690839496066770700,2.358770751953125,-0.9809417724609375,0.0031280517578125,0.003936767578125
1690839496076841000,2.368841064453125,-0.9812164306640625,0.0037689208984375,0.00390625
1690839496086881800,2.3788818359375,-0.98089599609375,0.0035552978515625,0.0035552978515625
1690839496096921900,2.388921875,-0.9803466796875,0.0033111572265625,0.0034332275390625
1690839496106961700,2.398961669921875,-0.9810333251953125,0.0034942626953125,0.0045318603515625
1690839496117002800,2.409002685546875,-0.9813079833984375,0.003173828125,0.0048828125
1690839496127042800,2.419042724609375,-0.9820404052734375,0.0037689208984375,0.003997802734375
1690839496137083000,2.429082763671875,-0.980377197265625,0.0035400390625,0.0045623779296875
1690839496147123000,2.439123046875,-0.9808807373046875,0.0030670166015625,0.0037841796875
1690839496157163800,2.449163818359375,-0.980926513671875,0.0040283203125,0.004119873046875
1690839496167203800,2.459203857421875,-0.9810791015625,0.004241943359375,0.0042724609375
1690839496177243600,2.46924365234375,-0.982025146484375,0.0042877197265625,0.0037384033203125
1690839496187284700,2.47928466796875,-0.98199462890625,0.0041351318359375,0.0031280517578125
1690839496197324800,2.48932470703125,-0.9820556640625,0.00372314453125,0.0038909912109375
1690839496207364900,2.49936474609375,-0.98150634765625,0.003448486328125,0.0040130615234375
1690839496217405000,2.509405029296875,-0.9818572998046875,0.0027923583984375,0.0040435791015625
1690839496227445800,2.51944580078125,-0.981170654296875,0.00274658203125,0.0036773681640625
1690839496237516800,2.529516845703125,-0.9812469482421875,0.003021240234375,0.004150390625
1690839496247556900,2.539556884765625,-0.9806671142578125,0.0034942626953125,0.0040130615234375
1690839496257596700,2.5495966796875,-0.9802398681640625,0.003265380859375,0.00384521484375
1690839496267636700,2.55963671875,-0.9808807373046875,0.0032806396484375,0.0041656494140625
1690839496277677800,2.569677734375,-0.98095703125,0.002899169921875,0.0039215087890625
1690839496287718000,2.5797177734375,-0.9811859130859375,0.0039215087890625,0.0036773681640625
1690839496297758000,2.589758056640625,-0.980865478515625,0.0035858154296875,0.00335693359375
1690839496307798000,2.599798095703125,-0.979736328125,0.0030517578125,0.004241943359375
1690839496317838800,2.6098388671875,-0.981170654296875,0.003814697265625,0.0045318603515625
1690839496327878700,2.619878662109375,-0.9815826416015625,0.0036468505859375,0.00408935546875
1690839496337918700,2.629918701171875,-0.9821929931640625,0.003692626953125,0.0045623779296875
1690839496347959800,2.639959716796875,-0.9815826416015625,0.00323486328125,0.003692626953125
1690839496357999900,2.649999755859375,-0.98248291015625,0.00360107421875,0.003387451171875
1690839496368040000,2.6600400390625,-0.9816741943359375,0.0029754638671875,0.003143310546875
1690839496378080000,2.670080078125,-0.980377197265625,0.0034637451171875,0.00396728515625
1690839496388120800,2.680120849609375,-0.981170654296875,0.00335693359375,0.003326416015625
1690839496398191900,2.69019189453125,-0.9813079833984375,0.0038299560546875,0.0035247802734375
1690839496408231700,2.700231689453125,-0.98101806640625,0.0032196044921875,0.004425048828125
1690839496418271700,2.710271728515625,-0.981842041015625,0.0038604736328125,0.0041351318359375
1690839496428311800,2.720311767578125,-0.981109619140625,0.0034942626953125,0.0042266845703125
1690839496438353000,2.730352783203125,-0.9810943603515625,0.003387451171875,0.00396728515625
1690839496448393000,2.74039306640625,-0.98077392578125,0.00421142578125,0.0037078857421875
1690839496458433000,2.75043310546875,-0.9810791015625,0.0038299560546875,0.004669189453125
1690839496468473900,2.760473876953125,-0.9821014404296875,0.0028839111328125,0.0051116943359375
1690839496478513700,2.770513671875,-0.9808197021484375,0.0036773681640625,0.0038909912109375
1690839496488553700,2.7805537109375,-0.9799652099609375,0.0027923583984375,0.0041961669921875
1690839496498593800,2.79059375,-0.9809112548828125,0.0035247802734375,0.0035858154296875
1690839496508635000,2.800634765625,-0.98077392578125,0.003326416015625,0.00421142578125
1690839496518675000,2.810675048828125,-0.98095703125,0.0029754638671875,0.0039520263671875
1690839496528715000,2.820715087890625,-0.982177734375,0.0028533935546875,0.0034637451171875
1690839496538755800,2.830755859375,-0.9832916259765625,0.003570556640625,0.003509521484375
1690839496548795600,2.840795654296875,-0.981536865234375,0.003143310546875,0.0035400390625
1690839496558866700,2.85086669921875,-0.980987548828125,0.00360107421875,0.00341796875
1690839496568906800,2.86090673828125,-0.9818115234375,0.002655029296875,0.0034942626953125
1690839496578935300,2.870935302734375,-0.9814300537109375,0.0032806396484375,0.0034027099609375
1690839496588975400,2.880975341796875,-0.981414794921875,0.0044097900390625,0.0043487548828125
1690839496599016400,2.891016357421875,-0.98175048828125,0.0048065185546875,0.0037689208984375
1690839496609056500,2.901056396484375,-0.9820556640625,0.0057830810546875,0.0038604736328125
1690839496619096600,2.9110966796875,-0.9814300537109375,0.00616455078125,0.0045623779296875
1690839496629137400,2.921137451171875,-0.9814453125,0.005950927734375,0.0055999755859375
1690839496639177200,2.93117724609375,-0.981231689453125,0.00494384765625,0.00531005859375
1690839496649217300,2.94121728515625,-0.9808502197265625,0.0042877197265625,0.00506591796875
1690839496659257300,2.95125732421875,-0.9801483154296875,0.0026092529296875,0.0045928955078125
1690839496669298400,2.96129833984375,-0.98114013671875,0.000579833984375,0.0034332275390625
1690839496679338500,2.97133837890625,-0.981719970703125,-0.000396728515625,0.00213623046875
1690839496689378600,2.981378662109375,-0.9814910888671875,-0.0006256103515625,0.00164794921875
1690839496699419400,2.99141943359375,-0.9824371337890625,-0.0009002685546875,0.001983642578125
1690839496709459500,3.00145947265625,-0.983062744140625,0.0009613037109375,0.0033721923828125
1690839496719530200,3.0115302734375,-0.9836578369140625,0.0030517578125,0.005340576171875
1690839496729570300,3.0215703125,-0.98333740234375,0.0054168701171875,0.0059967041015625
1690839496739610400,3.0316103515625,-0.981231689453125,0.0079498291015625,0.0066986083984375
1690839496749651500,3.0416513671875,-0.980316162109375,0.0094451904296875,0.0059661865234375
1690839496759691500,3.05169140625,-0.97906494140625,0.0092926025390625,0.0050506591796875
1690839496769731600,3.061731689453125,-0.978515625,0.0074615478515625,0.00323486328125
1690839496779771400,3.071771484375,-0.9793853759765625,0.0053558349609375,0.0032806396484375
1690839496789812200,3.081812255859375,-0.980712890625,0.002685546875,0.0030517578125
1690839496799852300,3.091852294921875,-0.9824371337890625,0.0002593994140625,0.002105712890625
1690839496809892400,3.101892333984375,-0.9835052490234375,-0.0018157958984375,0.0032806396484375
1690839496819932400,3.111932373046875,-0.9836273193359375,-0.002349853515625,0.004364013671875
1690839496829973500,3.121973388671875,-0.98291015625,-0.001983642578125,0.0029296875
1690839496840013600,3.132013671875,-0.9828338623046875,0.0007171630859375,0.00311279296875
1690839496850053600,3.1420537109375,-0.9821624755859375,0.0033721923828125,0.0040130615234375
1690839496860094500,3.152094482421875,-0.97955322265625,0.004486083984375,0.004364013671875
1690839496870134300,3.16213427734375,-0.9792938232421875,0.0072784423828125,0.004608154296875
1690839496880205300,3.172205322265625,-0.980438232421875,0.0082550048828125,0.004119873046875
1690839496890245400,3.182245361328125,-0.979644775390625,0.0076751708984375,0.0047607421875
1690839496900285400,3.192285400390625,-0.980712890625,0.0064697265625,0.00421142578125
1690839496910326500,3.202326416015625,-0.9812164306640625,0.00457763671875,0.0024261474609375
1690839496920366600,3.21236669921875,-0.9821014404296875,0.003143310546875,0.0026397705078125
1690839496930406400,3.222406494140625,-0.98345947265625,0.0010986328125,0.0032501220703125
1690839496940446500,3.232446533203125,-0.983306884765625,0.001800537109375,0.002960205078125
1690839496950487300,3.2424873046875,-0.9831085205078125,0.0015106201171875,0.0036773681640625
1690839496960527400,3.25252734375,-0.9817657470703125,0.0017547607421875,0.004241943359375
1690839496970567400,3.2625673828125,-0.98138427734375,0.0027923583984375,0.0050811767578125
1690839496980608500,3.2726083984375,-0.9816131591796875,0.00299072265625,0.00482177734375
1690839496990648600,3.282648681640625,-0.9805450439453125,0.0040435791015625,0.0039215087890625
1690839497000688600,3.292688720703125,-0.9796905517578125,0.004058837890625,0.0044708251953125
1690839497010728400,3.302728515625,-0.9803466796875,0.004486083984375,0.00390625
1690839497020769300,3.312769287109375,-0.98126220703125,0.0045928955078125,0.0031585693359375
1690839497030809300,3.322809326171875,-0.981475830078125,0.004241943359375,0.003082275390625
1690839497040880400,3.33288037109375,-0.9813079833984375,0.0043182373046875,0.002471923828125
1690839497050920400,3.34292041015625,-0.982147216796875,0.0033721923828125,0.0034942626953125
1690839497060960500,3.35296044921875,-0.981353759765625,0.003326416015625,0.0035552978515625
1690839497071001600,3.363001708984375,-0.9818878173828125,0.00439453125,0.0032958984375
1690839497081041400,3.37304150390625,-0.9810638427734375,0.0041046142578125,0.0034027099609375
1690839497091081500,3.38308154296875,-0.9805145263671875,0.0028533935546875,0.0040283203125
1690839497101121500,3.39312158203125,-0.980865478515625,0.0026397705078125,0.0043487548828125
1690839497111162400,3.403162353515625,-0.982147216796875,0.00244140625,0.004608154296875
1690839497121202400,3.413202392578125,-0.983184814453125,0.0022735595703125,0.0046844482421875
1690839497131242500,3.423242431640625,-0.982635498046875,0.0029449462890625,0.0041351318359375
1690839497141283600,3.43328369140625,-0.982696533203125,0.0030975341796875,0.0039825439453125
1690839497151323400,3.443323486328125,-0.982940673828125,0.0036163330078125,0.0031585693359375
1690839497161363500,3.453363525390625,-0.980865478515625,0.004547119140625,0.0030364990234375
1690839497171403500,3.463403564453125,-0.9806365966796875,0.00494384765625,0.0040435791015625
1690839497181444400,3.4734443359375,-0.980255126953125,0.0050048828125,0.004486083984375
1690839497191484400,3.483484375,-0.9809417724609375,0.0045013427734375,0.004058837890625
1690839497201555500,3.493555419921875,-0.9818267822265625,0.00372314453125,0.0042724609375
1690839497211595500,3.503595458984375,-0.9811248779296875,0.002899169921875,0.00421142578125
1690839497221635300,3.51363525390625,-0.9809112548828125,0.0025787353515625,0.0050201416015625
1690839497231676400,3.523676513671875,-0.9821014404296875,0.0023193359375,0.0045166015625
1690839497241716500,3.533716552734375,-0.982208251953125,0.002197265625,0.00360107421875
1690839497251756500,3.543756591796875,-0.9819488525390625,0.0021209716796875,0.00299072265625
1690839497261796400,3.55379638671875,-0.98187255859375,0.0033111572265625,0.003021240234375
1690839497271837400,3.56383740234375,-0.980987548828125,0.0030517578125,0.0034942626953125
1690839497281877500,3.57387744140625,-0.9803466796875,0.00445556640625,0.0034637451171875
1690839497291917300,3.583917236328125,-0.980377197265625,0.00445556640625,0.0036468505859375
1690839497301958400,3.59395849609375,-0.9812774658203125,0.0046234130859375,0.0046234130859375
1690839497311998500,3.60399853515625,-0.9806671142578125,0.0042266845703125,0.004852294921875
1690839497322038500,3.61403857421875,-0.981475830078125,0.0040740966796875,0.004852294921875
1690839497332078300,3.624078369140625,-0.982452392578125,0.0032958984375,0.0048675537109375
1690839497342119400,3.634119384765625,-0.9818878173828125,0.0020904541015625,0.004425048828125
1690839497352159500,3.644159423828125,-0.98187255859375,0.0014190673828125,0.0041961669921875
1690839497362230500,3.65423046875,-0.98284912109375,0.00274658203125,0.0028228759765625
1690839497372270300,3.664270263671875,-0.9829559326171875,0.0031280517578125,0.0033416748046875
1690839497382310400,3.674310302734375,-0.9807891845703125,0.003387451171875,0.0034637451171875
1690839497392351500,3.6843515625,-0.981231689453125,0.0035247802734375,0.0027618408203125
1690839497402391600,3.6943916015625,-0.98138427734375,0.00421142578125,0.00341796875
1690839497412431400,3.704431396484375,-0.9811859130859375,0.0042266845703125,0.003570556640625
1690839497422472400,3.714472412109375,-0.980926513671875,0.0042266845703125,0.004974365234375
1690839497432512500,3.724512451171875,-0.9814453125,0.0037841796875,0.005035400390625
1690839497442552300,3.73455224609375,-0.9824981689453125,0.002960205078125,0.0045928955078125
1690839497452592400,3.74459228515625,-0.98162841796875,0.0029296875,0.0041351318359375
1690839497462633500,3.754633544921875,-0.982177734375,0.002410888671875,0.0037841796875
1690839497472673500,3.764673583984375,-0.9826507568359375,0.0024566650390625,0.0033416748046875
1690839497482713300,3.77471337890625,-0.9803619384765625,0.00299072265625,0.003936767578125
1690839497492754400,3.78475439453125,-0.98089599609375,0.00299072265625,0.0039520263671875
1690839497502794500,3.79479443359375,-0.9803009033203125,0.0038604736328125,0.0031585693359375
1690839497512834600,3.80483447265625,-0.9810028076171875,0.0042572021484375,0.003631591796875
1690839497522905300,3.8149052734375,-0.9810333251953125,0.0048370361328125,0.00311279296875
1690839497532945400,3.8249453125,-0.981536865234375,0.003662109375,0.004486083984375
1690839497542985500,3.8349853515625,-0.981201171875,0.0032958984375,0.00494384765625
1690839497553026600,3.845026611328125,-0.9817657470703125,0.002777099609375,0.0049591064453125
1690839497563066400,3.85506640625,-0.9821014404296875,0.0023651123046875,0.004638671875
1690839497573106400,3.8651064453125,-0.98248291015625,0.00341796875,0.0040740966796875
1690839497583153200,3.875153076171875,-0.98223876953125,0.0035858154296875,0.003173828125
1690839497593193200,3.885193115234375,-0.9812469482421875,0.0036468505859375,0.0030364990234375
1690839497603233000,3.89523291015625,-0.9813995361328125,0.0037841796875,0.00341796875
1690839497613273000,3.905273193359375,-0.9812774658203125,0.0035400390625,0.003387451171875
1690839497623314200,3.915314208984375,-0.9812469482421875,0.0032958984375,0.002899169921875
1690839497633354200,3.925354248046875,-0.98126220703125,0.00347900390625,0.0041656494140625
1690839497643394300,3.935394287109375,-0.9810028076171875,0.003326416015625,0.004669189453125
1690839497653435100,3.94543505859375,-0.981842041015625,0.00250244140625,0.004791259765625
1690839497663475200,3.95547509765625,-0.981903076171875,0.002349853515625,0.0045623779296875
1690839497673515000,3.965514892578125,-0.98248291015625,0.00286865234375,0.00347900390625
1690839497683586000,3.9755859375,-0.9808197021484375,0.0035247802734375,0.0036163330078125
1690839497693626000,3.985626220703125,-0.9818878173828125,0.003448486328125,0.0042724609375
1690839497703667200,3.995667236328125,-0.9824371337890625,0.003631591796875,0.003204345703125
1690839497713707300,4.005707275390625,-0.9806671142578125,0.0041961669921875,0.0030059814453125
1690839497723747300,4.015747314453125,-0.9811859130859375,0.003936767578125,0.00390625
1690839497733787400,4.025787353515625,-0.9814300537109375,0.002838134765625,0.0032958984375
1690839497743828200,4.035828125,-0.98211669921875,0.0038299560546875,0.00335693359375
1690839497753868000,4.045867919921875,-0.980926513671875,0.0031280517578125,0.003936767578125
1690839497763908000,4.055908203125,-0.9803466796875,0.003082275390625,0.00445556640625
1690839497773948200,4.0659482421875,-0.981048583984375,0.00341796875,0.0039215087890625
1690839497783989200,4.0759892578125,-0.9818878173828125,0.0032806396484375,0.0037384033203125
1690839497794029300,4.086029296875,-0.981842041015625,0.00372314453125,0.004241943359375
1690839497804069400,4.0960693359375,-0.98095703125,0.00421142578125,0.0039825439453125
1690839497814110200,4.106110107421875,-0.9815521240234375,0.003692626953125,0.0040435791015625
1690839497824150000,4.11614990234375,-0.9813232421875,0.0037078857421875,0.0038604736328125
1690839497834221000,4.126220947265625,-0.98077392578125,0.0039520263671875,0.0040740966796875
1690839497844261000,4.13626123046875,-0.9814910888671875,0.003662109375,0.0043182373046875
1690839497854301200,4.14630126953125,-0.9816741943359375,0.0037841796875,0.00396728515625
1690839497864342300,4.15634228515625,-0.98150634765625,0.003326416015625,0.0042266845703125
1690839497874382300,4.16638232421875,-0.9825439453125,0.0025634765625,0.0046234130859375
1690839497884422400,4.17642236328125,-0.9813232421875,0.0032196044921875,0.0045928955078125
1690839497894462200,4.186462158203125,-0.9812469482421875,0.0024871826171875,0.0045623779296875
1690839497904503000,4.1965029296875,-0.981536865234375,0.002960205078125,0.00408935546875
1690839497914543000,4.206543212890625,-0.9807281494140625,0.0036163330078125,0.0044403076171875
1690839497924583200,4.216583251953125,-0.981170654296875,0.00360107421875,0.0036468505859375
1690839497934624300,4.226624267578125,-0.981475830078125,0.00347900390625,0.003204345703125
1690839497944664300,4.236664306640625,-0.982696533203125,0.002716064453125,0.0043182373046875
1690839497954704400,4.246704345703125,-0.9821624755859375,0.0039215087890625,0.0042877197265625
1690839497964744200,4.256744140625,-0.9818115234375,0.0034027099609375,0.003753662109375
1690839497974785000,4.266784912109375,-0.981842041015625,0.003875732421875,0.0043792724609375
1690839497984825000,4.2768251953125,-0.98162841796875,0.003631591796875,0.0047149658203125
1690839497994896100,4.286896240234375,-0.981170654296875,0.003875732421875,0.003204345703125
1690839498004936200,4.296936279296875,-0.98199462890625,0.0027923583984375,0.0038299560546875
1690839498014976300,4.306976318359375,-0.982513427734375,0.0035858154296875,0.0042877197265625
1690839498025017300,4.317017333984375,-0.9816436767578125,0.0038299560546875,0.0046234130859375
1690839498035057400,4.327057373046875,-0.9806365966796875,0.0032958984375,0.004425048828125
1690839498045097200,4.33709716796875,-0.9822235107421875,0.002593994140625,0.003387451171875
1690839498055137300,4.34713720703125,-0.982086181640625,0.0035858154296875,0.0041656494140625
1690839498065178000,4.35717822265625,-0.981048583984375,0.0040130615234375,0.0041351318359375
1690839498075218200,4.36721826171875,-0.981689453125,0.0026397705078125,0.00439453125
1690839498085258200,4.37725830078125,-0.9819183349609375,0.00286865234375,0.004058837890625
1690839498095299300,4.38729931640625,-0.9818878173828125,0.00360107421875,0.0027618408203125
1690839498105339400,4.39733935546875,-0.980316162109375,0.0035858154296875,0.003082275390625
1690839498115379200,4.407379150390625,-0.971954345703125,0.00347900390625,0.0030517578125
1690839498125419300,4.417419189453125,-0.9786224365234375,-0.0121002197265625,-0.021942138671875
1690839498135460000,4.427460205078125,-1.0047454833984375,0.02789306640625,0.0380096435546875
1690839498145500200,4.437500244140625,-0.973358154296875,-0.0025177001953125,0.0109100341796875
1690839498155571200,4.4475712890625,-0.98663330078125,0.00140380859375,0.0086517333984375
1690839498165611300,4.457611328125,-0.9842376708984375,0.0003814697265625,0.0005035400390625
1690839498175651000,4.467651123046875,-0.977142333984375,0.000152587890625,-0.007049560546875
1690839498185692200,4.477692138671875,-0.9796600341796875,0.0035400390625,-0.007171630859375
1690839498195732200,4.487732177734375,-0.975799560546875,0.00689697265625,-0.00299072265625
1690839498205772300,4.497772216796875,-0.9824371337890625,0.0062713623046875,0.00506591796875
1690839498215813000,4.507813232421875,-0.9828948974609375,0.0070953369140625,0.013336181640625
1690839498225853200,4.517853271484375,-0.9844970703125,0.0066070556640625,0.01568603515625
1690839498235893200,4.527893310546875,-0.9830322265625,0.00506591796875,0.0109405517578125
1690839498245933300,4.537933349609375,-0.9814453125,0.0034637451171875,0.0045623779296875
1690839498255974400,4.547974365234375,-0.9810943603515625,0.0021514892578125,-0.0015411376953125
1690839498266014200,4.55801416015625,-0.97662353515625,0.001800537109375,-0.0036773681640625
1690839498276054000,4.568053955078125,-0.983856201171875,0.0019989013671875,-0.0013427734375
1690839498286094000,4.578093994140625,-0.9794464111328125,0.0018768310546875,0.003631591796875
1690839498296135200,4.58813525390625,-0.983734130859375,0.0026397705078125,0.0083770751953125
1690839498306175200,4.59817529296875,-0.9833831787109375,0.0030059814453125,0.0103759765625
1690839498316246300,4.608246337890625,-0.98260498046875,0.0037689208984375,0.0091705322265625
1690839498326286000,4.6182861328125,-0.9828033447265625,0.004302978515625,0.0057220458984375
1690839498336326100,4.628326171875,-0.979461669921875,0.0054168701171875,0.002044677734375
1690839498346367200,4.6383671875,-0.9810943603515625,0.005401611328125,0.0002899169921875
1690839498356407000,4.648406982421875,-0.9790191650390625,0.0053863525390625,0.00048828125
1690839498366447000,4.658447021484375,-0.9806365966796875,0.0048828125,0.001617431640625
1690839498376488200,4.66848828125,-0.98114013671875,0.0040740966796875,0.00439453125
1690839498386528300,4.6785283203125,-0.983917236328125,0.00311279296875,0.0069732666015625
1690839498396568300,4.688568359375,-0.9806365966796875,0.0030975341796875,0.0081939697265625
1690839498406608100,4.698608154296875,-0.9839019775390625,0.0020599365234375,0.00604248046875
1690839498416649200,4.708649169921875,-0.9822998046875,0.002685546875,0.0034027099609375
1690839498426689000,4.71868896484375,-0.9807891845703125,0.0025482177734375,0.0017852783203125
1690839498436729000,4.72872900390625,-0.98162841796875,0.0022125244140625,0.0012359619140625
1690839498446770200,4.738770263671875,-0.9796600341796875,0.0032958984375,0.001953125
1690839498456810200,4.748810302734375,-0.9817962646484375,0.0032501220703125,0.004119873046875
1690839498466850300,4.758850341796875,-0.981536865234375,0.004180908203125,0.0046844482421875
1690839498476921000,4.768921142578125,-0.9818878173828125,0.0046844482421875,0.005706787109375
1690839498486961200,4.778961181640625,-0.982666015625,0.00555419921875,0.006500244140625
1690839498497001200,4.789001220703125,-0.9817962646484375,0.0050201416015625,0.0050048828125
1690839498507042000,4.7990419921875,-0.982574462890625,0.004364013671875,0.0039215087890625
1690839498517082000,4.80908203125,-0.981048583984375,0.0040435791015625,0.0022125244140625
1690839498527122200,4.8191220703125,-0.9800872802734375,0.0037841796875,0.0021820068359375
1690839498537163300,4.829163330078125,-0.981903076171875,0.0030975341796875,0.0031585693359375
1690839498547203300,4.839203369140625,-0.9832916259765625,0.0030670166015625,0.0038909912109375
1690839498557243100,4.8492431640625,-0.9821929931640625,0.0027313232421875,0.005828857421875
1690839498567283200,4.859283203125,-0.9824981689453125,0.00323486328125,0.005462646484375
1690839498577324000,4.869323974609375,-0.9810791015625,0.003204345703125,0.0043792724609375
1690839498587363300,4.87936328125,-0.98114013671875,0.0034942626953125,0.0043487548828125
1690839498597403400,4.8894033203125,-0.9808197021484375,0.0042877197265625,0.0034637451171875
1690839498607444200,4.8994443359375,-0.9804229736328125,0.0043182373046875,0.003692626953125
1690839498617484300,4.909484375,-0.9822540283203125,0.00518798828125,0.003173828125
1690839498627524400,4.9195244140625,-0.9813385009765625,0.0046234130859375,0.0045928955078125
1690839498637595400,4.929595458984375,-0.98126220703125,0.0037994384765625,0.00494384765625
1690839498647635500,4.939635498046875,-0.9816436767578125,0.0048675537109375,0.0048828125
1690839498657676500,4.949676513671875,-0.9816741943359375,0.00396728515625,0.0048980712890625
1690839498667716400,4.95971630859375,-0.9825286865234375,0.002288818359375,0.0036468505859375
1690839498677756400,4.96975634765625,-0.9816131591796875,0.0026397705078125,0.0034027099609375
1690839498687796500,4.97979638671875,-0.9811859130859375,0.003204345703125,0.00372314453125
1690839498697837300,4.98983740234375,-0.9810638427734375,0.0030975341796875,0.003753662109375
1690839498707877400,4.99987744140625,-0.98077392578125,0.0030670166015625,0.0037384033203125
1690839498717917400,5.00991748046875,-0.9820404052734375,0.003936767578125,0.0053253173828125
1690839498727958500,5.01995849609375,-0.9822845458984375,0.004547119140625,0.0057525634765625
1690839498737998300,5.029998291015625,-0.9816131591796875,0.0039215087890625,0.005645751953125
1690839498748038400,5.040038330078125,-0.981689453125,0.003936767578125,0.004730224609375
1690839498758078500,5.050078369140625,-0.9814453125,0.0042572021484375,0.0042724609375
1690839498768119300,5.060119384765625,-0.980804443359375,0.003753662109375,0.0045013427734375
1690839498778159400,5.070159423828125,-0.9821014404296875,0.003631591796875,0.0041961669921875
1690839498788199400,5.080199462890625,-0.981964111328125,0.00372314453125,0.0032806396484375
1690839498798270500,5.0902705078125,-0.9811859130859375,0.0030364990234375,0.004180908203125
1690839498808310300,5.100310302734375,-0.982940673828125,0.0032501220703125,0.004730224609375
1690839498818351400,5.110351318359375,-0.98248291015625,0.0029754638671875,0.004119873046875
1690839498828391400,5.120391357421875,-0.9814910888671875,0.003265380859375,0.004241943359375
1690839498838431200,5.13043115234375,-0.9827117919921875,0.0032501220703125,0.0037384033203125
1690839498848471300,5.14047119140625,-0.981597900390625,0.0039520263671875,0.003509521484375
1690839498858512400,5.150512451171875,-0.98095703125,0.0045013427734375,0.0044403076171875
1690839498868552400,5.160552490234375,-0.980926513671875,0.0042266845703125,0.003692626953125
1690839498878592300,5.17059228515625,-0.9815826416015625,0.003692626953125,0.004180908203125
1690839498888633300,5.18063330078125,-0.98248291015625,0.0037994384765625,0.004913330078125
1690839498898673400,5.19067333984375,-0.982574462890625,0.0043487548828125,0.0050201416015625
1690839498908713200,5.200713134765625,-0.9826812744140625,0.0037841796875,0.0038909912109375
1690839498918753300,5.210753173828125,-0.9814300537109375,0.0041656494140625,0.0038909912109375
1690839498928794400,5.22079443359375,-0.9819488525390625,0.0037841796875,0.0037994384765625
1690839498938834400,5.23083447265625,-0.9825897216796875,0.0034332275390625,0.003814697265625
1690839498948874200,5.240874267578125,-0.982696533203125,0.004364013671875,0.003875732421875
1690839498958945300,5.2509453125,-0.982177734375,0.0043792724609375,0.00390625
1690839498968985300,5.2609853515625,-0.98150634765625,0.0041351318359375,0.004058837890625
1690839498979026400,5.2710263671875,-0.9807586669921875,0.0041961669921875,0.004974365234375
1690839498989066200,5.281066162109375,-0.9814453125,0.0035247802734375,0.0048828125
1690839498999106300,5.291106201171875,-0.9816741943359375,0.0035552978515625,0.0045166015625
1690839499009146400,5.301146484375,-0.981842041015625,0.0045928955078125,0.00421142578125
1690839499019187500,5.3111875,-0.9814453125,0.004425048828125,0.00433349609375
1690839499029227300,5.321227294921875,-0.9815216064453125,0.0040130615234375,0.003753662109375
1690839499039267300,5.331267333984375,-0.981536865234375,0.003997802734375,0.0042724609375
1690839499049308400,5.341308349609375,-0.9838104248046875,0.00360107421875,0.0050201416015625
1690839499059348200,5.35134814453125,-0.98211669921875,0.003509521484375,0.00396728515625
1690839499069388300,5.36138818359375,-0.9819793701171875,0.00262451171875,0.00421142578125
1690839499079428400,5.371428466796875,-0.98175048828125,0.00250244140625,0.0039215087890625
1690839499089469400,5.381469482421875,-0.982666015625,0.003204345703125,0.0044708251953125
1690839499099509200,5.39150927734375,-0.9811859130859375,0.0030059814453125,0.004119873046875
1690839499109549300,5.40154931640625,-0.98016357421875,0.004058837890625,0.0039215087890625
1690839499119620400,5.411620361328125,-0.981292724609375,0.0038299560546875,0.0046234130859375
1690839499129660400,5.421660400390625,-0.9810028076171875,0.0041351318359375,0.0047454833984375
1690839499139701200,5.431701171875,-0.9815673828125,0.003875732421875,0.0041351318359375
1690839499149741300,5.4417412109375,-0.981842041015625,0.00390625,0.004638671875
1690839499159781400,5.451781494140625,-0.98150634765625,0.0035858154296875,0.0040435791015625
1690839499169822500,5.461822509765625,-0.98016357421875,0.003692626953125,0.0037841796875
1690839499179862300,5.4718623046875,-0.9816131591796875,0.0033721923828125,0.0041961669921875
1690839499189902300,5.48190234375,-0.9813079833984375,0.0030517578125,0.004974365234375
1690839499199942400,5.4919423828125,-0.9821014404296875,0.0029449462890625,0.0046539306640625
1690839499209983200,5.501983154296875,-0.9815521240234375,0.0036163330078125,0.00445556640625
1690839499220023300,5.512023193359375,-0.980224609375,0.0033721923828125,0.0047454833984375
1690839499230063400,5.5220634765625,-0.9813232421875,0.0037384033203125,0.004058837890625
1690839499240103200,5.532103271484375,-0.980987548828125,0.004638671875,0.0035552978515625
1690839499250144300,5.542144287109375,-0.9812469482421875,0.0039215087890625,0.0044403076171875
1690839499260184300,5.552184326171875,-0.981353759765625,0.0034027099609375,0.0040740966796875
1690839499270224400,5.562224365234375,-0.981781005859375,0.0040435791015625,0.0047454833984375
1690839499280295400,5.57229541015625,-0.982025146484375,0.0040283203125,0.0045318603515625
1690839499290335500,5.58233544921875,-0.980560302734375,0.0035552978515625,0.0041046142578125
1690839499300376300,5.592376220703125,-0.98187255859375,0.0035247802734375,0.004058837890625
1690839499310416400,5.60241650390625,-0.98193359375,0.0033721923828125,0.003448486328125
1690839499320456200,5.612456298828125,-0.9818572998046875,0.00347900390625,0.0040283203125
1690839499330497300,5.622497314453125,-0.9810943603515625,0.004425048828125,0.004547119140625
1690839499340537300,5.632537353515625,-0.9819183349609375,0.0040130615234375,0.0050048828125
1690839499350577400,5.642577392578125,-0.98101806640625,0.0038299560546875,0.004608154296875
1690839499360617500,5.652617431640625,-0.9810791015625,0.0037841796875,0.0052032470703125
1690839499370658300,5.662658203125,-0.9814605712890625,0.0040740966796875,0.00457763671875
1690839499380698400,5.672698486328125,-0.9810638427734375,0.00372314453125,0.00341796875
1690839499390738200,5.68273828125,-0.9813079833984375,0.0033111572265625,0.0040740966796875
1690839499400779300,5.692779296875,-0.9814300537109375,0.00372314453125,0.0040740966796875
1690839499410819300,5.7028193359375,-0.9821624755859375,0.00384521484375,0.00372314453125
1690839499420859400,5.712859375,-0.98248291015625,0.0028533935546875,0.0039520263671875
1690839499430930400,5.722930419921875,-0.9812774658203125,0.00347900390625,0.0038604736328125
1690839499440970500,5.732970458984375,-0.981964111328125,0.0032958984375,0.003753662109375
1690839499451010600,5.743010498046875,-0.982177734375,0.0035858154296875,0.0045623779296875
1690839499461051400,5.753051513671875,-0.9814910888671875,0.0042266845703125,0.0045318603515625
1690839499471091200,5.76309130859375,-0.980743408203125,0.003997802734375,0.0044403076171875
1690839499481131300,5.77313134765625,-0.9813232421875,0.0040740966796875,0.005157470703125
1690839499491172400,5.78317236328125,-0.981719970703125,0.00494384765625,0.0049285888671875
1690839499501212400,5.79321240234375,-0.981903076171875,0.00408935546875,0.0038909912109375
1690839499511252500,5.80325244140625,-0.98162841796875,0.00360107421875,0.0041046142578125
1690839499521292500,5.81329248046875,-0.981414794921875,0.0033111572265625,0.0045928955078125
1690839499531333400,5.82333349609375,-0.9822235107421875,0.0033721923828125,0.0039520263671875
1690839499541373200,5.833373291015625,-0.9815521240234375,0.003326416015625,0.003631591796875
1690839499551413200,5.843413330078125,-0.9814453125,0.0032958984375,0.0045166015625
1690839499561454300,5.853454345703125,-0.98223876953125,0.00360107421875,0.004730224609375
1690839499571494400,5.863494384765625,-0.98309326171875,0.003936767578125,0.0041046142578125
1690839499581510000,5.873510009765625,-0.9818878173828125,0.0037994384765625,0.0045623779296875
1690839499591581000,5.883580810546875,-0.9818572998046875,0.0039215087890625,0.0038604736328125
1690839499601621000,5.89362109375,-0.9820098876953125,0.0039520263671875,0.004852294921875
1690839499611661800,5.903661865234375,-0.9817657470703125,0.00341796875,0.0042724609375
1690839499621701600,5.91370166015625,-0.981292724609375,0.003143310546875,0.0038909912109375
1690839499631741700,5.92374169921875,-0.9820098876953125,0.0040283203125,0.0038909912109375
1690839499641781800,5.93378173828125,-0.98175048828125,0.0040740966796875,0.00372314453125
1690839499651822800,5.94382275390625,-0.982452392578125,0.0039215087890625,0.0043487548828125
1690839499661863000,5.95386279296875,-0.981903076171875,0.00457763671875,0.0036773681640625
1690839499671903000,5.963903076171875,-0.9803924560546875,0.003631591796875,0.003875732421875
1690839499681943800,5.97394384765625,-0.9820404052734375,0.00311279296875,0.0036163330078125
1690839499691983600,5.983983642578125,-0.98260498046875,0.00341796875,0.00482177734375
1690839499702023700,5.994023681640625,-0.9820404052734375,0.0034332275390625,0.0045928955078125
1690839499712063700,6.004063720703125,-0.98187255859375,0.0041656494140625,0.0039215087890625
1690839499722104800,6.014104736328125,-0.9813385009765625,0.00372314453125,0.003875732421875
1690839499732145000,6.024144775390625,-0.982391357421875,0.0032501220703125,0.004241943359375
1690839499742185000,6.03418505859375,-0.9815216064453125,0.0034332275390625,0.0035858154296875
1690839499752256000,6.044256103515625,-0.9815216064453125,0.0037384033203125,0.0043792724609375
1690839499762295800,6.0542958984375,-0.9824066162109375,0.0043487548828125,0.0048828125
1690839499772336600,6.064336669921875,-0.98187255859375,0.003448486328125,0.0048828125
1690839499782376700,6.074376708984375,-0.981689453125,0.0035552978515625,0.0050201416015625
1690839499792416800,6.084416748046875,-0.98193359375,0.003570556640625,0.0036163330078125
1690839499802456800,6.094456787109375,-0.9821929931640625,0.003662109375,0.0035247802734375
1690839499812498000,6.104497802734375,-0.981719970703125,0.0037078857421875,0.0043182373046875
1690839499822538000,6.1145380859375,-0.98052978515625,0.003631591796875,0.00445556640625
1690839499832577800,6.124577880859375,-0.9812469482421875,0.00396728515625,0.00421142578125
1690839499842618600,6.13461865234375,-0.981964111328125,0.0039520263671875,0.0041961669921875
1690839499852658700,6.14465869140625,-0.9810333251953125,0.00274658203125,0.0045166015625
1690839499862698800,6.15469873046875,-0.982025146484375,0.0037384033203125,0.00482177734375
1690839499872738800,6.16473876953125,-0.9828338623046875,0.00396728515625,0.0038604736328125
1690839499882780000,6.17477978515625,-0.9825897216796875,0.003204345703125,0.0047607421875
1690839499892820000,6.184820068359375,-0.982208251953125,0.0038604736328125,0.003814697265625
1690839499902860000,6.194860107421875,-0.9817352294921875,0.0042724609375,0.0045166015625
1690839499912930800,6.204930908203125,-0.9822845458984375,0.003448486328125,0.00494384765625
1690839499922971000,6.214970947265625,-0.9817962646484375,0.0036163330078125,0.004791259765625
1690839499933011700,6.22501171875,-0.9816131591796875,0.003326416015625,0.0044403076171875
1690839499943051800,6.2350517578125,-0.98175048828125,0.00341796875,0.0037994384765625
1690839499953091800,6.245091796875,-0.98193359375,0.0031585693359375,0.0043792724609375
1690839499963132000,6.2551318359375,-0.9819793701171875,0.003936767578125,0.003936767578125
1690839499973173000,6.265173095703125,-0.9818878173828125,0.0041961669921875,0.003997802734375
1690839499983212800,6.275212890625,-0.9814605712890625,0.004302978515625,0.00341796875
1690839499993252900,6.2852529296875,-0.981781005859375,0.003631591796875,0.0038604736328125
1690839500003293700,6.295293701171875,-0.9829864501953125,0.003570556640625,0.0045928955078125
1690839500013333800,6.305333740234375,-0.982666015625,0.0041046142578125,0.0040283203125
1690839500023373800,6.315373779296875,-0.981475830078125,0.003753662109375,0.00396728515625
1690839500033414000,6.325413818359375,-0.9816131591796875,0.003875732421875,0.0041351318359375
1690839500043455000,6.335455078125,-0.981231689453125,0.00457763671875,0.004150390625
1690839500053495000,6.3454951171875,-0.9819793701171875,0.0042572021484375,0.0044097900390625
1690839500063534800,6.355534912109375,-0.9814300537109375,0.0032958984375,0.0043487548828125
1690839500073606000,6.36560595703125,-0.9812774658203125,0.003265380859375,0.004486083984375
1690839500083645700,6.375645751953125,-0.981109619140625,0.0034637451171875,0.0048065185546875
1690839500093686800,6.385686767578125,-0.9812469482421875,0.0036468505859375,0.004058837890625
1690839500103726800,6.395726806640625,-0.982025146484375,0.0035247802734375,0.004058837890625
1690839500113767000,6.405766845703125,-0.981903076171875,0.003936767578125,0.004608154296875
1690839500123808000,6.41580810546875,-0.9816436767578125,0.0037689208984375,0.00390625
1690839500133847800,6.425847900390625,-0.9814605712890625,0.0039825439453125,0.003814697265625
1690839500143888000,6.435887939453125,-0.98175048828125,0.0032958984375,0.0042266845703125
1690839500153927700,6.445927734375,-0.982177734375,0.00421142578125,0.0041961669921875
1690839500163968800,6.45596875,-0.9822998046875,0.0033721923828125,0.0041656494140625
1690839500174008800,6.4660087890625,-0.9818267822265625,0.003082275390625,0.0038299560546875
1690839500184049000,6.476048828125,-0.981689453125,0.0034637451171875,0.0035858154296875
1690839500194090000,6.486090087890625,-0.98236083984375,0.0029449462890625,0.0035552978515625
1690839500204129800,6.4961298828125,-0.98101806640625,0.0031585693359375,0.0030670166015625
1690839500214169900,6.506169921875,-0.98077392578125,0.002899169921875,0.004150390625
1690839500224209700,6.516209716796875,-0.9817962646484375,0.0034942626953125,0.0039520263671875
1690839500234280700,6.52628076171875,-0.980926513671875,0.0034027099609375,0.00457763671875
1690839500244320800,6.53632080078125,-0.981719970703125,0.0037994384765625,0.004180908203125
1690839500254361900,6.54636181640625,-0.9820709228515625,0.003662109375,0.004150390625
1690839500264402000,6.55640185546875,-0.9818267822265625,0.0031280517578125,0.004425048828125
1690839500274441700,6.566441650390625,-0.980560302734375,0.0031585693359375,0.00457763671875
1690839500284482800,6.57648291015625,-0.9819793701171875,0.0040130615234375,0.0040283203125
1690839500294523000,6.58652294921875,-0.98223876953125,0.00408935546875,0.0040435791015625
1690839500304562700,6.596562744140625,-0.981964111328125,0.003692626953125,0.0042266845703125
1690839500314602800,6.606602783203125,-0.9812164306640625,0.0034637451171875,0.003570556640625
1690839500324643800,6.616643798828125,-0.9821014404296875,0.003570556640625,0.0042266845703125
1690839500334684000,6.626683837890625,-0.9829559326171875,0.003265380859375,0.0032958984375
1690839500344723700,6.6367236328125,-0.98175048828125,0.0040435791015625,0.004150390625
1690839500354764800,6.646764892578125,-0.9813385009765625,0.0035552978515625,0.0042724609375
1690839500364804900,6.656804931640625,-0.981475830078125,0.0035858154296875,0.0046539306640625
1690839500374844700,6.6668447265625,-0.982086181640625,0.00396728515625,0.0044708251953125
1690839500384884700,6.676884765625,-0.9814453125,0.004669189453125,0.00421142578125
1690839500394955800,6.686955810546875,-0.9810333251953125,0.00347900390625,0.0042724609375
1690839500404995800,6.696995849609375,-0.9821319580078125,0.0035400390625,0.0044097900390625
1690839500415037000,6.707036865234375,-0.98150634765625,0.0038299560546875,0.003448486328125
1690839500425076700,6.71707666015625,-0.9808807373046875,0.0033111572265625,0.0033416748046875
1690839500435116800,6.72711669921875,-0.9815673828125,0.0040130615234375,0.0038604736328125
1690839500445158000,6.737157958984375,-0.98193359375,0.004150390625,0.0049591064453125
1690839500455197700,6.74719775390625,-0.9817962646484375,0.00347900390625,0.0054779052734375
1690839500465237800,6.75723779296875,-0.9826507568359375,0.0038909912109375,0.0051727294921875
1690839500475277800,6.76727783203125,-0.9815673828125,0.0036163330078125,0.004058837890625
1690839500485319000,6.77731884765625,-0.9817352294921875,0.0029296875,0.0038909912109375
1690839500495358700,6.787358642578125,-0.98138427734375,0.0035858154296875,0.004058837890625
1690839500505398800,6.797398681640625,-0.981536865234375,0.0038299560546875,0.0050506591796875
1690839500515439900,6.80743994140625,-0.9809112548828125,0.0045166015625,0.00506591796875
1690839500525479700,6.817479736328125,-0.9817047119140625,0.0031890869140625,0.004241943359375
1690839500535519700,6.827519775390625,-0.9812774658203125,0.0031890869140625,0.004180908203125
1690839500545559800,6.837559814453125,-0.9823455810546875,0.003662109375,0.0044097900390625
1690839500555630800,6.847630859375,-0.98175048828125,0.004180908203125,0.0041656494140625
1690839500565672000,6.857671875,-0.9818115234375,0.0036468505859375,0.0036773681640625
1690839500575711700,6.867711669921875,-0.9815521240234375,0.003997802734375,0.0036468505859375
1690839500585762600,6.877762451171875,-0.981719970703125,0.004302978515625,0.004058837890625
1690839500595802600,6.887802734375,-0.981903076171875,0.004241943359375,0.00445556640625
1690839500605843500,6.897843505859375,-0.982635498046875,0.0042724609375,0.0044097900390625
1690839500615883300,6.90788330078125,-0.981964111328125,0.004302978515625,0.004669189453125
1690839500625923300,6.91792333984375,-0.9814605712890625,0.0036773681640625,0.00445556640625
1690839500635964400,6.92796435546875,-0.9805145263671875,0.00384521484375,0.0044403076171875
1690839500646004500,6.93800439453125,-0.980743408203125,0.003662109375,0.00445556640625
1690839500656044500,6.94804443359375,-0.9826507568359375,0.003204345703125,0.0037994384765625
1690839500666084600,6.958084716796875,-0.9819488525390625,0.00384521484375,0.00390625
1690839500676125400,6.96812548828125,-0.9816741943359375,0.0037384033203125,0.0034637451171875
1690839500686165200,6.978165283203125,-0.9811859130859375,0.0041656494140625,0.003997802734375
1690839500696205300,6.988205322265625,-0.9826812744140625,0.0040283203125,0.0039825439453125
1690839500706246400,6.998246337890625,-0.98193359375,0.0034637451171875,0.0041046142578125
1690839500716316400,7.00831640625,-0.9823760986328125,0.003692626953125,0.00421142578125
1690839500726357500,7.018357421875,-0.982391357421875,0.0040435791015625,0.0049285888671875
1690839500736397600,7.0283974609375,-0.9820709228515625,0.00384521484375,0.0051116943359375
1690839500746437600,7.038437744140625,-0.982147216796875,0.00372314453125,0.00537109375
1690839500756477400,7.0484775390625,-0.981475830078125,0.0038909912109375,0.0045013427734375
1690839500766518300,7.058518310546875,-0.9820556640625,0.0044403076171875,0.00433349609375
1690839500776558300,7.068558349609375,-0.9814453125,0.0038909912109375,0.00421142578125
1690839500786598400,7.078598388671875,-0.982086181640625,0.0028839111328125,0.003265380859375
1690839500796639500,7.088639404296875,-0.9820709228515625,0.0035552978515625,0.0040435791015625
1690839500806679600,7.098679443359375,-0.9821014404296875,0.00390625,0.004058837890625
1690839500816719600,7.1087197265625,-0.981536865234375,0.0033416748046875,0.0045318603515625
1690839500826759400,7.118759521484375,-0.9810028076171875,0.0037078857421875,0.00396728515625
1690839500836800300,7.12880029296875,-0.9808807373046875,0.0040130615234375,0.0039215087890625
1690839500846840300,7.13884033203125,-0.98211669921875,0.0037689208984375,0.00457763671875
1690839500856880400,7.14888037109375,-0.9823455810546875,0.00360107421875,0.0050048828125
1690839500866921500,7.15892138671875,-0.9822845458984375,0.003326416015625,0.0047760009765625
1690839500876991500,7.168991455078125,-0.9818572998046875,0.0041351318359375,0.0046539306640625
1690839500887032600,7.179032470703125,-0.981842041015625,0.0041351318359375,0.0045928955078125
1690839500897072600,7.18907275390625,-0.9814910888671875,0.003204345703125,0.0045928955078125
1690839500907112400,7.199112548828125,-0.9813690185546875,0.0040740966796875,0.00360107421875
1690839500917152500,7.209152587890625,-0.98089599609375,0.0040740966796875,0.00360107421875
1690839500927193300,7.219193359375,-0.9812164306640625,0.0043792724609375,0.0041046142578125
1690839500937233400,7.2292333984375,-0.9816131591796875,0.0046234130859375,0.0040435791015625
1690839500947273500,7.2392734375,-0.9810638427734375,0.003265380859375,0.0037841796875
1690839500957314600,7.249314453125,-0.9816741943359375,0.00274658203125,0.0042877197265625
1690839500967354600,7.259354736328125,-0.9823150634765625,0.003387451171875,0.0043792724609375
1690839500977394400,7.26939453125,-0.9813385009765625,0.0035400390625,0.0045928955078125
1690839500987434500,7.2794345703125,-0.981658935546875,0.00372314453125,0.00433349609375
1690839500997475300,7.289475341796875,-0.98193359375,0.00286865234375,0.004730224609375
1690839501007515400,7.299515380859375,-0.9816741943359375,0.0045318603515625,0.0045166015625
1690839501017555500,7.309555419921875,-0.98150634765625,0.00360107421875,0.00372314453125
1690839501027596500,7.319596435546875,-0.981689453125,0.0037384033203125,0.0040435791015625
1690839501037666300,7.329666259765625,-0.981231689453125,0.0044708251953125,0.0037994384765625
1690839501047707400,7.339707275390625,-0.9819183349609375,0.00384521484375,0.00323486328125
1690839501057747500,7.34974755859375,-0.9821014404296875,0.003448486328125,0.0040435791015625
1690839501067787500,7.35978759765625,-0.9822235107421875,0.0036163330078125,0.0034332275390625
1690839501077828400,7.369828369140625,-0.9818267822265625,0.0030059814453125,0.0043182373046875
1690839501087868400,7.379868408203125,-0.9815826416015625,0.00347900390625,0.0040283203125
1690839501097908500,7.389908447265625,-0.9820556640625,0.0036468505859375,0.0036163330078125
1690839501107948500,7.399948486328125,-0.98162841796875,0.004241943359375,0.004119873046875
1690839501117989600,7.40998974609375,-0.9817657470703125,0.0032958984375,0.0050506591796875
1690839501128029400,7.420029541015625,-0.981536865234375,0.003662109375,0.0045623779296875
1690839501138069500,7.430069580078125,-0.9812469482421875,0.003662109375,0.004852294921875
1690839501148110300,7.4401103515625,-0.97979736328125,0.003387451171875,0.00445556640625
1690839501158150400,7.450150390625,-0.9822998046875,0.003326416015625,0.0037384033203125
1690839501168190500,7.4601904296875,-0.9821014404296875,0.0041046142578125,0.003936767578125
1690839501178230500,7.47023046875,-0.9817657470703125,0.0037384033203125,0.004119873046875
1690839501188301300,7.48030126953125,-0.980987548828125,0.0036773681640625,0.004058837890625
1690839501198341400,7.49034130859375,-0.9813995361328125,0.003814697265625,0.003997802734375
1690839501208382500,7.500382568359375,-0.982147216796875,0.0044097900390625,0.00323486328125
1690839501218422500,7.510422607421875,-0.9814453125,0.00360107421875,0.0037689208984375
1690839501228462300,7.52046240234375,-0.9817962646484375,0.003570556640625,0.004241943359375
1690839501238503400,7.53050341796875,-0.9821014404296875,0.0031585693359375,0.0049591064453125
1690839501248543500,7.54054345703125,-0.9818267822265625,0.00341796875,0.004302978515625
1690839501258583600,7.55058349609375,-0.9821624755859375,0.003509521484375,0.00335693359375
1690839501268623400,7.560623291015625,-0.982269287109375,0.003631591796875,0.0038299560546875
1690839501278664400,7.57066455078125,-0.9825286865234375,0.004058837890625,0.003936767578125
1690839501288704500,7.58070458984375,-0.9814910888671875,0.0035858154296875,0.0036468505859375
1690839501298744300,7.590744384765625,-0.9820709228515625,0.0037689208984375,0.0040130615234375
1690839501308785400,7.600785400390625,-0.9817962646484375,0.0032958984375,0.0034027099609375
1690839501318825500,7.610825439453125,-0.981964111328125,0.0034637451171875,0.0044403076171875
1690839501328865500,7.620865478515625,-0.9813385009765625,0.0032806396484375,0.0041046142578125
1690839501338905300,7.6309052734375,-0.98077392578125,0.0038299560546875,0.0043792724609375
1690839501348976400,7.640976318359375,-0.980682373046875,0.00396728515625,0.0039825439453125
1690839501359017500,7.651017578125,-0.9814605712890625,0.003936767578125,0.00421142578125
1690839501369057500,7.6610576171875,-0.981536865234375,0.0031585693359375,0.0037078857421875
1690839501379097300,7.671097412109375,-0.981109619140625,0.003753662109375,0.0047607421875
1690839501389137400,7.681137451171875,-0.9817352294921875,0.003631591796875,0.0045623779296875
1690839501399178500,7.691178466796875,-0.9818267822265625,0.004608154296875,0.00390625
1690839501409218600,7.701218505859375,-0.98138427734375,0.00360107421875,0.0041656494140625
1690839501419258400,7.71125830078125,-0.9823760986328125,0.0033416748046875,0.0042877197265625
1690839501429298400,7.72129833984375,-0.9816436767578125,0.0033416748046875,0.004119873046875
1690839501439339500,7.731339599609375,-0.9813690185546875,0.0032196044921875,0.0044708251953125
1690839501449379300,7.74137939453125,-0.9810638427734375,0.0042724609375,0.0045166015625
1690839501459419400,7.75141943359375,-0.981842041015625,0.0036468505859375,0.0040283203125
1690839501469460500,7.76146044921875,-0.98248291015625,0.0041351318359375,0.00469970703125
1690839501479500500,7.77150048828125,-0.9819793701171875,0.0034942626953125,0.0044708251953125
1690839501489540400,7.781540283203125,-0.98211669921875,0.0042266845703125,0.0032806396484375
1690839501499580400,7.791580322265625,-0.982086181640625,0.0042724609375,0.0040130615234375
1690839501509651500,7.8016513671875,-0.981231689453125,0.00286865234375,0.0040740966796875
1690839501519692500,7.811692626953125,-0.9815521240234375,0.0037384033203125,0.004058837890625
1690839501529732400,7.821732421875,-0.9825439453125,0.003814697265625,0.00433349609375
1690839501539772400,7.8317724609375,-0.98199462890625,0.00372314453125,0.0035247802734375
1690839501549812500,7.8418125,-0.9823760986328125,0.0036773681640625,0.003936767578125
1690839501559853600,7.851853515625,-0.98193359375,0.003753662109375,0.0043487548828125
1690839501569893400,7.861893310546875,-0.9825286865234375,0.004058837890625,0.0043792724609375
1690839501579933400,7.871933349609375,-0.981536865234375,0.003936767578125,0.0045166015625
1690839501589943800,7.88194384765625,-0.98193359375,0.0032958984375,0.0042724609375
1690839501599983900,7.89198388671875,-0.982086181640625,0.0041961669921875,0.004119873046875
1690839501610024000,7.90202392578125,-0.9815521240234375,0.0043792724609375,0.004425048828125
1690839501620064000,7.91206396484375,-0.98223876953125,0.00390625,0.00396728515625
1690839501630105000,7.92210498046875,-0.982177734375,0.0034637451171875,0.0045013427734375
1690839501640145200,7.932145263671875,-0.981475830078125,0.003143310546875,0.0044403076171875
1690839501650185000,7.94218505859375,-0.9810791015625,0.0040740966796875,0.003997802734375
1690839501660225800,7.952225830078125,-0.9817657470703125,0.0041961669921875,0.004425048828125
1690839501670296000,7.962296142578125,-0.9825439453125,0.0036468505859375,0.004852294921875
1690839501680337000,7.9723369140625,-0.981903076171875,0.003326416015625,0.0043792724609375
1690839501690377000,7.982376953125,-0.9811859130859375,0.0031585693359375,0.0040283203125
1690839501700417000,7.9924169921875,-0.98150634765625,0.0039215087890625,0.0037384033203125
1690839501710457000,8.00245703125,-0.981353759765625,0.004119873046875,0.0038909912109375
1690839501720498200,8.012498291015625,-0.9817352294921875,0.0037078857421875,0.0038909912109375
1690839501730538000,8.0225380859375,-0.9813995361328125,0.0035247802734375,0.004302978515625
1690839501740578000,8.032578125,-0.9813079833984375,0.0035858154296875,0.0039215087890625
1690839501750619000,8.042618896484376,-0.9817047119140625,0.004119873046875,0.004669189453125
1690839501760659000,8.052658935546875,-0.9828643798828125,0.00396728515625,0.004241943359375
1690839501770699000,8.062698974609376,-0.9819488525390625,0.0044403076171875,0.0042724609375
1690839501780739000,8.072739013671875,-0.981475830078125,0.003936767578125,0.00457763671875
1690839501790780200,8.0827802734375,-0.9805450439453125,0.00457763671875,0.003936767578125
1690839501800820000,8.092820068359375,-0.9814300537109375,0.003265380859375,0.00372314453125
1690839501810860000,8.102860107421876,-0.982513427734375,0.0036468505859375,0.00445556640625
1690839501820900900,8.11290087890625,-0.9816131591796875,0.003631591796875,0.00421142578125
1690839501830971000,8.122970947265625,-0.9811248779296875,0.0035400390625,0.00372314453125
1690839501841012000,8.133011962890626,-0.9816741943359375,0.0042266845703125,0.0048370361328125
1690839501851052000,8.143052001953125,-0.98175048828125,0.004180908203125,0.003997802734375
1690839501861092000,8.153092041015626,-0.9820098876953125,0.0042724609375,0.0032196044921875
1690839501871132000,8.1631318359375,-0.982879638671875,0.0035247802734375,0.00445556640625
1690839501881173000,8.173173095703126,-0.98236083984375,0.0037078857421875,0.004119873046875
1690839501891213000,8.183213134765625,-0.9813232421875,0.0045013427734375,0.0044097900390625
1690839501901252900,8.1932529296875,-0.9816131591796875,0.0044403076171875,0.0051727294921875
1690839501911294000,8.2032939453125,-0.9818267822265625,0.003753662109375,0.0040283203125
1690839501921334000,8.213333984375,-0.9820404052734375,0.00421142578125,0.0036163330078125
1690839501931374000,8.2233740234375,-0.98095703125,0.0042724609375,0.00390625
1690839501941414000,8.233413818359375,-0.98150634765625,0.0041351318359375,0.00421142578125
1690839501951455000,8.243455078125,-0.9821014404296875,0.004058837890625,0.00421142578125
1690839501961495000,8.2534951171875,-0.981689453125,0.0035552978515625,0.0049591064453125
1690839501971534800,8.263534912109375,-0.982025146484375,0.003082275390625,0.004486083984375
1690839501981576000,8.273575927734376,-0.98223876953125,0.0033416748046875,0.004150390625
1690839501991646000,8.28364599609375,-0.9822998046875,0.00311279296875,0.0040435791015625
1690839502001687000,8.29368701171875,-0.9818572998046875,0.00445556640625,0.003936767578125
1690839502011727000,8.30372705078125,-0.982086181640625,0.0045928955078125,0.004150390625
1690839502021767000,8.313766845703125,-0.98126220703125,0.0036468505859375,0.0041046142578125
1690839502031808000,8.32380810546875,-0.980682373046875,0.004119873046875,0.0049285888671875
1690839502041848000,8.33384814453125,-0.982208251953125,0.0039215087890625,0.0043182373046875
1690839502051887900,8.343887939453126,-0.98223876953125,0.00372314453125,0.0038299560546875
1690839502061928000,8.353927978515625,-0.9822845458984375,0.0040435791015625,0.004486083984375
1690839502071969000,8.363968994140626,-0.9820709228515625,0.0032501220703125,0.004547119140625
1690839502082009000,8.374009033203125,-0.9813995361328125,0.003265380859375,0.00421142578125
1690839502092049000,8.384048828125,-0.981597900390625,0.0040283203125,0.0040435791015625
1690839502102090000,8.394090087890625,-0.9813690185546875,0.003692626953125,0.0037078857421875
1690839502112130000,8.404130126953126,-0.9818878173828125,0.0040283203125,0.0045318603515625
1690839502122169900,8.414169921875,-0.98211669921875,0.0042877197265625,0.004730224609375
1690839502132210000,8.4242099609375,-0.9820709228515625,0.00384521484375,0.004547119140625
1690839502142251000,8.4342509765625,-0.9811859130859375,0.0035552978515625,0.00439453125
1690839502152320800,8.44432080078125,-0.9812774658203125,0.003387451171875,0.003936767578125
1690839502162361900,8.45436181640625,-0.9821014404296875,0.0042877197265625,0.0041351318359375
1690839502172402000,8.46440185546875,-0.981597900390625,0.004425048828125,0.003631591796875
1690839502182442000,8.47444189453125,-0.98101806640625,0.003662109375,0.0041046142578125
1690839502192483000,8.484483154296875,-0.9815216064453125,0.0040130615234375,0.00390625
1690839502202523000,8.49452294921875,-0.9817657470703125,0.003875732421875,0.0034332275390625
1690839502212563000,8.50456298828125,-0.98211669921875,0.003265380859375,0.0039825439453125
1690839502222603000,8.51460302734375,-0.981597900390625,0.00372314453125,0.0043487548828125
1690839502232644000,8.52464404296875,-0.9825286865234375,0.0045318603515625,0.0036163330078125
1690839502242684000,8.534683837890626,-0.98223876953125,0.0043792724609375,0.0041351318359375
1690839502252724000,8.544723876953125,-0.981689453125,0.0040740966796875,0.004638671875
1690839502262765000,8.55476513671875,-0.9817657470703125,0.0029754638671875,0.00433349609375
1690839502272804900,8.564804931640625,-0.9820098876953125,0.0040130615234375,0.004241943359375
1690839502282845000,8.574844970703126,-0.9816131591796875,0.0034027099609375,0.0041961669921875
1690839502292885000,8.584885009765625,-0.9821319580078125,0.0041046142578125,0.0045166015625
1690839502302926000,8.594926025390626,-0.981842041015625,0.0034942626953125,0.0042724609375
1690839502312996900,8.604996826171876,-0.9808807373046875,0.0035858154296875,0.0040130615234375
1690839502323037000,8.615036865234375,-0.98175048828125,0.00390625,0.0041351318359375
1690839502333077000,8.625076904296876,-0.981903076171875,0.0041961669921875,0.00482177734375
1690839502343117000,8.635116943359375,-0.9810028076171875,0.0040435791015625,0.0045318603515625
1690839502353158000,8.645157958984376,-0.9811553955078125,0.003143310546875,0.00494384765625
1690839502363198000,8.655197998046875,-0.981781005859375,0.0029296875,0.0044403076171875
1690839502373238000,8.665238037109376,-0.9814605712890625,0.0033111572265625,0.00360107421875
1690839502383277800,8.67527783203125,-0.9815216064453125,0.002899169921875,0.0047149658203125
1690839502393319000,8.68531884765625,-0.9820556640625,0.0032501220703125,0.005340576171875
1690839502403359000,8.69535888671875,-0.982421875,0.0043792724609375,0.0045623779296875
1690839502413399000,8.70539892578125,-0.9810333251953125,0.0045623779296875,0.004119873046875
1690839502423440000,8.71543994140625,-0.9814300537109375,0.0039825439453125,0.00469970703125
1690839502433480000,8.72547998046875,-0.9820709228515625,0.0034027099609375,0.0044097900390625
1690839502443520000,8.73552001953125,-0.9810028076171875,0.0029449462890625,0.005035400390625
1690839502453559800,8.745559814453125,-0.9809722900390625,0.00408935546875,0.004425048828125
1690839502463601000,8.755600830078125,-0.98175048828125,0.0045623779296875,0.004180908203125
1690839502473672000,8.765671875,-0.9822998046875,0.00347900390625,0.00445556640625
1690839502483712000,8.7757119140625,-0.981781005859375,0.0034027099609375,0.004425048828125
1690839502493752000,8.785751953125,-0.9825897216796875,0.0034637451171875,0.0039215087890625
1690839502503792000,8.795792236328126,-0.9829559326171875,0.0030059814453125,0.003997802734375
1690839502513833000,8.8058330078125,-0.981689453125,0.00286865234375,0.00384521484375
1690839502523873000,8.815873046875,-0.9820098876953125,0.0037689208984375,0.00341796875
1690839502533912800,8.825912841796875,-0.9810638427734375,0.0038299560546875,0.00421142578125
1690839502543954000,8.835953857421876,-0.98089599609375,0.0038909912109375,0.0041656494140625
1690839502553994000,8.845993896484375,-0.981475830078125,0.004791259765625,0.0042572021484375
1690839502564034000,8.856033935546876,-0.98138427734375,0.0052490234375,0.004547119140625
1690839502574074000,8.86607421875,-0.9811553955078125,0.0037841796875,0.0035858154296875
1690839502584114200,8.8761142578125,-0.9815216064453125,0.0039215087890625,0.0037384033203125
1690839502594154200,8.886154296875,-0.9821624755859375,0.0040130615234375,0.0042266845703125
1690839502604194000,8.896194091796875,-0.982452392578125,0.0032958984375,0.00457763671875
1690839502614235100,8.906235107421875,-0.9825592041015625,0.0030975341796875,0.0037384033203125
1690839502624305000,8.916304931640624,-0.9824371337890625,0.0039520263671875,0.0042877197265625
1690839502634346000,8.926345947265625,-0.9815521240234375,0.00360107421875,0.004638671875
1690839502644386000,8.936385986328125,-0.98175048828125,0.004302978515625,0.004150390625
1690839502654426000,8.946426025390625,-0.9818572998046875,0.00439453125,0.0036468505859375
1690839502664466200,8.956466064453124,-0.982177734375,0.0037689208984375,0.00335693359375
1690839502674507300,8.96650732421875,-0.9812469482421875,0.00311279296875,0.0039215087890625
1690839502684547000,8.976547119140625,-0.981231689453125,0.003631591796875,0.00396728515625
1690839502694587000,8.9865869140625,-0.980987548828125,0.003662109375,0.004241943359375
1690839502704628000,8.9966279296875,-0.9819793701171875,0.00323486328125,0.0045928955078125
1690839502714668000,9.00666796875,-0.9820556640625,0.0032196044921875,0.003662109375
1690839502724708000,9.0167080078125,-0.9809722900390625,0.0033416748046875,0.0045318603515625
1690839502734748200,9.026748046875,-0.981353759765625,0.0036163330078125,0.004241943359375
1690839502744789200,9.036789306640625,-0.9815826416015625,0.00390625,0.003692626953125
1690839502754829000,9.0468291015625,-0.9818878173828125,0.003997802734375,0.00390625
1690839502764869000,9.056869140625,-0.983001708984375,0.0037994384765625,0.003692626953125
1690839502774910200,9.06691015625,-0.9813385009765625,0.0033111572265625,0.003692626953125
1690839502784980000,9.07697998046875,-0.981781005859375,0.00384521484375,0.0037994384765625
1690839502795021000,9.08702099609375,-0.9817657470703125,0.003509521484375,0.00482177734375
1690839502805061000,9.09706103515625,-0.9814300537109375,0.003204345703125,0.0048065185546875
1690839502815101200,9.10710107421875,-0.9810638427734375,0.00360107421875,0.0046844482421875
1690839502825142300,9.117142333984376,-0.9810943603515625,0.003936767578125,0.0043792724609375
1690839502835182000,9.12718212890625,-0.982177734375,0.0040130615234375,0.0041656494140625
1690839502845222000,9.137221923828125,-0.982086181640625,0.003692626953125,0.0043792724609375
1690839502855262000,9.147261962890624,-0.981964111328125,0.0035552978515625,0.0043182373046875
1690839502865303000,9.157302978515625,-0.9816436767578125,0.00384521484375,0.003997802734375
1690839502875343000,9.167343017578125,-0.982269287109375,0.003173828125,0.0041656494140625
1690839502885383200,9.177383056640625,-0.981109619140625,0.003875732421875,0.0040435791015625
1690839502895423200,9.18742333984375,-0.9819793701171875,0.003387451171875,0.0038604736328125
1690839502905464000,9.197464111328125,-0.98175048828125,0.0037994384765625,0.0041351318359375
1690839502915504000,9.207504150390625,-0.9814910888671875,0.0036163330078125,0.005126953125
1690839502925544000,9.2175439453125,-0.981170654296875,0.0033416748046875,0.005157470703125
1690839502935585000,9.2275849609375,-0.9816741943359375,0.003814697265625,0.004547119140625
1690839502945655000,9.237655029296874,-0.981292724609375,0.004608154296875,0.003875732421875
1690839502955696000,9.247696044921875,-0.982208251953125,0.0040130615234375,0.0046844482421875
1690839502965736200,9.257736083984375,-0.9816131591796875,0.0038604736328125,0.0047760009765625
1690839502975776300,9.2677763671875,-0.98114013671875,0.0037078857421875,0.0042724609375
1690839502985817000,9.277817138671875,-0.9818572998046875,0.0038299560546875,0.003997802734375
1690839502995857000,9.28785693359375,-0.9815826416015625,0.0034332275390625,0.004150390625
1690839503005897000,9.29789697265625,-0.9814300537109375,0.003387451171875,0.003692626953125
1690839503015937000,9.30793701171875,-0.98236083984375,0.0032501220703125,0.0050048828125
1690839503025978000,9.31797802734375,-0.9818572998046875,0.0040130615234375,0.0051422119140625
1690839503036018200,9.32801806640625,-0.9823455810546875,0.004180908203125,0.0043182373046875
1690839503046058200,9.338058349609375,-0.98199462890625,0.0044097900390625,0.003753662109375
1690839503056099000,9.34809912109375,-0.9814300537109375,0.00384521484375,0.00457763671875
1690839503066139100,9.35813916015625,-0.982147216796875,0.0033721923828125,0.004364013671875
1690839503076179000,9.368178955078125,-0.98101806640625,0.0038909912109375,0.00445556640625
1690839503086219000,9.378218994140624,-0.981048583984375,0.0034637451171875,0.0050048828125
1690839503096260000,9.388260009765625,-0.9820098876953125,0.003753662109375,0.0039825439453125
1690839503106330000,9.398330078125,-0.981781005859375,0.0039520263671875,0.0045928955078125
1690839503116371200,9.40837109375,-0.9823150634765625,0.003662109375,0.0042266845703125
1690839503126411300,9.418411376953125,-0.9816436767578125,0.00384521484375,0.004425048828125
1690839503136451000,9.428451171875,-0.9824676513671875,0.0045166015625,0.004608154296875
1690839503146492000,9.438491943359375,-0.9831390380859375,0.0037384033203125,0.0045013427734375
1690839503156532000,9.448531982421875,-0.9824066162109375,0.0040283203125,0.00408935546875
1690839503166572000,9.458572021484375,-0.9826202392578125,0.003509521484375,0.003875732421875
1690839503176612000,9.468612060546874,-0.982391357421875,0.0044097900390625,0.0049896240234375
1690839503186653200,9.478653076171875,-0.98193359375,0.0040283203125,0.004425048828125
1690839503196693200,9.488693359375,-0.9807586669921875,0.0035552978515625,0.004058837890625
1690839503206733000,9.498733154296875,-0.981475830078125,0.0039825439453125,0.00433349609375
1690839503216774000,9.50877392578125,-0.981689453125,0.003631591796875,0.00506591796875
1690839503226814000,9.51881396484375,-0.9808502197265625,0.0035247802734375,0.004913330078125
1690839503236854000,9.52885400390625,-0.9810791015625,0.003997802734375,0.0041046142578125
1690839503246894000,9.53889404296875,-0.9810333251953125,0.004425048828125,0.00469970703125
1690839503256935200,9.54893505859375,-0.98187255859375,0.0037689208984375,0.004913330078125
1690839503267006200,9.559006103515625,-0.982452392578125,0.004119873046875,0.0044403076171875
1690839503277046300,9.56904638671875,-0.9816436767578125,0.0044403076171875,0.0041656494140625
1690839503287086000,9.579086181640625,-0.981414794921875,0.00445556640625,0.003387451171875
1690839503297126100,9.589126220703125,-0.9814910888671875,0.0042572021484375,0.0042724609375
1690839503307167000,9.5991669921875,-0.9814453125,0.00408935546875,0.0047149658203125
1690839503317207000,9.60920703125,-0.982208251953125,0.003936767578125,0.0047607421875
1690839503327247000,9.6192470703125,-0.9816436767578125,0.00408935546875,0.004058837890625
1690839503337288200,9.6292880859375,-0.9821014404296875,0.0030364990234375,0.0047607421875
1690839503347328300,9.639328369140625,-0.981597900390625,0.00335693359375,0.004608154296875
1690839503357368000,9.6493681640625,-0.980743408203125,0.0041961669921875,0.0040130615234375
1690839503367408000,9.659408203125,-0.98150634765625,0.0034332275390625,0.003753662109375
1690839503377449000,9.669448974609375,-0.9819488525390625,0.0029296875,0.0039215087890625
1690839503387489000,9.679489013671875,-0.981903076171875,0.0034637451171875,0.0033111572265625
1690839503397529000,9.689529052734375,-0.98175048828125,0.003082275390625,0.00372314453125
1690839503407569200,9.699569091796874,-0.981658935546875,0.00360107421875,0.0033416748046875
1690839503417610200,9.7096103515625,-0.981597900390625,0.004302978515625,0.0045318603515625
1690839503427681300,9.719681396484376,-0.9813079833984375,0.00384521484375,0.0040740966796875
1690839503437721000,9.72972119140625,-0.9814453125,0.0040130615234375,0.0044403076171875
1690839503447761200,9.73976123046875,-0.98046875,0.003509521484375,0.0048828125
1690839503457801200,9.74980126953125,-0.9811248779296875,0.0030059814453125,0.00433349609375
1690839503467842000,9.759842041015625,-0.981689453125,0.0035858154296875,0.003875732421875
1690839503477882000,9.769882080078125,-0.982666015625,0.0039825439453125,0.0048370361328125
1690839503487922200,9.779922119140625,-0.98260498046875,0.003082275390625,0.003875732421875
1690839503497963300,9.78996337890625,-0.98150634765625,0.0036163330078125,0.004791259765625
1690839503508003000,9.800003173828125,-0.9810791015625,0.0035247802734375,0.0045928955078125
1690839503518043100,9.810043212890625,-0.9815673828125,0.0036773681640625,0.0043487548828125
1690839503528083200,9.820083251953125,-0.981231689453125,0.004241943359375,0.0042572021484375
1690839503538124000,9.8301240234375,-0.981170654296875,0.004150390625,0.003997802734375
1690839503548164000,9.8401640625,-0.9807891845703125,0.0037841796875,0.0037841796875
1690839503558204200,9.8502041015625,-0.9807586669921875,0.003509521484375,0.0046234130859375
1690839503568245200,9.860245361328126,-0.9820404052734375,0.0039215087890625,0.0037689208984375
1690839503578285300,9.870285400390625,-0.9819488525390625,0.004486083984375,0.0042572021484375
1690839503588339700,9.880339599609375,-0.9813690185546875,0.0039215087890625,0.0048065185546875
1690839503598379500,9.890379638671876,-0.9818572998046875,0.003387451171875,0.004425048828125
1690839503608419600,9.900419677734375,-0.9819488525390625,0.0026092529296875,0.0042572021484375
1690839503618459600,9.910459716796876,-0.9817657470703125,0.0031585693359375,0.0043792724609375
1690839503628500700,9.920500732421875,-0.9472503662109375,0.01416015625,-0.0077056884765625
1690839503638540800,9.930540771484376,-1.0311737060546875,0.0132598876953125,0.0286407470703125
1690839503648580900,9.940580810546875,-0.9638214111328125,-0.016204833984375,0.0052947998046875
1690839503658621700,9.95062158203125,-0.9893951416015625,-0.0188751220703125,-0.0046539306640625
1690839503668661500,9.96066162109375,-1.004730224609375,-0.0308685302734375,0.01885986328125
1690839503678701600,9.97070166015625,-0.97650146484375,0.0113067626953125,0.0019073486328125
1690839503688741600,9.98074169921875,-0.97540283203125,0.0117340087890625,-0.014617919921875
1690839503698782700,9.99078271484375,-0.9787139892578125,0.00341796875,-0.0025177001953125
1690839503708822800,10.00082275390625,-0.975677490234375,0.0191802978515625,0.0015869140625
1690839503718862800,10.01086279296875,-0.9752197265625,0.0257720947265625,0.0028228759765625
1690839503728903700,10.020903564453125,-0.973785400390625,0.02288818359375,0.01129150390625
1690839503738943500,10.030943603515626,-0.9798583984375,0.02056884765625,0.0119171142578125
1690839503749014500,10.0410146484375,-0.980865478515625,0.0127105712890625,0.0102386474609375
1690839503759054600,10.0510546875,-0.982940673828125,0.0048370361328125,0.0062408447265625
1690839503769094700,10.0610947265625,-0.9800262451171875,-0.0021820068359375,0.0018463134765625
1690839503779135700,10.0711357421875,-0.9907073974609375,-0.006439208984375,-0.0006866455078125
1690839503789175800,10.08117578125,-0.9817047119140625,-0.008453369140625,-0.0003814697265625
1690839503799215900,10.0912158203125,-0.9849853515625,-0.009002685546875,0.00103759765625
1690839503809255700,10.101255615234376,-0.989044189453125,-0.0075531005859375,0.0035858154296875
1690839503819296500,10.111296630859375,-0.9828033447265625,-0.0037384033203125,0.006378173828125
1690839503829336600,10.121336669921876,-0.9858551025390625,0.000885009765625,0.0072174072265625
1690839503839376600,10.131376708984375,-0.9795074462890625,0.0044403076171875,0.00738525390625
1690839503849416700,10.141416748046876,-0.982208251953125,0.010223388671875,0.00714111328125
1690839503859457800,10.151457763671875,-0.978118896484375,0.0140228271484375,0.0046539306640625
1690839503869497900,10.161497802734376,-0.9751739501953125,0.01641845703125,0.002716064453125
1690839503879537700,10.17153759765625,-0.9773712158203125,0.01641845703125,0.00201416015625
1690839503889578500,10.18157861328125,-0.97869873046875,0.013092041015625,0.002777099609375
1690839503899618600,10.19161865234375,-0.9772186279296875,0.00823974609375,0.0022430419921875
1690839503909689600,10.201689697265625,-0.9834442138671875,0.0048675537109375,0.0042724609375
1690839503919729700,10.211729736328126,-0.984649658203125,0.0006256103515625,0.0057373046875
1690839503929769700,10.221769775390625,-0.9827423095703125,-0.0009765625,0.006866455078125
1690839503939810800,10.231810791015626,-0.9868621826171875,-0.003143310546875,0.005615234375
1690839503949851000,10.241850830078125,-0.9841766357421875,-0.002777099609375,0.003997802734375
1690839503959890700,10.251890625,-0.9859466552734375,-0.0021820068359375,0.0034942626953125
1690839503969930800,10.2619306640625,-0.981781005859375,-0.0009613037109375,0.00177001953125
1690839503979971600,10.2719716796875,-0.982208251953125,0.001953125,0.0028839111328125
1690839503990011600,10.28201171875,-0.9833221435546875,0.0048828125,0.00384521484375
1690839504000051700,10.2920517578125,-0.9790496826171875,0.00860595703125,0.0047149658203125
1690839504010092800,10.3020927734375,-0.9805755615234375,0.0114288330078125,0.0057830810546875
1690839504020132900,10.3121328125,-0.980316162109375,0.011993408203125,0.0057525634765625
1690839504030172700,10.322172607421875,-0.97906494140625,0.0108642578125,0.004974365234375
1690839504040212700,10.332212646484376,-0.981414794921875,0.0096282958984375,0.004119873046875
1690839504050253600,10.342253662109375,-0.9816741943359375,0.0067291259765625,0.0030975341796875
1690839504060293600,10.352293701171876,-0.980316162109375,0.0031890869140625,0.0035247802734375
1690839504070364700,10.36236474609375,-0.98345947265625,0.0019683837890625,0.0026702880859375
1690839504080404700,10.37240478515625,-0.9838409423828125,0.0003509521484375,0.00390625
1690839504090444800,10.38244482421875,-0.9845733642578125,-0.0006561279296875,0.004364013671875
1690839504100486000,10.39248583984375,-0.9832000732421875,-0.000274658203125,0.004547119140625
1690839504110525700,10.402525634765626,-0.982421875,0.00054931640625,0.0054779052734375
1690839504120565800,10.412565673828125,-0.9841156005859375,0.0023040771484375,0.00494384765625
1690839504130605800,10.422605712890626,-0.980621337890625,0.004730224609375,0.0040283203125
1690839504140646700,10.432646728515625,-0.98089599609375,0.006011962890625,0.003692626953125
1690839504150686700,10.442686767578126,-0.9810791015625,0.007080078125,0.00341796875
1690839504160726800,10.452726806640625,-0.9797515869140625,0.007781982421875,0.003692626953125
1690839504170768000,10.462767822265626,-0.9794769287109375,0.0078277587890625,0.0038299560546875
1690839504180807700,10.4728076171875,-0.9802703857421875,0.0074310302734375,0.0041351318359375
1690839504190847700,10.48284765625,-0.98028564453125,0.006256103515625,0.00445556640625
1690839504200887800,10.4928876953125,-0.9818572998046875,0.005126953125,0.004608154296875
1690839504210928600,10.5029287109375,-0.9824371337890625,0.00341796875,0.0045013427734375
1690839504220968700,10.51296875,-0.982818603515625,0.00177001953125,0.004486083984375
1690839504231039700,10.523039794921875,-0.9833831787109375,0.0011444091796875,0.004425048828125
1690839504241079600,10.53307958984375,-0.9822235107421875,0.001312255859375,0.004119873046875
1690839504251119600,10.54311962890625,-0.9832305908203125,0.0025177001953125,0.003326416015625
1690839504261160700,10.55316064453125,-0.9826202392578125,0.002471923828125,0.0034942626953125
1690839504271200800,10.56320068359375,-0.98089599609375,0.0037994384765625,0.00396728515625
1690839504281240600,10.573240478515626,-0.9820098876953125,0.005401611328125,0.004638671875
1690839504291281700,10.58328173828125,-0.981842041015625,0.006317138671875,0.0047760009765625
1690839504301321700,10.59332177734375,-0.9806365966796875,0.0070953369140625,0.0053253173828125
1690839504311361800,10.60336181640625,-0.9812774658203125,0.0063934326171875,0.004425048828125
1690839504321401600,10.613401611328126,-0.9821014404296875,0.00604248046875,0.00445556640625
1690839504331442700,10.623442626953125,-0.9807586669921875,0.0051116943359375,0.003662109375
1690839504341482800,10.633482666015626,-0.9807891845703125,0.004302978515625,0.0041656494140625
1690839504351522600,10.6435224609375,-0.9814453125,0.003387451171875,0.00433349609375
1690839504361562600,10.653562744140626,-0.9824676513671875,0.0027923583984375,0.0048980712890625
1690839504371603700,10.663603759765625,-0.981475830078125,0.0026702880859375,0.00482177734375
1690839504381643800,10.673643798828126,-0.98321533203125,0.002471923828125,0.0043182373046875
1690839504391714600,10.683714599609376,-0.983245849609375,0.0029144287109375,0.00469970703125
1690839504401754600,10.693754638671875,-0.9812164306640625,0.0037841796875,0.0036773681640625
1690839504411794700,10.703794677734376,-0.9816741943359375,0.0048065185546875,0.003631591796875
1690839504421835800,10.713835693359375,-0.982177734375,0.0047454833984375,0.0038299560546875
1690839504431875600,10.72387548828125,-0.9812469482421875,0.0060272216796875,0.0043792724609375
1690839504441915600,10.73391552734375,-0.9813690185546875,0.005859375,0.0044708251953125
1690839504451956700,10.743956787109376,-0.9813079833984375,0.0053558349609375,0.004669189453125
1690839504461996800,10.753996826171875,-0.9822235107421875,0.0057220458984375,0.00506591796875
1690839504472036600,10.76403662109375,-0.982513427734375,0.0062103271484375,0.0041046142578125
1690839504482076700,10.77407666015625,-0.982086181640625,0.00537109375,0.003936767578125
1690839504492117800,10.78411767578125,-0.982574462890625,0.0044097900390625,0.0038909912109375
1690839504502157600,10.794157470703125,-0.9818267822265625,0.00360107421875,0.0040283203125
1690839504512197600,10.80419775390625,-0.98150634765625,0.00347900390625,0.0037841796875
1690839504522238700,10.81423876953125,-0.98150634765625,0.0034332275390625,0.0034027099609375
1690839504532278800,10.82427880859375,-0.9814605712890625,0.004119873046875,0.0045166015625
1690839504542318600,10.834318603515625,-0.9818572998046875,0.003692626953125,0.004119873046875
1690839504552389600,10.8443896484375,-0.982330322265625,0.0040740966796875,0.004913330078125
1690839504562429700,10.8544296875,-0.9814605712890625,0.004425048828125,0.0049591064453125
1690839504572469800,10.8644697265625,-0.9822998046875,0.0050201416015625,0.00445556640625
1690839504582510600,10.874510498046876,-0.982208251953125,0.0050048828125,0.0052032470703125
1690839504592551200,10.88455126953125,-0.9805908203125,0.005859375,0.0042266845703125
1690839504602591200,10.89459130859375,-0.980865478515625,0.005157470703125,0.003662109375
1690839504612632300,10.90463232421875,-0.9815521240234375,0.004852294921875,0.0040435791015625
1690839504622672100,10.914672119140626,-0.98114013671875,0.0039520263671875,0.0039520263671875
1690839504632712200,10.924712158203125,-0.98150634765625,0.00408935546875,0.004058837890625
1690839504642752300,10.934752197265626,-0.9812774658203125,0.003631591796875,0.0048065185546875
1690839504652793000,10.94479296875,-0.9822845458984375,0.0039215087890625,0.0046844482421875
1690839504662833200,10.954833251953126,-0.98114013671875,0.0037689208984375,0.003662109375
1690839504672873200,10.964873291015625,-0.98211669921875,0.00384521484375,0.00384521484375
1690839504682914300,10.974914306640626,-0.9825897216796875,0.0046234130859375,0.0040740966796875
1690839504692954400,10.984954345703125,-0.9810943603515625,0.005462646484375,0.004608154296875
1690839504702994200,10.994994140625,-0.9821319580078125,0.005218505859375,0.004425048828125
1690839504713065200,11.005065185546876,-0.981201171875,0.00555419921875,0.0040130615234375
1690839504723105300,11.015105224609375,-0.981781005859375,0.0052032470703125,0.00408935546875
1690839504733146000,11.02514599609375,-0.980865478515625,0.004974365234375,0.0034637451171875
1690839504743186200,11.035186279296875,-0.9814605712890625,0.004791259765625,0.0038299560546875
1690839504753226200,11.045226318359376,-0.9815826416015625,0.0037078857421875,0.0045013427734375
1690839504763266000,11.05526611328125,-0.9819183349609375,0.0038299560546875,0.00421142578125
1690839504773307100,11.06530712890625,-0.9813995361328125,0.00347900390625,0.0048828125
1690839504783347200,11.07534716796875,-0.982330322265625,0.004547119140625,0.0047760009765625
1690839504793387300,11.08538720703125,-0.9832000732421875,0.004150390625,0.0052337646484375
1690839504803428000,11.095427978515625,-0.9810943603515625,0.00408935546875,0.0045318603515625
1690839504813468200,11.10546826171875,-0.981964111328125,0.0048828125,0.004119873046875
1690839504823508200,11.11550830078125,-0.98101806640625,0.004791259765625,0.00396728515625
1690839504833548000,11.125548095703126,-0.980987548828125,0.0052947998046875,0.003570556640625
1690839504843589400,11.13558935546875,-0.9812774658203125,0.0054931640625,0.0046539306640625
1690839504853629200,11.145629150390626,-0.9811553955078125,0.0053253173828125,0.0040130615234375
1690839504863669200,11.155669189453125,-0.981353759765625,0.0041351318359375,0.0044097900390625
1690839504873740300,11.165740234375,-0.9812164306640625,0.0045623779296875,0.0047454833984375
1690839504883780400,11.1757802734375,-0.9814605712890625,0.0039215087890625,0.003692626953125
1690839504893821200,11.1858212890625,-0.9827728271484375,0.0040740966796875,0.0040283203125
1690839504903861200,11.195861328125,-0.9827728271484375,0.0043792724609375,0.004638671875
1690839504913901000,11.205901123046875,-0.9814300537109375,0.0038909912109375,0.0047607421875
1690839504923941000,11.215941162109376,-0.9815826416015625,0.00408935546875,0.0039520263671875
1690839504933982200,11.225982177734375,-0.9810943603515625,0.003936767578125,0.004241943359375
1690839504944022300,11.236022216796876,-0.9810333251953125,0.005340576171875,0.00433349609375
1690839504954062300,11.246062255859375,-0.980438232421875,0.004974365234375,0.0044097900390625
1690839504964103200,11.256103271484376,-0.98046875,0.0058746337890625,0.0044708251953125
1690839504974143200,11.266143310546875,-0.9827880859375,0.005126953125,0.0036163330078125
1690839504984183000,11.27618310546875,-0.9811553955078125,0.004486083984375,0.0039520263671875
1690839504994223000,11.28622314453125,-0.98187255859375,0.0036468505859375,0.0044708251953125
1690839505004264200,11.29626416015625,-0.982330322265625,0.00421142578125,0.00372314453125
1690839505014304300,11.30630419921875,-0.981964111328125,0.004058837890625,0.00396728515625
1690839505024375300,11.316375244140625,-0.982391357421875,0.0041961669921875,0.004119873046875
1690839505034415400,11.326415283203126,-0.9820709228515625,0.0043792724609375,0.003875732421875
1690839505044455200,11.336455078125,-0.981658935546875,0.0047760009765625,0.0041656494140625
1690839505054496300,11.346496337890626,-0.9816131591796875,0.0040435791015625,0.0045623779296875
1690839505064536000,11.3565361328125,-0.9818115234375,0.0038299560546875,0.00421142578125
1690839505074576100,11.366576171875,-0.9820709228515625,0.0038604736328125,0.004730224609375
1690839505084616200,11.3766162109375,-0.982940673828125,0.004058837890625,0.00421142578125
1690839505094657300,11.3866572265625,-0.9818115234375,0.0040435791015625,0.0039520263671875
1690839505104697300,11.396697265625,-0.981689453125,0.00439453125,0.004852294921875
1690839505114737200,11.406737060546876,-0.9821624755859375,0.0048065185546875,0.0042724609375
1690839505124778200,11.4167783203125,-0.98126220703125,0.00506591796875,0.00408935546875
1690839505134818000,11.426818115234376,-0.9821319580078125,0.00543212890625,0.0041351318359375
1690839505144858000,11.436858154296875,-0.98095703125,0.0052032470703125,0.0034332275390625
1690839505154898200,11.446898193359376,-0.98065185546875,0.00469970703125,0.00323486328125
1690839505164939300,11.456939208984375,-0.9815826416015625,0.0044097900390625,0.003875732421875
1690839505174979300,11.466979248046876,-0.9816131591796875,0.0040130615234375,0.0035400390625
1690839505185050400,11.47705029296875,-0.982177734375,0.0041046142578125,0.0046844482421875
1690839505195090200,11.487090087890625,-0.9811859130859375,0.0043792724609375,0.0048828125
1690839505205130000,11.4971298828125,-0.9816436767578125,0.0047149658203125,0.004608154296875
1690839505215171000,11.507171142578125,-0.981597900390625,0.00506591796875,0.0047760009765625
1690839505225211100,11.517211181640626,-0.982269287109375,0.00445556640625,0.005157470703125
1690839505235251200,11.527251220703125,-0.981903076171875,0.004791259765625,0.0041656494140625
1690839505245292300,11.537292236328126,-0.981414794921875,0.004302978515625,0.0049896240234375
1690839505255332400,11.547332275390625,-0.980682373046875,0.003936767578125,0.00408935546875
1690839505265372200,11.5573720703125,-0.9801483154296875,0.0045623779296875,0.0040130615234375
1690839505275412000,11.567411865234375,-0.9810638427734375,0.0039825439453125,0.004486083984375
1690839505285453000,11.577453125,-0.980682373046875,0.004364013671875,0.0050201416015625
1690839505295493000,11.5874931640625,-0.9812774658203125,0.0040740966796875,0.004486083984375
1690839505305533200,11.597533203125,-0.981475830078125,0.0045623779296875,0.0047149658203125
1690839505315574300,11.60757421875,-0.98126220703125,0.0039520263671875,0.0044403076171875
1690839505325614300,11.6176142578125,-0.981781005859375,0.0044097900390625,0.00360107421875
1690839505335654100,11.627654052734375,-0.9824676513671875,0.0052032470703125,0.00408935546875
1690839505345725200,11.63772509765625,-0.9816131591796875,0.00396728515625,0.0044403076171875
1690839505355765000,11.647764892578126,-0.9820098876953125,0.004241943359375,0.0045623779296875
1690839505365805000,11.65780517578125,-0.9826812744140625,0.004669189453125,0.0044097900390625
1690839505375846100,11.66784619140625,-0.981414794921875,0.005096435546875,0.0044403076171875
1690839505385886200,11.67788623046875,-0.981475830078125,0.00537109375,0.003875732421875
1690839505395926300,11.68792626953125,-0.9824066162109375,0.0045623779296875,0.00390625
1690839505405967400,11.69796728515625,-0.98150634765625,0.00457763671875,0.0035552978515625
1690839505416007200,11.708007080078126,-0.980987548828125,0.0048980712890625,0.003692626953125
1690839505426047000,11.718046875,-0.9813995361328125,0.00384521484375,0.003814697265625
1690839505436087000,11.728087158203126,-0.9816741943359375,0.0046234130859375,0.0037384033203125
1690839505446128000,11.738128173828125,-0.9821624755859375,0.005218505859375,0.0045928955078125
1690839505456168200,11.748168212890626,-0.9828643798828125,0.005340576171875,0.0043487548828125
1690839505466208300,11.758208251953125,-0.9811553955078125,0.004730224609375,0.004608154296875
1690839505476249300,11.768249267578126,-0.981109619140625,0.0040283203125,0.0041961669921875
1690839505486289200,11.7782890625,-0.982421875,0.003509521484375,0.004058837890625
1690839505496329000,11.788328857421876,-0.982391357421875,0.004150390625,0.00433349609375
1690839505506400000,11.79839990234375,-0.9810028076171875,0.0042266845703125,0.005218505859375
1690839505516440000,11.808440185546875,-0.982086181640625,0.0042724609375,0.00506591796875
1690839505526480100,11.818480224609376,-0.982452392578125,0.0044097900390625,0.0040283203125
1690839505536521200,11.828521240234375,-0.98236083984375,0.0042724609375,0.0041961669921875
1690839505546561300,11.838561279296876,-0.9819183349609375,0.0048980712890625,0.0047149658203125
1690839505556601300,11.848601318359375,-0.9812774658203125,0.0045166015625,0.0037384033203125
1690839505566642200,11.85864208984375,-0.9813079833984375,0.0049591064453125,0.003082275390625
1690839505576682000,11.868681884765625,-0.9815521240234375,0.004608154296875,0.0029754638671875
1690839505586720800,11.878720703125,-0.98187255859375,0.0048065185546875,0.0038604736328125
1690839505596760800,11.8887607421875,-0.9811859130859375,0.0039215087890625,0.003814697265625
1690839505606801700,11.8988017578125,-0.9807281494140625,0.0048675537109375,0.0049285888671875
1690839505616841700,11.908841796875,-0.98223876953125,0.0039215087890625,0.0048675537109375
1690839505626881800,11.9188818359375,-0.9813232421875,0.0032501220703125,0.0049896240234375
1690839505636923000,11.9289228515625,-0.982269287109375,0.00396728515625,0.0041046142578125
1690839505646963000,11.938962890625,-0.9821624755859375,0.0048370361328125,0.0046539306640625
1690839505657003000,11.9490029296875,-0.981414794921875,0.0043792724609375,0.0050506591796875
1690839505667073800,11.95907373046875,-0.9814300537109375,0.00433349609375,0.0049591064453125
1690839505677113900,11.96911376953125,-0.9818878173828125,0.00506591796875,0.0038299560546875
1690839505687154700,11.97915478515625,-0.98101806640625,0.0046234130859375,0.0042877197265625
1690839505697194800,11.98919482421875,-0.981658935546875,0.0044708251953125,0.0050201416015625
1690839505707234800,11.99923486328125,-0.981536865234375,0.00494384765625,0.0040283203125
1690839505717275000,12.00927490234375,-0.9815826416015625,0.0040130615234375,0.004547119140625
1690839505727316000,12.01931591796875,-0.982177734375,0.004974365234375,0.0040130615234375
1690839505737355800,12.029355712890625,-0.9817352294921875,0.00482177734375,0.0047149658203125
1690839505747395800,12.039395751953125,-0.980865478515625,0.004150390625,0.0048370361328125
1690839505757436700,12.049436767578126,-0.98162841796875,0.0051422119140625,0.0040435791015625
1690839505767476700,12.059476806640625,-0.9817047119140625,0.004425048828125,0.0040435791015625
1690839505777516800,12.069516845703125,-0.981170654296875,0.004486083984375,0.0040435791015625
1690839505787556900,12.079556884765625,-0.981292724609375,0.004638671875,0.0045318603515625
1690839505797598000,12.089597900390626,-0.9820556640625,0.004791259765625,0.0040435791015625
1690839505807638000,12.099637939453125,-0.982269287109375,0.0040283203125,0.0040435791015625
1690839505817677800,12.109677734375,-0.9820556640625,0.0044403076171875,0.00433349609375
1690839505827748900,12.119748779296875,-0.982818603515625,0.0039520263671875,0.0036163330078125
1690839505837789000,12.129788818359375,-0.9816436767578125,0.003936767578125,0.004547119140625
1690839505847829800,12.139829833984376,-0.9820098876953125,0.004791259765625,0.0039825439453125
1690839505857869800,12.149869873046875,-0.9812164306640625,0.005157470703125,0.0042724609375
1690839505867910000,12.159909912109375,-0.9807586669921875,0.005096435546875,0.0045623779296875
1690839505877949700,12.16994970703125,-0.9814605712890625,0.00518798828125,0.00445556640625
1690839505887990800,12.17999072265625,-0.9817352294921875,0.005126953125,0.0038604736328125
1690839505898030800,12.19003076171875,-0.981475830078125,0.0048675537109375,0.0043487548828125
1690839505908071000,12.20007080078125,-0.9815521240234375,0.0044097900390625,0.004852294921875
1690839505918111700,12.21011181640625,-0.98236083984375,0.0043487548828125,0.004364013671875
1690839505928151800,12.22015185546875,-0.98248291015625,0.004241943359375,0.005096435546875
1690839505938192000,12.23019189453125,-0.9823150634765625,0.0040435791015625,0.004913330078125
1690839505948231700,12.240231689453125,-0.982147216796875,0.0041961669921875,0.00384521484375
1690839505958272800,12.250272705078125,-0.982177734375,0.0044403076171875,0.004974365234375
1690839505968312800,12.260312744140625,-0.9806365966796875,0.00439453125,0.004638671875
1690839505978353000,12.270352783203125,-0.98040771484375,0.004180908203125,0.0030364990234375
1690839505988424000,12.280423828125,-0.9818878173828125,0.0046539306640625,0.0034637451171875
1690839505998463700,12.290463623046875,-0.9818572998046875,0.0049896240234375,0.004150390625
1690839506008504800,12.3005048828125,-0.9825592041015625,0.00445556640625,0.0050201416015625
1690839506018545000,12.310544921875,-0.98193359375,0.0041046142578125,0.0050811767578125
1690839506028584700,12.320584716796875,-0.9822998046875,0.004486083984375,0.0052490234375
1690839506038624800,12.330624755859375,-0.98187255859375,0.0048675537109375,0.0043182373046875
1690839506048665900,12.340665771484375,-0.9819793701171875,0.0047149658203125,0.0041961669921875
1690839506058706000,12.350705810546875,-0.9821014404296875,0.0040130615234375,0.0033416748046875
1690839506068745700,12.360745849609375,-0.9813995361328125,0.00445556640625,0.00396728515625
1690839506078786800,12.370786865234376,-0.9820098876953125,0.0042877197265625,0.0038299560546875
1690839506088827000,12.380826904296875,-0.9815216064453125,0.004058837890625,0.0039215087890625
1690839506098866700,12.39086669921875,-0.981689453125,0.0045013427734375,0.0045623779296875
1690839506108906800,12.40090673828125,-0.9813690185546875,0.004058837890625,0.00396728515625
1690839506118947800,12.41094775390625,-0.9812164306640625,0.005096435546875,0.00360107421875
1690839506128988000,12.42098779296875,-0.98150634765625,0.0048675537109375,0.003173828125
1690839506139027700,12.43102783203125,-0.9810638427734375,0.0041656494140625,0.0045928955078125
1690839506149098800,12.4410986328125,-0.9815521240234375,0.0044097900390625,0.00439453125
1690839506159138800,12.451138916015625,-0.9822845458984375,0.0046539306640625,0.003753662109375
1690839506169180000,12.461179931640626,-0.9815521240234375,0.004241943359375,0.0035552978515625
1690839506179219700,12.4712197265625,-0.9813385009765625,0.0039825439453125,0.0037994384765625
1690839506189259800,12.481259765625,-0.9815521240234375,0.0050201416015625,0.004852294921875
1690839506199300900,12.49130078125,-0.982208251953125,0.0045318603515625,0.0038604736328125
1690839506209341000,12.5013408203125,-0.981353759765625,0.0039825439453125,0.0034027099609375
1690839506219380700,12.511380615234375,-0.981475830078125,0.0042266845703125,0.004547119140625
1690839506229420800,12.5214208984375,-0.9809417724609375,0.00384521484375,0.0049896240234375
1690839506239462000,12.5314619140625,-0.9822845458984375,0.0039825439453125,0.0037841796875
1690839506249501700,12.541501708984375,-0.9820404052734375,0.004608154296875,0.004150390625
1690839506259541800,12.551541748046875,-0.981597900390625,0.0048675537109375,0.004638671875
1690839506269582800,12.561582763671876,-0.981842041015625,0.005645751953125,0.0030975341796875
1690839506279623000,12.571622802734375,-0.981170654296875,0.0057830810546875,0.0037994384765625
1690839506289662700,12.581662841796875,-0.9811553955078125,0.0052337646484375,0.004425048828125
1690839506299702800,12.591702880859375,-0.981475830078125,0.00634765625,0.0041656494140625
1690839506309773800,12.60177392578125,-0.9817657470703125,0.0062713623046875,0.004638671875
1690839506319813600,12.611813720703125,-0.98114013671875,0.0055389404296875,0.005096435546875
1690839506329854700,12.621854736328125,-0.9815673828125,0.0048370361328125,0.005035400390625
1690839506339894800,12.631894775390625,-0.9803466796875,0.0037689208984375,0.004241943359375
1690839506349934800,12.641934814453125,-0.9808807373046875,0.00341796875,0.0036163330078125
1690839506359976000,12.651975830078126,-0.98211669921875,0.00244140625,0.0031890869140625
1690839506370015700,12.662015625,-0.9818115234375,0.001922607421875,0.00238037109375
1690839506380055800,12.672055908203125,-0.9817962646484375,0.0023345947265625,0.0019683837890625
1690839506390095600,12.682095703125,-0.98291015625,0.0032806396484375,0.0022735595703125
1690839506400136700,12.69213671875,-0.982086181640625,0.0047760009765625,0.0045318603515625
1690839506410176800,12.7021767578125,-0.9822235107421875,0.0045318603515625,0.0059051513671875
1690839506420216800,12.712216796875,-0.98126220703125,0.0059814453125,0.0056610107421875
1690839506430258000,12.7222578125,-0.9810943603515625,0.006866455078125,0.0056610107421875
1690839506440297700,12.732297607421875,-0.9806060791015625,0.006683349609375,0.0060272216796875
1690839506450337800,12.742337890625,-0.9803924560546875,0.0064849853515625,0.0053558349609375
1690839506460377600,12.752377685546875,-0.980224609375,0.0060882568359375,0.004150390625
1690839506470448600,12.76244873046875,-0.981536865234375,0.0058441162109375,0.003753662109375
1690839506480488700,12.77248876953125,-0.981842041015625,0.0042266845703125,0.0028228759765625
1690839506490529800,12.78252978515625,-0.982391357421875,0.003753662109375,0.001861572265625
1690839506500569900,12.79256982421875,-0.9836578369140625,0.002410888671875,0.0030364990234375
1690839506510610000,12.80260986328125,-0.982666015625,0.0024261474609375,0.0042266845703125
1690839506520650800,12.812650634765625,-0.98175048828125,0.0020751953125,0.0039215087890625
1690839506530690800,12.82269091796875,-0.98211669921875,0.0013580322265625,0.00469970703125
1690839506540730600,12.832730712890625,-0.98187255859375,0.002685546875,0.004241943359375
1690839506550770700,12.842770751953125,-0.9821014404296875,0.0033721923828125,0.0046844482421875
1690839506560811800,12.852811767578125,-0.9814910888671875,0.0042877197265625,0.0052032470703125
1690839506570851800,12.862851806640625,-0.9815216064453125,0.00506591796875,0.0048828125
1690839506580892000,12.872891845703125,-0.9818878173828125,0.0052337646484375,0.004486083984375
1690839506590916000,12.882916015625,-0.981658935546875,0.006866455078125,0.0039215087890625
1690839506600956200,12.8929560546875,-0.981781005859375,0.006622314453125,0.003875732421875
1690839506610996000,12.902995849609376,-0.9813232421875,0.0062103271484375,0.003570556640625
1690839506621036000,12.9130361328125,-0.98162841796875,0.0068511962890625,0.00347900390625
1690839506631107000,12.923107177734375,-0.9818572998046875,0.00604248046875,0.0039520263671875
1690839506641148200,12.933148193359376,-0.9809112548828125,0.0045318603515625,0.003692626953125
1690839506651188200,12.943188232421875,-0.9815826416015625,0.0029296875,0.003631591796875
1690839506661228300,12.953228271484376,-0.981842041015625,0.002593994140625,0.0047607421875
1690839506671268000,12.96326806640625,-0.98211669921875,0.0025177001953125,0.005401611328125
1690839506681309000,12.973308837890626,-0.982635498046875,0.002105712890625,0.005462646484375
1690839506691349000,12.983348876953125,-0.9832611083984375,0.002349853515625,0.005096435546875
1690839506701389000,12.99338916015625,-0.983154296875,0.00323486328125,0.004913330078125
1690839506711430100,13.00343017578125,-0.982025146484375,0.00469970703125,0.0048370361328125
1690839506721470200,13.01347021484375,-0.9819488525390625,0.005828857421875,0.0038604736328125
1690839506731510300,13.02351025390625,-0.980712890625,0.006866455078125,0.00341796875
1690839506741550000,13.033550048828126,-0.9800262451171875,0.007476806640625,0.0026702880859375
1690839506751591200,13.043591064453125,-0.9803009033203125,0.0072021484375,0.0034332275390625
1690839506761631000,13.053630859375,-0.980682373046875,0.006927490234375,0.00360107421875
1690839506771671000,13.063671142578125,-0.9806671142578125,0.0056610107421875,0.004486083984375
1690839506781712100,13.073712158203126,-0.9812774658203125,0.004364013671875,0.0048370361328125
