time,seconds_elapsed,z,y,x
1690839493820360000,0.11235986328125,-0.006794256623834372,-0.0001233043585671112,0.01900298520922661
1690839493830401000,0.122401123046875,-0.00549276964738965,-0.0025182850658893585,0.0022682142443954945
1690839493840441000,0.132441162109375,-0.002644785214215517,-0.0023467775899916887,-0.020301010459661484
1690839493850481200,0.142481201171875,-0.003364105010405183,-0.003311108099296689,-0.04032318666577339
1690839493860521000,0.15252099609375,-0.0037385455798357725,-0.003486077766865492,-0.05495326220989227
1690839493870562000,0.16256201171875,-0.005042429082095623,-0.0028655612841248512,-0.0633467510342598
1690839493880601900,0.172601806640625,-0.005160407163202763,0.0007534082396887243,-0.05980314686894417
1690839493890673000,0.1826728515625,-0.007690676487982273,0.000621848099399358,-0.048778191208839417
1690839493900713000,0.192712890625,-0.005736448802053928,0.00041332258842885494,-0.03230973705649376
1690839493910753000,0.2027529296875,-0.0057492321357131,-0.0017963021527975798,-0.015895608812570572
1690839493920794000,0.212794189453125,-0.003943609073758125,-0.00012596751912496984,-0.0006639260682277381
1690839493930834200,0.222834228515625,-0.00447064870968461,-0.001204547705128789,0.009832390584051609
1690839493940874000,0.2328740234375,-0.004575310740619898,-0.004618986509740353,0.012061722576618195
1690839493950913800,0.242913818359375,-0.005547630600631237,-0.0017504957504570484,0.007438741624355316
1690839493960955000,0.252954833984375,-0.00555109279230237,-0.002305764937773347,-0.002304965863004327
1690839493970995000,0.262994873046875,-0.0038216360844671726,-0.0028485171496868134,-0.014034858904778957
1690839493981035000,0.273034912109375,-0.005588643718510866,-0.002329200739040971,-0.027001524344086647
1690839493991076000,0.283076171875,-0.003968908917158842,-0.0015776565996930003,-0.037517014890909195
1690839494001116200,0.2931162109375,-0.004796086810529232,-0.00392736354842782,-0.04223933070898056
1690839494011156000,0.303156005859375,-0.00595536082983017,-0.0014897723449394107,-0.043239615857601166
1690839494021195800,0.31319580078125,-0.005545233841985464,-0.004035487771034241,-0.039329562336206436
1690839494031236900,0.32323681640625,-0.004267715383321047,-0.0031124362722039223,-0.030847927555441856
1690839494041277000,0.33327685546875,-0.005499427672475576,-0.000922252656891942,-0.022185197100043297
1690839494051348000,0.343347900390625,-0.004285292699933052,-0.001927862293086946,-0.01369397435337305
1690839494061388000,0.353387939453125,-0.005048288032412529,-0.000258859246969223,-0.008073905482888222
1690839494071428000,0.363427978515625,-0.0051739891059696674,-0.0015688681742176414,-0.0033742249943315983
1690839494081469200,0.37346923828125,-0.005024585872888565,-0.0022690133191645145,-0.0046333675272762775
1690839494091509000,0.383509033203125,-0.004913798533380032,-0.0021499700378626585,-0.008285626769065857
1690839494101548800,0.393548828125,-0.005182245280593634,-0.004459729418158531,-0.01410596538335085
1690839494111590000,0.40358984375,-0.0037702370900660753,-0.003129746997728944,-0.020532438531517982
1690839494121630000,0.4136298828125,-0.004406732507050037,-0.00031372037483379245,-0.025954369455575943
1690839494131670000,0.423669921875,-0.004020041786134243,-0.0005829659639857709,-0.03243676945567131
1690839494141710000,0.4337099609375,-0.0039116512052714825,-0.001800030586309731,-0.031683892011642456
1690839494151751200,0.443751220703125,-0.003896737238392234,-0.001710814656689763,-0.03140665963292122
1690839494161791000,0.453791015625,-0.006743123754858971,-0.0023188143968582153,-0.027894482016563416
1690839494171830800,0.463830810546875,-0.005044825840741396,-0.002389388158917427,-0.02250797301530838
1690839494181871900,0.473871826171875,-0.003959055058658123,-0.0006556702428497374,-0.018683141097426414
1690839494191912000,0.483911865234375,-0.004233094397932291,-0.0014024205738678575,-0.01182470191270113
1690839494201952000,0.493951904296875,-0.0051931641064584255,-0.001936917076818645,-0.010907774791121483
1690839494211992000,0.503991943359375,-0.004423776641488075,-0.0006205165409483016,-0.01041429117321968
1690839494222063000,0.51406298828125,-0.0041734399273991585,-0.00044022052315995097,-0.013302222825586796
1690839494232103000,0.52410302734375,-0.004097007215023041,-0.0005925533478148282,-0.013822604902088642
1690839494242143700,0.534143798828125,-0.0037593182642012835,-0.0038477350026369095,-0.018327875062823296
1690839494252183800,0.544183837890625,-0.004354534670710564,-0.0009411611245013773,-0.02394900843501091
1690839494262224000,0.554223876953125,-0.0041097900830209255,-0.003582484321668744,-0.026555445045232773
1690839494272265000,0.564264892578125,-0.00466505903750658,-0.0016338493442162871,-0.029285984113812447
1690839494282305000,0.574304931640625,-0.004830974154174328,-0.0017803232185542583,-0.028837773948907852
1690839494292345000,0.584344970703125,-0.005503688473254442,-0.001910285442136228,-0.025585254654288292
1690839494302385200,0.59438525390625,-0.005064000841230154,-0.0017385114915668964,-0.022540196776390076
1690839494312426000,0.604426025390625,-0.0055002267472445965,-0.0012865731259807944,-0.018550515174865723
1690839494322465800,0.6144658203125,-0.003963316325098276,-0.0016160061350092292,-0.015103585086762905
1690839494332505900,0.624505859375,-0.00444028852507472,-0.003909786697477102,-0.012312592938542366
1690839494342547000,0.634546875,-0.004836034029722214,-0.0022863238118588924,-0.012819924391806126
1690839494352587000,0.6445869140625,-0.003004844533279538,-0.0010245180455967784,-0.014476677402853966
1690839494362627000,0.654626953125,-0.00558251840993762,-0.0009321063989773393,-0.018695389851927757
1690839494372667100,0.664667236328125,-0.00446931691840291,-0.003433347214013338,-0.0207500196993351
1690839494382738000,0.674738037109375,-0.003856257302686572,-0.0035744947381317616,-0.024021979421377182
1690839494392778800,0.68477880859375,-0.006277869455516338,-0.00004713794987765141,-0.02604598179459572
1690839494402818800,0.69481884765625,-0.003940679598599672,-0.0010756507981568575,-0.026086194440722466
1690839494412859000,0.70485888671875,-0.005739910993725061,-0.00007004113285802305,-0.024836640805006027
1690839494422899000,0.71489892578125,-0.00458596320822835,-0.0008093346259556711,-0.024094151332974434
1690839494432940000,0.72493994140625,-0.005358546506613493,-0.00043010051012970507,-0.020246682688593864
1690839494442980000,0.73497998046875,-0.004503671545535326,0.00006711165769957006,-0.018936406821012497
1690839494453020200,0.745020263671875,-0.005643238313496113,-0.004926049150526524,-0.019647205248475075
1690839494463060000,0.75506005859375,-0.004314321093261242,-0.0043952809646725655,-0.01516750082373619
1690839494473100800,0.765100830078125,-0.0046120621263980865,-0.003169428091496229,-0.01571371592581272
1690839494483140900,0.775140869140625,-0.005260275676846504,-0.0049012815579771996,-0.019604859873652458
1690839494493181000,0.785180908203125,-0.0034320156555622816,-0.0009086705395020545,-0.018155567348003387
1690839494503222000,0.795221923828125,-0.0043742419220507145,-0.0009379653492942452,-0.019283151254057884
1690839494513262000,0.805261962890625,-0.004101268015801907,-0.0018104169284924865,-0.02142193540930748
1690839494523302100,0.81530224609375,-0.005387308541685343,0.0010689928894862533,-0.02263740263879299
1690839494533342000,0.825342041015625,-0.004886634182184935,-0.0009049421059899032,-0.02406432293355465
1690839494543413000,0.8354130859375,-0.0030517163686454296,-0.001023186487145722,-0.020918864756822586
1690839494553453800,0.845453857421875,-0.006148706190288067,-0.002147306688129902,-0.02322675846517086
1690839494563494000,0.855493896484375,-0.004250138532370329,-0.002794188680127263,-0.021976405754685402
1690839494573534000,0.865533935546875,-0.00552339619025588,-0.004091148264706135,-0.020420320332050323
1690839494583554800,0.875554931640625,-0.004166515544056892,-0.003938016481697559,-0.01847701147198677
1690839494593595600,0.885595703125,-0.003900465788319707,-0.0019867182709276676,-0.016980847343802452
1690839494603635700,0.8956357421875,-0.0028940571937710047,-0.001514806062914431,-0.0169100072234869
1690839494613675500,0.905675537109375,-0.004835235420614481,-0.0015568839153274894,-0.01824318617582321
1690839494623716600,0.915716552734375,-0.005291700828820467,-0.0024610271211713552,-0.01641945354640484
1690839494633756700,0.925756591796875,-0.005287706386297941,-0.0030242856591939926,-0.019518839195370674
1690839494643796700,0.935796630859375,-0.005804625805467367,-0.002370745874941349,-0.019411515444517136
1690839494653836800,0.9458369140625,-0.006651777308434248,-0.002570216776803136,-0.021826468408107758
1690839494663877600,0.955877685546875,-0.005766009911894798,-0.003057841444388032,-0.024296285584568977
1690839494673917700,0.965917724609375,-0.006518619135022163,-0.0038155107758939266,-0.023362047970294952
1690839494683957500,0.97595751953125,-0.0063063655979931355,-0.0038477350026369095,-0.021073592826724052
1690839494693998600,0.98599853515625,-0.00509995361790061,-0.002880475018173456,-0.02244538813829422
1690839494704068600,0.996068603515625,-0.004165183752775192,-0.003683418035507202,-0.020304739475250244
1690839494714109700,1.006109619140625,-0.003709516953676939,-0.00370179396122694,-0.01944587007164955
1690839494724149800,1.016149658203125,-0.0028818065766245127,-0.003266899613663554,-0.01726527325809002
1690839494734189800,1.02618994140625,-0.0051833102479577065,-0.002703907433897257,-0.01600639708340168
1690839494744230000,1.03622998046875,-0.005617139395326376,-0.0023153522051870823,-0.017851434648036957
1690839494754270700,1.046270751953125,-0.004765193909406662,-0.0012596751330420375,-0.019714849069714546
1690839494764310500,1.056310546875,-0.006132993847131729,-0.0014567491598427296,-0.021215273067355156
1690839494774350600,1.0663505859375,-0.003766508772969246,-0.0035896748304367065,-0.020001403987407684
1690839494784391700,1.0763916015625,-0.006041114684194326,-0.003064499469473958,-0.023258984088897705
1690839494794431700,1.086431640625,-0.005151618737727404,-0.0010109359864145517,-0.022357502952218056
1690839494804471800,1.096471923828125,-0.005103948060423136,-0.0026232136879116297,-0.0224432572722435
1690839494814511900,1.106511962890625,-0.0048951562494039536,-0.0024778051301836967,-0.01991645060479641
1690839494824552700,1.116552734375,-0.006286657880991697,-0.0008096009842120111,-0.02046879008412361
1690839494834592500,1.126592529296875,-0.003921238239854574,-0.0029385320376604795,-0.021865084767341614
1690839494844632600,1.136632568359375,-0.004180896561592817,-0.0012181298807263374,-0.01938648149371147
1690839494854673700,1.146673583984375,-0.004176901653409004,-0.001954760169610381,-0.01949513889849186
1690839494864743700,1.15674365234375,-0.004510063212364912,-0.0020096213556826115,-0.018095379695296288
1690839494874784800,1.16678466796875,-0.005632319487631321,-0.002426938619464636,-0.019166236743330956
1690839494884824800,1.176824951171875,-0.0031883365008980036,0.00088976213010028,-0.019092468544840813
1690839494894865000,1.186864990234375,-0.00526799913495779,-0.0019150790758430958,-0.021630460396409035
1690839494904905700,1.19690576171875,-0.005599029827862978,-0.001058872789144516,-0.021798772737383842
1690839494914945500,1.206945556640625,-0.0038578552193939686,0.000248472933890298,-0.019390741363167763
1690839494924985600,1.216985595703125,-0.004189684987068176,-0.0012452941155061126,-0.019343603402376175
1690839494935025700,1.227025634765625,-0.0038187066093087196,-0.0011544802691787481,-0.019647471606731415
1690839494945066800,1.237066650390625,-0.003841609926894307,-0.0023643544409424067,-0.019111642614006996
1690839494955106800,1.24710693359375,-0.003855724586173892,-0.001961418194696307,-0.020125774666666985
1690839494965147000,1.25714697265625,-0.005645102355629206,-0.002627474721521139,-0.020433902740478516
1690839494975186700,1.267186767578125,-0.00279099284671247,-0.0018397116800770164,-0.02058783359825611
1690839494985227500,1.2772275390625,-0.004144144710153341,-0.0012855078093707561,-0.020473582670092583
1690839494995267600,1.287267578125,-0.005138036794960499,-0.0014684670604765415,-0.019959859549999237
1690839495005307600,1.2973076171875,-0.004776645917445421,-0.0016024239594116807,-0.020206734538078308
1690839495015348700,1.3073486328125,-0.005946039687842131,-0.003096190979704261,-0.022907713428139687
1690839495025418800,1.317418701171875,-0.004147873260080814,0.00017736652807798237,-0.020912738516926765
1690839495035459800,1.3274599609375,-0.004063717555254698,-0.0019896477460861206,-0.020289292559027672
1690839495045500000,1.3375,-0.005909554194658995,-0.001996838254854083,-0.01950019784271717
1690839495055539700,1.347539794921875,-0.0046722497791051865,-0.0013627394801005721,-0.020113790407776833
1690839495065580500,1.35758056640625,-0.00552392890676856,-0.0020564929582178593,-0.017409350723028183
1690839495075620600,1.36762060546875,-0.004422445315867662,-0.002749181119725108,-0.019777433946728706
1690839495085660700,1.37766064453125,-0.0057218014262616634,-0.0012474246323108673,-0.02033962681889534
1690839495095700700,1.38770068359375,-0.0041521345265209675,-0.0011598066193982959,-0.019636817276477814
1690839495105741800,1.397741943359375,-0.0043982104398310184,-0.0006564692012034357,-0.017008278518915176
1690839495115782000,1.407781982421875,-0.00439075380563736,-0.0027622305788099766,-0.020114323124289513
1690839495125821700,1.41782177734375,-0.003858121344819665,-0.0010519486386328936,-0.01896277256309986
1690839495135862500,1.427862548828125,-0.003955326974391937,-0.0016559535870328546,-0.020367322489619255
1690839495145902600,1.437902587890625,-0.00535375252366066,-0.0018463695887476206,-0.020710870623588562
1690839495155942700,1.447942626953125,-0.0038573225028812885,-0.0026192190125584602,-0.02226961962878704
1690839495165982700,1.457982666015625,-0.004026433452963829,-0.0026530411560088396,-0.022217420861124992
1690839495176023800,1.46802392578125,-0.005455485545098782,-0.001064998097717762,-0.01998116448521614
1690839495186093600,1.478093505859375,-0.0041007352992892265,-0.0023606258910149336,-0.02165123261511326
1690839495196135000,1.488135009765625,-0.003938815090805292,-0.0023587618488818407,-0.021862154826521873
1690839495206174700,1.4981748046875,-0.005667473189532757,-0.0017920411191880703,-0.01925838366150856
1690839495216214800,1.50821484375,-0.0057561565190553665,-0.0028043086640536785,-0.01822853833436966
1690839495226255600,1.518255615234375,-0.0043502734042704105,-0.00026498452643863857,-0.01859232597053051
1690839495236295700,1.528295654296875,-0.004454403184354305,-0.001285241567529738,-0.015085475519299507
1690839495246335700,1.538335693359375,-0.0049590724520385265,-0.0012338425731286407,-0.017250092700123787
1690839495256375800,1.548375732421875,-0.00503976596519351,-0.001418665866367519,-0.018025072291493416
1690839495266417000,1.5584169921875,-0.005865079816430807,-0.0014335796004161239,-0.02003229781985283
1690839495276456700,1.568456787109375,-0.0051446943543851376,-0.0028549085836857557,-0.021022727712988853
1690839495286496500,1.57849658203125,-0.006668821442872286,-0.0024517059791833162,-0.022358035668730736
1690839495296537600,1.58853759765625,-0.0037465349305421114,-0.0027838023379445076,-0.02239265665411949
1690839495306577700,1.59857763671875,-0.004717257339507341,-0.002216282533481717,-0.022881614044308662
1690839495316617700,1.60861767578125,-0.0051739891059696674,-0.0008916263468563557,-0.021530592814087868
1690839495326657800,1.61865771484375,-0.005534581374377012,-0.0009353021741844714,-0.021435517817735672
1690839495336699000,1.628698974609375,-0.004859203472733498,-0.0001901497016660869,-0.019846675917506218
1690839495346769700,1.638769775390625,-0.004975583869963884,-0.0018706043483689427,-0.019600866362452507
1690839495356809700,1.648809814453125,-0.005056543741375208,-0.0032144354190677404,-0.018030133098363876
1690839495366849500,1.658849609375,-0.006310892757028341,-0.002344380598515272,-0.018965700641274452
1690839495376889600,1.6688896484375,-0.0033965955954045057,-0.002263420494273305,-0.017169132828712463
1690839495386930700,1.6789306640625,-0.0044168527238070965,-0.0018426411552354693,-0.018149975687265396
1690839495396970800,1.688970703125,-0.00481233187019825,-0.002404035534709692,-0.020245350897312164
1690839495407010800,1.6990107421875,-0.0057044909335672855,-0.004787564743310213,-0.022101307287812233
1690839495417050600,1.709050537109375,-0.005111138802021742,-0.0020780644845217466,-0.021682925522327423
1690839495427091700,1.719091796875,-0.005528189707547426,-0.0033505228348076344,-0.023970313370227814
1690839495437131500,1.729131591796875,-0.004269846249371767,-0.0021134845446795225,-0.021678930148482323
1690839495447171600,1.739171630859375,-0.006272276863455772,-0.0012085424968972802,-0.01931910216808319
1690839495457212700,1.749212646484375,-0.006570551078766584,0.00024501082953065634,-0.020622454583644867
1690839495467252700,1.759252685546875,-0.003951065707951784,0.00030546457855962217,-0.017763551324605942
1690839495477292800,1.769292724609375,-0.003732952754944563,-0.0018101505702361465,-0.018024805933237076
1690839495487332600,1.77933251953125,-0.006656304933130741,-0.001752093667164445,-0.01852787844836712
1690839495497373700,1.789373779296875,-0.004991562571376562,-0.0026991136837750673,-0.018925754353404045
1690839495507444700,1.79944482421875,-0.004944424610584974,-0.0035262915771454573,-0.020136693492531776
1690839495517484500,1.809484619140625,-0.004327370319515467,-0.0019377160351723433,-0.02160516008734703
1690839495527524600,1.819524658203125,-0.003939614165574312,-0.003049053018912673,-0.021759357303380966
1690839495537564700,1.829564697265625,-0.005082643125206232,-0.003157443832606077,-0.022486666217446327
1690839495547605800,1.839605712890625,-0.0051745218224823475,-0.0009864348685368896,-0.022671224549412727
1690839495557645800,1.849645751953125,-0.004650411661714315,-0.0016474314033985138,-0.020838169381022453
1690839495567685600,1.859685546875,-0.005584116093814373,-0.0006253102328628302,-0.020678646862506866
1690839495577729800,1.869729736328125,-0.004461593925952911,-0.0006828344776295125,-0.018320949748158455
1690839495587769900,1.879769775390625,-0.005270662251859903,-0.00195156445261091,-0.02069409377872944
1690839495597809700,1.8898095703125,-0.0031997880432754755,-0.0032554480712860823,-0.019993415102362633
1690839495607849700,1.899849609375,-0.0051771849393844604,-0.00221921200864017,-0.019406454637646675
1690839495617890800,1.909890869140625,-0.0067849354818463326,-0.003069559345021844,-0.021470671519637108
1690839495627931000,1.919930908203125,-0.005595034919679165,-0.003546531544998288,-0.020869329571723938
1690839495637971000,1.929970947265625,-0.004053330980241299,-0.002743322169408202,-0.02093244530260563
1690839495648012000,1.940011962890625,-0.004746552091091871,-0.004070375580340624,-0.020605675876140594
1690839495658051800,1.9500517578125,-0.00469515286386013,-0.0022325278259813786,-0.019084211438894272
1690839495668123000,1.960122802734375,-0.004866926930844784,0.00025513084256090224,-0.019540412351489067
1690839495678162700,1.97016259765625,-0.005528722424060106,-0.001636246219277382,-0.018040252849459648
1690839495688202800,1.98020263671875,-0.00529489666223526,0.0002335592289455235,-0.020243486389517784
1690839495698242800,1.990242919921875,-0.003931092098355293,-0.0006655239267274737,-0.015805328264832497
1690839495708284000,2.000283935546875,-0.004765726625919342,-0.0020807278342545033,-0.02064136229455471
1690839495718323700,2.01032373046875,-0.003718571737408638,-0.0024019049014896154,-0.021529527381062508
1690839495728363800,2.02036376953125,-0.00566960358992219,-0.0020594224333763123,-0.023490944877266884
1690839495738404900,2.03040478515625,-0.0038842204958200455,-0.003946538548916578,-0.022342057898640633
1690839495748444700,2.040444580078125,-0.004729773849248886,-0.0016397082945331931,-0.022324213758111
1690839495758484700,2.050484619140625,-0.005257346201688051,-0.0012721919920295477,-0.019593408331274986
1690839495768524800,2.06052490234375,-0.005680522415786982,-0.0019590212032198906,-0.017917215824127197
1690839495778566000,2.07056591796875,-0.004739894066005945,-0.004878644831478596,-0.01968182623386383
1690839495788606000,2.08060595703125,-0.0026343988720327616,-0.0032921996898949146,-0.018041051924228668
1690839495798645800,2.090645751953125,-0.0043899547308683395,-0.0020879183430224657,-0.01900298520922661
1690839495808686800,2.100686767578125,-0.0035742283798754215,-0.0034013893455266953,-0.018739333376288414
1690839495818726700,2.1107265625,-0.0037175065372139215,-0.000931041082367301,-0.02327922359108925
1690839495828797700,2.120797607421875,-0.004326305352151394,-0.004520982038229704,-0.023488814011216164
1690839495838837800,2.130837646484375,-0.005723133217543364,-0.0007880293414928019,-0.02269173040986061
1690839495848877800,2.1408779296875,-0.0046940878964960575,-0.0029087045695632696,-0.022013690322637558
1690839495858919000,2.1509189453125,-0.006244313903152943,-0.003209375310689211,-0.021447502076625824
1690839495868958700,2.160958740234375,-0.00475534051656723,-0.00039308256236836314,-0.017606956884264946
1690839495878998800,2.170998779296875,-0.00464694993570447,-0.00301736150868237,-0.01889486238360405
1690839495889038800,2.181038818359375,-0.004481034819036722,-0.0017100156983360648,-0.01661013625562191
1690839495899079700,2.19107958984375,-0.0049153962172567844,-0.0005406216951087117,-0.016634371131658554
1690839495909119700,2.20111962890625,-0.005289570428431034,-0.0009606021922081709,-0.01883893460035324
1690839495919159800,2.211159912109375,-0.004817392211407423,-0.0019209380261600018,-0.021032581105828285
1690839495929199600,2.22119970703125,-0.0035747610963881016,-0.0020516992080956697,-0.022305039688944817
1690839495939240700,2.23124072265625,-0.00544456671923399,-0.002686330582946539,-0.02244991436600685
1690839495949280800,2.24128076171875,-0.005933789070695639,-0.0038578552193939686,-0.025005750358104706
1690839495959320800,2.25132080078125,-0.003965713083744049,-0.002071140334010124,-0.022948192432522774
1690839495969361700,2.261361572265625,-0.0072837453335523605,-0.0008705873624421656,-0.018200043588876724
1690839495979432000,2.271431884765625,-0.003858387703076005,-0.0017054883064702153,-0.019523100927472115
1690839495989472800,2.28147265625,-0.005637379363179207,-0.0009914948605000973,-0.018006697297096252
1690839495999512800,2.291512939453125,-0.0034019220620393753,-0.0017233315156772733,-0.02034175768494606
1690839496009552600,2.301552734375,-0.004811533261090517,-0.0028783443849533796,-0.020057331770658493
1690839496019593700,2.31159375,-0.004552141297608614,-0.0016753945965319872,-0.021036842837929726
1690839496029633800,2.3216337890625,-0.004367318004369736,-0.0016468988033011556,-0.021741248667240143
1690839496039673900,2.331673828125,-0.0036538569256663322,-0.007387608755379915,-0.02508937381207943
1690839496049714000,2.3417138671875,-0.005370797123759985,-0.0018314558546990156,-0.02190343476831913
1690839496059754800,2.351754638671875,-0.005691441707313061,-0.000993891735561192,-0.019580891355872154
1690839496069794800,2.361794921875,-0.003954261541366577,-0.0035332157276570797,-0.02124297060072422
1690839496079834600,2.371834716796875,-0.004836034029722214,-0.0016128103015944362,-0.016627712175250053
1690839496089875700,2.381875732421875,-0.005540440324693918,-0.0037790255155414343,-0.01685727760195732
1690839496099915800,2.391915771484375,-0.005057609174400568,-0.0008559399866499007,-0.01787007786333561
1690839496109955800,2.401955810546875,-0.005801429972052574,-0.001514539704658091,-0.017916683107614517
1690839496119996000,2.411995849609375,-0.005342567339539528,-0.002284992253407836,-0.020619258284568787
1690839496130036700,2.42203662109375,-0.0037297571543604136,-0.0007765777409076691,-0.02147386595606804
1690839496140107000,2.43210693359375,-0.005404086317867041,-0.00019201391842216253,-0.022056832909584045
1690839496150147800,2.44214794921875,-0.005598497111350298,-0.0031108383554965258,-0.02238227054476738
1690839496160187600,2.452187744140625,-0.005657885689288378,-0.00037497308221645653,-0.02166721224784851
1690839496170227700,2.462227783203125,-0.0041188448667526245,-0.003916178364306688,-0.0200986098498106
1690839496180268800,2.472268798828125,-0.005344697739928961,-0.0018668759148567915,-0.018865033984184265
1690839496190308900,2.482308837890625,-0.004110855516046286,-0.004634699318557978,-0.01853000931441784
1690839496200349000,2.492348876953125,-0.00538571085780859,-0.003864246653392911,-0.018259696662425995
1690839496210389000,2.502388916015625,-0.00526586826890707,-0.003204315435141325,-0.019772106781601906
1690839496220429800,2.512429931640625,-0.004574778024107218,-0.0028032432310283184,-0.019045596942305565
1690839496230469600,2.5224697265625,-0.004862399306148291,-0.0022716764360666275,-0.021758291870355606
1690839496240509700,2.532509765625,-0.004081560764461756,-0.002615490462630987,-0.02149171009659767
1690839496250550800,2.54255078125,-0.005952164996415377,-0.0016644756542518735,-0.019057581201195717
1690839496260590800,2.5525908203125,-0.005622998345643282,-0.0026783409994095564,-0.021978270262479782
1690839496270631000,2.562630859375,-0.0041068606078624725,-0.0023427826818078756,-0.02160915546119213
1690839496280671000,2.5726708984375,-0.004947886802256107,-0.0011475561186671257,-0.01884079910814762
1690839496290711800,2.5827119140625,-0.005107143893837929,-0.0010942928493022919,-0.01762879453599453
1690839496300782800,2.592782958984375,-0.005628590937703848,-0.0036764938849955797,-0.01852281764149666
1690839496310822700,2.60282275390625,-0.003993942867964506,-0.0023041670210659504,-0.019094865769147873
1690839496320862700,2.61286279296875,-0.005736448802053928,-0.0009584716754034162,-0.020609671249985695
1690839496330902800,2.62290283203125,-0.004886367823928595,-0.0010101370280608535,-0.021028053015470505
1690839496340944000,2.63294384765625,-0.005547364708036184,-0.0035478631034493446,-0.022106634452939034
1690839496350984000,2.64298388671875,-0.004218979738652706,-0.003824033075943589,-0.02165975607931614
1690839496361024000,2.65302392578125,-0.004306064918637276,-0.0009041432058438659,-0.021024059504270554
1690839496371064800,2.66306494140625,-0.00443869037553668,-0.0044322991743683815,-0.02014921046793461
1690839496381104600,2.673104736328125,-0.005072522908449173,0.0013068130938336253,-0.020256269723176956
1690839496391144700,2.683144775390625,-0.005205947440117598,0.0006263754912652075,-0.018197912722826004
1690839496401184800,2.693184814453125,-0.00529622845351696,-0.0027598338201642036,-0.01804584637284279
1690839496411225900,2.703225830078125,-0.005161472596228123,-0.004846686962991953,-0.021632591262459755
1690839496421266000,2.713265869140625,-0.005234709475189447,-0.0024780714884400368,-0.018911905586719513
1690839496431306000,2.723305908203125,-0.006595318205654621,-0.0010897654574364424,-0.02196415513753891
1690839496441346000,2.733345947265625,-0.005514607764780521,-0.003632818115875125,-0.022098643705248833
1690839496451387000,2.743386962890625,-0.006396113894879818,-0.0026525084394961596,-0.02129623293876648
1690839496461457700,2.753457763671875,-0.005937517620623112,-0.004825914278626442,-0.020907677710056305
1690839496471497700,2.763497802734375,-0.005224855616688728,-0.0008982842555269599,-0.02010553516447544
1690839496481537800,2.773537841796875,-0.005503688473254442,-0.000505734293255955,-0.018577944487333298
1690839496491577900,2.783577880859375,-0.0049279131926596165,-0.003572896821424365,-0.018335331231355667
1690839496501619000,2.793618896484375,-0.003907656297087669,-0.0014194648247212172,-0.019575832411646843
1690839496511659000,2.803658935546875,-0.00612313998863101,-0.0007483482477255166,-0.02135508880019188
1690839496521698800,2.81369873046875,-0.005425924435257912,-0.0038804919458925724,-0.020772922784090042
1690839496531739600,2.82373974609375,-0.0032866070978343487,-0.0018413095967844129,-0.02142592892050743
1690839496541779700,2.83377978515625,-0.005155880004167557,-0.0014048174489289522,-0.021193701773881912
1690839496551819800,2.84381982421875,-0.005075985100120306,-0.003346794517710805,-0.020924722775816917
1690839496561859800,2.85385986328125,-0.005299957003444433,-0.001865544356405735,-0.02075454592704773
1690839496571901000,2.86390087890625,-0.005697300657629967,-0.002061819192022085,-0.020061058923602104
1690839496581929500,2.873929443359375,-0.005821403581649065,-0.0007334345718845725,-0.018806977197527885
1690839496591969500,2.883969482421875,-0.006171342916786671,-0.001976331928744912,-0.021742047742009163
1690839496602010400,2.89401025390625,-0.00472418125718832,-0.0016306535108014941,-0.022975623607635498
1690839496612050400,2.904050537109375,-0.0032559807877987623,0.002454102970659733,-0.02412397786974907
1690839496622121200,2.914121337890625,-0.0041460092179477215,-0.0004822984628845006,-0.022412098944187164
1690839496632161300,2.924161376953125,-0.006131662055850029,-0.0011824434623122215,-0.02117372862994671
1690839496642201300,2.934201416015625,-0.006208361126482487,-0.004273840691894293,-0.014881211332976818
1690839496652241400,2.944241455078125,-0.005416869651526213,-0.004221376497298479,-0.011857991106808186
1690839496662282500,2.954282470703125,-0.005635515321046114,-0.006376140285283327,-0.00692128948867321
1690839496672322600,2.964322509765625,-0.004565989598631859,-0.0057321880012750626,-0.008945291861891747
1690839496682362600,2.974362548828125,-0.004780374001711607,-0.0026522420812398195,-0.012057728134095669
1690839496692403500,2.984403564453125,-0.0033878071699291468,-0.0005363606614992023,-0.019168101251125336
1690839496702443300,2.994443359375,-0.005291967187076807,0.0031856733839958906,-0.02894163690507412
1690839496712483300,3.0044833984375,-0.004041346721351147,0.00007057376933516935,-0.03847016021609306
1690839496722523400,3.0145234375,-0.003978496417403221,-0.0005936186062172055,-0.04177753999829292
1690839496732564500,3.024564453125,-0.005792375188320875,-0.001746234716847539,-0.03939187899231911
1690839496742604500,3.0346044921875,-0.004394748248159885,-0.006170277949422598,-0.03063354268670082
1690839496752644600,3.04464453125,-0.0051838429644703865,-0.005833121482282877,-0.02034042589366436
1690839496762685400,3.054685546875,-0.0027411917690187693,-0.0028762139845639467,-0.00842863880097866
1690839496772725200,3.064725341796875,-0.005438707303255796,-0.002257827902212739,0.0005195827106945217
1690839496782796300,3.07479638671875,-0.004677842371165752,0.0006303702248260379,0.003314570290967822
1690839496792836400,3.08483642578125,-0.004628840368241072,-0.00045833003241568804,0.002109489869326353
1690839496802876400,3.09487646484375,-0.005274923052638769,0.0008191883680410683,-0.006412625312805176
1690839496812917500,3.10491748046875,-0.004542021080851555,-0.0016887104138731956,-0.01768285594880581
1690839496822957600,3.11495751953125,-0.005671467632055283,-0.0020426444243639708,-0.033122800290584564
1690839496832997400,3.124997314453125,-0.006103698629885912,-0.0023401195649057627,-0.04097619652748108
1690839496843037400,3.135037353515625,-0.0036666402593255043,-0.002347842790186405,-0.04349740967154503
1690839496853078300,3.145078369140625,-0.00461552431806922,-0.00017710021347738802,-0.038903456181287766
1690839496863118300,3.155118408203125,-0.005942843854427338,-0.003855458227917552,-0.02978372760117054
1690839496873158400,3.165158447265625,-0.006487193983048201,-0.0002990729990415275,-0.020329507067799568
1690839496883199500,3.175199462890625,-0.005406749434769154,-0.0019654128700494766,-0.009917345829308033
1690839496893239600,3.185239501953125,-0.004084490239620209,-0.002430400811135769,-0.004008057527244091
1690839496903279600,3.195279541015625,-0.004076766781508923,-0.0038149782922118902,-0.004563060123473406
1690839496913319400,3.2053193359375,-0.005527124274522066,-0.0028573055751621723,-0.006729275453835726
1690839496923360300,3.2153603515625,-0.0027449200861155987,-0.003263970138505101,-0.013617807999253273
1690839496933400300,3.225400390625,-0.005055478774011135,0.000526506919413805,-0.021883727982640266
1690839496943471400,3.235471435546875,-0.006503173150122166,-0.002092445734888315,-0.029349898919463158
1690839496953511400,3.245511474609375,-0.0037055222783237696,-0.0007451524725183845,-0.030188528820872307
1690839496963551500,3.255551513671875,-0.006337790749967098,-0.000258859246969223,-0.027659058570861816
1690839496973592600,3.265592529296875,-0.0036735644098371267,-0.0029949909076094627,-0.02315591834485531
1690839496983632400,3.27563232421875,-0.004430434666574001,-0.0038480013608932495,-0.021916750818490982
1690839496993672400,3.28567236328125,-0.0031939290929585695,-0.00350445369258523,-0.01799364760518074
1690839497003712500,3.29571240234375,-0.0023491743486374617,-0.0015433018561452627,-0.014841530472040176
1690839497013753300,3.30575341796875,-0.004090881906449795,-0.0010109359864145517,-0.014479340054094791
1690839497023793400,3.31579345703125,-0.0041617220267653465,-0.003263703780248761,-0.018064221367239952
1690839497033833500,3.32583349609375,-0.006192914675921202,-0.002995523624122143,-0.018750784918665886
1690839497043874600,3.33587451171875,-0.004776645917445421,-0.002675145398825407,-0.023851269856095314
1690839497053914600,3.34591455078125,-0.006383064668625593,-0.0036946034524589777,-0.023433953523635864
1690839497063954400,3.355954345703125,-0.004892759490758181,-0.0026410568971186876,-0.022114623337984085
1690839497073994500,3.365994384765625,-0.004488225560635328,-0.0024810009635984898,-0.01967969536781311
1690839497084035300,3.376035400390625,-0.004805674310773611,-0.0022804648615419865,-0.016514794901013374
1690839497094075400,3.386075439453125,-0.004210724029690027,-0.0028479844331741333,-0.015300925821065903
1690839497104146400,3.396146484375,-0.004403536673635244,-0.0016370450612157583,-0.015360314399003983
1690839497114186500,3.4061865234375,-0.003424026072025299,-0.0007480819476768374,-0.017297230660915375
1690839497124226300,3.416226318359375,-0.005441637244075537,-0.0044195158407092094,-0.021641911938786507
1690839497134267400,3.426267333984375,-0.005411543417721987,-0.004574511665850878,-0.02371704764664173
1690839497144307500,3.436307373046875,-0.0041404166258871555,-0.003862382611259818,-0.027118436992168427
1690839497154347500,3.446347412109375,-0.00433189794421196,-0.0024226775858551264,-0.026983680203557014
1690839497164387600,3.4563876953125,-0.003769438248127699,-0.001466602785512805,-0.02526967041194439
1690839497174428400,3.466428466796875,-0.00577799417078495,-0.0027238810434937477,-0.021097827702760696
1690839497184468500,3.476468505859375,-0.00498197553679347,-0.00021837920940015465,-0.016436496749520302
1690839497194508500,3.486508544921875,-0.0043295007199049,-0.0026410568971186876,-0.01320768054574728
1690839497204549600,3.496549560546875,-0.0045585329644382,-0.0016487629618495703,-0.010220679454505444
1690839497214589400,3.50658935546875,-0.0030629015527665615,-0.0031883365008980036,-0.013430321589112282
1690839497224629500,3.51662939453125,-0.005711415316909552,-0.003994475118815899,-0.017110276967287064
1690839497234669600,3.526669677734375,-0.005767341703176498,-0.0028391960076987743,-0.020985975861549377
1690839497244710400,3.53671044921875,-0.004325772635638714,-0.0041609229519963264,-0.023674169555306435
1690839497254750500,3.54675048828125,-0.003748399205505848,-0.00250576832331717,-0.027296070009469986
1690839497264821500,3.556821533203125,-0.006177468225359917,-0.0038456046022474766,-0.02804921194911003
1690839497274861300,3.566861328125,-0.005006209947168827,-0.0008077367674559355,-0.026213495060801506
1690839497284901400,3.5769013671875,-0.0044408212415874004,-0.0006657902849838138,-0.021030450239777565
1690839497294942500,3.5869423828125,-0.0038951393216848373,-0.001374723738990724,-0.01967836357653141
1690839497304982500,3.596982421875,-0.005178783088922501,-0.0007478156476281583,-0.015055648051202297
1690839497315022600,3.607022705078125,-0.005388640332967043,-0.0019236012594774365,-0.014414092525839806
1690839497325063400,3.6170634765625,-0.004233094397932291,-0.003139067906886339,-0.013556288555264473
1690839497335103500,3.627103515625,-0.004194744862616062,-0.0014482269762083888,-0.016634104773402214
1690839497345143300,3.637143310546875,-0.004458930809050798,-0.0033992587123066187,-0.021587317809462547
1690839497355183400,3.647183349609375,-0.005528988782316446,-0.004249872639775276,-0.02381771430373192
1690839497365224400,3.657224365234375,-0.005744704511016607,-0.0026900589000433683,-0.026864370331168175
1690839497375264500,3.667264404296875,-0.005616340320557356,-0.002681004349142313,-0.027479028329253197
1690839497385304600,3.6773046875,-0.003335076617076993,-0.0012112056137993932,-0.024640897288918495
1690839497395344400,3.687344482421875,-0.003942543640732765,0.0007661914569325745,-0.018026670441031456
1690839497405385500,3.697385498046875,-0.00478410255163908,0.0033276197500526905,-0.017551563680171967
1690839497415425500,3.707425537109375,-0.0049153962172567844,-0.0008290420519188046,-0.014887336641550064
1690839497425496300,3.717496337890625,-0.0033992587123066187,-0.0006996124284341931,-0.01441142987459898
1690839497435536400,3.727536376953125,-0.004740959499031305,-0.0021552962716668844,-0.018336929380893707
1690839497445576400,3.737576416015625,-0.0051801144145429134,-0.0031787490006536245,-0.017952103167772293
1690839497455617500,3.747617431640625,-0.0052381716668605804,-0.00003222424857085571,-0.021380122750997543
1690839497465657600,3.75765771484375,-0.007240069564431906,-0.003876763628795743,-0.022394521161913872
1690839497475697400,3.767697509765625,-0.0054818508215248585,-0.0019387812353670597,-0.025959961116313934
1690839497485738500,3.777738525390625,-0.0029939257074147463,0.00005858954318682663,-0.02267814800143242
1690839497495778300,3.7877783203125,-0.004207528196275234,-0.0021491709630936384,-0.022698653861880302
1690839497505818400,3.797818359375,-0.0039084553718566895,-0.0003683151735458523,-0.01774863712489605
1690839497515858400,3.8078583984375,-0.005065065808594227,-0.0008852347382344306,-0.01708737388253212
1690839497525899500,3.8178994140625,-0.004259193316102028,-0.0049161952920258045,-0.017253022640943527
1690839497535939300,3.827939208984375,-0.005642705596983433,-0.0031531827989965677,-0.015740614384412766
1690839497545979400,3.8379794921875,-0.00469621829688549,-0.0011057445080950856,-0.01685781031847
1690839497556020500,3.8480205078125,-0.005479720421135426,-0.005327120888978243,-0.020539630204439163
1690839497566060500,3.858060546875,-0.004455468617379665,-0.003838147735223174,-0.022517560049891472
1690839497576100400,3.868100341796875,-0.005884787067770958,-0.0012476909905672073,-0.023246733471751213
1690839497586177000,3.878177001953125,-0.006425675004720688,-0.0023957795929163694,-0.023935159668326378
1690839497596217000,3.888217041015625,-0.0041492050513625145,-0.0035720979794859886,-0.022532206028699875
1690839497606257200,3.898257080078125,-0.004495415836572647,-0.00013502225920092314,-0.020962540060281754
1690839497616298200,3.90829833984375,-0.004594751633703709,-0.002498843939974904,-0.019232017919421196
1690839497626338300,3.91833837890625,-0.0041457428596913815,-0.0026724820490926504,-0.019355054944753647
1690839497636378400,3.92837841796875,-0.0028626318089663982,-0.0025875272694975138,-0.016865532845258713
1690839497646419200,3.938419189453125,-0.003988882526755333,-0.0014950985787436366,-0.017283648252487183
1690839497656459000,3.948458984375,-0.003992078360170126,-0.0033241575583815575,-0.019269036129117012
1690839497666499000,3.9584990234375,-0.005441104527562857,-0.002246642718091607,-0.021351628005504608
1690839497676539100,3.9685390625,-0.004550543148070574,-0.004717257339507341,-0.023067768663167953
1690839497686580200,3.978580322265625,-0.005881324876099825,-0.00233825552277267,-0.024343956261873245
1690839497696620300,3.988620361328125,-0.004107659682631493,-0.0026703516487032175,-0.020017383620142937
1690839497706660400,3.998660400390625,-0.004939364735037088,-0.002567820018157363,-0.020744159817695618
1690839497716701200,4.008701171875,-0.004945490043610334,-0.0013004215434193611,-0.01924986019730568
1690839497726741000,4.018740966796875,-0.004780640359967947,-0.0019462381023913622,-0.019328424707055092
1690839497736781000,4.028781005859375,-0.005081311333924532,-0.0019592875614762306,-0.01805463433265686
1690839497746852000,4.03885205078125,-0.005665875039994717,-0.0011994877131655812,-0.01864452473819256
1690839497756892200,4.04889208984375,-0.005064533557742834,-0.0012277172645553946,-0.019624833017587662
1690839497766933200,4.058933349609375,-0.003787015099078417,-0.001555552356876433,-0.02185176871716976
1690839497776973300,4.068973388671875,-0.005051217507570982,-0.003871171036735177,-0.02261929214000702
1690839497787013400,4.079013427734375,-0.005289304070174694,-0.0026016421616077423,-0.021390242502093315
1690839497797053200,4.08905322265625,-0.004642955027520657,-0.0026458504144102335,-0.02220011129975319
1690839497807094000,4.099093994140625,-0.0037145770620554686,-0.0006053365068510175,-0.02267388626933098
1690839497817134000,4.109134033203125,-0.002745985286310315,-0.0022266688756644726,-0.021865351125597954
1690839497827174100,4.119174072265625,-0.004600078333169222,-0.0009731190511956811,-0.020485833287239075
1690839497837215200,4.12921533203125,-0.004726844374090433,-0.003034938359633088,-0.018875153735280037
1690839497847255300,4.13925537109375,-0.005723932292312384,-0.004761732183396816,-0.01882988028228283
1690839497857295400,4.14929541015625,-0.005151885095983744,-0.0013930995482951403,-0.018808308988809586
1690839497867335200,4.159335205078125,-0.005979595705866814,-0.0013915016315877438,-0.01872388646006584
1690839497877376000,4.1693759765625,-0.005608084611594677,-0.000931041082367301,-0.01949833333492279
1690839497887416000,4.179416015625,-0.0051774512976408005,-0.0033625070936977863,-0.0204570721834898
1690839497897487000,4.189487060546875,-0.003239469137042761,-0.0016554208705201745,-0.02046426199376583
1690839497907527200,4.199527099609375,-0.005060805007815361,-0.004442685283720493,-0.02010313794016838
1690839497917567200,4.209567138671875,-0.004589691758155823,-0.0006359628750942647,-0.020241355523467064
1690839497927608300,4.2196083984375,-0.005529255140572786,-0.0027113643009215593,-0.020108196884393692
1690839497937648400,4.2296484375,-0.004810734186321497,-0.0037641117814928293,-0.02047065459191799
1690839497947688200,4.239688232421875,-0.0037468012887984514,-0.00039867521263659,-0.01775183342397213
1690839497957728300,4.249728271484375,-0.004895422607660294,-0.0026437200140208006,-0.020721789449453354
1690839497967769000,4.25976904296875,-0.00433136522769928,-0.0013459615875035524,-0.02027864009141922
1690839497977809200,4.26980908203125,-0.0032533176708966494,-0.002945189829915762,-0.01937476359307766
1690839497987849200,4.27984912109375,-0.004177168011665344,-0.003553189570084214,-0.01811695285141468
1690839497997890300,4.289890380859375,-0.004661597311496735,-0.0011640676530078053,-0.02056865766644478
1690839498007930400,4.299930419921875,-0.004911668132990599,-0.0025395904667675495,-0.022580143064260483
1690839498017970200,4.30997021484375,-0.00526613462716341,-0.0023315974976867437,-0.018740132451057434
1690839498028010200,4.32001025390625,-0.004853078629821539,-0.0027241474017500877,-0.021793179214000702
1690839498038051000,4.330051025390625,-0.00455826660618186,-0.002335592173039913,-0.02094150148332119
1690839498048091100,4.340091064453125,-0.003950000274926424,-0.003917243797332048,-0.01991751603782177
1690839498058162200,4.350162109375,-0.0049223206005990505,-0.002514024032279849,-0.020137226209044456
1690839498068202200,4.3602021484375,-0.003756921272724867,-0.0008953547803685069,-0.01840697042644024
1690839498078242300,4.3702421875,-0.0036999296862632036,-0.003605121048167348,-0.01750628836452961
1690839498088283400,4.380283447265625,-0.005526592023670673,-0.001281779375858605,-0.021093834191560745
1690839498098323200,4.3903232421875,-0.004577973857522011,-0.0017901768442243338,-0.019950538873672485
1690839498108363300,4.40036328125,-0.004715925548225641,-0.0027632960118353367,-0.019950006157159805
1690839498118403000,4.410403076171875,-0.017892714589834213,0.09007929265499115,-0.020615529268980026
1690839498128444200,4.420444091796875,-0.003915645647794008,-0.20251475274562836,0.030124345794320107
1690839498138484200,4.430484130859375,-0.0025654230266809464,-0.037097033113241196,-0.011027617380023003
1690839498148524300,4.440524169921875,-0.00782676413655281,-0.03142503276467323,-0.010397247038781643
1690839498158565400,4.4505654296875,-0.010718956589698792,-0.030657244846224785,-0.018567558377981186
1690839498168605200,4.460605224609375,-0.009677127934992313,-0.011421765200793743,-0.03123408555984497
1690839498178645200,4.470645263671875,-0.0020658141002058983,0.011833223514258862,-0.03111823834478855
1690839498188685000,4.48068505859375,-0.00008096009696600959,0.026623887941241264,-0.02979464642703533
1690839498198726100,4.49072607421875,-0.0000774979853304103,0.023847809061408043,-0.02220410481095314
1690839498208766200,4.50076611328125,-0.0036519928835332394,0.01025689858943224,-0.01756754145026207
1690839498218837200,4.510837158203125,-0.00726536987349391,-0.00743288267403841,-0.010353305377066135
1690839498228877300,4.520877197265625,-0.0087205208837986,-0.022777484729886055,-0.0086001455783844
1690839498238917000,4.530917236328125,-0.007767375558614731,-0.023183083161711693,-0.012064119800925255
1690839498248958200,4.540958251953125,-0.002763562137261033,-0.01357306633144617,-0.011985023505985737
1690839498258998300,4.550998291015625,-0.0013518205378204584,0.001776328426785767,-0.016321714967489243
1690839498269038000,4.5610380859375,-0.0020969731267541647,0.011498730629682541,-0.020778514444828033
1690839498279079200,4.5710791015625,-0.005367601290345192,0.01648336835205555,-0.023004384711384773
1690839498289119200,4.581119140625,-0.0070949275977909565,0.011439075693488121,-0.02719833143055439
1690839498299159300,4.5911591796875,-0.007798268459737301,0.0023100259713828564,-0.028027107939124107
1690839498309199000,4.60119921875,-0.005120726302266121,-0.011438276618719101,-0.025103488937020302
1690839498319240200,4.611240234375,-0.002888997085392475,-0.015116368420422077,-0.025116804987192154
1690839498329280300,4.6212802734375,-0.003100185887888074,-0.012518721632659435,-0.022760706022381783
1690839498339320000,4.631320068359375,-0.004627508576959372,-0.005677592940628529,-0.01943761296570301
1690839498349361200,4.641361083984375,-0.005644570104777813,0.0036661075428128242,-0.01781148836016655
1690839498359401200,4.651401123046875,-0.006638728082180023,0.007125553674995899,-0.01637311466038227
1690839498369441300,4.661441162109375,-0.006100236903876066,0.005244030617177486,-0.01465617399662733
1690839498379512000,4.671511962890625,-0.0041558630764484406,0.0010570086305961013,-0.016096411272883415
1690839498389552000,4.68155224609375,-0.0032445292454212904,-0.004532434046268463,-0.015748869627714157
1690839498399592200,4.69159228515625,-0.002430134452879429,-0.008782838471233845,-0.01836329512298107
1690839498409633300,4.70163330078125,-0.0041215079836547375,-0.010000701993703842,-0.020787304267287254
1690839498419673000,4.711673095703125,-0.004991296678781509,-0.0046091326512396336,-0.022362563759088516
1690839498429713200,4.721713134765625,-0.0038312235847115517,-0.000031957933970261365,-0.024443291127681732
1690839498439754200,4.731754150390625,-0.005358013790100813,0.005447496194392443,-0.023608656600117683
1690839498449794300,4.741794189453125,-0.004081294406205416,0.003905792022123933,-0.022853117436170578
1690839498459834000,4.751834228515625,-0.004387557972222567,0.003087402554228902,-0.021079452708363533
1690839498469874200,4.761874267578125,-0.0046663908287882805,-0.0021164140198379755,-0.020600350573658943
1690839498479915300,4.771915283203125,-0.005141498986631632,-0.005544435232877731,-0.018728947266936302
1690839498489955000,4.781955078125,-0.00634950865060091,-0.0075822859071195126,-0.019416041672229767
1690839498499995100,4.7919951171875,-0.005369731690734625,-0.007390804588794708,-0.017535850405693054
1690839498510036200,4.8020361328125,-0.005056810099631548,-0.0020548950415104628,-0.015909191220998764
1690839498520076300,4.812076171875,-0.004668254870921373,0.0007014766451902688,-0.017310546711087227
1690839498530116000,4.8221162109375,-0.004081294406205416,0.0021137509029358625,-0.017228255048394203
1690839498540187100,4.832187255859375,-0.004728176165372133,0.0011283813510090113,-0.01769271120429039
1690839498550227200,4.842227294921875,-0.0047055394388735294,0.000651675509288907,-0.021886389702558517
1690839498560267300,4.852267333984375,-0.005277053453028202,-0.004816593136638403,-0.02244139276444912
1690839498570308000,4.86230810546875,-0.004071973264217377,-0.005806223955005407,-0.022585470229387283
1690839498580347400,4.872347412109375,-0.0034906051587313414,-0.0032256206031888723,-0.022371884435415268
1690839498590387500,4.882387451171875,-0.004950284026563168,-0.003179814200848341,-0.025105353444814682
1690839498600428300,4.89242822265625,-0.004215251188725233,-0.0008487494196742773,-0.021619008854031563
1690839498610468400,4.90246826171875,-0.005680522415786982,-0.00101173494476825,-0.020927120000123978
1690839498620508400,4.91250830078125,-0.004859469830989838,-0.0019507654942572117,-0.017411481589078903
1690839498630548200,4.92254833984375,-0.00595589354634285,-0.0013198626693338156,-0.01606818288564682
1690839498640589300,4.93258935546875,-0.005760417319834232,-0.0018687400734052062,-0.01750895194709301
1690839498650629400,4.94262939453125,-0.006191316992044449,-0.010489658452570438,-0.017621604725718498
1690839498660669400,4.95266943359375,-0.004363855812698603,-0.00498117646202445,-0.016347281634807587
1690839498670710300,4.962710205078125,-0.004022172186523676,-0.0031523837242275476,-0.019120963290333748
1690839498680750300,4.972750244140625,-0.006195844151079655,-0.0011464908020570874,-0.019819777458906174
1690839498690790400,4.982790283203125,-0.004988633096218109,0.000811997801065445,-0.02382437326014042
1690839498700861400,4.992861328125,-0.0070797475054860115,-0.0006657902849838138,-0.022827817127108574
1690839498710901200,5.0029013671875,-0.005660815164446831,-0.0005259743193164468,-0.022059230133891106
1690839498720942300,5.0129423828125,-0.005109008401632309,-0.00086872314568609,-0.0209492240101099
1690839498730982400,5.022982421875,-0.004691424313932657,-0.003709516953676939,-0.020233632996678352
1690839498741022500,5.0330224609375,-0.004378769546747208,-0.005432582460343838,-0.021200627088546753
1690839498751062300,5.043062255859375,-0.004344680812209845,-0.003772101365029812,-0.020563865080475807
1690839498761103400,5.053103271484375,-0.004206462763249874,-0.0027896612882614136,-0.017851168289780617
1690839498771143400,5.063143310546875,-0.00449994346126914,0.00035180358099751174,-0.01678350754082203
1690839498781183200,5.073183349609375,-0.00427224300801754,-0.00004926848123432137,-0.01685807667672634
1690839498791224300,5.083224365234375,-0.0052293832413852215,-0.00043329631444066763,-0.020503943786025047
1690839498801264400,5.093264404296875,-0.0049369679763913155,-0.0009331716573797166,-0.01961258426308632
1690839498811304400,5.103304443359375,-0.004137753508985043,-0.0015984292840585113,-0.022227007895708084
1690839498821344300,5.11334423828125,-0.0041124531999230385,-0.005175853613764048,-0.02251409739255905
1690839498831385300,5.12338525390625,-0.004126567859202623,-0.0019747340120375156,-0.021682392805814743
1690839498841425400,5.13342529296875,-0.005215534474700689,-0.0003640541108325124,-0.021951904520392418
1690839498851465500,5.143465576171875,-0.0057678744196891785,-0.0006817692192271352,-0.02057052217423916
1690839498861536300,5.153536376953125,-0.005120992194861174,-0.0005091963685117662,-0.02040008082985878
1690839498871576300,5.163576416015625,-0.004962800536304712,-0.0019984361715614796,-0.01961285062134266
1690839498881617400,5.173617431640625,-0.004111654590815306,-0.0018777948571369052,-0.019292738288640976
1690839498891657500,5.183657470703125,-0.0049526807852089405,-0.0023278691805899143,-0.0190794188529253
1690839498901697300,5.193697265625,-0.005401689559221268,-0.002156361471861601,-0.018547318875789642
1690839498911737300,5.2037373046875,-0.005536711774766445,-0.003148389048874378,-0.019454658031463623
1690839498921778400,5.2137783203125,-0.0046296389773488045,-0.0008567389450035989,-0.020723121240735054
1690839498931818200,5.223818359375,-0.004287689458578825,-0.002788063371554017,-0.02045893669128418
1690839498941858300,5.2338583984375,-0.005212072748690844,-0.002210956299677491,-0.02051672711968422
1690839498951899400,5.2438994140625,-0.005312739871442318,-0.0023161512799561024,-0.02033483237028122
1690839498961939500,5.253939453125,-0.004969458561390638,-0.0010604707058519125,-0.020661601796746254
1690839498971979300,5.263979248046875,-0.004097007215023041,-0.0037915424909442663,-0.020671190693974495
1690839498982019300,5.274019287109375,-0.005333778914064169,-0.0024522386956959963,-0.022531939670443535
1690839498992060400,5.284060302734375,-0.005302087403833866,-0.003724963404238224,-0.021734056994318962
1690839499002100500,5.2941005859375,-0.005250155925750732,-0.0007158577209338546,-0.021792646497488022
1690839499012140300,5.304140380859375,-0.004787831101566553,0.00011158645065734163,-0.01908021792769432
1690839499022211300,5.31421142578125,-0.005622998345643282,-0.0017180051654577255,-0.01769377663731575
1690839499032251400,5.32425146484375,-0.005591573193669319,-0.0014154701493680477,-0.020539363846182823
1690839499042292500,5.33429248046875,-0.005535114090889692,-0.002749713836237788,-0.01799125038087368
1690839499052332300,5.344332275390625,-0.004013650119304657,-0.0027891285717487335,-0.02063789963722229
1690839499062372400,5.354372314453125,-0.005045092198997736,-0.0009952232940122485,-0.02137053571641445
1690839499072412200,5.364412109375,-0.0046243127435445786,-0.003992877434939146,-0.021861622110009193
1690839499082453200,5.374453369140625,-0.004573712591081858,-0.0019979034550487995,-0.022166820243000984
1690839499092493300,5.384493408203125,-0.005702626891434193,-0.002638926263898611,-0.022844862192869186
1690839499102533400,5.394533447265625,-0.006434197071939707,-0.0019406455103307962,-0.0211257915943861
1690839499112574500,5.404574462890625,-0.003997138235718012,-0.00293373828753829,-0.01992577128112316
1690839499122614300,5.4146142578125,-0.005274390336126089,-0.0015193333383649588,-0.01889565959572792
1690839499132654300,5.424654296875,-0.004538292996585369,-0.0035814191214740276,-0.021268803626298904
1690839499142694100,5.434694091796875,-0.004610997159034014,-0.001499625970609486,-0.019776901230216026
1690839499152735500,5.444735595703125,-0.003940945956856012,-0.001213336130604148,-0.018744125962257385
1690839499162775300,5.454775390625,-0.004655205644667149,-0.004263454582542181,-0.020732974633574486
1690839499172815400,5.4648154296875,-0.004489024169743061,-0.001505484920926392,-0.019273562356829643
1690839499182886400,5.474886474609375,-0.006200105417519808,-0.0016319850692525506,-0.01888553984463215
1690839499192926500,5.484926513671875,-0.004848551005125046,-0.0007898935582488775,-0.020856812596321106
1690839499202967300,5.49496728515625,-0.004748682491481304,-0.00270710326731205,-0.022665098309516907
1690839499213007400,5.50500732421875,-0.004089283756911755,-0.003385144053027034,-0.021809691563248634
1690839499223047200,5.515047119140625,-0.0037774275988340378,-0.0008969526388682425,-0.02269439399242401
1690839499233088300,5.525088134765625,-0.0036400086246430874,-0.0011835087789222598,-0.02137160114943981
1690839499243128300,5.53512841796875,-0.004863997455686331,0.00035180358099751174,-0.02111247554421425
1690839499253168400,5.54516845703125,-0.0067963870242238045,-0.000734766130335629,-0.018084460869431496
1690839499263208400,5.55520849609375,-0.005408347584307194,-0.003014165675267577,-0.019113773480057716
1690839499273249300,5.565249267578125,-0.004400340840220451,-0.00407543545588851,-0.01901070959866047
1690839499283289300,5.575289306640625,-0.004217382054775953,-0.005302087403833866,-0.01938221976161003
1690839499293329200,5.5853291015625,-0.0044264402240514755,-0.0023331954143941402,-0.020846426486968994
1690839499303370200,5.595370361328125,-0.004478904418647289,-0.00023675501870457083,-0.020446419715881348
1690839499313410300,5.605410400390625,-0.006479204632341862,-0.0020269318483769894,-0.019996877759695053
1690839499323450400,5.615450439453125,-0.006813431158661842,0.0003123887872789055,-0.02045653946697712
1690839499333490400,5.625490478515625,-0.005503688473254442,0.0004889564006589353,-0.022284267470240593
1690839499343561500,5.6355615234375,-0.004340686369687319,-0.0013273194199427962,-0.021560152992606163
1690839499353601500,5.6456015625,-0.005702893249690533,-0.0007712514488957822,-0.020797690376639366
1690839499363642400,5.655642333984375,-0.004471180960536003,-0.0034325483720749617,-0.019176891073584557
1690839499373682200,5.66568212890625,-0.0044165863655507565,-0.004085821565240622,-0.017735587432980537
1690839499383722200,5.67572216796875,-0.0029939257074147463,-0.0032921996898949146,-0.0179385207593441
1690839499393763300,5.685763427734375,-0.005151352379471064,-0.0009211873984895647,-0.020676249638199806
1690839499403803400,5.695803466796875,-0.004933505784720182,-0.003713778220117092,-0.018275942653417587
1690839499413843500,5.705843505859375,-0.006070942152291536,-0.0013590110465884209,-0.017784323543310165
1690839499423883500,5.715883544921875,-0.005505286622792482,-0.0034378746058791876,-0.022037390619516373
1690839499433924400,5.72592431640625,-0.004348942078649998,0.00021305288828443736,-0.020556140691041946
1690839499443964200,5.735964111328125,-0.003861583536490798,-0.0018453042721375823,-0.021975606679916382
1690839499454004200,5.746004150390625,-0.003966778516769409,-0.0033305492252111435,-0.020963072776794434
1690839499464045300,5.75604541015625,-0.005046423990279436,-0.00407463638111949,-0.019524432718753815
1690839499474085400,5.76608544921875,-0.0026434536557644606,-0.0021552962716668844,-0.020545488223433495
1690839499484125400,5.77612548828125,-0.006535663735121489,-0.002359027974307537,-0.0199795663356781
1690839499494196500,5.786196533203125,-0.003832288784906268,-0.0029177593532949686,-0.01846769079566002
1690839499504236500,5.796236572265625,-0.0057710702531039715,-0.003469566348940134,-0.01972923055291176
1690839499514277400,5.80627734375,-0.005760150961577892,-0.0025965820532292128,-0.01907995156943798
1690839499524317200,5.816317138671875,-0.005287972744554281,-0.0031617048662155867,-0.022398782894015312
1690839499534357200,5.826357177734375,-0.004515123087912798,-0.0024474449455738068,-0.021748971194028854
1690839499544397300,5.836397216796875,-0.003349457634612918,-0.0012950951931998134,-0.020173178985714912
1690839499554438400,5.8464384765625,-0.0037473340053111315,-0.0008127967594191432,-0.02053004316985607
1690839499564478500,5.856478515625,-0.006469883490353823,-0.0027949875220656395,-0.03003113530576229
1690839499574518500,5.8665185546875,-0.0043713124468922615,-0.0033454629592597485,-0.02064029686152935
1690839499584534000,5.876533935546875,-0.004968925844877958,-0.0035119105596095324,-0.019276225939393044
1690839499594574800,5.886574951171875,-0.005056011490523815,-0.0024322650860995054,-0.01998835615813732
1690839499604614700,5.89661474609375,-0.00430260319262743,-0.0021827267482876778,-0.019205385819077492
1690839499614654700,5.90665478515625,-0.005563609767705202,-0.001142496126703918,-0.01949380710721016
1690839499624695800,5.91669580078125,-0.005144960712641478,-0.0020098877139389515,-0.019539080560207367
1690839499634735900,5.92673583984375,-0.006601976230740547,-0.002288188086822629,-0.02124590054154396
1690839499644776000,5.93677587890625,-0.00443869037553668,-0.0024799355305731297,-0.020363595336675644
1690839499654847000,5.946846923828125,-0.006021406967192888,-0.0015875103417783976,-0.0202751774340868
1690839499664886800,5.95688671875,-0.005528189707547426,-0.0034120420459657907,-0.02129277214407921
1690839499674927600,5.966927734375,-0.0046546729281544685,-0.00436092633754015,-0.02046532742679119
1690839499684967700,5.9769677734375,-0.003780889790505171,-0.0008351673022843897,-0.019055183976888657
1690839499695007700,5.9870078125,-0.005658684764057398,-0.0008825715631246567,-0.02046665921807289
1690839499705047800,5.9970478515625,-0.00469462014734745,-0.0007238471880555153,-0.02021845243871212
1690839499715089000,6.0070888671875,-0.004733236040920019,-0.002852778183296323,-0.020355071872472763
1690839499725129000,6.01712890625,-0.006139917764812708,-0.002603506203740835,-0.020476246252655983
1690839499735168800,6.027168701171875,-0.003983289934694767,-0.003674895968288183,-0.021747373044490814
1690839499745209600,6.037209716796875,-0.005627791862934828,-0.0034613104071468115,-0.021326061338186264
1690839499755249700,6.047249755859375,-0.004319913685321808,-0.0033337450586259365,-0.021167602390050888
1690839499765289700,6.057289794921875,-0.004704474005848169,-0.0024258734192699194,-0.02171408385038376
1690839499775329800,6.067329833984375,-0.0054357778280973434,-0.0008080030675046146,-0.019596870988607407
1690839499785371000,6.077370849609375,-0.006739395204931498,-0.0007664577569812536,-0.020494090393185616
1690839499795411000,6.087410888671875,-0.004728708881884813,-0.00152359448838979,-0.020506341010332108
1690839499805451000,6.097450927734375,-0.0041731735691428185,-0.0013291836949065328,-0.01805836334824562
1690839499815521800,6.107521728515625,-0.00577932596206665,-0.0036554548423737288,-0.018987806513905525
1690839499825561900,6.117561767578125,-0.005304750520735979,-0.0026349315885454416,-0.01986798085272312
1690839499835602700,6.127602783203125,-0.0049156625755131245,-0.0017427726415917277,-0.02118970826268196
1690839499845642800,6.137642822265625,-0.005646700505167246,-0.0020301276817917824,-0.01974361017346382
1690839499855682800,6.147682861328125,-0.005044027231633663,-0.0018753979820758104,-0.021927136927843094
1690839499865723000,6.157722900390625,-0.0057436395436525345,-0.0007821703911758959,-0.020120181143283844
1690839499875764000,6.167763916015625,-0.004851214122027159,-0.002919357270002365,-0.019122827798128128
1690839499885803800,6.1778037109375,-0.0027302727103233337,-0.0005584649043157697,-0.020746290683746338
1690839499895843800,6.18784375,-0.0037473340053111315,-0.0022034994326531887,-0.018740931525826454
1690839499905884700,6.197884765625,-0.004856540355831385,-0.0020237360149621964,-0.02094576135277748
1690839499915924700,6.2079248046875,-0.003451190423220396,-0.0004058657505083829,-0.01979714073240757
1690839499925964800,6.21796484375,-0.004030427895486355,-0.0019981698133051395,-0.020229637622833252
1690839499936004900,6.2280048828125,-0.00563977612182498,-0.002487925114110112,-0.021447235718369484
1690839499946046000,6.2380458984375,-0.005332181230187416,-0.0010436928132548928,-0.020537499338388443
1690839499956086000,6.2480859375,-0.004640025552362204,-0.0011795139871537685,-0.020662667229771614
1690839499966125800,6.258125732421875,-0.005371862091124058,-0.001365668955259025,-0.020772123709321022
1690839499976196900,6.26819677734375,-0.006272543221712112,-0.00256382510997355,-0.0200464129447937
1690839499986237000,6.27823681640625,-0.005305283237248659,-0.0021427792962640524,-0.021981997415423393
1690839499996277800,6.28827783203125,-0.0036615801509469748,-0.002942793071269989,-0.020059728994965553
1690839500006317800,6.29831787109375,-0.0039292280562222,-0.002426672261208296,-0.0208850409835577
1690839500016358000,6.30835791015625,-0.0043894220143556595,-0.0011885687708854675,-0.018987273797392845
1690839500026397700,6.318397705078125,-0.0038509308360517025,-0.0005110605852678418,-0.018435467034578323
1690839500036438800,6.328438720703125,-0.005770004820078611,-0.0037856835406273603,-0.018796857446432114
1690839500046478800,6.338478759765625,-0.004171042703092098,-0.0018706043483689427,-0.02082485519349575
1690839500056519000,6.348518798828125,-0.003822967642918229,-0.002674612682312727,-0.01889592595398426
1690839500066559700,6.358559814453125,-0.006512760184705257,-0.0019254654180258512,-0.020115921273827553
1690839500076599800,6.368599853515625,-0.006248041987419128,-0.0033686324022710323,-0.020625382661819458
1690839500086639900,6.378639892578125,-0.004819788970053196,-0.0017840516520664096,-0.022910375148057938
1690839500096680000,6.388679931640625,-0.0027419906109571457,-0.003620833856984973,-0.019475163891911507
1690839500106721000,6.398720947265625,-0.0060048955492675304,-0.0021640846971422434,-0.02076466754078865
1690839500116760800,6.4087607421875,-0.004971588961780071,-0.0003254382754676044,-0.02081127278506756
1690839500126801000,6.41880078125,-0.004254932515323162,-0.002775280037894845,-0.020898357033729553
1690839500136872000,6.428871826171875,-0.005293032620102167,-0.0023185480386018753,-0.02076679654419422
1690839500146911700,6.438911865234375,-0.004449876025319099,-0.001383778522722423,-0.020267987623810768
1690839500156952800,6.448952880859375,-0.00546240946277976,-0.0007302387384697795,-0.019694343209266663
1690839500166993000,6.458992919921875,-0.004019509069621563,-0.002516953507438302,-0.020248280838131905
1690839500177032700,6.46903271484375,-0.0051534827798604965,-0.0022690133191645145,-0.020189955830574036
1690839500187073800,6.47907373046875,-0.004491687286645174,-0.000931307440623641,-0.019058113917708397
1690839500197113900,6.48911376953125,-0.004886634182184935,-0.005441370885819197,-0.020446952432394028
1690839500207154000,6.49915380859375,-0.0030061763245612383,0.00025486451340839267,-0.02028822712600231
1690839500217193700,6.50919384765625,-0.0075905416160821915,-0.0018916432745754719,-0.021156949922442436
1690839500227234800,6.51923486328125,-0.004254666157066822,-0.002493517706170678,-0.021156683564186096
1690839500237275000,6.52927490234375,-0.004344680812209845,-0.006554838269948959,-0.021933527663350105
1690839500247315000,6.53931494140625,-0.005819805897772312,-0.003322559641674161,-0.02316843532025814
1690839500257356000,6.54935595703125,-0.0057010287418961525,-0.0012130698887631297,-0.021622471511363983
1690839500267395800,6.559395751953125,-0.006372678093612194,-0.0017899106023833156,-0.023127423599362373
1690839500277436000,6.569435791015625,-0.003732952754944563,0.0027300063520669937,-0.014415957033634186
1690839500287475700,6.579475830078125,-0.006485329940915108,-0.0027079021092504263,-0.020867997780442238
1690839500297546800,6.589546630859375,-0.004303668159991503,-0.0012058793799951673,-0.01937076821923256
1690839500307586800,6.5995869140625,-0.005273325368762016,-0.00307595101185143,-0.018864501267671585
1690839500317628000,6.6096279296875,-0.004987834487110376,-0.00216488353908062,-0.02255723997950554
1690839500327667700,6.619667724609375,-0.003768905531615019,-0.002519882982596755,-0.02093164622783661
1690839500337707800,6.629707763671875,-0.005047223065048456,-0.0026080335956066847,-0.020120980218052864
1690839500347748900,6.639748779296875,-0.004593153949826956,-0.0012572783743962646,-0.02190263569355011
1690839500357789000,6.649788818359375,-0.004477306269109249,-0.0014924354618415236,-0.020167052745819092
1690839500367828700,6.659828857421875,-0.004299940075725317,-0.0010247844038531184,-0.021685320883989334
1690839500377868800,6.669868896484375,-0.0036099147982895374,-0.0008269115351140499,-0.019478626549243927
1690839500387910000,6.679909912109375,-0.003745469730347395,-0.0035814191214740276,-0.018739866092801094
1690839500397949700,6.68994970703125,-0.003834685543552041,-0.002797118155285716,-0.02046000212430954
1690839500407989800,6.69998974609375,-0.0043534692376852036,-0.001996571896597743,-0.02046612650156021
1690839500418030800,6.71003076171875,-0.004180896561592817,-0.001064998097717762,-0.022703714668750763
1690839500428070700,6.720070556640625,-0.004042944870889187,0.00021544973424170166,-0.020842164754867554
1690839500438110700,6.73011083984375,-0.005391569808125496,-0.0004063983797095716,-0.020072510465979576
1690839500448150800,6.74015087890625,-0.006583866663277149,-0.0029142971616238356,-0.02177773416042328
1690839500458221800,6.750221923828125,-0.004030161537230015,-0.0017033577896654606,-0.02118225023150444
1690839500468263000,6.760262939453125,-0.004317782819271088,-0.0016069513512775302,-0.021273063495755196
1690839500478302700,6.770302734375,-0.0054789213463664055,-0.0009632653673179448,-0.020478643476963043
1690839500488342800,6.7803427734375,-0.0037207023706287146,-0.0014426343841478229,-0.018757708370685577
1690839500498382800,6.7903828125,-0.0038570561446249485,-0.0035268242936581373,-0.01938621513545513
1690839500508423700,6.800423583984375,-0.0052413675002753735,-0.0019244002178311348,-0.019830696284770966
1690839500518463700,6.810463623046875,-0.004857073072344065,-0.0032860743813216686,-0.021564947441220284
1690839500528503800,6.82050390625,-0.0057553574442863464,-0.003826429834589362,-0.01894519478082657
1690839500538543600,6.830543701171875,-0.00475454144179821,-0.002123870886862278,-0.02118384838104248
1690839500548584700,6.840584716796875,-0.004036819562315941,-0.0012958941515535116,-0.020599285140633583
1690839500558624800,6.850624755859375,-0.005655488930642605,-0.00247567449696362,-0.020246682688593864
1690839500568664800,6.860664794921875,-0.005373992491513491,-0.001008805469609797,-0.021644309163093567
1690839500578705700,6.87070556640625,-0.005484247580170631,-0.0036157737486064434,-0.020360399037599564
1690839500588756200,6.880756103515625,-0.0046424223110079765,-0.0019619506783783436,-0.021740183234214783
1690839500598796300,6.89079638671875,-0.00449727987870574,-0.0008250473183579743,-0.01888793706893921
1690839500608836400,6.90083642578125,-0.004339354578405619,-0.0018836538074538112,-0.019086075946688652
1690839500618907400,6.910907470703125,-0.004529770463705063,-0.0026040389202535152,-0.020616594702005386
1690839500628948500,6.920948486328125,-0.004869057331234217,-0.0023086944129318,-0.01841123215854168
1690839500638988500,6.930988525390625,-0.00373082235455513,-0.0010852381819859147,-0.019345467910170555
1690839500649028600,6.941028564453125,-0.006622748915106058,-0.003049852093681693,-0.01986611634492874
1690839500659068400,6.951068359375,-0.004743356257677078,-0.003570233704522252,-0.020483968779444695
1690839500669109200,6.961109130859375,-0.004518052563071251,-0.0024615598376840353,-0.020894629880785942
1690839500679149300,6.9711494140625,-0.004983839578926563,-0.0024431839119642973,-0.020532172173261642
1690839500689189400,6.981189453125,-0.0036615801509469748,-0.002734001260250807,-0.020185429602861404
1690839500699230500,6.99123046875,-0.004742290824651718,-0.0019403791520744562,-0.023035811260342598
1690839500709270500,7.0012705078125,-0.005705556366592646,-0.0010540791554376483,-0.020715665072202682
1690839500719310600,7.011310546875,-0.004739094991236925,-0.004487426485866308,-0.020497018471360207
1690839500729350400,7.021350341796875,-0.004822185728698969,-0.0003259709046687931,-0.01985200121998787
1690839500739391200,7.03139111328125,-0.004044010303914547,-0.0011622034944593906,-0.019116437062621117
1690839500749431300,7.041431396484375,-0.004887699615210295,-0.0033329459838569164,-0.02021419070661068
1690839500759471400,7.051471435546875,-0.005634716246277094,-0.005689577199518681,-0.019878100603818893
1690839500769512400,7.061512451171875,-0.004878644831478596,-0.003967044875025749,-0.020499415695667267
1690839500779582500,7.07158251953125,-0.003419232554733753,-0.0005182511522434652,-0.021336447447538376
1690839500789623600,7.08162353515625,-0.004827511962503195,-0.0023523701820522547,-0.020603278651833534
1690839500799663600,7.09166357421875,-0.005656553898006678,-0.002731071785092354,-0.020838968455791473
1690839500809703400,7.101703369140625,-0.005372927524149418,-0.002237587934359908,-0.019902601838111877
1690839500819743500,7.111743408203125,-0.0025960493367165327,-0.0010242518037557602,-0.019395535811781883
1690839500829784300,7.121784423828125,-0.0046693203039467335,0.0009776464430615306,-0.020063722506165504
1690839500839824400,7.131824462890625,-0.004604605492204428,-0.0016583503456786275,-0.021043766289949417
1690839500849864400,7.141864501953125,-0.004322843160480261,-0.0009147958480753005,-0.020119648426771164
1690839500859905500,7.151905517578125,-0.004055461846292019,-0.002975283656269312,-0.020687434822320938
1690839500869945600,7.161945556640625,-0.003853061469271779,-0.0013768542557954788,-0.020794494077563286
1690839500879985400,7.1719853515625,-0.004603806417435408,-0.00253479671664536,-0.020732708275318146
1690839500890025500,7.182025390625,-0.004618720151484013,-0.0025710156187415123,-0.021275993436574936
1690839500900066300,7.19206640625,-0.004150536376982927,-0.004189418628811836,-0.02050847001373768
1690839500910106400,7.2021064453125,-0.004604605492204428,-0.0026969832833856344,-0.019700733944773674
1690839500920146400,7.212146484375,-0.004600344225764275,-0.0008066715090535581,-0.019146263599395752
1690839500930187500,7.2221875,-0.0041462755762040615,-0.004818989895284176,-0.020305272191762924
1690839500940257500,7.232257568359375,-0.005615807604044676,-0.0001001348573481664,-0.02075880765914917
1690839500950298600,7.242298583984375,-0.0054735951125621796,-0.0015249260468408465,-0.01871456578373909
1690839500960338400,7.25233837890625,-0.004307663068175316,-0.0019137475173920393,-0.021575599908828735
1690839500970378500,7.26237841796875,-0.004860268905758858,-0.0010330402292311192,-0.02154577150940895
1690839500980419300,7.27241943359375,-0.0037033918779343367,0.008006527088582516,-0.015244998969137669
1690839500990459400,7.28245947265625,-0.005014732480049133,-0.002432531211525202,-0.021759890019893646
1690839501000499500,7.29249951171875,-0.0059870523400604725,-0.0032530513126403093,-0.02107119746506214
1690839501010539500,7.30253955078125,-0.007241667713969946,-0.0010937602492049336,-0.020769193768501282
1690839501020580600,7.31258056640625,-0.005388107616454363,-0.0014833806781098247,-0.02051646076142788
1690839501030620400,7.322620361328125,-0.0052022188901901245,-0.0012857741676270962,-0.019625099375844002
1690839501040660500,7.332660400390625,-0.004582501482218504,-0.0024562333710491657,-0.016895625740289688
1690839501050700500,7.342700439453125,-0.005440838169306517,-0.0007313040550798178,-0.01787034422159195
1690839501060741400,7.352741455078125,-0.004306863993406296,-0.001541171339340508,-0.01937849074602127
1690839501070781400,7.362781494140625,-0.0067636300809681416,-0.0009741843095980585,-0.021936723962426186
1690839501080821500,7.372821533203125,-0.005022189114242792,-0.002129463478922844,-0.01859712041914463
1690839501090862600,7.382862548828125,-0.0043910201638937,-0.0006881608278490603,-0.021206485107541084
1690839501100932400,7.392932373046875,-0.004524177871644497,-0.002386192325502634,-0.019512448459863663
1690839501110973400,7.402973388671875,-0.0037531929556280375,-0.0017923073610290885,-0.01990872621536255
1690839501121013500,7.413013427734375,-0.004442418925464153,-0.003709516953676939,-0.022779880091547966
1690839501131053600,7.423053466796875,-0.004461061209440231,-0.0020072245970368385,-0.02118438109755516
1690839501141094400,7.433094482421875,-0.0062395199202001095,-0.0008311725687235594,-0.020620856434106827
1690839501151134500,7.443134521484375,-0.0043745082803070545,0.00008894957863958552,-0.021376129239797592
1690839501161174500,7.453174560546875,-0.0052381716668605804,-0.002910568844527006,-0.02015560120344162
1690839501171214300,7.46321435546875,-0.00509835546836257,-0.0000327568814100232,-0.0222078338265419
1690839501181255400,7.47325537109375,-0.0037444045301526785,-0.0009773800848051906,-0.02069941908121109
1690839501191295500,7.48329541015625,-0.005032575689256191,-0.0019646140281111,-0.020496752113103867
1690839501201335600,7.49333544921875,-0.0034144388046115637,-0.002573146251961589,-0.019166236743330956
1690839501211376400,7.50337646484375,-0.0047148605808615685,-0.002038117265328765,-0.018809374421834946
1690839501221416400,7.51341650390625,-0.004515389446169138,5.326322138898831e-7,-0.01998009905219078
1690839501231456500,7.52345654296875,-0.005083175376057625,-0.001017593895085156,-0.02041046693921089
1690839501241496300,7.533496337890625,-0.0046453517861664295,0.0008309062686748803,-0.01925811730325222
1690839501251567400,7.5435673828125,-0.005317267496138811,-0.0018293253378942609,-0.021392373368144035
1690839501261607400,7.553607421875,-0.0051715923473238945,-0.0026615632232278585,-0.021278390660881996
1690839501271648500,7.5636484375,-0.005606752820312977,-0.0019867182709276676,-0.020020313560962677
1690839501281688600,7.5736884765625,-0.005626460537314415,-0.0018812569323927164,-0.02106001228094101
1690839501291728400,7.583728271484375,-0.002712695859372616,-0.004171575419604778,-0.021103953942656517
1690839501301769500,7.59376953125,-0.005035238806158304,-0.004791825544089079,-0.021793711930513382
1690839501311809500,7.6038095703125,-0.004263987299054861,-0.0015984292840585113,-0.01914360001683235
1690839501321849300,7.613849365234375,-0.005709284916520119,-0.001383778522722423,-0.019838152453303337
1690839501331889400,7.623889404296875,-0.004985969979315996,0.00028069718973711133,-0.019651997834444046
1690839501341930500,7.633930419921875,-0.00469568558037281,-0.0013688647886738181,-0.020302608609199524
1690839501351970600,7.643970458984375,-0.005396096967160702,-0.0009078715811483562,-0.019095929339528084
1690839501362010400,7.65401025390625,-0.005170793738216162,-0.0010937602492049336,-0.020727915689349174
1690839501372051500,7.664051513671875,-0.004326571244746447,-0.0007462177309207618,-0.02166002243757248
1690839501382091500,7.674091552734375,-0.0054847802966833115,-0.002366218715906143,-0.02149330824613571
1690839501392131300,7.68413134765625,-0.005244562868028879,-0.001925199176184833,-0.019883692264556885
1690839501402171400,7.69417138671875,-0.005093561951071024,-0.002715891692787409,-0.019768111407756805
1690839501412242400,7.704242431640625,-0.004576109815388918,-0.0011912320042029023,-0.020414194092154503
1690839501422283500,7.714283447265625,-0.004443484358489513,-0.001998702296987176,-0.018430938944220543
1690839501432323300,7.7243232421875,-0.005392634775489569,-0.0010596717474982142,-0.019829364493489265
1690839501442363400,7.73436328125,-0.006738063879311085,0.0013904364313930273,-0.021019265055656433
1690839501452403500,7.744403564453125,-0.005694637540727854,-0.0008364989189431071,-0.022640863433480263
1690839501462444500,7.754444580078125,-0.004818723537027836,-0.0023792681749910116,-0.02106373943388462
1690839501472484400,7.764484375,-0.003662378992885351,-0.0009512811084277928,-0.021091170608997345
1690839501482524400,7.7745244140625,-0.00532658863812685,-0.002122006844729185,-0.021527396515011787
1690839501492565500,7.7845654296875,-0.005181712564080954,-0.0039854203350842,-0.021700235083699226
1690839501502605300,7.794605224609375,-0.0046506780199706554,-0.001306280493736267,-0.020794760435819626
1690839501512645400,7.804645263671875,-0.00603498937562108,-0.0019076223252341151,-0.01858353801071644
1690839501522685400,7.814685546875,-0.002718821167945862,-0.0023694143164902925,-0.018815232440829277
1690839501532726500,7.8247265625,-0.004165716469287872,-0.004475708585232496,-0.01775689236819744
1690839501542766300,7.834766357421875,-0.003951598424464464,-0.003562244353815913,-0.02044854871928692
1690839501552806400,7.844806396484375,-0.004503405187278986,0.00020506340661086142,-0.0205734521150589
1690839501562846500,7.854846435546875,-0.004226969089359045,-0.003576092654839158,-0.020137492567300797
1690839501572917500,7.86491748046875,-0.0046847667545080185,0.000009321063771494664,-0.021616078913211823
1690839501582928000,7.874927978515625,-0.005283977836370468,-0.002064748667180538,-0.02135322615504265
1690839501592968000,7.884968017578125,-0.00373082235455513,-0.0012756541837006807,-0.021193701773881912
1690839501603008000,7.895008056640625,-0.006623547989875078,-0.0027142937760800123,-0.02136867120862007
1690839501613048000,7.905048095703125,-0.005389172583818436,-0.001704689348116517,-0.020112458616495132
1690839501623089200,7.915089111328125,-0.0037699707318097353,-0.0031100395135581493,-0.020232301205396652
1690839501633129000,7.92512890625,-0.0041430797427892685,-0.0022128205746412277,-0.01841788925230503
1690839501643169000,7.9351689453125,-0.004231496714055538,-0.0011944277212023735,-0.017890051007270813
1690839501653209900,7.9452099609375,-0.00390339526347816,-0.0027079021092504263,-0.019709255546331406
1690839501663250000,7.95525,-0.005224589258432388,-0.0026296053547412157,-0.02087678574025631
1690839501673290000,7.9652900390625,-0.004481567535549402,-0.0012857741676270962,-0.022176409140229225
1690839501683330000,7.975330078125,-0.006094910204410553,-0.0025561018846929073,-0.019272230565547943
1690839501693371100,7.98537109375,-0.004475708585232496,-0.0027478495612740517,-0.0208877045661211
1690839501703411000,7.995410888671875,-0.002804841147735715,0.0007563377148471773,-0.022493857890367508
1690839501713451000,8.005450927734374,-0.0067809405736625195,-0.0012013519881293178,-0.020597420632839203
1690839501723491800,8.015491943359375,-0.006699181627482176,-0.007712780963629484,-0.023212911561131477
1690839501733562000,8.02556201171875,-0.005619269795715809,-0.0012626046082004905,-0.019158780574798584
1690839501743603000,8.03560302734375,-0.002662095706909895,-0.004199272487312555,-0.020548684522509575
1690839501753643000,8.04564306640625,-0.004378503188490868,-0.0038242992013692856,-0.019418705254793167
1690839501763683000,8.05568310546875,-0.007635016459971666,-0.0023252058308571577,-0.018370218575000763
1690839501773723000,8.065722900390625,-0.003689809702336788,-0.003609115956351161,-0.021441642194986343
1690839501783764000,8.075763916015624,-0.0052115400321781635,-0.0010516822803765535,-0.02166268415749073
1690839501793804000,8.085803955078125,-0.0038219024427235126,-0.0002324939559912309,-0.021947110071778297
1690839501803844000,8.095843994140624,-0.0054488275200128555,-0.0010391654213890433,-0.01985519751906395
1690839501813885000,8.105885009765625,-0.006148173473775387,-0.002415753435343504,-0.02166161872446537
1690839501823925000,8.115925048828124,-0.005319131538271904,-0.0037822213489562273,-0.020651215687394142
1690839501833965000,8.125965087890625,-0.004388356581330299,-0.0018170748371630907,-0.019122028723359108
1690839501844004900,8.1360048828125,-0.004254932515323162,-0.001106809708289802,-0.020537499338388443
1690839501854046000,8.1460458984375,-0.003442401997745037,-0.002365419641137123,-0.01997583918273449
1690839501864086000,8.1560859375,-0.004948153160512447,-0.0015081481542438269,-0.01950632408261299
1690839501874126000,8.1661259765625,-0.006839530076831579,-0.0012772521004080772,-0.020384900271892548
1690839501884167000,8.1761669921875,-0.005455751903355122,-0.0008982842555269599,-0.02263101004064083
1690839501894237000,8.18623681640625,-0.005529521498829126,-0.0030301446095108986,-0.022055767476558685
1690839501904278000,8.196278076171875,-0.005225121974945068,-0.003251719754189253,-0.02311357483267784
1690839501914318000,8.206318115234374,-0.004631769843399525,-0.0017361147329211235,-0.020423782989382744
1690839501924358000,8.21635791015625,-0.004337224178016186,-0.0023696806747466326,-0.019165173172950745
1690839501934399000,8.22639892578125,-0.004427505191415548,-0.0017917747609317303,-0.020602745935320854
1690839501944439000,8.23643896484375,-0.005113801918923855,-0.0002540655550546944,-0.019519638270139694
1690839501954479000,8.24647900390625,-0.005333778914064169,-0.0014223942998796701,-0.019118832424283028
1690839501964519000,8.256518798828125,-0.004849083721637726,-0.0017723336350172758,-0.019939620047807693
1690839501974560000,8.26656005859375,-0.003932423423975706,-0.0020636834669858217,-0.020771324634552002
1690839501984600000,8.27660009765625,-0.0054339137859642506,-0.0026764769572764635,-0.022596655413508415
1690839501994640000,8.286639892578124,-0.005858688149601221,-0.0003968109958805144,-0.02166854403913021
1690839502004680000,8.296679931640625,-0.0033273533917963505,-0.0017182715237140656,-0.024024376645684242
1690839502014721000,8.306720947265624,-0.005742840468883514,-0.0012444951571524143,-0.0215351190418005
1690839502024761000,8.316760986328125,-0.0040796962566673756,-0.0014564828015863895,-0.02044934779405594
1690839502034801000,8.32680078125,-0.004198207054287195,-0.0014482269762083888,-0.019340675324201584
1690839502044842000,8.336842041015625,-0.005388640332967043,-0.0008953547803685069,-0.018793661147356033
1690839502054912000,8.346912109375,-0.005560147576034069,-0.0027292075101286173,-0.019695406779646873
1690839502064953000,8.356953125,-0.003870904678478837,-0.0009480853332206607,-0.018319617956876755
1690839502074993000,8.366992919921875,-0.005306880921125412,-0.002317216480150819,-0.01841629110276699
1690839502085033000,8.377032958984374,-0.005564675200730562,-0.0004945489927195013,-0.0211257915943861
1690839502095074000,8.387073974609375,-0.0037031255196779966,-0.0021939121652394533,-0.02171781286597252
1690839502105113900,8.39711376953125,-0.005113535560667515,-0.0046152579598128796,-0.02274525910615921
1690839502115154000,8.40715380859375,-0.004048271104693413,-0.0014346449170261621,-0.023013707250356674
1690839502125194000,8.417194091796874,-0.0043502734042704105,-0.002883670851588249,-0.02058969810605049
1690839502135235000,8.427235107421875,-0.005477056838572025,-0.0017161410069093108,-0.021519672125577927
1690839502145275000,8.43727490234375,-0.0054847802966833115,-0.001525991247035563,-0.020073842257261276
1690839502155315000,8.44731494140625,-0.004708202555775642,-0.003703658003360033,-0.021629128605127335
1690839502165356000,8.45735595703125,-0.0043595945462584496,-0.0026375947054475546,-0.017883924767374992
1690839502175395800,8.467395751953125,-0.005145227070897818,-0.0019883159548044205,-0.018188856542110443
1690839502185436000,8.477435791015624,-0.00424135010689497,-0.003299390198662877,-0.01895824447274208
1690839502195476000,8.48747607421875,-0.0054512242786586285,-0.0013078784104436636,-0.02141527645289898
1690839502205517000,8.49751708984375,-0.004761998075991869,-0.001368598430417478,-0.020065054297447205
1690839502215586800,8.5075869140625,-0.0064802695997059345,-0.0019140138756483793,-0.021085843443870544
1690839502225628000,8.5176279296875,-0.0038123151753097773,-0.0028330706991255283,-0.022955914959311485
1690839502235668000,8.52766796875,-0.0054845139384269714,-0.00002210423735959921,-0.020796358585357666
1690839502245708000,8.5377080078125,-0.0054360441863536835,-0.002406432293355465,-0.021204354241490364
1690839502255748900,8.547748779296874,-0.005046423990279436,-0.001609614584594965,-0.019156116992235184
1690839502265789000,8.557788818359375,-0.004345479886978865,-0.002418949268758297,-0.0200424175709486
1690839502275829000,8.5678291015625,-0.004249339923262596,-0.0019321233266964555,-0.01836063154041767
1690839502285868800,8.577868896484375,-0.004349741153419018,-0.0001334243715973571,-0.017720406875014305
1690839502295910000,8.587909912109374,-0.004579305648803711,-0.002055960241705179,-0.02110874652862549
1690839502305950000,8.597949951171875,-0.005029113497585058,-0.0020101540721952915,-0.019934292882680893
1690839502315990000,8.607989990234374,-0.004682635888457298,-0.0033217607997357845,-0.021510617807507515
1690839502326030800,8.61803076171875,-0.0043952809646725655,-0.0008146609761752188,-0.019653329625725746
1690839502336071000,8.62807080078125,-0.005570800509303808,-0.0011909656459465623,-0.02028130367398262
1690839502346111000,8.638111083984375,-0.004841094370931387,-0.002207494108006358,-0.02075454592704773
1690839502356150800,8.64815087890625,-0.00495054991915822,-0.0004040015337523073,-0.018444254994392395
1690839502366191900,8.65819189453125,-0.004626177251338959,-0.0011981561547145247,-0.02028370089828968
1690839502376263000,8.668262939453125,-0.005431517027318478,-0.002119077369570732,-0.02141660824418068
1690839502386303000,8.678302978515624,-0.0037918086163699627,-0.0024045680183917284,-0.01925997994840145
1690839502396343000,8.688343017578125,-0.006411826703697443,0.00027563716867007315,-0.020595556125044823
1690839502406383000,8.698383056640624,-0.005107410252094269,-0.0007451524725183845,-0.02081792987883091
1690839502416424000,8.708423828125,-0.001945705502294004,-0.002189118415117264,-0.01992896758019924
1690839502426464000,8.718464111328124,-0.004628574009984732,-0.0018455706303939223,-0.021223263815045357
1690839502436503800,8.72850390625,-0.00660677021369338,-0.0013278521364554763,-0.020250143483281136
1690839502446545000,8.738544921875,-0.005745237227529287,-0.0002878876985050738,-0.02004081942141056
1690839502456585000,8.7485849609375,-0.0046269758604466915,-0.002046106616035104,-0.019887953996658325
1690839502466625000,8.758625,-0.005450159311294556,-0.0007006776868365705,-0.019544139504432678
1690839502476665000,8.7686650390625,-0.004728975240141153,0.00018748654110822827,-0.018989136442542076
1690839502486706000,8.778705810546874,-0.005242698825895786,-0.002490854589268565,-0.02189997211098671
1690839502496746000,8.78874609375,-0.006179332733154297,-0.0019409117521718144,-0.02286456897854805
1690839502506785800,8.798785888671874,-0.004107926040887833,-0.0022921827621757984,-0.019347598776221275
1690839502516825900,8.808825927734375,-0.0049398974515497684,-0.0007701861904934049,-0.020540695637464523
1690839502526867000,8.818866943359374,-0.005359345115721226,-0.003096723696216941,-0.021517809480428696
1690839502536938000,8.82893798828125,-0.005052016582340002,-0.0015707324491813779,-0.021586785092949867
1690839502546978000,8.83897802734375,-0.005684250965714455,0.00003808320252574049,-0.0198685135692358
1690839502557018000,8.84901806640625,-0.0052078114822506905,-0.00070493872044608,-0.02081979438662529
1690839502567058200,8.85905810546875,-0.005064267199486494,-0.0002713761059567332,-0.021095432341098785
1690839502577099000,8.86909912109375,-0.004680505488067865,-0.0014242585748434067,-0.01913188211619854
1690839502587138000,8.879137939453125,-0.004099403973668814,0.00009108010999625549,-0.01932123303413391
1690839502597178000,8.88917822265625,-0.005321528296917677,-0.003334543900564313,-0.01883227750658989
1690839502607219200,8.89921923828125,-0.006338856182992458,-0.0030013825744390488,-0.019959859549999237
1690839502617259000,8.909259033203124,-0.003727892879396677,-0.001788312685675919,-0.021917283535003662
1690839502627299000,8.919299072265625,-0.004856540355831385,-0.0008950884221121669,-0.02172420360147953
1690839502637339100,8.929339111328124,-0.005660815164446831,-0.0019299928098917007,-0.021018199622631073
1690839502647380200,8.939380126953125,-0.0036658411845564842,-0.002124137245118618,-0.01811082661151886
1690839502657420000,8.949419921875,-0.006601709872484207,-0.0013600763631984591,-0.02100914530456066
1690839502667460000,8.959460205078125,-0.004505536053329706,-0.001315335277467966,-0.019121496006846428
1690839502677501200,8.969501220703124,-0.0054509579204022884,0.00019574233738239855,-0.018067684024572372
1690839502687571000,8.979571044921874,-0.0049287122674286366,-0.0038029940333217382,-0.01660534180700779
1690839502697612000,8.989612060546875,-0.003686880227178335,-0.00020746025256812572,-0.019224559888243675
1690839502707652000,8.999652099609374,-0.00493244081735611,-0.0035265579354017973,-0.017786454409360886
1690839502717692200,9.009692138671875,-0.0057167415507137775,-0.0016325177857652307,-0.018815765157341957
1690839502727732200,9.019732177734374,-0.003869839245453477,-0.00242107966914773,-0.019292471930384636
1690839502737773000,9.02977294921875,-0.00478516798466444,-0.0014884406700730324,-0.021467208862304688
1690839502747812900,9.039812744140624,-0.005785983521491289,-0.0009813748765736818,-0.01878087781369686
1690839502757853000,9.04985302734375,-0.004315386060625315,-0.0024668860714882612,-0.020108729600906372
1690839502767894000,9.05989404296875,-0.004756405483931303,-0.003608849598094821,-0.02027304656803608
1690839502777934000,9.06993408203125,-0.005659749731421471,0.0003304982965346426,-0.02111753635108471
1690839502787974100,9.07997412109375,-0.004731105640530586,-0.001788312685675919,-0.017716679722070694
1690839502798014200,9.09001416015625,-0.005600095260888338,0.00032330775866284966,-0.016641560941934586
1690839502808055000,9.100054931640624,-0.006487993057817221,-0.003114833263680339,-0.02016039565205574
1690839502818095000,9.11009521484375,-0.004796885885298252,-0.00023968449386302382,-0.019875703379511833
1690839502828135000,9.120135009765624,-0.004726844374090433,-0.0009118663729168475,-0.023739151656627655
1690839502838176000,9.130176025390625,-0.003802194958552718,-0.0023377228062599897,-0.020202739164233208
1690839502848246000,9.14024609375,-0.006764695513993502,0.00003861583536490798,-0.021442441269755363
1690839502858287000,9.150287109375,-0.0039116512052714825,-0.0026647590566426516,-0.020850952714681625
1690839502868327200,9.1603271484375,-0.004656270612031221,-0.0006311691831797361,-0.020241888239979744
1690839502878367200,9.1703671875,-0.005061870440840721,-0.0021821942646056414,-0.019817912951111794
1690839502888408000,9.180407958984375,-0.004867726005613804,-0.0011749867117032409,-0.020426977425813675
1690839502898448000,9.19044775390625,-0.00518757151439786,-0.0027915253303945065,-0.019155317917466164
1690839502908488000,9.200488037109375,-0.003914846573024988,-0.0034357442054897547,-0.019707923755049706
1690839502918528000,9.210528076171874,-0.004442418925464153,-0.002718554809689522,-0.018898855894804
1690839502928569000,9.220569091796875,-0.004744687583297491,-0.0005874933558516204,-0.020734040066599846
1690839502938609200,9.230609130859374,-0.0062158177606761456,-0.0022860574536025524,-0.02082219161093235
1690839502948649200,9.240649169921875,-0.0060355220921337605,-0.002558498876169324,-0.019040802493691444
1690839502958690000,9.25068994140625,-0.005229915492236614,-0.0023792681749910116,-0.019060775637626648
1690839502968730000,9.260730224609375,-0.005727660376578569,-0.002981142606586218,-0.02129783108830452
1690839502978770000,9.27077001953125,-0.005498362239450216,-0.0012013519881293178,-0.019352126866579056
1690839502988810000,9.28081005859375,-0.005357214715331793,-0.0028008464723825455,-0.020680511370301247
1690839502998851000,9.29085107421875,-0.004237355664372444,0.00012490226072259247,-0.01925518736243248
1690839503008921000,9.300921142578124,-0.0041582598350942135,-0.00017443705291952938,-0.0205761156976223
1690839503018962200,9.310962158203125,-0.005913815461099148,-0.0028125643730163574,-0.018092451617121696
1690839503029002200,9.321002197265624,-0.0041492050513625145,-0.0018170748371630907,-0.020864535123109818
1690839503039042000,9.3310419921875,-0.004883971065282822,-0.0005938849062658846,-0.021260282024741173
1690839503049083000,9.341082763671874,-0.004918325692415237,-0.0022482406347990036,-0.02021658793091774
1690839503059123000,9.351123046875,-0.004838697146624327,-0.004285292699933052,-0.0181070975959301
1690839503069163000,9.3611630859375,-0.004712729714810848,-0.0012386362068355083,-0.020620323717594147
1690839503079203000,9.371203125,-0.005252019967883825,-0.002424275502562523,-0.020723653957247734
1690839503089244200,9.381244140625,-0.004260258749127388,-0.002124137245118618,-0.020368920639157295
1690839503099284200,9.3912841796875,-0.004150802735239267,-0.003364371368661523,-0.020500747486948967
1690839503109324300,9.40132421875,-0.004367584362626076,-0.0024892566725611687,-0.01906983181834221
1690839503119365000,9.411365234375,-0.004628840368241072,-0.0012266519479453564,-0.01781068928539753
1690839503129405000,9.421405029296874,-0.004290352575480938,-0.0003371562052052468,-0.021156150847673416
1690839503139445000,9.431445068359375,-0.0026849990244954824,-0.0032506543211638927,-0.019341208040714264
1690839503149485000,9.441485107421874,-0.0037705034483224154,-0.0011470235185697675,-0.021413413807749748
1690839503159526100,9.451526123046875,-0.005526059307157993,-0.002493784064427018,-0.019517242908477783
1690839503169596200,9.46159619140625,-0.00361737166531384,-0.002323341788724065,-0.020131099969148636
1690839503179637200,9.47163720703125,-0.004087153356522322,-0.0012570120161399245,-0.020780645310878754
1690839503189677000,9.481677001953125,-0.004071440547704697,-0.0012402341235429049,-0.02178732119500637
1690839503199717000,9.491717041015624,-0.00464615086093545,-0.002400306984782219,-0.019774237647652626
1690839503209758000,9.501758056640625,-0.005411277059465647,-0.004140949342399836,-0.020534835755825043
1690839503219798000,9.511798095703124,-0.004559597931802273,-0.0030626351945102215,-0.020774520933628082
1690839503229838000,9.521838134765625,-0.005145759787410498,-0.0007920240750536323,-0.02063470520079136
1690839503239878100,9.531878173828124,-0.005440571811050177,-0.004520183429121971,-0.019399797543883324
1690839503249919200,9.541919189453125,-0.004682902246713638,-0.002098038326948881,-0.021732991561293602
1690839503259959300,9.551959228515624,-0.0041582598350942135,-0.0011680624447762966,-0.01834332011640072
1690839503269999000,9.5619990234375,-0.0065537733025848866,-0.0018152105621993542,-0.0192586500197649
1690839503280040000,9.5720400390625,-0.005688245873898268,-0.0020762004423886538,-0.01956171728670597
1690839503290080000,9.582080078125,-0.005842442624270916,-0.0022804648615419865,-0.019460782408714294
1690839503300120000,9.5921201171875,-0.004564658273011446,-0.0014026869321241975,-0.020144682377576828
1690839503310160100,9.60216015625,-0.004194744862616062,-0.0025861957110464573,-0.018141720443964005
1690839503320201200,9.612201171875,-0.004730040207505226,-0.0038192393258213997,-0.01884452812373638
1690839503330272300,9.622272216796874,-0.004004062619060278,-0.0021017666440457106,-0.0184708870947361
1690839503340312000,9.63231201171875,-0.006398510653525591,-0.0035401401109993458,-0.018563831225037575
1690839503350352100,9.64235205078125,-0.005044559482485056,-0.0028642297256737947,-0.020191553980112076
1690839503360392200,9.65239208984375,-0.004965730011463165,-0.0006838997360318899,-0.01944187469780445
1690839503370433000,9.66243310546875,-0.003835218260064721,-0.0008831042214296758,-0.02238147146999836
1690839503380473000,9.67247314453125,-0.005697034299373627,-0.0020932445768266916,-0.022112492471933365
1690839503390513200,9.68251318359375,-0.004899151157587767,-0.0013281183782964945,-0.02161128632724285
1690839503400554200,9.69255419921875,-0.004348675720393658,-0.0020655477419495583,-0.01967596635222435
1690839503410594000,9.702593994140624,-0.005572398193180561,-0.0036333505995571613,-0.020677315071225166
1690839503420634000,9.712634033203125,-0.00663553224876523,-0.0036879454273730516,-0.019108179956674576
1690839503430674200,9.722674072265624,-0.00481366366147995,-0.0010524812387302518,-0.018016284331679344
1690839503440715000,9.732715087890625,-0.005496498197317123,-0.003662378992885351,-0.02015959657728672
1690839503450755000,9.742755126953124,-0.005576925817877054,-0.003363838652148843,-0.0196064580231905
1690839503460795100,9.752795166015625,-0.004293015692383051,0.00020586235041264445,-0.018733207136392593
1690839503470836200,9.762836181640624,-0.0051995557732880116,-0.0023374564480036497,-0.018875420093536377
1690839503480876300,9.772876220703125,-0.0057532270438969135,-0.001966211711987853,-0.02004321664571762
1690839503490947000,9.782947021484375,-0.003677825443446636,-0.0013350426452234387,-0.021983861923217773
1690839503500987100,9.792987060546874,-0.0036511938087642193,-0.00011957593233091757,-0.021468274295330048
1690839503511027200,9.803027099609375,-0.004938565660268068,-0.001642371411435306,-0.02063683420419693
1690839503521067300,9.8130673828125,-0.005780124571174383,0.0003379551344551146,-0.019579293206334114
1690839503531108000,9.823108154296875,-0.005194495897740126,-0.0005344964447431266,-0.021684255450963974
1690839503541148200,9.833148193359374,-0.005193696822971106,-0.001258876291103661,-0.01990712806582451
1690839503551188000,9.84318798828125,-0.005735650192946196,-0.001668736687861383,-0.018797922879457474
1690839503561229000,9.85322900390625,-0.005636313930153847,-0.001561677665449679,-0.01937982253730297
1690839503571269000,9.86326904296875,-0.0047058057971298695,-0.002834934974089265,-0.020718062296509743
1690839503581309200,9.87330908203125,-0.0051593417301774025,-0.002180063631385565,-0.020926054567098618
1690839503591332600,9.88333251953125,-0.0038242992013692856,-0.0014543522847816348,-0.02191142365336418
1690839503601373700,9.893373779296875,-0.006346845533698797,-0.002445048186928034,-0.02208319865167141
1690839503611413800,9.903413818359375,-0.005576659459620714,-0.0013494236627593637,-0.02034335397183895
1690839503621453800,9.913453857421874,0.005810484755784273,0.20950022339820862,0.05570720508694649
1690839503631494700,9.92349462890625,0.03480006009340286,-0.2270352840423584,0.15508012473583221
1690839503641534700,9.93353466796875,-0.003555319970473647,-0.04096421226859093,0.02220969833433628
1690839503651605500,9.94360546875,-0.015376559458673,-0.012695022858679295,-0.02436818927526474
1690839503661645600,9.9536455078125,-0.01660267822444439,0.014427674934267998,-0.09357362985610962
1690839503671685600,9.963685546875,-0.017184047028422356,-0.021467475220561028,-0.10408512502908707
1690839503681725700,9.9737255859375,-0.005372394807636738,0.010297378525137901,-0.08825182914733887
1690839503691766800,9.983766845703125,0.007296528667211533,0.0075695025734603405,-0.08531703054904938
1690839503701806800,9.993806884765625,0.01025556679815054,0.0095698032528162,-0.06124578043818474
1690839503711846700,10.0038466796875,0.005161206237971783,0.014671887271106243,-0.026525350287556648
1690839503721887500,10.013887451171875,-0.0037531929556280375,0.012969860807061195,0.006375873927026987
1690839503731927600,10.023927490234374,-0.013223926536738873,-0.0008125304593704641,0.03015417419373989
1690839503741967600,10.033967529296875,-0.014768026769161224,-0.013428723439574242,0.045517418533563614
1690839503752007700,10.044007568359374,-0.010295514017343521,-0.01834678277373314,0.04930336773395538
1690839503762048800,10.054048828125,-0.0007821703911758959,-0.019814716652035713,0.041131991893053055
1690839503772088800,10.0640888671875,0.0025827335193753242,-0.011148524470627308,0.023733025416731834
1690839503782128600,10.074128662109375,0.0013499563792720437,-0.0010831075487658381,-0.0005131911602802575
1690839503792169500,10.08416943359375,-0.004403536673635244,0.008739429526031017,-0.025787388905882835
1690839503802209500,10.09420947265625,-0.009045426733791828,0.01187823060899973,-0.04917073994874954
1690839503812280600,10.104280517578125,-0.010922688990831375,0.010496050119400024,-0.06559552252292633
1690839503822320600,10.114320556640624,-0.00782676413655281,0.0028154938481748104,-0.07186806201934814
1690839503832360700,10.124360595703125,-0.004110322799533606,-0.0027201527263969183,-0.070298932492733
1690839503842401800,10.13440185546875,0.0005805690889246762,-0.012631638906896114,-0.058283813297748566
1690839503852441900,10.14444189453125,-0.0011049455497413874,-0.00999084860086441,-0.045574940741062164
1690839503862481700,10.154481689453124,-0.0046386937610805035,-0.008887767791748047,-0.02564118057489395
1690839503872521700,10.164521728515625,-0.006885336712002754,-0.002267681760713458,-0.005543902516365051
1690839503882562600,10.1745625,-0.007214503362774849,0.004820055328309536,0.010922422632575035
1690839503892602600,10.1846025390625,-0.007865912280976772,0.00552312983199954,0.01877688430249691
1690839503902642700,10.194642578125,-0.0036999296862632036,0.004778509959578514,0.01980193331837654
1690839503912683800,10.204683837890625,-0.003224022686481476,-0.0002894856152124703,0.014801583252847195
1690839503922723800,10.214723876953125,-0.0017872473690658808,-0.004415787290781736,0.002386192325502634
1690839503932763600,10.224763671875,-0.004459729418158531,-0.0086616650223732,-0.010729876346886158
1690839503942803700,10.2348037109375,-0.005723399575799704,-0.008694954216480255,-0.027884894981980324
1690839503952844500,10.244844482421875,-0.007731689140200615,-0.00484429020434618,-0.03724484145641327
1690839503962884600,10.254884521484374,-0.00666269613429904,-0.0027206854429095984,-0.04861094430088997
1690839503972955600,10.26495556640625,-0.004139351192861795,0.0005163869354873896,-0.05107170715928078
1690839503982995700,10.27499560546875,-0.002609098795801401,0.004435760900378227,-0.04746445268392563
1690839503993035800,10.285035888671874,-0.0032565132714807987,0.003263437654823065,-0.04192427918314934
1690839504003076900,10.295076904296875,-0.006367085501551628,-0.0009555422002449632,-0.0314178429543972
1690839504013116700,10.30511669921875,-0.005606752820312977,-0.0036618465092033148,-0.020248280838131905
1690839504023156700,10.31515673828125,-0.00624085171148181,-0.007808121852576733,-0.009641442447900772
1690839504033196800,10.32519677734375,-0.005230714567005634,-0.005591839086264372,-0.002418682910501957
1690839504043237600,10.335237548828125,-0.0057593523524701595,-0.006680273450911045,0.004449609667062759
1690839504053277700,10.345277587890624,-0.0046573360450565815,-0.001961151836439967,0.0002359560749027878
1690839504063317800,10.35531787109375,-0.005055478774011135,-0.00042583944741636515,-0.0023350596893578768
1690839504073358800,10.36535888671875,-0.005802495405077934,0.000012783173588104546,-0.010640926659107208
1690839504083398700,10.375398681640625,-0.005124720744788647,0.001418932224623859,-0.018327075988054276
1690839504093438700,10.385438720703124,-0.006441920530050993,0.000264718197286129,-0.02684546262025833
1690839504103478800,10.395478759765625,-0.006572148762643337,-0.0007275756215676665,-0.03428367152810097
1690839504113519600,10.40551953125,-0.005767075344920158,-0.0026490462478250265,-0.03605280816555023
1690839504123559700,10.4155595703125,-0.004060255363583565,-0.002419215627014637,-0.03915911912918091
1690839504133630700,10.425630615234375,-0.003799265483394265,-0.003221093211323023,-0.03527063876390457
1690839504143670800,10.4356708984375,-0.0054419031366705894,-0.002522546099498868,-0.028432972729206085
1690839504153710600,10.445710693359375,-0.0037699707318097353,-0.0014852449530735612,-0.023005716502666473
1690839504163751700,10.455751708984375,-0.005257612559944391,0.000850879936479032,-0.016597352921962738
1690839504173791700,10.465791748046875,-0.003787015099078417,-0.00022397184511646628,-0.012149606831371784
1690839504183831800,10.475831787109374,-0.004129231441766024,-0.002114816103130579,-0.00777536490932107
1690839504193871600,10.48587158203125,-0.004662662278860807,-0.0015494271647185087,-0.004875981714576483
1690839504203912700,10.49591259765625,-0.004493818152695894,-0.002891660202294588,-0.006849117577075958
1690839504213952800,10.505952880859375,-0.004595550708472729,-0.003695402294397354,-0.01309183333069086
1690839504223992600,10.51599267578125,-0.004877313040196896,-0.0023041670210659504,-0.016752082854509354
1690839504234033700,10.52603369140625,-0.004325772635638714,-0.0018016285030171275,-0.022843264043331146
1690839504244073700,10.53607373046875,-0.005524461157619953,-0.0017129451734945178,-0.02875787764787674
1690839504254113800,10.54611376953125,-0.004598213825374842,-0.0011880361707881093,-0.030437268316745758
1690839504264153600,10.556153564453124,-0.003081809962168336,-0.0005898901727050543,-0.0335925817489624
1690839504274194700,10.566194580078125,-0.004542021080851555,-0.002606435678899288,-0.030056968331336975
1690839504284234800,10.57623486328125,-0.006007025949656963,-0.0006410228670574725,-0.02810194157063961
1690839504294305800,10.586305908203125,-0.005724464543163776,-0.0014405038673430681,-0.022667229175567627
1690839504304345600,10.596345703125,-0.004896754398941994,-0.0014825817197561264,-0.01872388646006584
1690839504314385700,10.6063857421875,-0.0057066213339567184,-0.0029230855870991945,-0.013849768787622452
1690839504324426800,10.6164267578125,-0.004008590243756771,-0.0018911106744781137,-0.010628942400217056
1690839504334466800,10.626466796875,-0.004875448998063803,-0.002298840554431081,-0.010627344250679016
1690839504344506600,10.636506591796875,-0.003635481232777238,-0.00004500742215896025,-0.01230540219694376
1690839504354547700,10.646547607421875,-0.004333229269832373,-0.0013110742438584566,-0.01589054986834526
1690839504364587800,10.656587890625,-0.0043891556560993195,-0.0026668894570320845,-0.019532687962055206
1690839504374627600,10.666627685546874,-0.0056890444830060005,-0.005314071662724018,-0.022188393399119377
1690839504384667600,10.676667724609375,-0.00484402384608984,-0.003566771512851119,-0.024601217359304428
1690839504394708700,10.686708740234375,-0.005459214095026255,-0.00213638786226511,-0.02665424719452858
1690839504404748800,10.696748779296875,-0.004157194402068853,-0.0019401127938181162,-0.027632426470518112
1690839504414788600,10.70678857421875,-0.004433630499988794,-0.0002924150903709233,-0.026979420334100723
1690839504424829700,10.71682958984375,-0.0057561565190553665,-0.0027166905347257853,-0.02352609857916832
1690839504434869800,10.726869873046875,-0.0037268276792019606,-0.0011696603614836931,-0.0210682675242424
1690839504444909600,10.73690966796875,-0.005736981518566608,-0.0016447682864964008,-0.018559036776423454
1690839504454980600,10.746980712890625,-0.005483981221914291,-0.0037236318457871675,-0.015569638460874557
1690839504465020700,10.757020751953124,-0.005597432143986225,-0.002424275502562523,-0.01453100610524416
1690839504475060700,10.767060791015625,-0.004356665071099997,-0.004584631882607937,-0.01853054016828537
1690839504485101800,10.777101806640625,-0.006039250176399946,-0.005332447588443756,-0.01853133924305439
1690839504495141600,10.7871416015625,-0.003906857222318649,-0.002377403900027275,-0.01894892379641533
1690839504505181700,10.797181640625,-0.004336425103247166,-0.0015840481501072645,-0.019112175330519676
1690839504515222800,10.807222900390625,-0.004793157335370779,0.0011084076249971986,-0.01242444571107626
1690839504525262600,10.8172626953125,-0.005173723213374615,-0.0015808524331077933,-0.022480009123682976
1690839504535302700,10.827302734375,-0.005689577199518681,0.0002031991898547858,-0.0224459208548069
1690839504545342700,10.8373427734375,-0.005420065484941006,-0.0004037352045997977,-0.021086908876895905
1690839504555383800,10.8473837890625,-0.005085039883852005,-0.001291100517846644,-0.02364114671945572
1690839504565423600,10.857423583984374,-0.005918076727539301,-0.0016492956783622503,-0.022647256031632423
1690839504575463700,10.867463623046875,-0.003308444982394576,-0.0024772724136710167,-0.021708490327000618
1690839504585505300,10.87750537109375,-0.0037974014412611723,-0.0030192257836461067,-0.02063177525997162
1690839504595545300,10.88754541015625,-0.006019542925059795,-0.001927595934830606,-0.017049822956323624
1690839504605585200,10.897585205078125,-0.003686081152409315,-0.001859685406088829,-0.017055150121450424
1690839504615656200,10.90765625,-0.0052261874079704285,-0.0014335796004161239,-0.01894279755651951
1690839504625696300,10.9176962890625,-0.0065503111109137535,-0.002740126335993409,-0.01509959064424038
1690839504635736300,10.927736328125,-0.005717540625482798,-0.0016759273130446672,-0.019772905856370926
1690839504645777200,10.937777099609375,-0.0041406829841434956,-0.0025869945529848337,-0.02057691477239132
1690839504655817200,10.947817138671875,-0.005605954211205244,-0.002433063928037882,-0.021919414401054382
1690839504665857000,10.95785693359375,-0.0049074068665504456,-0.0020562265999615192,-0.021765217185020447
1690839504675898000,10.967898193359375,-0.004297010600566864,-0.0011113371001556516,-0.021028053015470505
1690839504685938200,10.977938232421875,-0.004524177871644497,-0.002284459536895156,-0.023743679746985435
1690839504695978200,10.987978271484375,-0.0049673281610012054,-0.0030716899782419205,-0.024467526003718376
1690839504706018300,10.998018310546875,-0.003750795964151621,-0.002609098795801401,-0.022346850484609604
1690839504716059100,11.00805908203125,-0.00415399856865406,-0.0022413162514567375,-0.018853049725294113
1690839504726099200,11.01809912109375,-0.004266117699444294,-0.002453836612403393,-0.016045279800891876
1690839504736139300,11.02813916015625,-0.00564137427136302,-0.0011464908020570874,-0.017535317689180374
1690839504746180400,11.038180419921876,-0.005387574899941683,-0.0006937534781172872,-0.015718774870038033
1690839504756220200,11.04822021484375,-0.004005394410341978,-0.0023100259713828564,-0.017114538699388504
1690839504766260200,11.05826025390625,-0.005346295889467001,-0.0016173376934602857,-0.019759057089686394
1690839504776331300,11.068331298828125,-0.005973204039037228,-0.0014791196445003152,-0.02063470520079136
1690839504786371300,11.078371337890625,-0.004680771846324205,-0.002499643014743924,-0.023803599178791046
1690839504796412200,11.088412109375,-0.0039116512052714825,-0.0021973741240799427,-0.024995097890496254
1690839504806452200,11.0984521484375,-0.004975850228220224,-0.002523078816011548,-0.0242608655244112
1690839504816492000,11.108491943359375,-0.005717274267226458,-0.0013949638232588768,-0.02347603067755699
1690839504826532000,11.118531982421874,-0.004608600400388241,-0.0011978897964581847,-0.020180635154247284
1690839504836573200,11.1285732421875,-0.004291950259357691,0.00014221279707271606,-0.019218968227505684
1690839504846613200,11.13861328125,-0.0054480284452438354,-0.0009827064350247383,-0.01684449426829815
1690839504856653300,11.1486533203125,-0.004831773228943348,-0.002225603675469756,-0.017116935923695564
1690839504866694100,11.158694091796875,-0.0026045716367661953,-0.0019446401856839657,-0.015678029507398605
1690839504876734200,11.168734130859375,-0.00487145408987999,-0.0036250948905944824,-0.01775955595076084
1690839504886774300,11.178774169921875,-0.005154548212885857,0.00012516857532318681,-0.019162243232131004
1690839504896814000,11.18881396484375,-0.00595429539680481,-0.0036828855518251657,-0.022475214675068855
1690839504906855200,11.198855224609375,-0.0038101845420897007,0.00005379585491027683,-0.022046979516744614
1690839504916895200,11.208895263671875,-0.004735366906970739,-0.0022189458832144737,-0.02365393005311489
1690839504926935300,11.218935302734375,-0.005408347584307194,-0.002439455594867468,-0.022719161584973335
1690839504937006300,11.22900634765625,-0.005077582783997059,-0.0018929748330265284,-0.022493325173854828
1690839504947046400,11.23904638671875,-0.005374791566282511,-0.001910019083879888,-0.0217130184173584
1690839504957087200,11.249087158203125,-0.0044141896069049835,-0.0009795106016099453,-0.019349196925759315
1690839504967127000,11.259126953125,-0.005061071366071701,-0.0023723437916487455,-0.019270367920398712
1690839504977167000,11.2691669921875,-0.005151352379471064,-0.00461579067632556,-0.02081792987883091
1690839504987207200,11.279207275390625,-0.005404352676123381,-0.002067412016913295,-0.021260812878608704
1690839504997248300,11.289248291015625,-0.005249889567494392,0.0009760485263541341,-0.019417373463511467
1690839505007288300,11.299288330078125,-0.0054850466549396515,-0.0004242415598127991,-0.018925221636891365
1690839505017328400,11.309328369140625,-0.0057710702531039715,-0.0024647556710988283,-0.021222464740276337
1690839505027369200,11.319369140625,-0.0051995557732880116,-0.0018394453218206763,-0.019870111718773842
1690839505037409300,11.3294091796875,-0.005930859595537186,-0.0011345066595822573,-0.02190423384308815
1690839505047449000,11.339448974609375,-0.005329784471541643,-0.0007749798824079335,-0.018804846331477165
1690839505057489200,11.3494892578125,-0.005889580585062504,-0.0037350833881646395,-0.017731059342622757
1690839505067530200,11.3595302734375,-0.004757470916956663,-0.002061819192022085,-0.017792046070098877
1690839505077570300,11.3695703125,-0.004084223881363869,-0.0008617989369668067,-0.018373414874076843
1690839505087641300,11.379641357421875,-0.004207794554531574,-0.0032621060963720083,-0.021702365949749947
1690839505097681400,11.389681396484375,-0.0036493295338004827,-0.0018727348651736975,-0.02130928263068199
1690839505107721200,11.39972119140625,-0.004537493921816349,-0.002201901515945792,-0.023274162784218788
1690839505117762000,11.409761962890625,-0.004042678512632847,-0.002766491612419486,-0.023091737180948257
1690839505127802000,11.419802001953125,-0.0054757255129516125,-0.0019747340120375156,-0.021451229229569435
1690839505137842200,11.42984228515625,-0.004686098080128431,-0.004539624322205782,-0.02100887894630432
1690839505147882200,11.43988232421875,-0.005268531385809183,-0.0030069751664996147,-0.018160894513130188
1690839505157923300,11.44992333984375,-0.0046360306441783905,-0.0003454120014794171,-0.018132131546735764
1690839505167963400,11.45996337890625,-0.006286657880991697,-0.001972869737073779,-0.016638364642858505
1690839505178003200,11.470003173828125,-0.005770004820078611,-0.0018897791160270572,-0.01920458674430847
1690839505188044000,11.4800439453125,-0.0036940707359462976,-0.00347435986623168,-0.018850652500987053
1690839505198084000,11.490083984375,-0.005088502075523138,-0.0020695424173027277,-0.022306637838482857
1690839505208124200,11.500124267578125,-0.005679457448422909,-0.002055694116279483,-0.02474236488342285
1690839505218164200,11.510164306640625,-0.005309011787176132,-0.003823234001174569,-0.02629179134964943
1690839505228205300,11.520205322265625,-0.005297826137393713,-0.003237072378396988,-0.02406858466565609
1690839505238245400,11.530245361328125,-0.004747350700199604,-0.0028328043408691883,-0.022112492471933365
1690839505248316200,11.540316162109375,-0.003907123580574989,-0.0026610305067151785,-0.02165069989860058
1690839505258356000,11.55035595703125,-0.005015797447413206,-0.0025566346012055874,-0.01961258426308632
1690839505268396000,11.56039599609375,-0.005132444202899933,-0.0011832424206659198,-0.018249576911330223
1690839505278437000,11.57043701171875,-0.006050435826182365,-0.0019315907265990973,-0.017975272610783577
1690839505288477200,11.580477294921875,-0.0044200485572218895,-0.0002170476218452677,-0.018389925360679626
1690839505298517200,11.590517333984375,-0.006592921447008848,-0.002082858234643936,-0.0206924956291914
1690839505308558300,11.600558349609376,-0.0036703685764223337,-0.0015507587231695652,-0.020068250596523285
1690839505318598100,11.61059814453125,-0.006602242588996887,-0.00461685610935092,-0.0224445890635252
1690839505328638000,11.620637939453125,-0.0043801008723676205,-0.002725212834775448,-0.022184131667017937
1690839505338678000,11.630677978515624,-0.0049193911254405975,-0.0024082965683192015,-0.0222693532705307
1690839505348719000,11.640718994140625,-0.004789428785443306,-0.0035686357878148556,-0.02141367830336094
1690839505358759200,11.65075927734375,-0.00452790642157197,-0.0028309402987360954,-0.021225925534963608
1690839505368799200,11.66079931640625,-0.004569185432046652,-0.00034727618913166225,-0.020505808293819427
1690839505378840300,11.67084033203125,-0.0038128476589918137,-0.0018309232546016574,-0.018677014857530594
1690839505388880100,11.680880126953125,-0.0032796829473227262,-0.000040480048483004794,-0.019473033025860786
1690839505398920200,11.690920166015625,-0.0056802560575306416,-0.0013068130938336253,-0.0179385207593441
1690839505408991000,11.700990966796875,-0.005525526590645313,-0.002043443499132991,-0.019892748445272446
1690839505419031000,11.711031005859375,-0.005632585845887661,-0.0022186795249581337,-0.021522602066397667
1690839505429071000,11.721071044921874,-0.0037585191894322634,-0.001401089015416801,-0.023609455674886703
1690839505439112200,11.7311123046875,-0.0036506610922515392,-0.0013467605458572507,-0.021531125530600548
1690839505449152300,11.74115234375,-0.004309793468564749,-0.0013885721564292908,-0.021316207945346832
