time,seconds_elapsed,z,y,x
1690839493900713000,0.192712890625,-0.0008886302821338177,0.002217691857367754,-0.01152670569717884
1690839493910753000,0.2027529296875,-0.0009016185067594051,0.000013295793905854225,0.004886416718363762
1690839493920794000,0.212794189453125,0.00090400455519557,0.0016836303984746337,0.020118098706007004
1690839493930834200,0.222834228515625,0.0003768657334148884,0.0006076761055737734,0.030613888055086136
1690839493940874000,0.2328740234375,0.0002722037024796009,-0.0028067626990377903,0.032843217253685
1690839493950913800,0.242913818359375,-0.0007001743651926517,0.0000633068848401308,0.028219914063811302
1690839493960955000,0.252954833984375,-0.0007036365568637848,-0.0004919623024761677,0.018476206809282303
1690839493970995000,0.262994873046875,0.0010255957022309303,-0.0010283684823662043,0.00674495380371809
1690839493981035000,0.273034912109375,-0.0007414119318127632,-0.0005090520717203617,-0.0062217116355896
1690839493991076000,0.283076171875,0.0008783778175711632,0.00024090183433145285,-0.016736852005124092
1690839494001116200,0.2931162109375,0.00005119992420077324,-0.002108805114403367,-0.021459167823195457
1690839494011156000,0.303156005859375,-0.0011079618707299232,0.0003256116760894656,-0.022458774968981743
1690839494021195800,0.31319580078125,-0.0006978348828852177,-0.0022201037500053644,-0.018548721447587013
1690839494031236900,0.32323681640625,0.0005796835757791996,-0.001297052251175046,-0.010067086666822433
1690839494041277000,0.33327685546875,-0.00065202871337533,0.0008931313641369343,-0.001404356211423874
1690839494051348000,0.343347900390625,0.0005618673749268055,-0.00010558788198977709,0.007085363380610943
1690839494061388000,0.353387939453125,-0.00020112795755267143,0.001563415164127946,0.012705432251095772
1690839494071428000,0.363427978515625,-0.00032698502764105797,0.0002582034794613719,0.01740400865674019
1690839494081469200,0.37346923828125,-0.0001775817945599556,-0.0004419416654855013,0.01614486612379551
1690839494091509000,0.383509033203125,-0.00006674369797110558,-0.00032450025901198387,0.012492980808019638
1690839494101548800,0.393548828125,-0.00033519044518470764,-0.0026342596393078566,0.006672642193734646
1690839494111590000,0.40358984375,0.0010766505729407072,-0.0012989251408725977,0.00024489685893058777
1690839494121630000,0.4136298828125,0.00044015515595674515,0.0015171014238148928,-0.005177034065127373
1690839494131670000,0.423669921875,0.0008269790560007095,0.001243572449311614,-0.011658411473035812
1690839494141710000,0.4337099609375,0.0009353696368634701,0.000026507885195314884,-0.010905534029006958
1690839494151751200,0.443751220703125,0.0009503175970166922,0.00011465512216091156,-0.010628052055835724
1690839494161791000,0.453791015625,-0.0018960689194500446,-0.0004933446180075407,-0.0071158744394779205
1690839494171830800,0.463830810546875,-0.00019782176241278648,-0.0005623165052384138,-0.0017297398298978806
1690839494181871900,0.473871826171875,0.0008879490196704865,0.0011714014690369368,0.002095092087984085
1690839494191912000,0.483911865234375,0.0006139264442026615,0.00042411789763718843,0.008953656069934368
1690839494201952000,0.493951904296875,-0.000346143264323473,-0.00011037860531359911,0.009870583191514015
1690839494211992000,0.503991943359375,0.0004231110215187073,0.0012103053741157055,0.01036304421722889
1690839494222063000,0.51406298828125,0.000673447735607624,0.0013906012754887342,0.0074751125648617744
1690839494232103000,0.52410302734375,0.0007500136271119118,0.0012339851818978786,0.006955753080546856
1690839494242143700,0.534143798828125,0.001087702577933669,-0.0020211965311318636,0.0024504829198122025
1690839494252183800,0.544183837890625,0.0004923692904412746,0.0008891252218745649,-0.0031715426594018936
1690839494262224000,0.554223876953125,0.0007371138781309128,-0.0017521979752928019,-0.005777979269623756
1690839494272265000,0.564264892578125,0.00018178019672632217,0.00019858626183122396,-0.008509041741490364
1690839494282305000,0.574304931640625,0.000015865080058574677,0.000052112387493252754,-0.00806083157658577
1690839494292345000,0.584344970703125,-0.0006567016243934631,-0.00008267734665423632,-0.00480714812874794
1690839494302385200,0.59438525390625,-0.00021701399236917496,0.00008909660391509533,-0.0017620902508497238
1690839494312426000,0.604426025390625,-0.0006532734259963036,0.0005421057576313615,0.0022273361682891846
1690839494322465800,0.6144658203125,0.0008836369961500168,0.00021267274860292673,0.005674266256392002
1690839494332505900,0.624505859375,0.0004066983237862587,-0.0020821786019951105,0.008465513586997986
1690839494342547000,0.634546875,0.000010952819138765335,-0.0004587157163769007,0.007958182133734226
1690839494352587000,0.6445869140625,0.0018419630359858274,0.0008089911425486207,0.006299998611211777
1690839494362627000,0.654626953125,-0.0007357108406722546,0.0009014027891680598,0.0020812861621379852
1690839494372667100,0.664667236328125,0.0003773970529437065,-0.0015966016799211502,0.000025842338800430298
1690839494382738000,0.674738037109375,0.0009904566686600447,-0.0017377492040395737,-0.0032461173832416534
1690839494392778800,0.68477880859375,-0.0014309491962194443,0.0017826103139668703,-0.005268387496471405
1690839494402818800,0.69481884765625,0.0009062406606972218,0.0007540974766016006,-0.005308600142598152
1690839494412859000,0.70485888671875,-0.0008930880576372147,0.0017629311187192798,-0.004059832543134689
1690839494422899000,0.71489892578125,0.00026085972785949707,0.0010236375965178013,-0.003317343071103096
1690839494432940000,0.72493994140625,-0.000513024628162384,0.0014045793795958161,0.000529993325471878
1690839494442980000,0.73497998046875,0.00034185033291578293,0.0019017915474250913,0.0018402691930532455
1690839494453020200,0.745020263671875,-0.0007988284341990948,-0.0030836528167128563,0.0011276770383119583
1690839494463060000,0.75506005859375,0.0005300887860357761,-0.002552884630858898,0.005607381463050842
1690839494473100800,0.765100830078125,0.00023186858743429184,-0.0013332704547792673,0.005062960088253021
1690839494483140900,0.775140869140625,-0.0004163449630141258,-0.0030651239212602377,0.0011718161404132843
1690839494493181000,0.785180908203125,0.0014113003853708506,0.0009334275382570922,0.0026195980608463287
1690839494503222000,0.795221923828125,0.0004690741188824177,0.0009041327284649014,0.001492014154791832
1690839494513262000,0.805261962890625,0.0007415567524731159,0.00003064621705561876,-0.0006460733711719513
1690839494523302100,0.81530224609375,-0.0005444837734103203,0.0029100561514496803,-0.001861540600657463
1690839494533342000,0.825342041015625,-0.000044207554310560226,0.0009377026581205428,-0.003288460895419121
1690839494543413000,0.8354130859375,0.0017907102592289448,0.0008194582769647241,-0.0001430027186870575
1690839494553453800,0.845453857421875,-0.0013065985403954983,-0.00031164975371211767,-0.002448907122015953
1690839494563494000,0.855493896484375,0.0005919691175222397,-0.0009585317457094789,-0.0011985544115304947
1690839494573534000,0.865533935546875,-0.0006825234740972519,-0.002238402608782053,0.00035340525209903717
1690839494583554800,0.875554931640625,0.0006743571721017361,-0.0020852708257734776,0.00229671411216259
1690839494593595600,0.885595703125,0.0009396115783601999,-0.00014264811761677265,0.0037951525300741196
1690839494603635700,0.8956357421875,0.0019460201729089022,0.00032926409039646387,0.0038659926503896713
1690839494613675500,0.905675537109375,0.000003487803041934967,0.00028804526664316654,0.00253281369805336
1690839494623716600,0.915716552734375,-0.00045297760516405106,-0.0006160979392006993,0.004356546327471733
1690839494633756700,0.925756591796875,-0.00045051565393805504,-0.001176663557998836,0.001256607472896576
1690839494643796700,0.935796630859375,-0.000967435073107481,-0.0005231237737461925,0.0013639312237501144
1690839494653836800,0.9458369140625,-0.0018161437474191189,-0.0007181782275438309,-0.0010520145297050476
1690839494663877600,0.955877685546875,-0.0009303763508796692,-0.001205802895128727,-0.0035218317061662674
1690839494673917700,0.965917724609375,-0.0016844002529978752,-0.0019597234204411507,-0.0025883223861455917
1690839494683957500,0.97595751953125,-0.0014721467159688473,-0.0019919476471841335,-0.00029986724257469177
1690839494693998600,0.98599853515625,-0.00026669399812817574,-0.0010297956177964807,-0.00166994147002697
1690839494704068600,0.996068603515625,0.000668075866997242,-0.0018327386351302266,0.0004707071930170059
1690839494714109700,1.006109619140625,0.0011225854977965355,-0.0018513440154492855,0.0013299919664859772
1690839494724149800,1.016149658203125,0.0019502958748489618,-0.0014164496678858995,0.0035105887800455093
1690839494734189800,1.02618994140625,-0.00035271793603897095,-0.0008484419668093324,0.004768628627061844
1690839494744230000,1.03622998046875,-0.0007865470834076405,-0.0004598867380991578,0.002923591062426567
1690839494754270700,1.046270751953125,0.00006396975368261337,0.0006047642091289163,0.0010582804679870605
1690839494764310500,1.056310546875,-0.0013038301840424538,0.0004076901823282242,-0.0004421435296535492
1690839494774350600,1.0663505859375,0.0010614688508212566,-0.0017266678623855114,0.0007726140320301056
1690839494784391700,1.0763916015625,-0.0012131370604038239,-0.0012014925014227629,-0.002484966069459915
1690839494794431700,1.086431640625,-0.0003246474079787731,0.0008547509787604213,-0.001583632081747055
1690839494804471800,1.096471923828125,-0.00027697673067450523,-0.0007575267227366567,-0.001669386401772499
1690839494814511900,1.106511962890625,-0.00006907619535923004,-0.0006108991801738739,0.0008577145636081696
1690839494824552700,1.116552734375,-0.0014605778269469738,0.0010573049075901508,0.0003053750842809677
1690839494834592500,1.126592529296875,0.00090418616309762,-0.0010676139499992132,-0.0010913591831922531
1690839494844632600,1.136632568359375,0.0006445278413593769,0.0006527882069349289,0.001387244090437889
1690839494854673700,1.146673583984375,0.0006483346223831177,-0.0000920476159080863,0.0012812670320272446
1690839494864743700,1.15674365234375,0.00031517306342720985,-0.00014690880198031664,0.0026810262352228165
1690839494874784800,1.16678466796875,-0.000807677861303091,-0.0005543986335396767,0.0016080737113952637
1690839494884824800,1.176824951171875,0.0016363051254302263,0.0027623020578175783,0.0016818419098854065
1690839494894865000,1.186864990234375,-0.0004439856857061386,-0.00003858993295580149,-0.0008568819612264633
1690839494904905700,1.19690576171875,-0.0007750163786113262,0.0008176163537427783,-0.001025194302201271
1690839494914945500,1.206945556640625,0.0009656487964093685,0.0021238725166767836,0.001383129507303238
1690839494924985600,1.216985595703125,0.0006338190287351608,0.0006301053799688816,0.0014302674680948257
1690839494935025700,1.227025634765625,0.0010042302310466766,0.0007236442761495709,0.001125657930970192
1690839494945066800,1.237066650390625,0.0009813269134610891,-0.0004862298956140876,0.0016614869236946106
1690839494955106800,1.24710693359375,0.0009665971156209707,-0.00008329364936798811,0.0006473548710346222
1690839494965147000,1.25714697265625,-0.000822780653834343,-0.0007493501761928201,0.0003392267972230911
1690839494975186700,1.267186767578125,0.002030705800279975,0.00003786548040807247,0.0001854468137025833
1690839494985227500,1.2772275390625,0.0006775539368391037,0.0005920693511143327,0.00029969774186611176
1690839494995267600,1.287267578125,-0.00031700683757662773,0.00041184097062796354,0.0008126683533191681
1690839495005307600,1.2973076171875,0.00004438403993844986,0.00027788407169282436,0.000565793365240097
1690839495015348700,1.3073486328125,-0.0011254227720201015,-0.001218613819219172,-0.002134433016180992
1690839495025418800,1.317418701171875,0.0006727436557412148,0.0020549437031149864,-0.00013945810496807098
1690839495035459800,1.3274599609375,0.0007555251941084862,-0.00011418305803090334,0.0004618372768163681
1690839495045500000,1.3375,-0.0010903114452958107,-0.0001213735667988658,0.0012509319931268692
1690839495055539700,1.347539794921875,0.00014592474326491356,0.0005214934935793281,0.0006136298179626465
1690839495065580500,1.35758056640625,-0.0007057543843984604,-0.0001722599845379591,0.003318069502711296
1690839495075620600,1.36762060546875,0.00039565982297062874,-0.0008715859148651361,0.0009329486638307571
1690839495085660700,1.37766064453125,-0.0009036962874233723,0.0006301705725491047,0.00037075579166412354
1690839495095700700,1.38770068359375,0.0006659603677690029,0.000720259384252131,0.001055702567100525
1690839495105741800,1.397741943359375,0.00041988445445895195,0.0012235967442393303,0.0036842413246631622
1690839495115782000,1.407781982421875,0.0004272344522178173,-0.0008722448255866766,0.000558188185095787
1690839495125821700,1.41782177734375,0.000959866913035512,0.0008380371145904064,0.0017097387462854385
1690839495135862500,1.427862548828125,0.0008623315952718258,0.00023316091392189264,0.0002871248871088028
1690839495145902600,1.437902587890625,-0.0005360939539968967,0.00004274491220712662,-0.00005642324686050415
1690839495155942700,1.447942626953125,0.0009605977684259415,-0.0007277876138687134,-0.0016336515545845032
1690839495165982700,1.457982666015625,0.000791486818343401,-0.0007616097573190928,-0.0015814527869224548
1690839495176023800,1.46802392578125,-0.0006368877366185188,0.000815881765447557,0.0006407890468835831
1690839495186093600,1.478093505859375,0.0007178625091910362,-0.0004797460278496146,-0.0010292790830135345
1690839495196135000,1.488135009765625,0.0008799917995929718,-0.00047056563198566437,-0.001256810501217842
1690839495206174700,1.4981748046875,-0.0008486662991344929,0.00009615509770810604,0.0013469606637954712
1690839495216214800,1.50821484375,-0.0009360178373754025,-0.000918089528568089,0.002364950254559517
1690839495226255600,1.518255615234375,0.00046986527740955353,0.0016212345799431205,0.0020011626183986664
1690839495236295700,1.528295654296875,0.00036692945286631584,0.000600416911765933,0.005497567355632782
1690839495246335700,1.538335693359375,-0.00013773981481790543,0.0006518159061670303,0.003332950174808502
1690839495256375800,1.548375732421875,-0.00021760538220405579,0.00046800996642559767,0.0025468748062849045
1690839495266417000,1.5584169921875,-0.0010429192334413528,0.0004530962323769927,0.0005396492779254913
1690839495276456700,1.568456787109375,-0.00032189954072237015,-0.0009624939411878586,-0.00046489574015140533
1690839495286496500,1.57849658203125,-0.0018460266292095184,-0.0005592913366854191,-0.0018002036958932877
1690839495296537600,1.58853759765625,0.0010772326495498419,-0.0008977049728855491,-0.0018451735377311707
1690839495306577700,1.59857763671875,0.00010651024058461189,-0.0003301851684227586,-0.0023341309279203415
1690839495316617700,1.60861767578125,-0.00034886598587036133,0.0009795855730772018,-0.0009898319840431213
1690839495326657800,1.61865771484375,-0.0007094582542777061,0.0009359097457490861,-0.0008947569876909256
1690839495336699000,1.628698974609375,-0.000032436568289995193,0.0016859376337379217,0.0006841197609901428
1690839495346769700,1.638769775390625,-0.00014881696552038193,0.000005482928827404976,0.0009299293160438538
1690839495356809700,1.648809814453125,-0.00022789184004068375,-0.001343008829280734,0.0024947021156549454
1690839495366849500,1.658849609375,-0.0014822408556938171,-0.00047295400872826576,0.0015591345727443695
1690839495376889600,1.6688896484375,0.0014338323380798101,-0.0003909766674041748,0.003347957506775856
1690839495386930700,1.6789306640625,0.0004135752096772194,0.000029802671633660793,0.0023671146482229233
1690839495396970800,1.688970703125,0.00001945020630955696,-0.0005335485329851508,0.00026297569274902344
1690839495407010800,1.6990107421875,-0.0008727088570594788,-0.0029170778580009937,-0.0015929806977510452
1690839495417050600,1.709050537109375,-0.00027786893770098686,-0.00021433178335428238,-0.0011821947991847992
1690839495427091700,1.719091796875,-0.0006949198432266712,-0.00148679013364017,-0.00346958264708519
1690839495437131500,1.729131591796875,0.0005648192018270493,-0.00026085914578288794,-0.001183031126856804
1690839495447171600,1.739171630859375,-0.001437611412256956,0.0006440829019993544,0.0011767968535423279
1690839495457212700,1.749212646484375,-0.0017341692000627518,0.0020939656533300877,-0.00013286247849464417
1690839495467252700,1.759252685546875,0.0008853161707520485,0.002154419431462884,0.002726040780544281
1690839495477292800,1.769292724609375,0.0011048568412661552,0.00004429940599948168,0.002456042915582657
1690839495487332600,1.77933251953125,-0.001818495336920023,0.0001023563090711832,0.0019529704004526138
1690839495497373700,1.789373779296875,-0.00015124166384339333,-0.0008456211071461439,0.0015482772141695023
1690839495507444700,1.79944482421875,-0.0001041037030518055,-0.0016727990005165339,0.00033733807504177094
1690839495517484500,1.809484619140625,0.000515500083565712,-0.00008429493755102158,-0.0011383406817913055
1690839495527524600,1.819524658203125,0.0009032562375068665,-0.0011956319212913513,-0.001292537897825241
1690839495537564700,1.829564697265625,-0.00023735174909234047,-0.0013017127057537436,-0.002026710659265518
1690839495547605800,1.839605712890625,-0.0003292304463684559,0.000869296258315444,-0.0022112689912319183
1690839495557645800,1.849645751953125,0.00019767740741372108,0.00020661973394453526,-0.00038250721991062164
1690839495567685600,1.859685546875,-0.0007360270246863365,0.0012287409044802189,-0.0002229847013950348
1690839495577729800,1.869729736328125,0.0003894488327205181,0.0011635653208941221,0.002132495865225792
1690839495587769900,1.879769775390625,-0.00041961949318647385,-0.00010516471229493618,-0.00024064816534519196
1690839495597809700,1.8898095703125,0.0016542349476367235,-0.00140685448423028,0.00045537762343883514
1690839495607849700,1.899849609375,-0.00032316194847226143,-0.00037061842158436775,0.0010423380881547928
1690839495617890800,1.909890869140625,-0.0019277054816484451,-0.0012224017409607768,-0.0010255593806505203
1690839495627931000,1.919930908203125,-0.0007378049194812775,-0.001699373940937221,-0.00042421743273735046
1690839495637971000,1.929970947265625,0.0008073817007243633,-0.0008927594171836972,-0.000492047518491745
1690839495648012000,1.940011962890625,0.00011416058987379074,-0.0022198129445314407,-0.0001652780920267105
1690839495658051800,1.9500517578125,0.0001687849871814251,-0.0003766618901863694,0.0013515446335077286
1690839495668123000,1.960122802734375,-0.0000029890798032283783,0.002110996749252081,0.0008953437209129333
1690839495678162700,1.97016259765625,-0.0006616129539906979,0.00021470221690833569,0.00239449180662632
1690839495688202800,1.98020263671875,-0.0004277871921658516,0.00208450760692358,0.0001912582665681839
1690839495698242800,1.990242919921875,0.0009387959726154804,0.0011876827338710427,0.004626438021659851
1690839495708284000,2.000283935546875,0.00010416144505143166,-0.00022752117365598679,-0.00020959600806236267
1690839495718323700,2.01032373046875,0.0011542150750756264,-0.0005516657838597894,-0.00109805166721344
1690839495728363800,2.02036376953125,-0.0007968167774379253,-0.0002091833157464862,-0.003059469163417816
1690839495738404900,2.03040478515625,0.000991762150079012,-0.0020940368995070457,-0.0019106604158878326
1690839495748444700,2.040444580078125,0.00014620879665017128,0.00021279335487633944,-0.0018928162753582
1690839495758484700,2.050484619140625,-0.00037819286808371544,0.0005804150132462382,0.0008394196629524231
1690839495768524800,2.06052490234375,-0.0008013690821826458,-0.00010641419794410467,0.002515612170100212
1690839495778566000,2.07056591796875,0.00014280155301094055,-0.003027187194675207,0.0007517766207456589
1690839495788606000,2.08060595703125,0.002248296746984124,-0.0014407421695068479,0.0023925509303808212
1690839495798645800,2.090645751953125,0.0004959725774824619,-0.00023687188513576984,0.001429978758096695
1690839495808686800,2.100686767578125,0.00131169892847538,-0.0015503428876399994,0.0016936305910348892
1690839495818726700,2.1107265625,0.0011709642130881548,0.0009227534756064415,-0.0028481371700763702
1690839495828797700,2.120797607421875,0.0005621653981506824,-0.0026671874802559614,-0.0030577275902032852
1690839495838837800,2.130837646484375,-0.000832222867757082,0.001065312186256051,-0.002260105684399605
1690839495848877800,2.1408779296875,0.00019682245329022408,-0.0010553631000220776,-0.0015820655971765518
1690839495858919000,2.1509189453125,-0.0013513299636542797,-0.0013465392403304577,-0.0010163411498069763
1690839495868958700,2.160958740234375,0.00013764342293143272,0.0014697534497827291,0.0028242040425539017
1690839495878998800,2.170998779296875,0.00024794694036245346,-0.0011522407876327634,0.0015376359224319458
1690839495889038800,2.181038818359375,0.00041386205703020096,0.00015510502271354198,0.0038223620504140854
1690839495899079700,2.19107958984375,-0.000019177328795194626,0.0013249287148937583,0.0037983525544404984
1690839495909119700,2.20111962890625,-0.0003933515399694443,0.0009049482177942991,0.0015937890857458115
1690839495919159800,2.211159912109375,0.00008012121543288231,-0.00005641160532832146,-0.0006008204072713852
1690839495929199600,2.22119970703125,0.0013227523304522038,-0.00018717278726398945,-0.0018732789903879166
1690839495939240700,2.23124072265625,-0.0005463873967528343,-0.0008167021442204714,-0.0020209606736898422
1690839495949280800,2.24128076171875,-0.0010356097482144833,-0.001988226780667901,-0.004576796665787697
1690839495959320800,2.25132080078125,0.0009326389990746975,-0.00019617797806859016,-0.002520497888326645
1690839495969361700,2.261361572265625,-0.002385393250733614,0.0010043750517070293,0.0022276509553194046
1690839495979432000,2.271431884765625,0.0010403718333691359,0.0001681608846411109,0.0009052269160747528
1690839495989472800,2.28147265625,-0.000738619826734066,0.0008821543306112289,0.002421630546450615
1690839495999512800,2.291512939453125,0.0014974754303693771,0.00014457060024142265,0.0000884123146533966
1690839496009552600,2.301552734375,0.0000878642313182354,-0.0010104422690346837,0.00037283822894096375
1690839496019593700,2.31159375,0.0003474988043308258,0.00020189140923321247,-0.0006091482937335968
1690839496029633800,2.3216337890625,0.0005323220975697041,0.0002303872024640441,-0.001313554123044014
1690839496039673900,2.331673828125,0.0012468388304114342,-0.005510138347744942,-0.004663161933422089
1690839496049714000,2.3417138671875,-0.00047010136768221855,0.00004601478576660156,-0.001477222889661789
1690839496059754800,2.351754638671875,-0.0007900102064013481,0.0008837408386170864,0.000844338908791542
1690839496069794800,2.361794921875,0.0009471699595451355,-0.0016555831534788013,-0.000817740336060524
1690839496079834600,2.371834716796875,0.00006597582250833511,0.00026861915830522776,0.0037968307733535767
1690839496089875700,2.381875732421875,-0.0006384304724633694,-0.0018975960556417704,0.003567265346646309
1690839496099915800,2.391915771484375,-0.00015530595555901527,0.0010294439271092415,0.0025538038462400436
1690839496109955800,2.401955810546875,-0.0008991267532110214,0.0003708441508933902,0.002507198601961136
1690839496119996000,2.411995849609375,-0.0004401779733598232,-0.00039600697346031666,-0.00019618868827819824
1690839496130036700,2.42203662109375,0.0011726322118192911,0.0011124075390398502,-0.0010507963597774506
1690839496140107000,2.43210693359375,-0.0005012527108192444,0.0016844853525981307,-0.0016300156712532043
1690839496150147800,2.44214794921875,-0.0006956635043025017,-0.0012343390844762325,-0.0019554533064365387
1690839496160187600,2.452187744140625,-0.0007547787390649319,0.0015142116462811828,-0.0012447144836187363
1690839496170227700,2.462227783203125,0.0007842620834708214,-0.0020269937813282013,0.0003238879144191742
1690839496180268800,2.472268798828125,-0.00044135283678770065,0.000023256056010723114,0.00155654177069664
1690839496190308900,2.482308837890625,0.0007924893870949745,-0.002744567347690463,0.001891566440463066
1690839496200349000,2.492348876953125,-0.0004825708456337452,-0.0019690287299454212,0.0021594148129224777
1690839496210389000,2.502388916015625,-0.0003627282567322254,-0.001309097628109157,0.0006470046937465668
1690839496220429800,2.512429931640625,0.00032816315069794655,-0.0009063298348337412,0.0013721082359552383
1690839496230469600,2.5224697265625,0.0000405418686568737,-0.0003747630398720503,-0.0013405866920948029
1690839496240509700,2.532509765625,0.000821228139102459,-0.0007171633187681437,-0.0010740049183368683
1690839496250550800,2.54255078125,-0.001049376092851162,0.00023385148961097002,0.0013601239770650864
1690839496260590800,2.5525908203125,-0.0007202471606433392,-0.0007804405177012086,-0.0015600994229316711
1690839496270631000,2.562630859375,0.0007958905771374702,-0.00044488220009952784,-0.00119098462164402
1690839496280671000,2.5726708984375,-0.000045326538383960724,0.0007549965521320701,0.0015764366835355759
1690839496290711800,2.5827119140625,-0.00020458362996578217,0.0008082598214969039,0.0027884412556886673
1690839496300782800,2.592782958984375,-0.0007261973805725574,-0.00177132582757622,0.0018940996378660202
1690839496310822700,2.60282275390625,0.0009084506891667843,-0.0003989989636465907,0.0013220515102148056
1690839496320862700,2.61286279296875,-0.0008341805078089237,0.00094444933347404,-0.00019165314733982086
1690839496330902800,2.62290283203125,0.000015900470316410065,0.0008927839808166027,-0.0006100349128246307
1690839496340944000,2.63294384765625,-0.000645933672785759,-0.001642538933083415,-0.001692015677690506
1690839496350984000,2.64298388671875,0.0006824512965977192,-0.0019187089055776596,-0.0012451373040676117
1690839496361024000,2.65302392578125,0.0005942946299910545,0.001006175996735692,-0.0006137862801551819
1690839496371064800,2.66306494140625,0.00046166917309165,-0.0025219800882041454,0.00026106275618076324
1690839496381104600,2.673104736328125,-0.00017367536202073097,0.003227126318961382,0.0001490022987127304
1690839496391144700,2.683144775390625,-0.0003070998936891556,0.0025466885417699814,0.0022073592990636826
1690839496401184800,2.693184814453125,-0.0003983117640018463,-0.0008320199558511376,0.002355135977268219
1690839496411225900,2.703225830078125,-0.0002635559067130089,-0.002918872982263565,-0.0012316089123487473
1690839496421266000,2.713265869140625,-0.00033713551238179207,-0.0005449001910164952,0.0014863088726997375
1690839496431306000,2.723305908203125,-0.0016977442428469658,0.0008434058399870992,-0.0015659406781196594
1690839496441346000,2.733345947265625,-0.0006166831590235233,-0.001695148996077478,-0.001703314483165741
1690839496451387000,2.743386962890625,-0.00149818928912282,-0.0007148393196985126,-0.0009009037166833878
1690839496461457700,2.753457763671875,-0.0010384893976151943,-0.002891173819079995,-0.0005133803933858871
1690839496471497700,2.763497802734375,-0.00032582739368081093,0.001036456204019487,0.0002887621521949768
1690839496481537800,2.773537841796875,-0.0006034760735929012,0.0014342835638672113,0.0018135998398065567
1690839496491577900,2.783577880859375,-0.000027700792998075485,-0.0016328789060935378,0.0020562130957841873
1690839496501619000,2.793618896484375,0.0009938357397913933,0.0005294858710840344,0.0008126590400934219
1690839496511659000,2.803658935546875,-0.0012216479517519474,0.0012006023898720741,-0.0009665973484516144
1690839496521698800,2.81369873046875,-0.0005227909423410892,-0.001928631099872291,-0.00038489699363708496
1690839496531739600,2.82373974609375,0.0016165263950824738,0.00011055124923586845,-0.0010379031300544739
1690839496541779700,2.83377978515625,-0.00025109993293881416,0.0005487916059792042,-0.0008058100938796997
1690839496551819800,2.84381982421875,-0.00017120502889156342,-0.0013931854628026485,-0.0005368310958147049
1690839496561859800,2.85385986328125,-0.0003938591107726097,0.00009455648250877857,-0.000369219109416008
1690839496571901000,2.86390087890625,-0.0007912027649581432,-0.0001017183531075716,0.0003242678940296173
1690839496581929500,2.873929443359375,-0.0009142444469034672,0.0012251526350155473,0.0015783477574586868
1690839496591969500,2.883969482421875,-0.0012641837820410728,-0.000017744721844792366,-0.0013567227870225906
1690839496602010400,2.89401025390625,0.00018378207460045815,0.0003375977976247668,-0.00259244441986084
1690839496612050400,2.904050537109375,0.001651982543990016,0.004422354511916637,-0.003740798681974411
1690839496622121200,2.914121337890625,0.0007626763544976711,0.0014818550553172827,-0.002026183530688286
1690839496632161300,2.924161376953125,-0.0012229764834046364,0.0007817100267857313,-0.0007878132164478302
1690839496642201300,2.934201416015625,-0.0012989486567676067,-0.0023016869090497494,0.005504068918526173
1690839496652241400,2.944241455078125,-0.0005074571818113327,-0.0022492227144539356,0.008527289144694805
1690839496662282500,2.954282470703125,-0.0007257997058331966,-0.004403437487781048,0.013463832437992096
1690839496672322600,2.964322509765625,0.0003437260165810585,-0.0037594849709421396,0.01143983006477356
1690839496682362600,2.974362548828125,0.00012971460819244385,-0.0006795390509068966,0.008327393792569637
1690839496692403500,2.984403564453125,0.001522281439974904,0.0014363423688337207,0.0012170206755399704
1690839496702443300,2.994443359375,-0.00038162991404533386,0.005157278385013342,-0.008556196466088295
1690839496712483300,3.0044833984375,0.0008689905516803265,0.002042178763076663,-0.01808471977710724
1690839496722523400,3.0145234375,0.0009318618103861809,0.0013790844241157174,-0.021392418071627617
1690839496732564500,3.024564453125,-0.0008820169605314732,0.000226468313485384,-0.0190067570656538
1690839496742604500,3.0346044921875,0.0005157175473868847,-0.004195369780063629,-0.010249067097902298
1690839496752644600,3.04464453125,-0.0002733771689236164,-0.0038582133129239082,0.0000440496951341629
1690839496762685400,3.054685546875,0.0021695138420909643,-0.0009051603265106678,0.011956959962844849
1690839496772725200,3.064725341796875,-0.0005280016921460629,-0.00028677424415946007,0.020905181765556335
1690839496782796300,3.07479638671875,0.0002330634742975235,0.0026041753590106964,0.02369937114417553
1690839496792836400,3.08483642578125,0.0002820654772222042,0.0015154749853536487,0.02249429188668728
1690839496802876400,3.09487646484375,-0.0003637750633060932,0.002797412918880582,0.013970866799354553
1690839496812917500,3.10491748046875,0.00036912690848112106,0.0002895141951739788,0.00270063616335392
1690839496822957600,3.11495751953125,-0.0007599401287734509,-0.00006828643381595612,-0.012738160789012909
1690839496832997400,3.124997314453125,-0.0011921711266040802,-0.00036576157435774803,-0.020591557025909424
1690839496843037400,3.135037353515625,0.0012453505769371986,-0.00037678913213312626,-0.02311181090772152
1690839496853078300,3.145078369140625,0.00029646651819348335,0.0017939534736797214,-0.018517857417464256
1690839496863118300,3.155118408203125,-0.001030482817441225,-0.001887148478999734,-0.009397346526384354
1690839496873158400,3.165158447265625,-0.001574832946062088,0.0016692366916686296,0.00005687400698661804
1690839496883199500,3.175199462890625,-0.0004938803613185883,0.0000018007121980190277,0.010469342581927776
1690839496893239600,3.185239501953125,0.0008283788338303566,-0.00046318722888827324,0.016378629952669144
1690839496903279600,3.195279541015625,0.0008363546803593636,-0.0018389655742794275,0.01582108996808529
1690839496913319400,3.2053193359375,-0.00061400281265378,-0.0008812928572297096,0.013654874637722969
1690839496923360300,3.2153603515625,0.002168916631489992,-0.0012945635244250298,0.006768260151147842
1690839496933400300,3.225400390625,-0.00014164205640554428,0.0024959135334938765,-0.001497659832239151
1690839496943471400,3.235471435546875,-0.0015887292101979256,-0.0001224912703037262,-0.008963985368609428
1690839496953511400,3.245511474609375,0.0012089216616004705,0.0012248019920662045,-0.009802615270018578
1690839496963551500,3.255551513671875,-0.0014227167703211308,0.001709450501948595,-0.00727267749607563
1690839496973592600,3.265592529296875,0.0012415095698088408,-0.0010266811586916447,-0.0027695372700691223
1690839496983632400,3.27563232421875,0.0004851589910686016,-0.0018796916119754314,-0.0015303697437047958
1690839496993672400,3.28567236328125,0.0017216645646840334,-0.0015361439436674118,0.002392733469605446
1690839497003712500,3.29571240234375,0.002566644689068198,0.0004294011741876602,0.00554359145462513
1690839497013753300,3.30575341796875,0.0008249371312558651,0.0009617670439183712,0.005905781872570515
1690839497023793400,3.31579345703125,0.000754225067794323,-0.0012887956108897924,0.002320254221558571
1690839497033833500,3.32583349609375,-0.0012769675813615322,-0.001020615454763174,0.001633690670132637
1690839497043874600,3.33587451171875,0.0001394837163388729,-0.0007040917407721281,-0.003465671092271805
1690839497053914600,3.34591455078125,-0.001466935034841299,-0.0017235497944056988,-0.003048354759812355
1690839497063954400,3.355954345703125,0.000023407861590385437,-0.0006683538667857647,-0.001729501411318779
1690839497073994500,3.365994384765625,0.00042794179171323776,-0.0005082979332655668,0.0007054265588521957
1690839497084035300,3.376035400390625,0.00011042412370443344,-0.0003044521436095238,0.003869354724884033
1690839497094075400,3.386075439453125,0.0007053744047880173,-0.0008719717152416706,0.005083223804831505
1690839497104146400,3.396146484375,0.0005124793387949467,0.00033896765671670437,0.005023835226893425
1690839497114186500,3.4061865234375,0.001491989940404892,0.0012279307702556252,0.0030869189649820328
1690839497124226300,3.416226318359375,-0.000525875948369503,-0.002447910839691758,-0.001256471499800682
1690839497134267400,3.426267333984375,-0.0004957821220159531,-0.0026029066648334265,-0.0033316072076559067
1690839497144307500,3.436307373046875,0.0007749791257083416,-0.0018847130704671144,-0.006734779104590416
1690839497154347500,3.446347412109375,0.0005834978073835373,-0.00044500804506242275,-0.006600022315979004
1690839497164387600,3.4563876953125,0.001145854126662016,0.000503351679071784,-0.00488375686109066
1690839497174428400,3.466428466796875,-0.0008627017959952354,-0.0007539265789091587,-0.0007119141519069672
1690839497184468500,3.476468505859375,-0.00006705429404973984,0.0017559787956997752,0.0039481427520513535
1690839497194508500,3.486508544921875,0.000585420522838831,-0.000666698906570673,0.007176958955824375
1690839497204549600,3.496549560546875,0.0003560176119208336,0.00032229069620370865,0.010164919309318066
1690839497214589400,3.50658935546875,0.001851649023592472,-0.0012172828428447247,0.006955277174711227
1690839497224629500,3.51662939453125,-0.0007974370382726192,-0.002020670101046562,0.0032745245844125748
1690839497234669600,3.526669677734375,-0.000853363424539566,-0.0008653909899294376,-0.0006011743098497391
1690839497244710400,3.53671044921875,0.0005875593051314354,-0.002183253411203623,-0.003290511667728424
1690839497254750500,3.54675048828125,0.0011649327352643013,-0.0005280987825244665,-0.006912412121891975
1690839497264821500,3.556821533203125,-0.0012647784315049648,-0.0018723492976278067,-0.007664250209927559
1690839497274861300,3.566861328125,-0.0000935201533138752,0.0011655185371637344,-0.005828533321619034
1690839497284901400,3.5769013671875,0.00047111138701438904,0.0013088093837723136,-0.0006456486880779266
1690839497294942500,3.5869423828125,0.0010167933069169521,0.0005998759297654033,0.0007064379751682281
1690839497304982500,3.596982421875,-0.00026759691536426544,0.0012297008652240038,0.00532850157469511
1690839497315022600,3.607022705078125,-0.00047745415940880775,0.000053915311582386494,0.005970057100057602
1690839497325063400,3.6170634765625,0.0006775087676942348,-0.0011595399118959904,0.00682753324508667
1690839497335103500,3.627103515625,0.0007158583030104637,0.00053130101878196,0.003749717026948929
1690839497345143300,3.637143310546875,0.0004512467421591282,-0.0014297491870820522,-0.0012003220617771149
1690839497355183400,3.647183349609375,-0.0006188112311065197,-0.0022803631145507097,-0.003430718556046486
1690839497365224400,3.657224365234375,-0.0008353134617209435,-0.0007148333825170994,-0.0064787715673446655
1690839497375264500,3.667264404296875,-0.000706949271261692,-0.000705778831616044,-0.0070934295654296875
1690839497385304600,3.6773046875,0.0015736601781100035,0.0007647961610928178,-0.004255298525094986
1690839497395344400,3.687344482421875,0.0009661931544542313,0.0027421931736171246,0.0023589283227920532
1690839497405385500,3.697385498046875,0.0001238700933754444,0.005306446459144354,0.0028333980590105057
1690839497415425500,3.707425537109375,-0.000007423572242259979,0.0011497846571728587,0.005497625097632408
1690839497425496300,3.717496337890625,0.0015081546735018492,0.0012736840872094035,0.005975258536636829
1690839497435536400,3.727536376953125,0.00016645388677716255,-0.00018199975602328777,0.002049759030342102
1690839497445576400,3.737576416015625,-0.00027360208332538605,-0.0012017276603728533,0.0024336520582437515
1690839497455617500,3.747617431640625,-0.00033165933564305305,0.0019447971135377884,-0.0009943675249814987
1690839497465657600,3.75765771484375,-0.002334405668079853,-0.0018971571698784828,-0.0020093992352485657
1690839497475697400,3.767697509765625,-0.0005761869251728058,0.00004082522355020046,-0.005574839189648628
1690839497485738500,3.777738525390625,0.0019107528496533632,0.0020431524608284235,-0.002294326201081276
1690839497495778300,3.7877783203125,0.0006971503607928753,-0.00016460800543427467,-0.0023148320615291595
1690839497505818400,3.797818359375,0.0009954492561519146,0.0016107714036479592,0.0026369616389274597
1690839497515858400,3.8078583984375,-0.0001611611805856228,0.0010938518680632114,0.0032982248812913895
1690839497525899500,3.8178994140625,0.0006436728872358799,-0.0029329077806323767,0.0031314529478549957
1690839497535939300,3.827939208984375,-0.000739839393645525,-0.0011698952876031399,0.0046438612043857574
1690839497545979400,3.8379794921875,0.00020573800429701805,0.0008782459190115333,0.0035266652703285217
1690839497556020500,3.8480205078125,-0.0005777641199529171,-0.003343130461871624,-0.00015515461564064026
1690839497566060500,3.858060546875,0.000445755198597908,-0.0018522795289754868,-0.002133246511220932
1690839497576100400,3.868100341796875,-0.0009835632517933846,0.00073817721568048,-0.0028624199330806732
1690839497586177000,3.878177001953125,-0.0015248246490955353,-0.00041190418414771557,-0.003549879416823387
1690839497596217000,3.888217041015625,0.0007516453042626381,-0.0015882225707173347,-0.002146925777196884
1690839497606257200,3.898257080078125,0.0004050810821354389,0.001854004804044962,-0.000578390434384346
1690839497616298200,3.90829833984375,0.00030574528500437737,-0.0005098169203847647,0.0011521317064762115
1690839497626338300,3.91833837890625,0.0007546199485659599,-0.0006836431566625834,0.0010295845568180084
1690839497636378400,3.92837841796875,0.002037730999290943,-0.0005986883770674467,0.0035191066563129425
1690839497646419200,3.938419189453125,0.0009110895916819572,0.0004913687007501721,0.003102106973528862
1690839497656459000,3.948458984375,0.0009078937582671642,-0.0013376902788877487,0.0011167190968990326
1690839497666499000,3.9584990234375,-0.0005417955107986927,-0.00026473822072148323,-0.0009641796350479126
1690839497676539100,3.9685390625,0.00034876586869359016,-0.0027353528421372175,-0.002680320292711258
1690839497686580200,3.978580322265625,-0.0009830263443291187,-0.00034974701702594757,-0.00395788811147213
1690839497696620300,3.988620361328125,0.0007906388491392136,-0.0006818431429564953,0.0003686845302581787
1690839497706660400,3.998660400390625,-0.00004210416227579117,-0.0005726637318730354,-0.0003595203161239624
1690839497716701200,4.008701171875,-0.00004822947084903717,0.0006947347428649664,0.001134779304265976
1690839497726741000,4.018740966796875,0.00011591147631406784,0.00004739686846733093,0.0010571740567684174
1690839497736781000,4.028781005859375,-0.0001847594976425171,0.0000343474093824625,0.002330964431166649
1690839497746852000,4.03885205078125,-0.00077012088149786,0.0007967386627569795,0.0017407555133104324
1690839497756892200,4.04889208984375,-0.0001687793992459774,0.000768509111367166,0.000760447233915329
1690839497766933200,4.058933349609375,0.001108056865632534,0.0004413953283801675,-0.001466328278183937
1690839497776973300,4.068973388671875,-0.00015614554286003113,-0.0018742233514785767,-0.0022338517010211945
1690839497787013400,4.079013427734375,-0.00039492780342698097,-0.0006055478006601334,-0.0010041743516921997
1690839497797053200,4.08905322265625,0.0002514212392270565,-0.0006497560534626245,-0.0018140431493520737
1690839497807094000,4.099093994140625,0.0011790210846811533,0.0013943057274445891,-0.002288445830345154
1690839497817134000,4.109134033203125,0.0021476128604263067,-0.00022702664136886597,-0.0014799106866121292
1690839497827174100,4.119174072265625,0.00029275380074977875,0.0010283078299835324,-0.00010055303573608398
1690839497837215200,4.12921533203125,0.0001659877598285675,-0.0010335114784538746,0.0015101265162229538
1690839497847255300,4.13925537109375,-0.0008319448679685593,-0.0027601770125329494,0.00155571848154068
1690839497857295400,4.14929541015625,-0.0002598976716399193,0.0006084556225687265,0.0015772897750139236
1690839497867335200,4.159335205078125,-0.0010883756913244724,0.0006116942968219519,0.001661553978919983
1690839497877376000,4.1693759765625,-0.0007168645970523357,0.0010721548460423946,0.0008871071040630341
1690839497887416000,4.179416015625,-0.00028683943673968315,-0.0013604371342808008,-0.00007100403308868408
1690839497897487000,4.189487060546875,0.0016511427238583565,0.000346649088896811,-0.00007819384336471558
1690839497907527200,4.199527099609375,-0.00017092935740947723,-0.0024378825910389423,0.0002824608236551285
1690839497917567200,4.209567138671875,0.00030018389225006104,0.0013688397593796253,0.0001442432403564453
1690839497927608300,4.2196083984375,-0.0006400966085493565,-0.000708897365257144,0.00027833692729473114
1690839497937648400,4.2296484375,0.00007842434570193291,-0.001761644845828414,-0.00008412078022956848
1690839497947688200,4.239688232421875,0.0011414906475692987,0.0016098865307867527,0.0026332885026931763
1690839497957728300,4.249728271484375,-0.000007130671292543411,-0.0006351582705974579,-0.0003366675227880478
1690839497967769000,4.25976904296875,0.0005561187863349915,0.0006636288017034531,0.00010648183524608612
1690839497977809200,4.26980908203125,0.0016341663431376219,-0.0009355994407087564,0.0010103583335876465
1690839497987849200,4.27984912109375,0.0007092314772307873,-0.0015420294366776943,0.0022680088877677917
1690839497997890300,4.289890380859375,0.0002248021773993969,0.0008470924803987145,-0.0001836959272623062
1690839498007930400,4.299930419921875,-0.000026290304958820343,-0.0005293856374919415,-0.0021945443004369736
1690839498017970200,4.30997021484375,-0.00038075679913163185,-0.0003213926684111357,0.0016454663127660751
1690839498028010200,4.32001025390625,0.0000311373732984066,-0.0007064288947731256,-0.001409357413649559
1690839498038051000,4.330051025390625,0.00032594939693808556,-0.0003178736660629511,-0.000557679682970047
1690839498048091100,4.340091064453125,0.0009333095513284206,-0.0019040273036807775,0.0004680827260017395
1690839498058162200,4.350162109375,-0.000039010774344205856,-0.0005008075386285782,0.00024837255477905273
1690839498068202200,4.3602021484375,0.00112531753256917,0.00111973041202873,0.0019786283373832703
1690839498078242300,4.3702421875,0.0011823091190308332,-0.001590035855770111,0.0028793103992938995
1690839498088283400,4.380283447265625,-0.0006482461467385292,0.0007451061392202973,-0.0007158815860748291
1690839498098323200,4.3903232421875,0.00030037201941013336,0.00023670867085456848,0.0004274137318134308
1690839498108363300,4.40036328125,0.00015882030129432678,-0.000735641922801733,0.0004213601350784302
1690839498118403000,4.410403076171875,-0.013017969205975533,0.09210694581270218,-0.00024416297674179077
1690839498128444200,4.420444091796875,0.0009592021815478802,-0.20049148797988892,0.05049695447087288
1690839498138484200,4.430484130859375,0.002309424802660942,-0.035073764622211456,0.00934499129652977
1690839498148524300,4.440524169921875,-0.0029520061798393726,-0.029397927224636078,0.009974275715649128
1690839498158565400,4.4505654296875,-0.0058441986329853535,-0.02863013930618763,0.001803964376449585
1690839498168605200,4.460605224609375,-0.004802443087100983,-0.009391359984874725,-0.010863516479730606
1690839498178645200,4.470645263671875,0.0028088707476854324,0.01386362873017788,-0.010747669264674187
1690839498188685000,4.48068505859375,0.0047937980853021145,0.02865099348127842,-0.00942312367260456
1690839498198726100,4.49072607421875,0.00479725981131196,0.025874914601445198,-0.0018325820565223694
1690839498208766200,4.50076611328125,0.0012227529659867287,0.012284552678465843,0.0028038248419761658
1690839498218837200,4.510837158203125,-0.002390624023973942,-0.0054052285850048065,0.0100180609151721
1690839498228877300,4.520877197265625,-0.0038458830676972866,-0.020744871348142624,0.011769771575927734
1690839498238917000,4.530917236328125,-0.002892737742513418,-0.02115046977996826,0.008305797353386879
1690839498248958200,4.540958251953125,0.0021111711394041777,-0.011544860899448395,0.008386184461414814
1690839498258998300,4.550998291015625,0.0035229127388447523,0.0038045337423682213,0.004049492999911308
1690839498269038000,4.5610380859375,0.002777723828330636,0.013528586365282536,-0.00040778517723083496
1690839498279079200,4.5710791015625,-0.0004929043352603912,0.01851322501897812,-0.0026336554437875748
1690839498289119200,4.581119140625,-0.0022202185355126858,0.013468379154801369,-0.006827441975474358
1690839498299159300,4.5911591796875,-0.00292355939745903,0.004339329432696104,-0.007656218484044075
1690839498309199000,4.60119921875,-0.0002458915114402771,-0.009414462372660637,-0.004731032997369766
1690839498319240200,4.611240234375,0.0019858377054333687,-0.013092554174363613,-0.004744349047541618
1690839498329280300,4.6212802734375,0.0017745599616318941,-0.010491067543625832,-0.002389339730143547
1690839498339320000,4.631320068359375,0.00024723727256059647,-0.003649938851594925,0.0009337533265352249
1690839498349361200,4.641361083984375,-0.0007698368281126022,0.0056943129748106,0.002559719607234001
1690839498359401200,4.651401123046875,-0.0017639948055148125,0.009153759106993675,0.00399809330701828
1690839498369441300,4.661441162109375,-0.0012254281900823116,0.007268941029906273,0.005715974606573582
1690839498379512000,4.671511962890625,0.000718945637345314,0.0030819186940789223,0.004275737330317497
1690839498389552000,4.68155224609375,0.0016301556024700403,-0.0025020285975188017,0.0046216994524002075
1690839498399592200,4.69159228515625,0.002444550395011902,-0.006752433255314827,0.002007273957133293
1690839498409633300,4.70163330078125,0.0007531531155109406,-0.007969193160533905,-0.0004170611500740051
1690839498419673000,4.711673095703125,-0.00011663557961583138,-0.00257762405090034,-0.001992320641875267
1690839498429713200,4.721713134765625,0.0010435469448566437,0.001994597027078271,-0.004071610048413277
1690839498439754200,4.731754150390625,-0.00048324326053261757,0.007474050857126713,-0.003236975520849228
1690839498449794300,4.741794189453125,0.0007935669273138046,0.005928510800004005,-0.0024803541600704193
1690839498459834000,4.751834228515625,0.00048730336129665375,0.0051101213321089745,-0.0007066894322633743
1690839498469874200,4.761874267578125,0.00020835502073168755,-0.00008875993080437183,-0.0002289842814207077
1690839498479915300,4.771915283203125,-0.0002667531371116638,-0.0035167811438441277,0.0016424190253019333
1690839498489955000,4.781955078125,-0.0014746999368071556,-0.005557375960052013,0.0009561069309711456
1690839498499995100,4.7919951171875,-0.0004949229769408703,-0.005365894176065922,0.0028362981975078583
1690839498510036200,4.8020361328125,-0.0001821131445467472,-0.0000250393059104681,0.0044615380465984344
1690839498520076300,4.812076171875,0.00020644208416342735,0.0027313323225826025,0.0030601825565099716
1690839498530116000,4.8221162109375,0.000793438870459795,0.004141956567764282,0.0031429529190063477
1690839498540187100,4.832187255859375,0.00014655711129307747,0.0031565867830067873,0.002678496763110161
1690839498550227200,4.842227294921875,0.0001692310906946659,0.002678230404853821,-0.001514708623290062
1690839498560267300,4.852267333984375,-0.0004022829234600067,-0.002790038241073489,-0.002069711685180664
1690839498570308000,4.86230810546875,0.000802723690867424,-0.0037763682194054127,-0.002214740961790085
1690839498580347400,4.872347412109375,0.0013840917963534594,-0.0011957648675888777,-0.0020011551678180695
1690839498590387500,4.882387451171875,-0.00007556285709142685,-0.0011510599870234728,-0.004734305664896965
1690839498600428300,4.89242822265625,0.0006594699807465076,0.001180004794150591,-0.0012479610741138458
1690839498610468400,4.90246826171875,-0.0008057267405092716,0.0010137249482795596,-0.0005551278591156006
1690839498620508400,4.91250830078125,0.000015325844287872314,0.00007469439879059792,0.002960510551929474
1690839498630548200,4.92254833984375,-0.0010811099782586098,0.0007061443757265806,0.004303652793169022
1690839498640589300,4.93258935546875,-0.0008856337517499924,0.00015726697165519,0.0028628837317228317
1690839498650629400,4.94262939453125,-0.0013165711425244808,-0.008462004363536835,0.0027497615665197372
1690839498660669400,4.95266943359375,0.0005108900368213654,-0.0029535223729908466,0.004024084657430649
1690839498670710300,4.962710205078125,0.0008526365272700787,-0.0011274735443294048,0.0012511853128671646
1690839498680750300,4.972750244140625,-0.0013210354372859001,0.0008784193778410554,0.0005523711442947388
1690839498690790400,4.982790283203125,-0.0001139719970524311,0.0028435064014047384,-0.00345413014292717
1690839498700861400,4.992861328125,-0.0022050864063203335,0.0013657183153554797,-0.0024575740098953247
1690839498710901200,5.0029013671875,-0.0007861303165555,0.0015044311294332147,-0.001688661053776741
1690839498720942300,5.0129423828125,-0.00023432355374097824,0.0011616823030635715,-0.0005786549299955368
1690839498730982400,5.022982421875,0.00018319021910429,-0.0016757987905293703,0.00013595633208751678
1690839498741022500,5.0330224609375,0.0004958449862897396,-0.003398864297196269,-0.0008310377597808838
1690839498751062300,5.043062255859375,0.0005299802869558334,-0.0017405927646905184,-0.00019362196326255798
1690839498761103400,5.053103271484375,0.0006681983359158039,-0.0007581526879221201,0.0025190748274326324
1690839498771143400,5.063143310546875,0.0003747413866221905,0.0023822090588510036,0.0035870615392923355
1690839498781183200,5.073183349609375,0.0006024418398737907,0.001981136854737997,0.0035124924033880234
1690839498791224300,5.083224365234375,-0.00035471050068736076,0.0015976621070876718,-0.00013353675603866577
1690839498801264400,5.093264404296875,-0.00006229523569345474,0.0010977867059409618,0.0007578227669000626
1690839498811304400,5.103304443359375,0.0007371497340500355,0.00043528887908905745,-0.001857418566942215
1690839498821344300,5.11334423828125,0.0007624500431120396,-0.003142135450616479,-0.0021445080637931824
1690839498831385300,5.12338525390625,0.0007485141977667809,0.00005237152799963951,-0.0013108700513839722
1690839498841425400,5.13342529296875,-0.0003404524177312851,0.0016630514292046428,-0.001580381765961647
1690839498851465500,5.143465576171875,-0.0008932887576520443,0.0013497393811121583,-0.00020027905702590942
1690839498861536300,5.153536376953125,-0.00024640653282403946,0.0015223121736198664,-0.0000298377126455307
1690839498871576300,5.163576416015625,-0.00008818740025162697,0.00003252224996685982,0.0007575564086437225
1690839498881617400,5.173617431640625,0.0007629585452377796,0.0001531635643914342,0.0010776687413454056
1690839498891657500,5.183657470703125,-0.00007810024544596672,-0.0002974637318402529,0.001291150227189064
1690839498901697300,5.193697265625,-0.0005271090194582939,-0.00012595602311193943,0.0018232502043247223
1690839498911737300,5.2037373046875,-0.0006625545211136341,-0.0011168804485350847,0.0009155850857496262
1690839498921778400,5.2137783203125,0.0002445182763040066,0.0011747695971280336,-0.0003528781235218048
1690839498931818200,5.223818359375,0.0005863113328814507,-0.0007609578315168619,-0.00008741393685340881
1690839498941858300,5.2338583984375,-0.00033807195723056793,-0.00018385075964033604,-0.00014520436525344849
1690839498951899400,5.2438994140625,-0.00043885456398129463,-0.0002895963843911886,0.00003684870898723602
1690839498961939500,5.253939453125,-0.00009557325392961502,0.0009660841897130013,-0.00028992071747779846
1690839498971979300,5.263979248046875,0.0007765283808112144,-0.0017638884019106627,-0.00029982440173625946
1690839498982019300,5.274019287109375,-0.0004602433182299137,-0.0004245846066623926,-0.0021605733782052994
1690839498992060400,5.284060302734375,-0.00042874179780483246,-0.0016984085086733103,-0.0013623759150505066
1690839499002100500,5.2941005859375,-0.00037681031972169876,0.0013106971746310592,-0.0014209654182195663
1690839499012140300,5.304140380859375,0.00008561508730053902,0.002143095014616847,0.0012900251895189285
1690839499022211300,5.31421142578125,-0.0007495521567761898,0.00031350343488156796,0.002676466479897499
1690839499032251400,5.32425146484375,-0.0007177232764661312,0.0006165916565805674,-0.00016928277909755707
1690839499042292500,5.33429248046875,-0.0006612641736865044,-0.0007176520302891731,0.002378830686211586
1690839499052332300,5.344332275390625,0.0008608167991042137,-0.0007625736761838198,-0.00026621855795383453
1690839499062372400,5.354372314453125,-0.00017062528058886528,0.0010313316015526652,-0.000998854637145996
1690839499072412200,5.364412109375,0.0002507227472960949,-0.00196467200294137,-0.0014904141426086426
1690839499082453200,5.374453369140625,0.00030132289975881577,0.000030301976948976517,-0.0017956122756004333
1690839499092493300,5.384493408203125,-0.000826922245323658,-0.0006156584713608027,-0.002472253516316414
1690839499102533400,5.394533447265625,-0.0015584924258291721,0.00008262228220701218,-0.0007531829178333282
1690839499112574500,5.404574462890625,0.0008791345171630383,-0.0009066278580576181,0.0004454366862773895
1690839499122614300,5.4146142578125,-0.000398117583245039,0.0005077770911157131,0.0014755483716726303
1690839499132654300,5.424654296875,0.00034035835415124893,-0.0015577874146401882,-0.0009055919945240021
1690839499142694100,5.434694091796875,0.0002676541917026043,0.0005240057362243533,0.000586310401558876
1690839499152735500,5.444735595703125,0.0009400397539138794,0.0008083237335085869,0.0016133971512317657
1690839499162775300,5.454775390625,0.00022578006610274315,-0.0022417947184294462,-0.0003754515200853348
1690839499172815400,5.4648154296875,0.0003940681926906109,0.0005106375319883227,0.0010792165994644165
1690839499182886400,5.474886474609375,-0.0013170130550861359,0.0003841373836621642,0.001467239111661911
1690839499192926500,5.484926513671875,0.000037398189306259155,0.0012255208566784859,-0.0005119945853948593
1690839499202967300,5.49496728515625,0.00013726670295000076,-0.0006916888523846865,-0.00232028029859066
1690839499213007400,5.50500732421875,0.0007997946813702583,-0.0013659743126481771,-0.0014734510332345963
1690839499223047200,5.515047119140625,0.0011116508394479752,0.001122217159718275,-0.002358153462409973
1690839499233088300,5.525088134765625,0.001251912210136652,0.0008353368612006307,-0.0010397378355264664
1690839499243128300,5.53512841796875,0.000027923379093408585,0.0023706492502242327,-0.0007806122303009033
1690839499253168400,5.54516845703125,-0.0019020894542336464,0.0012817195383831859,0.002246083691716194
1690839499263208400,5.55520849609375,-0.0005140500143170357,-0.0009976800065487623,0.0012167710810899734
1690839499273249300,5.565249267578125,0.0004963912069797516,-0.00205685431137681,0.0013189949095249176
1690839499283289300,5.575289306640625,0.0006793499924242496,-0.0032835062593221664,0.0009474847465753555
1690839499293329200,5.5853291015625,0.0004723072052001953,-0.00032361457124352455,-0.0005135331302881241
1690839499303370200,5.595370361328125,0.00041984301060438156,0.00177282583899796,-0.0001135263592004776
1690839499313410300,5.605410400390625,-0.0015796790830790997,-0.0000194404274225235,0.0003362279385328293
1690839499323450400,5.615450439453125,-0.0019139056093990803,0.0023198802955448627,-0.00012343376874923706
1690839499333490400,5.625490478515625,-0.0006032376550137997,0.0024983768817037344,-0.0019526965916156769
1690839499343561500,5.6355615234375,0.0005597644485533237,0.0006821010028943419,-0.001228582113981247
1690839499353601500,5.6456015625,-0.0008013523183763027,0.0012325257994234562,-0.00046586059033870697
1690839499363642400,5.655642333984375,0.00043035997077822685,-0.0014287710655480623,0.0011549387127161026
1690839499373682200,5.66568212890625,0.0004860921762883663,-0.0020866624545305967,0.002596735954284668
1690839499383722200,5.67572216796875,0.0019087528344243765,-0.0012930405791848898,0.0023938026279211044
1690839499393763300,5.685763427734375,-0.00024802330881357193,0.0010783686302602291,-0.0003439616411924362
1690839499403803400,5.695803466796875,-0.000030176714062690735,-0.0017142221331596375,0.0020563453435897827
1690839499413843500,5.705843505859375,-0.0011668931692838669,0.0006335750222206116,0.0025500543415546417
1690839499423883500,5.715883544921875,-0.0006012376397848129,-0.0014452885370701551,-0.0017030127346515656
1690839499433924400,5.72592431640625,0.0005560810677707195,0.002203974174335599,-0.0002215597778558731
1690839499443964200,5.735964111328125,0.0010434396099299192,0.00014561705756932497,-0.0016410257667303085
1690839499454004200,5.746004150390625,0.0009390320628881454,-0.0013462072238326073,-0.0006268806755542755
1690839499464045300,5.75604541015625,-0.00014061341062188148,-0.0020902943797409534,0.0008117593824863434
1690839499474085400,5.76608544921875,0.0022627420257776976,-0.00016483105719089508,-0.00021116435527801514
1690839499484125400,5.77612548828125,-0.0016294680535793304,-0.00036856275983154774,0.00035475753247737885
1690839499494196500,5.786196533203125,0.0010748740751296282,-0.0009163622744381428,0.0018636099994182587
1690839499504236500,5.796236572265625,-0.0008639073930680752,-0.0014681692700833082,0.0006020702421665192
1690839499514277400,5.80627734375,-0.0008513769134879112,-0.0006006916519254446,0.0012537166476249695
1690839499524317200,5.816317138671875,-0.00037919869646430016,-0.0011658144649118185,-0.002065114676952362
1690839499534357200,5.826357177734375,0.0003952239640057087,-0.0004436308518052101,-0.0014159101992845535
1690839499544397300,5.836397216796875,0.0015608894173055887,0.0007087189005687833,0.00015988200902938843
1690839499554438400,5.8464384765625,0.0011642796453088522,0.0011906110448762774,-0.00019514188170433044
1690839499564478500,5.856478515625,-0.001558269839733839,-0.0007915797177702188,-0.00969623401761055
1690839499574518500,5.8665185546875,0.0005408693104982376,-0.001344393938779831,-0.0003044493496417999
1690839499584534000,5.876533935546875,-0.00005674408748745918,-0.0015108415391296148,0.0010596215724945068
1690839499594574800,5.886574951171875,-0.00014329096302390099,-0.00043226475827395916,0.0003481116145849228
1690839499604614700,5.89661474609375,0.0006101173348724842,-0.0001827264204621315,0.0011310819536447525
1690839499614654700,5.90665478515625,-0.0006506294012069702,0.0008648385992273688,0.0008409339934587479
1690839499624695800,5.91669580078125,-0.0002319803461432457,-0.0000025529880076646805,0.0007956605404615402
1690839499634735900,5.92673583984375,-0.0016886824741959572,-0.0002789285499602556,-0.0009113196283578873
1690839499644776000,5.93677587890625,0.0004746033810079098,-0.0004706759937107563,-0.000029014423489570618
1690839499654847000,5.946846923828125,-0.0011075851507484913,0.0004290938377380371,0.00006289593875408173
1690839499664886800,5.95688671875,-0.0006143678911030293,-0.001395437866449356,-0.000954698771238327
1690839499674927600,5.966927734375,0.0002598208375275135,-0.0023423931561410427,-0.00012188777327537537
1690839499684967700,5.9769677734375,0.0011336039751768112,0.0011833659373223782,0.0012882556766271591
1690839499695007700,5.9870078125,-0.0007436550222337246,0.001133874524384737,-0.0001179184764623642
1690839499705047800,5.9970478515625,0.000220409594476223,0.0012925988994538784,0.00013028830289840698
1690839499715089000,6.0070888671875,0.0001815222203731537,-0.0008274589199572802,-0.000004991888999938965
1690839499725129000,6.01712890625,-0.001225159503519535,-0.0005781869404017925,-0.00012616626918315887
1690839499735168800,6.027168701171875,0.0009314692579209805,-0.00164879416115582,-0.0013933423906564713
1690839499745209600,6.037209716796875,-0.0007130326703190804,-0.0014352086000144482,-0.0009720306843519211
1690839499755249700,6.047249755859375,0.0005950094200670719,-0.0013003270141780376,-0.000810844823718071
1690839499765289700,6.057289794921875,0.00021044909954071045,-0.00039245537482202053,-0.0013573262840509415
1690839499775329800,6.067329833984375,-0.0005204617045819759,0.0012262745294719934,0.0007647089660167694
1690839499785371000,6.077370849609375,-0.00182407908141613,0.0012678198982030153,-0.00013251043856143951
1690839499795411000,6.087410888671875,0.00018712878227233887,0.0005127732874825597,-0.00013990513980388641
1690839499805451000,6.097450927734375,0.0007426640950143337,0.000707184080965817,0.0023080725222826004
1690839499815521800,6.107521728515625,-0.0008632666431367397,-0.0016094010788947344,0.0013798214495182037
1690839499825561900,6.117561767578125,-0.0003886912018060684,-0.0005888778250664473,0.0004996471107006073
1690839499835602700,6.127602783203125,0.0000011771917343139648,0.0003044750774279237,-0.0008196402341127396
1690839499845642800,6.137642822265625,-0.0007298607379198074,0.000017120037227869034,0.0006264578551054001
1690839499855682800,6.147682861328125,-0.0001261383295059204,0.00017482973635196686,-0.0015557445585727692
1690839499865723000,6.157722900390625,-0.0008257506415247917,0.0012680573854595423,0.0002512112259864807
1690839499875764000,6.167763916015625,0.00006780494004487991,-0.0008633534889668226,0.0012490060180425644
1690839499885803800,6.1778037109375,0.002188746351748705,0.0014975388767197728,-0.00037445686757564545
1690839499895843800,6.18784375,0.0011725376825779676,-0.00014645582996308804,0.001632682979106903
1690839499905884700,6.197884765625,0.00006333133205771446,0.00003330758772790432,-0.0005721468478441238
1690839499915924700,6.2079248046875,0.0014695464633405209,0.001651180675253272,0.0005787815898656845
1690839499925964800,6.21796484375,0.0008903089910745621,0.000058876583352684975,0.00014628469944000244
1690839499936004900,6.2280048828125,-0.0007189968600869179,-0.00042537436820566654,-0.0010704398155212402
1690839499946046000,6.2380458984375,-0.00041140196844935417,0.0010188579326495528,-0.00016070343554019928
1690839499956086000,6.2480859375,0.00028094183653593063,0.0008842151146382093,-0.00028406083583831787
1690839499966125800,6.258125732421875,-0.00045089470222592354,0.0006980601465329528,-0.00039351731538772583
1690839499976196900,6.26819677734375,-0.00135129876434803,-0.0004929241258651018,0.00033243559300899506
1690839499986237000,6.27823681640625,-0.0003840387798845768,-0.00007187831215560436,-0.001603148877620697
1690839499996277800,6.28827783203125,0.0012607623357325792,-0.0008739703334867954,0.0003230832517147064
1690839500006317800,6.29831787109375,0.0009931144304573536,-0.00035784952342510223,-0.0005022287368774414
1690839500016358000,6.30835791015625,0.0005339151248335838,0.0008788316044956446,0.001400139182806015
1690839500026397700,6.318397705078125,0.0010724063031375408,0.0015563397901132703,0.0019519459456205368
1690839500036438800,6.328438720703125,-0.000846195500344038,-0.0017167674377560616,0.001593317836523056
1690839500046478800,6.338478759765625,0.0007527666166424751,0.00019831175450235605,-0.00043467991054058075
1690839500056519000,6.348518798828125,0.0011012500617653131,-0.0006038905121386051,0.0014962982386350632
1690839500066559700,6.358559814453125,-0.0015885424800217152,0.0001452567521482706,0.00027630291879177094
1690839500076599800,6.368599853515625,-0.001322985626757145,-0.0013010776601731777,-0.00022989511489868164
1690839500086639900,6.378639892578125,0.00010526739060878754,0.000283503090031445,-0.0025148876011371613
1690839500096680000,6.388679931640625,0.0021836492232978344,-0.0015594225842505693,0.0009250286966562271
1690839500106721000,6.398720947265625,-0.0010792557150125504,-0.00010267342440783978,-0.00036447495222091675
1690839500116760800,6.4087607421875,-0.00004568230360746384,0.0017408591229468584,-0.0004091337323188782
1690839500126801000,6.41880078125,0.0006709741428494453,-0.0007089825812727213,-0.0004962179809808731
1690839500136872000,6.428871826171875,-0.0003670360893011093,-0.0002508570905774832,-0.0003621261566877365
1690839500146911700,6.438911865234375,0.0004761205054819584,0.000683912425301969,0.00013668276369571686
1690839500156952800,6.448952880859375,-0.0005361121147871017,0.0013377162395045161,0.0007130671292543411
1690839500166993000,6.458992919921875,0.0009067882783710957,-0.0004489985294640064,0.00015912950038909912
1690839500177032700,6.46903271484375,-0.00022731302306056023,-0.00020522507838904858,0.0002189185470342636
1690839500187073800,6.47907373046875,0.00043448247015476227,0.001132480800151825,0.0013507604598999023
1690839500197113900,6.48911376953125,0.000039017293602228165,-0.003376346779987216,-0.000039132311940193176
1690839500207154000,6.49915380859375,0.0019194751512259245,0.0023198886774480343,0.00011959299445152283
1690839500217193700,6.50919384765625,-0.0026656915433704853,0.0001700315624475479,-0.0007490087300539017
1690839500227234800,6.51923486328125,0.0006701839156448841,-0.00043184286914765835,-0.0007487423717975616
1690839500237275000,6.52927490234375,0.0005790782161056995,-0.004497111309319735,-0.001524895429611206
1690839500247315000,6.53931494140625,-0.000896046869456768,-0.0012648326810449362,-0.0027598030865192413
1690839500257356000,6.54935595703125,-0.0007780673913657665,0.0008387597044929862,-0.0012117307633161545
1690839500267395800,6.559395751953125,-0.001449716743081808,0.00026191899087280035,-0.0027166828513145447
1690839500277436000,6.569435791015625,0.0011893943883478642,0.004779482260346413,0.005996452644467354
1690839500287475700,6.579475830078125,-0.0015629827976226807,-0.0006584259681403637,-0.00045558810234069824
1690839500297546800,6.589546630859375,0.0006187646649777889,0.000841626082547009,0.001043912023305893
1690839500307586800,6.5995869140625,-0.0003508925437927246,-0.0010284455493092537,0.001550178974866867
1690839500317628000,6.6096279296875,-0.00006492529064416885,-0.00012139114551246166,-0.002139696851372719
1690839500327667700,6.619667724609375,0.0011540036648511887,-0.0004763905890285969,-0.0005141030997037888
1690839500337707800,6.629707763671875,-0.00012438790872693062,-0.0005639942828565836,0.0002982132136821747
1690839500347748900,6.639748779296875,0.0003296812064945698,0.0007867609383538365,-0.001483442261815071
1690839500357789000,6.649788818359375,0.0004450608976185322,0.0005533312214538455,0.0002534352242946625
1690839500367828700,6.659828857421875,0.0006224270910024643,0.0010209822794422507,-0.0012648329138755798
1690839500377868800,6.669868896484375,0.0013120542280375957,0.0012086881324648857,0.0009464528411626816
1690839500387910000,6.679909912109375,0.0011764992959797382,-0.001545819453895092,0.0016852132976055145
1690839500397949700,6.68994970703125,0.0010859256144613028,-0.0007607326842844486,-0.000033738091588020325
1690839500407989800,6.69998974609375,0.0005671419203281403,0.0000398135744035244,-0.00003986246883869171
1690839500418030800,6.71003076171875,0.0007381364703178406,0.0009757562074810266,-0.002276808023452759
1690839500428070700,6.720070556640625,0.000876088161021471,0.002256204141303897,-0.00041525810956954956
1690839500438110700,6.73011083984375,-0.0004740948788821697,0.001623419113457203,0.0003596171736717224
1690839500448150800,6.74015087890625,-0.001666391734033823,-0.0008844796102494001,-0.0013456065207719803
1690839500458221800,6.750221923828125,0.0008858125656843185,0.0003195174504071474,-0.0007455497980117798
1690839500468263000,6.760262939453125,0.0005981912836432457,0.0004159238887950778,-0.0008363630622625351
1690839500478302700,6.770302734375,-0.0005649281665682793,0.0010615892242640257,-0.0000393744558095932
1690839500488342800,6.7803427734375,0.0011932908091694117,0.0005822201492264867,0.0016815606504678726
1690839500498382800,6.7903828125,0.0010551097802817822,-0.0014991913922131062,0.0010550618171691895
1690839500508423700,6.800423583984375,-0.0003292015753686428,0.00010323268361389637,0.0006105806678533554
1690839500518463700,6.810463623046875,0.00005346490070223808,-0.0012577949091792107,-0.0011214539408683777
1690839500528503800,6.82050390625,-0.0008448194712400436,-0.0017981503624469042,0.0014982987195253372
1690839500538543600,6.830543701171875,0.00015488825738430023,-0.00009833415970206261,-0.0007374677807092667
1690839500548584700,6.840584716796875,0.0008726101368665695,0.0007296425756067038,-0.00015290454030036926
1690839500558624800,6.850624755859375,-0.0007473812438547611,-0.00044995127245783806,0.0002016667276620865
1690839500568664800,6.860664794921875,-0.00046588480472564697,0.0010169177548959851,-0.001195959746837616
1690839500578705700,6.87070556640625,-0.000577456783503294,-0.001591527834534645,0.0000905301421880722
1690839500588756200,6.880756103515625,0.0002643684856593609,0.00006229523569345474,-0.001289254054427147
1690839500598796300,6.89079638671875,0.0004081004299223423,0.0011955173686146736,0.0015661511570215225
1690839500608836400,6.90083642578125,0.0005660257302224636,0.00013691082131117582,0.0013680122792720795
1690839500618907400,6.910907470703125,0.00037419749423861504,-0.0005845348350703716,-0.00016056746244430542
1690839500628948500,6.920948486328125,0.00003491062670946121,-0.00028919032774865627,0.0020447950810194016
1690839500638988500,6.930988525390625,0.0011719455942511559,0.0009352063061669469,0.0011118873953819275
1690839500649028600,6.941028564453125,-0.0017199809662997723,-0.0010294076055288315,0.0005912389606237411
1690839500659068400,6.951068359375,0.0001589003950357437,-0.00155175244435668,-0.000024627894163131714
1690839500669109200,6.961109130859375,0.00038420408964157104,-0.00044307857751846313,-0.00043528899550437927
1690839500679149300,6.9711494140625,-0.0000825333409011364,-0.000418258598074317,-0.00007311813533306122
1690839500689189400,6.981189453125,0.0012397260870784521,-0.0007090759463608265,0.0002736244350671768
1690839500699230500,6.99123046875,0.00015804171562194824,0.00007812771946191788,-0.002573847770690918
1690839500709270500,7.0012705078125,-0.0008052238263189793,0.0009644277160987258,-0.0002537015825510025
1690839500719310600,7.011310546875,0.00015989644452929497,-0.0024656420573592186,-0.00003517232835292816
1690839500729350400,7.021350341796875,0.0000768057070672512,0.001695813494734466,0.0006098449230194092
1690839500739391200,7.03139111328125,0.000853734090924263,0.0008622542954981327,0.001344982534646988
1690839500749431300,7.041431396484375,0.000010044779628515244,-0.001308488193899393,0.0002472288906574249
1690839500759471400,7.051471435546875,-0.0007379692979156971,-0.003667668905109167,0.0005844011902809143
1690839500769512400,7.061512451171875,0.000018102116882801056,-0.0019451365806162357,-0.000036913901567459106
1690839500779582500,7.07158251953125,0.0014767460525035858,0.0015015280805528164,-0.0008728615939617157
1690839500789623600,7.08162353515625,0.00006846664473414421,-0.0003325908910483122,-0.00013969279825687408
1690839500799663600,7.09166357421875,-0.0007612854242324829,-0.0007091711740940809,-0.0003750566393136978
1690839500809703400,7.101703369140625,-0.00047765905037522316,-0.0002156873233616352,0.0005613099783658981
1690839500819743500,7.111743408203125,0.0022991609293967485,0.000996054382994771,0.0010699629783630371
1690839500829784300,7.121784423828125,0.00022588996216654778,0.00299795251339674,0.0004017762839794159
1690839500839824400,7.131824462890625,0.0002907547168433666,0.00036144710611552,-0.0005774050951004028
1690839500849864400,7.141864501953125,0.0005725170485675335,0.001105001661926508,0.00034671276807785034
1690839500859905500,7.151905517578125,0.0008397344499826431,-0.0009539551101624966,-0.00022172555327415466
1690839500869945600,7.161945556640625,0.001042134827002883,0.0006444742903113365,-0.0003287848085165024
1690839500879985400,7.1719853515625,0.0002905130386352539,-0.0005073149222880602,-0.00026981160044670105
1690839500890025500,7.182025390625,0.00027559930458664894,-0.0005435338243842125,-0.0008130967617034912
1690839500900066300,7.19206640625,0.0007424964569509029,-0.0021630446426570415,-0.00004640407860279083
1690839500910106400,7.2021064453125,0.00028842734172940254,-0.0006706092972308397,0.0007613319903612137
1690839500920146400,7.212146484375,0.0002912292256951332,0.0012130350805819035,0.001316715031862259
1690839500930187500,7.2221875,0.0007452978752553463,-0.0027992832474410534,0.00015770643949508667
1690839500940257500,7.232257568359375,-0.0007257149554789066,0.0019150879234075546,-0.00029554031789302826
1690839500950298600,7.242298583984375,-0.0005835024639964104,0.0004902967484667897,0.0017487015575170517
1690839500960338400,7.25233837890625,0.0005809194408357143,0.00010699429549276829,-0.0011155195534229279
1690839500970378500,7.26237841796875,0.00002831360325217247,0.0009877015836536884,-0.0010856911540031433
1690839500980419300,7.27241943359375,0.0011840320657938719,0.010025730356574059,0.005213689990341663
1690839500990459400,7.28245947265625,-0.00012730853632092476,-0.0004133274778723717,-0.0013012010604143143
1690839501000499500,7.29249951171875,-0.0011005448177456856,-0.001231790753081441,-0.0006143860518932343
1690839501010539500,7.30253955078125,-0.002355160191655159,0.0009275003103539348,-0.00031238235533237457
1690839501020580600,7.31258056640625,-0.0005015884526073933,0.0005304204532876611,-0.00005866400897502899
1690839501030620400,7.322620361328125,-0.0003156997263431549,0.0007280269637703896,0.0008326973766088486
1690839501040660500,7.332660400390625,0.00030418066307902336,-0.0004370918031781912,0.003559444099664688
1690839501050700500,7.342700439453125,-0.0005541560240089893,0.0012878375127911568,0.0025847256183624268
1690839501060741400,7.352741455078125,0.0005800193175673485,0.0004763583419844508,0.0010748114436864853
1690839501070781400,7.362781494140625,-0.0018767467699944973,0.0010433453135192394,-0.0014834217727184296
1690839501080821500,7.372821533203125,-0.0001345560885965824,-0.00011649029329419136,0.0018550753593444824
1690839501090862600,7.382862548828125,0.0004966128617525101,0.0013248124159872532,-0.0007542893290519714
1690839501100932400,7.392932373046875,0.00036442652344703674,-0.00037579284980893135,0.0009385291486978531
1690839501110973400,7.402973388671875,0.0011354114394634962,0.0002180921146646142,0.000542251393198967
1690839501121013500,7.413013427734375,0.00044675497338175774,-0.0016952578444033861,-0.0023317523300647736
1690839501131053600,7.423053466796875,0.0004281126894056797,0.000007034512236714363,-0.0007362533360719681
1690839501141094400,7.433094482421875,-0.0013499772176146507,0.0011805358808487654,-0.00017336755990982056
1690839501151134500,7.443134521484375,0.0005150344222784042,0.0021006581373512745,-0.0009286403656005859
1690839501161174500,7.453174560546875,-0.0003483411855995655,-0.000899624777957797,0.00029096193611621857
1690839501171214300,7.46321435546875,-0.00020852498710155487,0.001978187123313546,-0.0017612706869840622
1690839501181255400,7.47325537109375,0.0011455246713012457,0.0010379374725744128,-0.0002551451325416565
1690839501191295500,7.48329541015625,-0.00014264648780226707,0.00005070352926850319,-0.000052478164434432983
1690839501201335600,7.49333544921875,0.001475845230743289,-0.0005623092874884605,0.001278093084692955
1690839501211376400,7.50337646484375,0.00017542345449328423,-0.000027280300855636597,0.0016349554061889648
1690839501221416400,7.51341650390625,0.0003753695636987686,0.00200585532002151,0.0004644673317670822
1690839501231456500,7.52345654296875,-0.00019241636618971825,0.000987728708423674,0.00003409944474697113
1690839501241496300,7.533496337890625,0.0002457783557474613,0.0028381217271089554,0.0011848807334899902
1690839501251567400,7.5435673828125,-0.00042613735422492027,0.00017789017874747515,-0.000949375331401825
1690839501261607400,7.553607421875,-0.0002801269292831421,-0.0006626099348068237,-0.0008336901664733887
1690839501271648500,7.5636484375,-0.0007152874022722244,0.000012235017493367195,0.0004243869334459305
1690839501281688600,7.5736884765625,-0.0007346803322434425,0.00011693639680743217,-0.0006158687174320221
1690839501291728400,7.583728271484375,0.0021790843456983566,-0.0021733820904046297,-0.0006598103791475296
1690839501301769500,7.59376953125,-0.0001432131975889206,-0.0027979437727481127,-0.0013488605618476868
1690839501311809500,7.6038095703125,0.0006280383095145226,0.00039545248728245497,0.0013012513518333435
1690839501321849300,7.613849365234375,-0.000817448366433382,0.0006098224548622966,0.0006060339510440826
1690839501331889400,7.623889404296875,-0.00009413342922925949,0.00227429810911417,0.0007921885699033737
1690839501341930500,7.633930419921875,0.00019596004858613014,0.0006216670153662562,0.00014157220721244812
1690839501351970600,7.643970458984375,-0.0005044513382017612,0.0010826601646840572,0.0013482514768838882
1690839501362010400,7.65401025390625,-0.00027919840067625046,0.0008910266915336251,-0.0002833958715200424
1690839501372051500,7.664051513671875,0.0005650240927934647,0.001238569151610136,-0.0012155026197433472
1690839501382091500,7.674091552734375,-0.0005934755317866802,-0.0003814243245869875,-0.0010501407086849213
1690839501392131300,7.68413134765625,-0.0003532581031322479,0.00005959521513432264,0.0005594752728939056
1690839501402171400,7.69417138671875,-0.0002023722045123577,-0.0007363122422248125,0.0006750095635652542
1690839501412242400,7.704242431640625,0.0003150799311697483,0.000788347446359694,0.000028926879167556763
1690839501422283500,7.714283447265625,0.00044740643352270126,-0.000022967811673879623,0.0020117461681365967
1690839501432323300,7.7243232421875,-0.000501743983477354,0.0009160627378150821,0.0006133206188678741
1690839501442363400,7.73436328125,-0.0018474324606359005,0.003365976270288229,-0.0005779974162578583
1690839501452403500,7.744403564453125,-0.0008040061220526695,0.0011390409199520946,-0.002199595794081688
1690839501462444500,7.754444580078125,0.00007213512435555458,-0.00041147973388433456,-0.0006211269646883011
1690839501472484400,7.764484375,0.0012284796684980392,0.0010165073908865452,-0.0006485581398010254
1690839501482524400,7.7745244140625,-0.0004355376586318016,-0.00015814509242773056,-0.0010843537747859955
1690839501492565500,7.7845654296875,-0.0002906615845859051,-0.0020215585827827454,-0.0012571923434734344
1690839501502605300,7.794605224609375,0.00024068308994174004,0.0006545146461576223,-0.00035129860043525696
1690839501512645400,7.804645263671875,-0.001143628265708685,0.000053172814659774303,0.0018599238246679306
1690839501522685400,7.814685546875,0.0021731588058173656,-0.000410653417930007,0.0016281362622976303
1690839501532726500,7.8247265625,0.0007262635044753551,-0.0025169476866722107,0.0026864763349294662
1690839501542766300,7.834766357421875,0.0009412551298737526,-0.0016126739792525768,-0.000003829598426818848
1690839501552806400,7.844806396484375,0.0003894483670592308,0.002154633868485689,-0.00012873299419879913
1690839501562846500,7.854846435546875,0.0006663170643150806,-0.0016245851293206215,0.00030551105737686157
1690839501572917500,7.86491748046875,0.00020851939916610718,0.0019608286675065756,-0.0011730752885341644
1690839501582928000,7.874927978515625,-0.0003902013413608074,-0.00011818157508969307,-0.0009099692106246948
1690839501592968000,7.884968017578125,0.0011629541404545307,0.0006709129083901644,-0.0007504448294639587
1690839501603008000,7.895008056640625,-0.0017294003628194332,-0.0007805672939866781,-0.0009231027215719223
1690839501613048000,7.905048095703125,-0.0004950249567627907,0.00022903713397681713,0.00033310987055301666
1690839501623089200,7.915089111328125,0.0011237852741032839,-0.0011765117524191737,0.00021185912191867828
1690839501633129000,7.92512890625,0.0007506762631237507,-0.0002792928135022521,0.0020262710750102997
1690839501643169000,7.9351689453125,0.0006618178449571133,0.0007266415050253272,0.0025558844208717346
1690839501653209900,7.9452099609375,0.0009899192955344915,-0.0007868328830227256,0.000736679881811142
1690839501663250000,7.95525,-0.00033255433663725853,-0.0007030760170891881,-0.00043360330164432526
1690839501673290000,7.9652900390625,0.00041046738624572754,0.0006407551700249314,-0.001733226701617241
1690839501683330000,7.975330078125,-0.0012045740149915218,-0.0006304471753537655,0.0011701323091983795
1690839501693371100,7.98537109375,0.0004146276041865349,-0.0008221948519349098,-0.00044534169137477875
1690839501703411000,7.995410888671875,0.0020839895587414503,0.00266748433932662,-0.0020483452826738358
1690839501713451000,8.005450927734374,-0.0018921098671853542,0.000709794694557786,-0.0001519080251455307
1690839501723491800,8.015491943359375,-0.0018117008730769157,-0.005797552410513163,-0.0027692969888448715
1690839501733562000,8.02556201171875,-0.0007317890413105488,0.0006526239449158311,0.0012848339974880219
1690839501743603000,8.03560302734375,0.002224577125161886,-0.002285015769302845,-0.00010600313544273376
1690839501753643000,8.04564306640625,0.0005081696435809135,-0.001910042599774897,0.001023976132273674
1690839501763683000,8.05568310546875,-0.002748989500105381,-0.0004127704305574298,0.002071484923362732
1690839501773723000,8.065722900390625,0.0011962172575294971,-0.001696680556051433,-0.0009999386966228485
1690839501783764000,8.075763916015624,-0.0003264225088059902,0.00086045335046947,-0.0012224167585372925
1690839501793804000,8.085803955078125,0.0010632150806486607,0.0016796416603028774,-0.0015068426728248596
1690839501803844000,8.095843994140624,-0.0005649365484714508,0.0008725937223061919,0.0005838591605424881
1690839501813885000,8.105885009765625,-0.001264282502233982,-0.0005039942916482687,-0.0012225620448589325
1690839501823925000,8.115925048828124,-0.0004361802712082863,-0.001874053617939353,-0.00021175295114517212
1690839501833965000,8.125965087890625,0.0004945946857333183,0.00009109289385378361,0.001317434012889862
1690839501844004900,8.1360048828125,0.0006269542500376701,0.0008001604583114386,-0.00009834952652454376
1690839501854046000,8.1460458984375,0.0014394847676157951,-0.0004584494745358825,0.0004633106291294098
1690839501864086000,8.1560859375,-0.00006773369386792183,0.0003977982560172677,0.0009321998804807663
1690839501874126000,8.1661259765625,-0.0019591106101870537,0.0006286943098530173,0.00005362369120121002
1690839501884167000,8.1761669921875,-0.0005766376852989197,0.0010060009080916643,-0.0021929647773504257
1690839501894237000,8.18623681640625,-0.0006504072807729244,-0.0011258594458922744,-0.00161772221326828
1690839501904278000,8.196278076171875,-0.0003466918133199215,-0.001348799793049693,-0.0026759691536426544
1690839501914318000,8.206318115234374,0.0002466603182256222,0.00016680522821843624,0.000013822689652442932
1690839501924358000,8.21635791015625,0.0005407943390309811,-0.00046870496589690447,0.0012724753469228745
1690839501934399000,8.22639892578125,0.0004505133256316185,0.00010920094791799784,-0.0001650974154472351
1690839501944439000,8.23643896484375,-0.0002362458035349846,0.001645942684262991,0.0009181853383779526
1690839501954479000,8.24647900390625,-0.0004562227986752987,0.0004776138812303543,0.0013189911842346191
1690839501964519000,8.256518798828125,0.000028013717383146286,0.00012585229706019163,0.0004987753927707672
1690839501974560000,8.26656005859375,0.000944674015045166,-0.00016549753490835428,-0.00033292919397354126
1690839501984600000,8.27660009765625,-0.0005573723465204239,-0.0007792133837938309,-0.002158006653189659
1690839501994640000,8.286639892578124,-0.0009821467101573944,0.0015004526358097792,-0.0012298952788114548
1690839502004680000,8.296679931640625,0.0015486767515540123,0.00018057564739137888,-0.003585929051041603
1690839502014721000,8.306720947265624,-0.0008668103255331516,0.0006543520139530301,-0.0010966714471578598
1690839502024761000,8.316760986328125,0.0007962221279740334,0.0004384450148791075,-0.00000922568142414093
1690839502034801000,8.32680078125,0.0006777113303542137,0.0004467008402571082,0.001099446788430214
1690839502044842000,8.336842041015625,-0.0005130902864038944,0.0009995579021051526,0.0016470327973365784
1690839502054912000,8.346912109375,-0.0006845975294709206,-0.0008342948276549578,0.0007452871650457382
1690839502064953000,8.356953125,0.001004229998216033,0.0009461382869631052,0.002121333032846451
1690839502074993000,8.366992919921875,-0.000431746244430542,-0.00042299285996705294,0.002024659886956215
1690839502085033000,8.377032958984374,-0.0006896220147609711,0.001398847671225667,-0.0006851609796285629
1690839502095074000,8.387073974609375,0.0011719276662915945,-0.00030051555950194597,-0.001277182251214981
1690839502105113900,8.39711376953125,-0.00023885443806648254,-0.002719677984714508,-0.002306068316102028
1690839502115154000,8.40715380859375,0.0008264100179076195,0.00046093505807220936,-0.002574516460299492
1690839502125194000,8.417194091796874,0.000523631926625967,-0.0009888154454529285,-0.0001503080129623413
1690839502135235000,8.427235107421875,-0.0006031515076756477,0.00017871439922600985,-0.0010802820324897766
1690839502145275000,8.43727490234375,-0.0006115217693150043,0.0003680716035887599,0.0003666132688522339
1690839502155315000,8.44731494140625,0.00016505597159266472,-0.0018095951527357101,-0.0011886730790138245
1690839502165356000,8.45735595703125,0.0005130060017108917,-0.0007393320556730032,0.0025568511337041855
1690839502175395800,8.467395751953125,-0.00027262652292847633,-0.00009005330502986908,0.0022519193589687347
1690839502185436000,8.477435791015624,0.0006308513693511486,-0.0014023613184690475,0.001484006643295288
1690839502195476000,8.48747607421875,-0.0005790228024125099,0.0005891504697501659,-0.0009730253368616104
1690839502205517000,8.49751708984375,0.00011022249236702919,0.0005262988852337003,0.0003788452595472336
1690839502215586800,8.5075869140625,-0.0016080490313470364,-0.000019116559997200966,-0.0006419438868761063
1690839502225628000,8.5176279296875,0.0010601480025798082,-0.0009352965280413628,-0.0025116074830293655
1690839502235668000,8.52766796875,-0.0006120507605373859,0.0018756699282675982,-0.00035205110907554626
1690839502245708000,8.5377080078125,-0.0005627619102597237,-0.0005149208009243011,-0.000756656751036644
1690839502255748900,8.547748779296874,-0.0001731417141854763,0.0002818969078361988,0.0012915804982185364
1690839502265789000,8.557788818359375,0.000528539065271616,-0.0005160556174814701,0.000403599813580513
1690839502275829000,8.5678291015625,0.0006246790289878845,-0.00002922967541962862,0.0020853858441114426
1690839502285868800,8.577868896484375,0.0005253208801150322,0.0017693600384518504,0.0027264226227998734
1690839502295910000,8.587909912109374,0.00029575638473033905,-0.00015317578800022602,-0.0006619170308113098
1690839502305950000,8.597949951171875,-0.00015295809134840965,-0.00010870490223169327,0.0005134884268045425
1690839502315990000,8.607989990234374,0.00019351951777935028,-0.0014203116297721863,-0.0010628364980220795
1690839502326030800,8.61803076171875,0.00048162229359149933,0.0010820492170751095,0.0007966253906488419
1690839502336071000,8.62807080078125,-0.0006938972510397434,0.0007057446055114269,0.00016865134239196777
1690839502346111000,8.638111083984375,0.000036259181797504425,-0.00030829431489109993,-0.00030420348048210144
1690839502356150800,8.64815087890625,-0.00007319636642932892,0.0014951982302591205,0.002006087452173233
1690839502366191900,8.65819189453125,0.00025181518867611885,0.0006979334866628051,0.00016830116510391235
1690839502376263000,8.668262939453125,-0.0005535245873034,-0.0002229877281934023,-0.0009646061807870865
1690839502386303000,8.678302978515624,0.0010870271362364292,-0.0005044382996857166,0.0011914391070604324
1690839502396343000,8.688343017578125,-0.001532990951091051,0.0021757669746875763,-0.00014413706958293915
1690839502406383000,8.698383056640624,-0.00022688787430524826,0.0011494711507111788,-0.0003647133708000183
1690839502416424000,8.708423828125,0.0029348167590796947,-0.00029449479188770056,0.0005242489278316498
1690839502426464000,8.718464111328124,0.00025276700034737587,0.00005110492929816246,-0.0007708985358476639
1690839502436503800,8.72850390625,-0.0017254292033612728,0.0005688234232366085,0.0002022217959165573
1690839502446545000,8.738544921875,-0.0008626501075923443,0.0016030643600970507,0.0004129931330680847
1690839502456585000,8.7485849609375,0.00025561125949025154,-0.00015515449922531843,0.0005658585578203201
1690839502466625000,8.758625,-0.0005661421455442905,0.0011899389792233706,0.0009095631539821625
1690839502476665000,8.7686650390625,0.00015504192560911179,0.002078103367239237,0.0014645662158727646
1690839502486706000,8.778705810546874,-0.0003575049340724945,-0.0006052490789443254,-0.0014454349875450134
1690839502496746000,8.78874609375,-0.001294138841331005,-0.00005530624184757471,-0.0024100318551063538
1690839502506785800,8.798785888671874,0.0007783272303640842,-0.0004058876074850559,0.0011061672121286392
1690839502516825900,8.808825927734375,-0.00005364418029785156,0.0011161089641973376,-0.00008692964911460876
1690839502526867000,8.818866943359374,-0.00047179870307445526,-0.0012170941336080432,-0.0010627806186676025
1690839502536938000,8.82893798828125,-0.00016447016969323158,0.0003088971134275198,-0.0011317562311887741
1690839502546978000,8.83897802734375,-0.0007954295724630356,0.0019174865446984768,0.0005861688405275345
1690839502557018000,8.84901806640625,-0.0003189900889992714,0.001174464588984847,-0.00036511197686195374
1690839502567058200,8.85905810546875,-0.0001741517335176468,0.001607078011147678,-0.0006405357271432877
1690839502577099000,8.86909912109375,0.0002096099779009819,0.00045419554226100445,0.001323014497756958
1690839502587138000,8.879137939453125,0.0007921177893877029,0.001970047364011407,0.0011331811547279358
1690839502597178000,8.88917822265625,-0.0004300065338611603,-0.0014555766247212887,0.0016221366822719574
1690839502607219200,8.89921923828125,-0.0014458694495260715,-0.0011273424606770277,0.0004951376467943192
1690839502617259000,8.909259033203124,0.0011650938540697098,0.00008572742808610201,-0.001462286338210106
1690839502627299000,8.919299072265625,0.00003741635009646416,0.0009765144204720855,-0.0012693572789430618
1690839502637339100,8.929339111328124,-0.0007668584585189819,-0.00005838996730744839,-0.0005633533000946045
1690839502647380200,8.939380126953125,0.0012292033061385155,-0.00025259831454604864,0.0023435670882463455
1690839502657420000,8.949419921875,-0.0017066653817892075,0.0005114625673741102,-0.0005547516047954559
1690839502667460000,8.959460205078125,0.00039082905277609825,0.0005570033099502325,0.0013324879109859467
1690839502677501200,8.969501220703124,-0.000554592814296484,0.0020680809393525124,0.002386299893260002
1690839502687571000,8.979571044921874,-0.00003079790621995926,-0.0019364390755072236,0.003849990665912628
1690839502697612000,8.989612060546875,0.001211034134030342,0.001659094705246389,0.0012307725846767426
1690839502707652000,8.999652099609374,-0.000033111777156591415,-0.0016597768990322948,0.002667834982275963
1690839502717692200,9.009692138671875,-0.0008174125105142593,0.0002342632506042719,0.0016385242342948914
1690839502727732200,9.019732177734374,0.0010314031969755888,-0.0005612769164144993,0.001161804422736168
1690839502737773000,9.02977294921875,0.00011607445776462555,0.0003713620826601982,-0.0010129325091838837
1690839502747812900,9.039812744140624,-0.000883045606315136,0.0008785038953647017,0.00167105533182621
1690839502757853000,9.04985302734375,0.0005875518545508385,-0.0006070072995498776,0.0003432035446166992
1690839502767894000,9.05989404296875,0.00014831917360424995,-0.0017578782280907035,0.00017865002155303955
1690839502777934000,9.06993408203125,-0.0007550250738859177,0.0021814696956425905,-0.0006658397614955902
1690839502787974100,9.07997412109375,0.00017519481480121613,0.00006524124182760715,0.0027318596839904785
1690839502798014200,9.09001416015625,-0.0006937948055565357,0.002176861744374037,0.003806978464126587
1690839502808055000,9.100054931640624,-0.001579939853399992,-0.0012652003206312656,0.0002858750522136688
1690839502818095000,9.11009521484375,0.00011116731911897659,0.0016099484637379646,0.000570567324757576
1690839502828135000,9.120135009765624,0.00018268823623657227,0.0009301207610405982,-0.003294670954346657
1690839502838176000,9.130176025390625,0.0011073376517742872,-0.0004957356723025441,0.00024174153804779053
1690839502848246000,9.14024609375,-0.0018540583550930023,0.0018701145891100168,-0.000999104231595993
1690839502858287000,9.150287109375,0.0009989859536290169,-0.0008332602446898818,-0.00040761567652225494
1690839502868327200,9.1603271484375,0.0002548461779952049,0.0012011039070785046,0.000197533518075943
1690839502878367200,9.1703671875,-0.00015075365081429482,-0.00034992117434740067,0.0006215088069438934
1690839502888408000,9.180407958984375,0.00004405854269862175,0.0006527684163302183,0.000010466203093528748
1690839502898448000,9.19044775390625,-0.00027578696608543396,-0.0009637702023610473,0.00128212571144104
1690839502908488000,9.200488037109375,0.0009977943263947964,-0.001614448381587863,0.0007278788834810257
1690839502918528000,9.210528076171874,0.00047022197395563126,-0.0008972589857876301,0.0015369467437267303
1690839502928569000,9.220569091796875,0.000168604776263237,0.0012354846112430096,-0.00030280090868473053
1690839502938609200,9.230609130859374,-0.0013025254011154175,-0.0004630794283002615,-0.0003909524530172348
1690839502948649200,9.240649169921875,-0.0011212024837732315,-0.0007445254595950246,0.0013889428228139877
1690839502958690000,9.25068994140625,-0.0003155958838760853,-0.0005652947584167123,0.0013689696788787842
1690839502968730000,9.260730224609375,-0.0008123787119984627,-0.0011691052932292223,-0.0008713118731975555
1690839502978770000,9.27077001953125,-0.0005830805748701096,0.0006106853252276778,0.0010743923485279083
1690839502988810000,9.28081005859375,-0.0004409882239997387,-0.0009886077605187893,-0.0002582073211669922
1690839502998851000,9.29085107421875,0.00067887082695961,0.0019371409434825182,0.0011671166867017746
1690839503008921000,9.300921142578124,0.0007585547864437103,0.0016342105809599161,-0.00015729665756225586
1690839503018962200,9.310962158203125,-0.000997000839561224,-0.0010039167245849967,0.002326367422938347
1690839503029002200,9.321002197265624,0.0007689096964895725,-0.000012942124158143997,-0.00044934824109077454
1690839503039042000,9.3310419921875,0.000034143682569265366,0.001210247864946723,-0.0008450951427221298
1690839503049083000,9.341082763671874,9.359791874885559e-7,-0.00044923846144229174,0.000195210799574852
1690839503059123000,9.351123046875,0.00008056452497839928,-0.0024862904101610184,0.0023047011345624924
1690839503069163000,9.3611630859375,0.00020758993923664093,0.0005589674692600965,-0.0002131480723619461
1690839503079203000,9.371203125,-0.00033170031383633614,-0.000626671826466918,-0.00031647831201553345
1690839503089244200,9.381244140625,0.0006611552089452744,-0.0003245370462536812,0.000033153221011161804
1690839503099284200,9.3912841796875,0.000770611222833395,-0.001564771169796586,-0.00009867362678050995
1690839503109324300,9.40132421875,0.0005545555613934994,-0.0006882748566567898,0.0013270601630210876
1690839503119365000,9.411365234375,0.0002932995557785034,0.0005743298679590225,0.002586202695965767
1690839503129405000,9.421405029296874,0.0006324164569377899,0.001461604842916131,-0.0007639620453119278
1690839503139445000,9.431445068359375,0.0022377700079232454,-0.0014518932439386845,0.0010509807616472244
1690839503149485000,9.441485107421874,0.0011523885186761618,0.0006483149481937289,-0.0010260771960020065
1690839503159526100,9.451526123046875,-0.0006031673401594162,-0.0006984455976635218,0.0008700937032699585
1690839503169596200,9.46159619140625,0.0013054211158305407,-0.0005249126115813851,0.00024923868477344513
1690839503179637200,9.47163720703125,0.0008356394246220589,0.0005414171610027552,-0.00040030665695667267
1690839503189677000,9.481677001953125,0.0008511552587151527,0.0005591860972344875,-0.0014130882918834686
1690839503199717000,9.491717041015624,0.0002764449454843998,-0.0006008867640048265,0.0005999952554702759
1690839503209758000,9.501758056640625,-0.0004888614639639854,-0.0023494302295148373,-0.00016388669610023499
1690839503219798000,9.511798095703124,0.0003628176636993885,-0.0012711160816252232,-0.00040357187390327454
1690839503229838000,9.521838134765625,-0.00022361520677804947,0.0010011374251917005,-0.0002698265016078949
1690839503239878100,9.531878173828124,-0.0005184272304177284,-0.0027270219288766384,0.0009650811553001404
1690839503249919200,9.541919189453125,0.00023904023692011833,-0.0003059173468500376,-0.001373589038848877
1690839503259959300,9.551959228515624,0.0007636826485395432,0.000624058535322547,0.0020160824060440063
1690839503269999000,9.5619990234375,-0.0016326261684298515,-0.000020184554159641266,0.0010935906320810318
1690839503280040000,9.5720400390625,-0.0007670987397432327,-0.00028117443434894085,0.0007905233651399612
1690839503290080000,9.582080078125,-0.000922065693885088,-0.00048694387078285217,0.0008858591318130493
1690839503300120000,9.5921201171875,0.000355718657374382,0.0003908340586349368,0.00020195916295051575
1690839503310160100,9.60216015625,0.0007248567417263985,-0.0007867122767493129,0.002197595313191414
1690839503320201200,9.612201171875,0.0001895613968372345,-0.002019756007939577,0.0014947876334190369
1690839503330272300,9.622272216796874,0.0009148134849965572,-0.0003045075573027134,0.001863701269030571
1690839503340312000,9.63231201171875,-0.0014796345494687557,-0.0017428810242563486,0.0017707571387290955
1690839503350352100,9.64235205078125,-0.00012615136802196503,-0.0010669532930478454,0.0001372862607240677
1690839503360392200,9.65239208984375,-0.000047321897000074387,0.0011133766965940595,0.0008869655430316925
1690839503370433000,9.66243310546875,0.0010828350204974413,0.0009183220681734383,-0.0020598266273736954
1690839503380473000,9.67247314453125,-0.0007789810188114643,-0.0002918182872235775,-0.0017908476293087006
1690839503390513200,9.68251318359375,0.000018557999283075333,0.00048058293759822845,-0.0012974310666322708
1690839503400554200,9.69255419921875,0.0005690334364771843,-0.0002568464260548353,0.0006378889083862305
1690839503410594000,9.702593994140624,-0.0006551896221935749,-0.0018200735794380307,-0.0003696158528327942
1690839503420634000,9.712634033203125,-0.001718323677778244,-0.001874668407253921,0.0011995192617177963
1690839503430674200,9.722674072265624,0.00010343221947550774,0.0007629530737176538,0.0022862758487462997
1690839503440715000,9.732715087890625,-0.0005794023163616657,-0.0018469446804374456,0.00014296360313892365
1690839503450755000,9.742755126953124,-0.0006596031598746777,-0.0015413890359923244,0.0006897673010826111
1690839503460795100,9.752795166015625,0.0006243069656193256,0.0020283120684325695,0.001563018187880516
1690839503470836200,9.762836181640624,-0.00028176745399832726,-0.0005101205315440893,0.0014145541936159134
1690839503480876300,9.772876220703125,-0.0008354387246072292,-0.00013887579552829266,0.0002467576414346695
1690839503490947000,9.782947021484375,0.001240687444806099,0.0004942410159856081,-0.0016993843019008636
1690839503500987100,9.792987060546874,0.0012673190794885159,0.0017097077798098326,-0.0011837966740131378
1690839503511027200,9.803027099609375,-0.000019566155970096588,0.00018716452177613974,-0.00035705603659152985
1690839503521067300,9.8130673828125,-0.0008611250668764114,0.0021674910094588995,0.000700484961271286
1690839503531108000,9.823108154296875,-0.00027501676231622696,0.0013031882699579,-0.0014113280922174454
1690839503541148200,9.833148193359374,-0.0002742176875472069,0.0005788084818050265,0.00036579929292201996
1690839503551188000,9.84318798828125,-0.0008156206458806992,0.00016679370310157537,0.0014708824455738068
1690839503561229000,9.85322900390625,-0.0007162843830883503,0.00027385272551327944,0.0008889827877283096
1690839503571269000,9.86326904296875,0.00021468289196491241,-0.0009963945485651493,-0.000454852357506752
1690839503581309200,9.87330908203125,-0.00023885304108262062,-0.00034152320586144924,-0.0006628446280956268
1690839503591332600,9.88333251953125,0.0010966765694320202,0.00038348918315023184,-0.0016523618251085281
1690839503601373700,9.893373779296875,-0.0014258697628974915,-0.0006072067189961672,-0.0018241368234157562
1690839503611413800,9.903413818359375,-0.0006548608653247356,0.0004915407625958323,-0.00008863769471645355
1690839503621453800,9.913453857421874,0.010732283815741539,0.21134118735790253,0.07596191763877869
1690839503631494700,9.92349462890625,0.039721742272377014,-0.22518938779830933,0.1753334403038025
1690839503641534700,9.93353466796875,0.0013663631398230791,-0.039118312299251556,0.042463019490242004
1690839503651605500,9.94360546875,-0.0104548130184412,-0.010851867496967316,-0.004114087671041489
1690839503661645600,9.9536455078125,-0.011680932715535164,0.01627083122730255,-0.07331952452659607
1690839503671685600,9.963685546875,-0.01226235181093216,-0.01962212473154068,-0.08383165299892426
1690839503681725700,9.9737255859375,-0.0004506995901465416,0.012142729014158249,-0.06799834966659546
1690839503691766800,9.983766845703125,0.012218261137604713,0.00941320788115263,-0.06506308913230896
1690839503701806800,9.993806884765625,0.015177300199866295,0.011413509026169777,-0.04099183529615402
1690839503711846700,10.0038466796875,0.010082926601171494,0.01651613973081112,-0.006271561607718468
1690839503721887500,10.013887451171875,0.0011685278732329607,0.014814113266766071,0.02662966214120388
1690839503731927600,10.023927490234374,-0.008302219212055206,0.0010322697926312685,0.050407808274030685
1690839503741967600,10.033967529296875,-0.009846318513154984,-0.011583923362195492,0.06577105075120926
1690839503752007700,10.044007568359374,-0.005373950581997633,-0.016495373100042343,0.06955507397651672
1690839503762048800,10.054048828125,0.004139393102377653,-0.017963306978344917,0.061383701860904694
1690839503772088800,10.0640888671875,0.007504505570977926,-0.009306465275585651,0.04398743435740471
1690839503782128600,10.074128662109375,0.006271728314459324,0.000758951879106462,0.01974121853709221
1690839503792169500,10.08416943359375,0.0005181711167097092,0.010584229603409767,-0.005533754825592041
1690839503802209500,10.09420947265625,-0.004123718943446875,0.013723030686378479,-0.028917105868458748
1690839503812280600,10.104280517578125,-0.0060009039007127285,0.012337563559412956,-0.04534096270799637
1690839503822320600,10.114320556640624,-0.002904979046434164,0.004657006822526455,-0.05161350220441818
1690839503832360700,10.124360595703125,0.0008115153759717941,-0.0008808269631117582,-0.05004376173019409
1690839503842401800,10.13440185546875,0.005502407439053059,-0.010792313143610954,-0.038028642535209656
1690839503852441900,10.14444189453125,0.0038168004248291254,-0.008147693239152431,-0.025320839136838913
1690839503862481700,10.154481689453124,0.0002830522134900093,-0.007044612430036068,-0.0053870789706707
1690839503872521700,10.164521728515625,-0.0019635255448520184,-0.0004272628575563431,0.014710964635014534
1690839503882562600,10.1745625,-0.002292692195624113,0.006660474464297295,0.03117728978395462
1690839503892602600,10.1846025390625,-0.0029442901723086834,0.007371780462563038,0.039029404520988464
1690839503902642700,10.194642578125,0.0012216924224048853,0.006627161055803299,0.040054455399513245
1690839503912683800,10.204683837890625,0.0016977363266050816,0.0015531231183558702,0.03505583852529526
1690839503922723800,10.214723876953125,0.0031345116440206766,-0.0025731786154210567,0.022640446200966835
1690839503932763600,10.224763671875,0.00046208174899220467,-0.006821245886385441,0.009524990804493427
1690839503942803700,10.2348037109375,-0.0008015884086489677,-0.0068545350804924965,-0.0076300278306007385
1690839503952844500,10.244844482421875,-0.002809864468872547,-0.0030044165905565023,-0.016989823430776596
1690839503962884600,10.254884521484374,-0.001740871462970972,-0.0008808118291199207,-0.028355926275253296
1690839503972955600,10.26495556640625,0.0007824734784662724,0.002356260549277067,-0.030816689133644104
1690839503982995700,10.27499560546875,0.0023127258755266666,0.006275634281337261,-0.027209434658288956
1690839503993035800,10.285035888671874,0.0016651819460093975,0.0051087886095047,-0.021670803427696228
1690839504003076900,10.295076904296875,-0.0014453902840614319,0.0008898087544366717,-0.011164367198944092
1690839504013116700,10.30511669921875,-0.0006850697100162506,-0.0018159470055252314,0.000005038455128669739
1690839504023156700,10.31515673828125,-0.0013191686011850834,-0.005962222348898649,0.010611876845359802
1690839504033196800,10.32519677734375,-0.00030900677666068077,-0.0037470387760549784,0.017834950238466263
1690839504043237600,10.335237548828125,-0.000837644562125206,-0.004835473373532295,0.024703243747353554
1690839504053277700,10.345277587890624,0.0002643102779984474,-0.00011360296048223972,0.02048879861831665
1690839504063317800,10.35531787109375,-0.00013383245095610619,0.0014217094285413623,0.017917782068252563
1690839504073358800,10.36535888671875,-0.0008807876147329807,0.0018575835274532437,0.009612707421183586
1690839504083398700,10.375398681640625,-0.00020301295444369316,0.0032637324184179306,0.0019265580922365189
1690839504093438700,10.385438720703124,-0.0015201093629002571,0.002105137100443244,-0.006590595468878746
1690839504103478800,10.395478759765625,-0.0016503375954926014,0.0011128432815894485,-0.014028804376721382
1690839504113519600,10.40551953125,-0.0008453922346234322,-0.0008031467441469431,-0.015799488872289658
1690839504123559700,10.4155595703125,0.0008614277467131615,-0.0005733161233365536,-0.018905799835920334
1690839504133630700,10.425630615234375,0.0011225726921111345,-0.0013817674480378628,-0.01501546986401081
1690839504143670800,10.4356708984375,-0.0005200649611651897,-0.0006832203362137079,-0.008177803829312325
1690839504153710600,10.445710693359375,0.0011518539395183325,0.00035462866071611643,-0.0027506984770298004
1690839504163751700,10.455751708984375,-0.00033578788861632347,0.002690753433853388,0.003657665103673935
1690839504173791700,10.465791748046875,0.001134655438363552,0.0016224789433181286,0.008103554137051105
1690839504183831800,10.475831787109374,0.0007924390956759453,-0.0002683652564883232,0.012477796524763107
1690839504193871600,10.48587158203125,0.0002590082585811615,0.00029702368192374706,0.01537717878818512
1690839504203912700,10.49591259765625,0.0004278523847460747,-0.0010452093556523323,0.013404043391346931
1690839504213952800,10.505952880859375,0.00032620830461382866,-0.0018527936190366745,0.0071624210104346275
1690839504223992600,10.51599267578125,0.00004444597288966179,-0.00046155834570527077,0.0035021714866161346
1690839504234033700,10.52603369140625,0.0005959481932222843,0.00004262395668774843,-0.0025894753634929657
1690839504244073700,10.53607373046875,-0.000602740328758955,0.00013130728621035814,-0.008504088968038559
1690839504254113800,10.54611376953125,0.0003235321491956711,0.0006551194237545133,-0.010183166712522507
1690839504264153600,10.556153564453124,0.0018399360124021769,0.0012532654218375683,-0.013338480144739151
1690839504274194700,10.566194580078125,0.00037967413663864136,-0.0007610847242176533,-0.009803492575883865
1690839504284234800,10.57623486328125,-0.0010853307321667671,0.0012043281458318233,-0.0078484658151865
1690839504294305800,10.586305908203125,-0.0008028661832213402,0.0004092501476407051,-0.002415033057332039
1690839504304345600,10.596345703125,0.000024843961000442505,0.00036717229522764683,0.0015283096581697464
1690839504314385700,10.6063857421875,-0.0007847831584513187,-0.0010837598238140345,0.006405400112271309
1690839504324426800,10.6164267578125,0.0009132479317486286,-0.000051784911192953587,0.009626226499676704
1690839504334466800,10.626466796875,0.00004625879228115082,-0.0004540402442216873,0.009626289829611778
1690839504344506600,10.636506591796875,0.0012862265575677156,0.0017997928662225604,0.007948231883347034
1690839504354547700,10.646547607421875,0.0005885297432541847,0.000531534431502223,0.004363704472780228
1690839504364587800,10.656587890625,0.0005326033569872379,-0.0008242807816714048,0.000721566379070282
1690839504374627600,10.666627685546874,-0.0007671928033232689,-0.003475290723145008,-0.001933075487613678
1690839504384667600,10.676667724609375,0.00007782783359289169,-0.001727990573272109,-0.004345899447798729
1690839504394708700,10.686708740234375,-0.0005372790619730949,-0.0003008774947375059,-0.006398040801286697
1690839504404748800,10.696748779296875,0.0007647406309843063,-0.00010460242629051208,-0.00737622007727623
1690839504414788600,10.70678857421875,0.0004880772903561592,0.0015523852780461311,-0.006725786253809929
1690839504424829700,10.71682958984375,-0.000834448728710413,-0.0008718902245163918,-0.0032724644988775253
1690839504434869800,10.726869873046875,0.001193993492051959,0.0006756905931979418,-0.0008147917687892914
1690839504444909600,10.73690966796875,-0.0008161603473126888,0.00020058266818523407,0.0016944389790296555
1690839504454980600,10.746980712890625,-0.0005633821710944176,-0.001878831535577774,0.004683995619416237
1690839504465020700,10.757020751953124,-0.0006768330931663513,-0.0005794751923531294,0.005722627975046635
1690839504475060700,10.767060791015625,0.0005638506263494492,-0.002733222208917141,0.0017211679369211197
1690839504485101800,10.777101806640625,-0.0011187344789505005,-0.00348103791475296,0.0017203688621520996
1690839504495141600,10.7871416015625,0.0010139131918549538,-0.0005369849968701601,0.0013059433549642563
1690839504505181700,10.797181640625,0.0005843453109264374,0.00025637075304985046,0.001142691820859909
1690839504515222800,10.807222900390625,0.00012762704864144325,0.0029510161839425564,0.007829808630049229
1690839504525262600,10.8172626953125,-0.0002529388293623924,0.0002617562422528863,-0.0022257547825574875
1690839504535302700,10.827302734375,-0.000768276397138834,0.0020441636443138123,-0.0021912045776844025
1690839504545342700,10.8373427734375,-0.0004987646825611591,0.0014372292207553983,-0.000832192599773407
1690839504555383800,10.8473837890625,-0.0001631956547498703,0.0005504126893356442,-0.0033865850418806076
1690839504565423600,10.857423583984374,-0.0009962324984371662,0.00019221752882003784,-0.002392694354057312
1690839504575463700,10.867463623046875,0.0016137894708663225,-0.0006313729099929333,-0.0014551710337400436
1690839504585505300,10.87750537109375,0.0011248330119997263,-0.0011733262799680233,-0.0003784559667110443
1690839504595545300,10.88754541015625,-0.0010966095142066479,-0.00008553650695830584,0.003204585984349251
1690839504605585200,10.897585205078125,0.0012368522584438324,-0.000017625978216528893,0.0031992588192224503
1690839504615656200,10.90765625,-0.00030300160869956017,0.00041177135426551104,0.0013106781989336014
1690839504625696300,10.9176962890625,-0.0016271253116428852,-0.0008947753813117743,0.00515388511121273
1690839504635736300,10.927736328125,-0.0007940330542623997,0.0001677779946476221,0.00048103928565979004
1690839504645777200,10.937777099609375,0.0007828245870769024,-0.0007432892452925444,-0.00032296963036060333
1690839504655817200,10.947817138671875,-0.0006824145093560219,-0.0005872799083590508,-0.001666095107793808
1690839504665857000,10.95785693359375,0.000016132835298776627,-0.00021044258028268814,-0.0015118978917598724
1690839504675898000,10.967898193359375,0.0006267302669584751,0.0007261802675202489,-0.0007724352180957794
1690839504685938200,10.977938232421875,0.0003995629958808422,-0.00044694216921925545,-0.00348806194961071
1690839504695978200,10.987978271484375,-0.000043868087232112885,-0.0012255825567990541,-0.004214206710457802
1690839504706018300,10.998018310546875,0.0011726641096174717,-0.0007629913743585348,-0.0020935311913490295
1690839504716059100,11.00805908203125,0.0007690833881497383,-0.00039718172047287226,0.0014010518789291382
1690839504726099200,11.01809912109375,0.0006569642573595047,-0.0006097020814195275,0.004208821803331375
1690839504736139300,11.02813916015625,-0.0007188338786363602,0.0006996133597567677,0.0027184709906578064
1690839504746180400,11.038180419921876,-0.00046503450721502304,0.001152350683696568,0.004535013809800148
1690839504756220200,11.04822021484375,0.0009165899828076363,-0.0004627121379598975,0.0031390953809022903
1690839504766260200,11.05826025390625,-0.00042431149631738663,0.0002299761399626732,0.0004945769906044006
1690839504776331300,11.068331298828125,-0.0010517328046262264,0.0003680202644318342,-0.000380760058760643
1690839504786371300,11.078371337890625,0.0002406993880867958,-0.0006525031058117747,-0.00354965403676033
1690839504796412200,11.088412109375,0.001009311992675066,-0.0003475598059594631,-0.004741622135043144
1690839504806452200,11.0984521484375,-0.00005488703027367592,-0.0006732644978910685,-0.004007389768958092
1690839504816492000,11.108491943359375,-0.0007967650890350342,0.00045859592501074076,-0.0032233484089374542
1690839504826532000,11.118531982421874,0.0003119087778031826,0.0006556699518114328,0.00007204711437225342
1690839504836573200,11.1285732421875,0.0006283214315772057,0.001989518292248249,0.0010357480496168137
1690839504846613200,11.13861328125,-0.000527756754308939,0.0008645991329103708,0.0034102220088243484
1690839504856653300,11.1486533203125,0.00008791079744696617,-0.00036991038359701633,0.0031355861574411392
1690839504866694100,11.158694091796875,0.002315112389624119,-0.00008894689381122589,0.004574492573738098
1690839504876734200,11.168734130859375,0.00004787184298038483,-0.00177349045407027,0.0024943891912698746
1690839504886774300,11.178774169921875,-0.00023522228002548218,0.0019767729099839926,0.0010917019098997116
1690839504896814000,11.18881396484375,-0.0010356148704886436,-0.0018277581548318267,-0.0022220537066459656
1690839504906855200,11.198855224609375,0.0011084959842264652,0.0019089232664555311,-0.001793818548321724
1690839504916895200,11.208895263671875,0.00018268637359142303,-0.0003681689267978072,-0.0033993683755397797
1690839504926935300,11.218935302734375,-0.0004902943037450314,-0.0005886786384508014,-0.002464599907398224
1690839504937006300,11.22900634765625,-0.00016028806567192078,-0.000035602133721113205,-0.0022404827177524567
1690839504947046400,11.23904638671875,-0.00045749684795737267,-0.000052646384574472904,-0.0014601759612560272
1690839504957087200,11.249087158203125,0.0005026897415518761,0.0008803027449175715,0.0009031631052494049
1690839504967127000,11.259126953125,-0.00014419201761484146,-0.0005125304451212287,0.0009819921106100082
1690839504977167000,11.2691669921875,-0.00023452891036868095,-0.002762815449386835,-0.0005633682012557983
1690839504987207200,11.279207275390625,-0.000487529207020998,-0.0002144369063898921,-0.0010062512010335922
1690839504997248300,11.289248291015625,-0.00033329008147120476,0.0028340532444417477,0.0008359458297491074
1690839505007288300,11.299288330078125,-0.0005684471689164639,0.0014337633037939668,0.0013280976563692093
1690839505017328400,11.309328369140625,-0.0008543431758880615,-0.0006090831011533737,-0.0009683631360530853
1690839505027369200,11.319369140625,-0.0002828286960721016,0.00001622724812477827,0.0003839898854494095
1690839505037409300,11.3294091796875,-0.001014066394418478,0.0007208511233329773,-0.0016499795019626617
1690839505047449000,11.339448974609375,-0.0004129912704229355,0.001080377958714962,0.001449408009648323
1690839505057489200,11.3494892578125,-0.0009728120639920235,-0.0018785647116601467,0.002522885799407959
1690839505067530200,11.3595302734375,0.00015929760411381721,-0.00020530051551759243,0.002461899071931839
1690839505077570300,11.3695703125,0.0008323835209012032,0.0009968748781830072,0.001879904419183731
1690839505087641300,11.379641357421875,0.0007088128477334976,-0.0014034323394298553,-0.0014490466564893723
1690839505097681400,11.389681396484375,0.0012669686693698168,-0.000016568228602409363,-0.0010553374886512756
1690839505107721200,11.39972119140625,0.0003788042813539505,-0.0003457348793745041,-0.003020217642188072
1690839505117762000,11.409761962890625,0.0008732033893465996,-0.0009100961033254862,-0.002837948501110077
1690839505127802000,11.419802001953125,-0.0005598436109721661,-0.00011833850294351578,-0.0011974405497312546
1690839505137842200,11.42984228515625,0.00022940337657928467,-0.0026834970340132713,-0.0007550902664661407
1690839505147882200,11.43988232421875,-0.00035302992910146713,-0.0011508478783071041,0.0020928941667079926
1690839505157923300,11.44992333984375,0.00027914484962821007,0.001508062705397606,0.002122430130839348
1690839505167963400,11.45996337890625,-0.0013714823871850967,-0.00011939497198909521,0.003616197034716606
1690839505178003200,11.470003173828125,-0.0008552675135433674,-0.00003226310946047306,0.001048889011144638
1690839505188044000,11.4800439453125,0.0012206665705889463,-0.0016168438596650958,0.0014028232544660568
1690839505198084000,11.490083984375,-0.000173996202647686,-0.00021663447842001915,-0.0020517706871032715
1690839505208124200,11.500124267578125,-0.0007649515755474567,-0.0002027861773967743,-0.004487497732043266
1690839505218164200,11.510164306640625,-0.0003946181386709213,-0.0019699521362781525,-0.006036924198269844
1690839505228205300,11.520205322265625,-0.0003834324888885021,-0.0013837903970852494,-0.0038137175142765045
1690839505238245400,11.530245361328125,0.00016677333042025566,-0.0009758047526702285,-0.001858547329902649
1690839505248316200,11.540316162109375,0.0010070004500448704,-0.0008040309185162187,-0.0013967547565698624
1690839505258356000,11.55035595703125,-0.00010192627087235451,-0.0006986310472711921,0.0006412044167518616
1690839505268396000,11.56039599609375,-0.00021857302635908127,0.0006747611332684755,0.0020042117685079575
1690839505278437000,11.57043701171875,-0.001136754173785448,-0.00007486785762012005,0.0022789817303419113
1690839505288477200,11.580477294921875,0.0004936330951750278,0.0016396752325817943,0.0018643289804458618
1690839505298517200,11.590517333984375,-0.0016794358380138874,-0.00022769521456211805,-0.00043777935206890106
1690839505308558300,11.600558349609376,0.001243117032572627,0.0003044042969122529,0.00018646568059921265
1690839505318598100,11.61059814453125,-0.0016890298575162888,-0.0027607325464487076,-0.0021901801228523254
1690839505328638000,11.620637939453125,0.000533111859112978,-0.0008690893882885575,-0.0019297227263450623
1690839505338678000,11.630677978515624,-0.000006387010216712952,-0.0005534235388040543,-0.002014636993408203
1690839505348719000,11.640718994140625,0.0001235753297805786,-0.0017137627582997084,-0.0011589620262384415
1690839505358759200,11.65075927734375,0.0003847181797027588,-0.0009726027492433786,-0.0009721368551254272
1690839505368799200,11.66079931640625,0.00034343916922807693,0.001511061331257224,-0.00025201961398124695
1690839505378840300,11.67084033203125,0.001099483110010624,0.000022631254978477955,0.0015781540423631668
1690839505388880100,11.680880126953125,0.0016326478216797113,0.0018130744574591517,0.0007821358740329742
1690839505398920200,11.690920166015625,-0.0007686857134103775,0.0005531032802537084,0.0023147985339164734
1690839505408991000,11.700990966796875,-0.0006139562465250492,-0.00018352712504565716,0.00036057084798812866
1690839505419031000,11.711031005859375,-0.0007215342484414577,-0.00036239821929484606,-0.0012683477252721786
