time,seconds_elapsed,z,y,x
1690840421853438200,0.030438232421875,-0.97723388671875,0.0296630859375,-0.0024566650390625
1690840421863479000,0.04047900390625,-0.98187255859375,0.022003173828125,0.0003662109375
1690840421873519000,0.05051904296875,-0.985443115234375,0.0132598876953125,0.00421142578125
1690840421883559200,0.06055908203125,-0.9893035888671875,0.004302978515625,0.0063323974609375
1690840421893599200,0.07059912109375,-0.992767333984375,-0.0033111572265625,0.007354736328125
1690840421903640300,0.080640380859375,-0.9934844970703125,-0.009185791015625,0.0066680908203125
1690840421913680400,0.090680419921875,-0.99249267578125,-0.011138916015625,0.0045928955078125
1690840421923720200,0.10072021484375,-0.9913177490234375,-0.0111236572265625,0.0010833740234375
1690840421933761000,0.110760986328125,-0.988616943359375,-0.0056304931640625,-0.0009765625
1690840421943831300,0.120831298828125,-0.9869537353515625,0.0013427734375,-0.0011138916015625
1690840421953872100,0.1308720703125,-0.9849395751953125,0.0097503662109375,0.0003509521484375
1690840421963912200,0.140912109375,-0.982269287109375,0.0173187255859375,0.0019073486328125
1690840421973952300,0.1509521484375,-0.9806060791015625,0.0242156982421875,0.00286865234375
1690840421983992300,0.160992431640625,-0.9788818359375,0.0306854248046875,0.00384521484375
1690840421994033400,0.171033447265625,-0.9772491455078125,0.03558349609375,0.005340576171875
1690840422004073200,0.1810732421875,-0.977081298828125,0.0384674072265625,0.004180908203125
1690840422014113300,0.19111328125,-0.9752044677734375,0.0416412353515625,0.0029144287109375
1690840422024154000,0.201154052734375,-0.9742279052734375,0.0423431396484375,0.001129150390625
1690840422034194200,0.211194091796875,-0.9739227294921875,0.041351318359375,0.0001068115234375
1690840422044234200,0.221234130859375,-0.973785400390625,0.039459228515625,-0.000701904296875
1690840422054274300,0.2312744140625,-0.9753570556640625,0.03546142578125,-0.000518798828125
1690840422064315400,0.2413154296875,-0.9771270751953125,0.0322265625,-0.0000457763671875
1690840422074355200,0.251355224609375,-0.9794921875,0.0270538330078125,0.0013275146484375
1690840422084426200,0.26142626953125,-0.9813232421875,0.0223541259765625,0.0032806396484375
1690840422094466300,0.27146630859375,-0.984527587890625,0.0171661376953125,0.00457763671875
1690840422104506400,0.28150634765625,-0.9862518310546875,0.012725830078125,0.0052032470703125
1690840422114547200,0.291547119140625,-0.986083984375,0.007659912109375,0.0037384033203125
1690840422124587300,0.301587158203125,-0.9874725341796875,0.0030975341796875,0.0021209716796875
1690840422134627300,0.31162744140625,-0.9876861572265625,0.002471923828125,0.002288818359375
1690840422144668400,0.32166845703125,-0.9865264892578125,0.0032806396484375,0.000732421875
1690840422154708200,0.331708251953125,-0.986083984375,0.0055999755859375,0.00030517578125
1690840422164748300,0.341748291015625,-0.984832763671875,0.009368896484375,0.0008087158203125
1690840422174788400,0.351788330078125,-0.983612060546875,0.0141143798828125,0.00103759765625
1690840422184829200,0.3618291015625,-0.9833526611328125,0.0183563232421875,0.0025634765625
1690840422194869200,0.371869140625,-0.980987548828125,0.02301025390625,0.002777099609375
1690840422204909300,0.381909423828125,-0.9806976318359375,0.0260162353515625,0.003265380859375
1690840422214950400,0.391950439453125,-0.9788360595703125,0.029022216796875,0.0032806396484375
1690840422225020200,0.402020263671875,-0.9775390625,0.0316619873046875,0.002777099609375
1690840422235061200,0.412061279296875,-0.9777984619140625,0.033416748046875,0.0018310546875
1690840422245101300,0.422101318359375,-0.9770965576171875,0.0323638916015625,-0.00006103515625
1690840422255141400,0.432141357421875,-0.976837158203125,0.0320281982421875,-0.0000457763671875
1690840422265181200,0.44218115234375,-0.9770965576171875,0.0309906005859375,0.001129150390625
1690840422275222300,0.45222216796875,-0.9786529541015625,0.0290374755859375,0.0014495849609375
1690840422285262300,0.462262451171875,-0.979949951171875,0.026641845703125,0.0023040771484375
1690840422295302100,0.47230224609375,-0.981597900390625,0.0230712890625,0.00323486328125
1690840422305343200,0.48234326171875,-0.982177734375,0.019989013671875,0.003753662109375
1690840422315383300,0.49238330078125,-0.983428955078125,0.01702880859375,0.00347900390625
1690840422325423400,0.50242333984375,-0.9840087890625,0.0142974853515625,0.0028228759765625
1690840422335463200,0.512463134765625,-0.9842987060546875,0.011505126953125,0.0023193359375
1690840422345504300,0.522504150390625,-0.98431396484375,0.0096588134765625,0.0016937255859375
1690840422355544300,0.53254443359375,-0.9851837158203125,0.0111236572265625,0.0013275146484375
1690840422365615000,0.542614990234375,-0.983612060546875,0.0123748779296875,0.001373291015625
1690840422375655200,0.5526552734375,-0.9831390380859375,0.014373779296875,0.001953125
1690840422385695200,0.5626953125,-0.9827423095703125,0.016571044921875,0.0023345947265625
1690840422395736300,0.572736328125,-0.981597900390625,0.0182952880859375,0.00189208984375
1690840422405776400,0.5827763671875,-0.98291015625,0.0209808349609375,0.0023956298828125
1690840422415816200,0.592816162109375,-0.981842041015625,0.02386474609375,0.0027313232421875
1690840422425857300,0.602857177734375,-0.978973388671875,0.025299072265625,0.00250244140625
1690840422435897300,0.6128974609375,-0.9788665771484375,0.0262298583984375,0.0012359619140625
1690840422445937200,0.622937255859375,-0.9776153564453125,0.027191162109375,0.0009002685546875
1690840422455954400,0.632954345703125,-0.977935791015625,0.02734375,0.00189208984375
1690840422465995500,0.64299560546875,-0.978118896484375,0.0281524658203125,0.0019073486328125
1690840422476035300,0.653035400390625,-0.9793701171875,0.026214599609375,0.0009002685546875
1690840422486075400,0.663075439453125,-0.9793701171875,0.0254058837890625,0.0010986328125
1690840422496115500,0.673115478515625,-0.9803924560546875,0.024322509765625,0.0016326904296875
1690840422506186500,0.6831865234375,-0.9813995361328125,0.0225677490234375,0.001953125
1690840422516227600,0.6932275390625,-0.98284912109375,0.02008056640625,0.0023651123046875
1690840422526267600,0.703267578125,-0.982513427734375,0.018280029296875,0.0015411376953125
1690840422536307500,0.713307373046875,-0.9820556640625,0.0164031982421875,0.0011749267578125
1690840422546347300,0.72334716796875,-0.983184814453125,0.01580810546875,0.001800537109375
1690840422556388400,0.733388427734375,-0.98333740234375,0.01531982421875,0.0020751953125
1690840422566428400,0.743428466796875,-0.98260498046875,0.015625,0.002960205078125
1690840422576468500,0.753468505859375,-0.98187255859375,0.0159454345703125,0.002593994140625
1690840422586509600,0.763509521484375,-0.9842071533203125,0.01727294921875,0.00164794921875
1690840422596549600,0.773549560546875,-0.98248291015625,0.019378662109375,0.0018157958984375
1690840422606589400,0.78358935546875,-0.9809417724609375,0.0206298828125,0.003204345703125
1690840422616629200,0.793629150390625,-0.981719970703125,0.02203369140625,0.002227783203125
1690840422626670300,0.80367041015625,-0.98162841796875,0.02276611328125,0.0015869140625
1690840422636710400,0.81371044921875,-0.9802093505859375,0.0236968994140625,0.0023956298828125
1690840422646750500,0.82375048828125,-0.9815673828125,0.023651123046875,0.001861572265625
1690840422656821500,0.833821533203125,-0.9805145263671875,0.024627685546875,0.0021209716796875
1690840422666861600,0.843861572265625,-0.9792938232421875,0.024810791015625,0.00189208984375
1690840422676902700,0.853902587890625,-0.979461669921875,0.0251312255859375,0.001983642578125
1690840422686942500,0.8639423828125,-0.9798126220703125,0.02294921875,0.001434326171875
1690840422696982300,0.873982177734375,-0.980499267578125,0.022430419921875,0.002197265625
1690840422707022300,0.884022216796875,-0.981231689453125,0.0222930908203125,0.0027313232421875
1690840422717063400,0.8940634765625,-0.9813385009765625,0.020477294921875,0.00250244140625
1690840422727103500,0.904103515625,-0.983245849609375,0.019683837890625,0.0021209716796875
1690840422737143600,0.9141435546875,-0.9835662841796875,0.01904296875,0.001373291015625
1690840422747184600,0.9241845703125,-0.9829559326171875,0.018341064453125,0.0010833740234375
1690840422757224400,0.934224365234375,-0.9821929931640625,0.01812744140625,0.001129150390625
1690840422767264300,0.94426416015625,-0.9819183349609375,0.01788330078125,0.00152587890625
1690840422777304300,0.95430419921875,-0.9818878173828125,0.018341064453125,0.001312255859375
1690840422787345400,0.964345458984375,-0.982025146484375,0.01898193359375,0.001495361328125
1690840422797416400,0.97441650390625,-0.9825897216796875,0.0199737548828125,0.0020751953125
1690840422807456500,0.98445654296875,-0.9815673828125,0.0202789306640625,0.0026092529296875
1690840422817496600,0.99449658203125,-0.9825897216796875,0.020843505859375,0.0031585693359375
1690840422827536400,1.004536376953125,-0.979888916015625,0.0217437744140625,0.0028076171875
1690840422837577200,1.0145771484375,-0.981903076171875,0.0224151611328125,0.0019683837890625
1690840422847617300,1.0246171875,-0.9794464111328125,0.0222930908203125,0.001495361328125
1690840422857657300,1.0346572265625,-0.980255126953125,0.0228424072265625,0.0016937255859375
1690840422867698400,1.044698486328125,-0.9786376953125,0.022247314453125,0.0017852783203125
1690840422877738500,1.054738525390625,-0.9821624755859375,0.0225830078125,0.00274658203125
1690840422887778600,1.064778564453125,-0.9795989990234375,0.022064208984375,0.003265380859375
1690840422897818400,1.074818359375,-0.982177734375,0.0213165283203125,0.0025482177734375
1690840422907859500,1.084859375,-0.980621337890625,0.0206451416015625,0.0018768310546875
1690840422917899300,1.094899169921875,-0.9810638427734375,0.02008056640625,0.0027923583984375
1690840422927939300,1.104939208984375,-0.980987548828125,0.0196990966796875,0.0017242431640625
1690840422938010400,1.11501025390625,-0.9817962646484375,0.0191650390625,0.0017547607421875
1690840422948050400,1.125050537109375,-0.98162841796875,0.01837158203125,0.00164794921875
1690840422958091500,1.135091552734375,-0.981689453125,0.0187530517578125,0.0016326904296875
1690840422968131600,1.145131591796875,-0.9825286865234375,0.0191497802734375,0.001068115234375
1690840422978171400,1.15517138671875,-0.982025146484375,0.01934814453125,0.0015869140625
1690840422988211500,1.16521142578125,-0.98162841796875,0.0201873779296875,0.002197265625
1690840422998252300,1.175252197265625,-0.981475830078125,0.020355224609375,0.0025482177734375
1690840423008292400,1.185292236328125,-0.9810943603515625,0.021026611328125,0.0021514892578125
1690840423018332400,1.19533251953125,-0.9813079833984375,0.0222930908203125,0.00201416015625
1690840423028373500,1.20537353515625,-0.9817047119140625,0.0218963623046875,0.002593994140625
1690840423038413600,1.21541357421875,-0.981536865234375,0.0214996337890625,0.002593994140625
1690840423048453400,1.225453369140625,-0.9814300537109375,0.0221099853515625,0.00262451171875
1690840423058493400,1.235493408203125,-0.980499267578125,0.022064208984375,0.001983642578125
1690840423068534300,1.2455341796875,-0.98101806640625,0.022003173828125,0.0010986328125
1690840423078574300,1.25557421875,-0.9815673828125,0.02117919921875,0.0014190673828125
1690840423088645400,1.265645263671875,-0.9808502197265625,0.0208282470703125,0.0027008056640625
1690840423098685400,1.275685546875,-0.9814300537109375,0.0206756591796875,0.00250244140625
1690840423108725500,1.2857255859375,-0.9810638427734375,0.0203399658203125,0.002471923828125
1690840423118766600,1.2957666015625,-0.9809112548828125,0.01995849609375,0.002197265625
1690840423128806400,1.305806396484375,-0.9816741943359375,0.019927978515625,0.001556396484375
1690840423138846500,1.315846435546875,-0.9821319580078125,0.0196533203125,0.001312255859375
1690840423148886500,1.325886474609375,-0.9813385009765625,0.02008056640625,0.001556396484375
1690840423158927400,1.33592724609375,-0.980926513671875,0.0203704833984375,0.002532958984375
1690840423168967400,1.345967529296875,-0.9805450439453125,0.0205841064453125,0.002044677734375
1690840423179007500,1.356007568359375,-0.9809417724609375,0.020782470703125,0.0013580322265625
1690840423189048600,1.366048583984375,-0.9819793701171875,0.0205841064453125,0.00213623046875
1690840423199088400,1.37608837890625,-0.980926513671875,0.02032470703125,0.0018463134765625
1690840423209128400,1.38612841796875,-0.981201171875,0.0209808349609375,0.00238037109375
1690840423219168500,1.39616845703125,-0.98126220703125,0.021087646484375,0.0019989013671875
1690840423229239600,1.406239501953125,-0.98040771484375,0.021514892578125,0.00201416015625
1690840423239280400,1.4162802734375,-0.9809112548828125,0.020721435546875,0.00177001953125
1690840423249320400,1.426320556640625,-0.980743408203125,0.0207672119140625,0.001861572265625
1690840423259360500,1.436360595703125,-0.980621337890625,0.02178955078125,0.0017852783203125
1690840423269400300,1.446400390625,-0.981475830078125,0.0213623046875,0.002105712890625
1690840423279441400,1.45644140625,-0.98193359375,0.0206298828125,0.0023193359375
1690840423289481500,1.4664814453125,-0.9813995361328125,0.020294189453125,0.00244140625
1690840423299521500,1.476521484375,-0.9812469482421875,0.0209197998046875,0.0018310546875
1690840423309562400,1.486562255859375,-0.9807281494140625,0.0199432373046875,0.001708984375
1690840423319602400,1.4966025390625,-0.981719970703125,0.0196990966796875,0.0026702880859375
1690840423329642500,1.506642578125,-0.981689453125,0.0206451416015625,0.0023345947265625
1690840423339682300,1.516682373046875,-0.9810791015625,0.0200958251953125,0.001953125
1690840423349723400,1.526723388671875,-0.9817962646484375,0.0204010009765625,0.0021209716796875
1690840423359763500,1.536763427734375,-0.9820404052734375,0.020538330078125,0.001678466796875
1690840423369834500,1.54683447265625,-0.98138427734375,0.02001953125,0.000946044921875
1690840423379874600,1.55687451171875,-0.9809722900390625,0.0216217041015625,0.0013580322265625
1690840423389914600,1.56691455078125,-0.9813232421875,0.021392822265625,0.0025634765625
1690840423399955500,1.57695556640625,-0.980743408203125,0.0211029052734375,0.001068115234375
1690840423409995500,1.58699560546875,-0.9816436767578125,0.0214385986328125,0.0017547607421875
1690840423420035300,1.597035400390625,-0.982177734375,0.0212554931640625,0.0024261474609375
1690840423430075400,1.607075439453125,-0.9808197021484375,0.0209197998046875,0.0016937255859375
1690840423440116500,1.617116455078125,-0.9809417724609375,0.020416259765625,0.0017242431640625
1690840423450156500,1.627156494140625,-0.98162841796875,0.0205535888671875,0.0022430419921875
1690840423460217300,1.63721728515625,-0.9809112548828125,0.0210113525390625,0.002410888671875
1690840423470258200,1.647258056640625,-0.9818878173828125,0.020233154296875,0.00213623046875
1690840423480298200,1.65729833984375,-0.9823150634765625,0.020660400390625,0.00128173828125
1690840423490338000,1.667338134765625,-0.9818267822265625,0.020599365234375,0.001983642578125
1690840423500378000,1.677378173828125,-0.9810638427734375,0.020721435546875,0.001678466796875
1690840423510419200,1.687419189453125,-0.981475830078125,0.0207061767578125,0.002410888671875
1690840423520490200,1.697490234375,-0.980743408203125,0.02032470703125,0.001617431640625
1690840423530530300,1.7075302734375,-0.981109619140625,0.02069091796875,0.0009307861328125
1690840423540570400,1.7175703125,-0.98187255859375,0.0204925537109375,0.0025787353515625
1690840423550610200,1.727610107421875,-0.98199462890625,0.0196685791015625,0.0020904541015625
1690840423560651300,1.7376513671875,-0.9811859130859375,0.02081298828125,0.0014190673828125
1690840423570691000,1.747691162109375,-0.98101806640625,0.0211029052734375,0.00152587890625
1690840423580731100,1.757731201171875,-0.9803924560546875,0.0210113525390625,0.0015106201171875
1690840423590772200,1.767772216796875,-0.980316162109375,0.0215301513671875,0.001617431640625
1690840423600812300,1.777812255859375,-0.9809112548828125,0.0207672119140625,0.0015716552734375
1690840423610852400,1.787852294921875,-0.9810791015625,0.0207672119140625,0.00177001953125
1690840423620892200,1.79789208984375,-0.981109619140625,0.020263671875,0.001861572265625
1690840423630933200,1.807933349609375,-0.98193359375,0.0206451416015625,0.001617431640625
1690840423640973000,1.81797314453125,-0.9815521240234375,0.0205230712890625,0.00140380859375
1690840423651013000,1.82801318359375,-0.9810943603515625,0.0212554931640625,0.00152587890625
1690840423661084200,1.838084228515625,-0.9817962646484375,0.0208282470703125,0.0015869140625
1690840423671124200,1.848124267578125,-0.9814300537109375,0.0212860107421875,0.0014190673828125
1690840423681165300,1.858165283203125,-0.981292724609375,0.0202789306640625,0.0015869140625
1690840423691205400,1.868205322265625,-0.979736328125,0.0206298828125,0.0012969970703125
1690840423701245200,1.8782451171875,-0.9808197021484375,0.0206451416015625,0.002166748046875
1690840423711285000,1.888284912109375,-0.9817962646484375,0.0202178955078125,0.002288818359375
1690840423721326000,1.898326171875,-0.9809722900390625,0.0205841064453125,0.0017242431640625
1690840423731366100,1.9083662109375,-0.981292724609375,0.02093505859375,0.0012054443359375
1690840423741406200,1.91840625,-0.98126220703125,0.02117919921875,0.0013885498046875
1690840423751447300,1.928447265625,-0.980743408203125,0.02166748046875,0.001678466796875
1690840423761487400,1.9384873046875,-0.981719970703125,0.020904541015625,0.002288818359375
1690840423771527200,1.948527099609375,-0.9812774658203125,0.0208892822265625,0.0018768310546875
1690840423781567000,1.95856689453125,-0.98004150390625,0.0203399658203125,0.0027313232421875
1690840423791608000,1.968608154296875,-0.980987548828125,0.0206298828125,0.0023651123046875
1690840423801678000,1.978677978515625,-0.9810638427734375,0.0208892822265625,0.0023193359375
1690840423811719200,1.98871923828125,-0.98150634765625,0.0218658447265625,0.0023651123046875
1690840423821759200,1.99875927734375,-0.9816741943359375,0.021575927734375,0.0015869140625
1690840423831799300,2.00879931640625,-0.98101806640625,0.02056884765625,0.001739501953125
1690840423841840400,2.01884033203125,-0.9821014404296875,0.0207061767578125,0.0013427734375
1690840423851880200,2.028880126953125,-0.98150634765625,0.02117919921875,0.0019378662109375
1690840423861920000,2.038919921875,-0.981414794921875,0.0215301513671875,0.0020904541015625
1690840423871960000,2.0489599609375,-0.981781005859375,0.021240234375,0.0025177001953125
1690840423882001200,2.059001220703125,-0.980499267578125,0.0209808349609375,0.002044677734375
1690840423892041200,2.069041259765625,-0.9813385009765625,0.020904541015625,0.0025177001953125
1690840423902081300,2.079081298828125,-0.98223876953125,0.0205078125,0.003448486328125
1690840423912122400,2.089122314453125,-0.9820404052734375,0.0214080810546875,0.0017852783203125
1690840423922162200,2.099162109375,-0.9815521240234375,0.0211944580078125,0.0017852783203125
1690840423932202000,2.109201904296875,-0.9814300537109375,0.02117919921875,0.0028839111328125
1690840423942242000,2.119241943359375,-0.982147216796875,0.02166748046875,0.001983642578125
1690840423952313000,2.12931298828125,-0.98248291015625,0.0213623046875,0.00177001953125
1690840423962354200,2.139354248046875,-0.981719970703125,0.0212249755859375,0.00201416015625
1690840423972394200,2.149394287109375,-0.9815521240234375,0.0202789306640625,0.0019073486328125
1690840423982434300,2.159434326171875,-0.9816741943359375,0.0204620361328125,0.0021820068359375
1690840423992474000,2.16947412109375,-0.98138427734375,0.0203857421875,0.0016021728515625
1690840424002515200,2.17951513671875,-0.98162841796875,0.020782470703125,0.001861572265625
1690840424012555000,2.189554931640625,-0.9803466796875,0.021331787109375,0.001678466796875
1690840424022595000,2.199594970703125,-0.981048583984375,0.0212249755859375,0.0014495849609375
1690840424032636200,2.20963623046875,-0.981048583984375,0.020355224609375,0.00128173828125
1690840424042676200,2.21967626953125,-0.9810028076171875,0.021209716796875,0.00213623046875
1690840424052716300,2.22971630859375,-0.9815826416015625,0.020477294921875,0.0027008056640625
1690840424062756400,2.23975634765625,-0.981292724609375,0.020751953125,0.0023345947265625
1690840424072797200,2.249797119140625,-0.98101806640625,0.0206146240234375,0.0021820068359375
1690840424082837000,2.2598369140625,-0.9813385009765625,0.0206298828125,0.00323486328125
1690840424092908000,2.269907958984375,-0.98175048828125,0.021484375,0.0021514892578125
1690840424102948000,2.279947998046875,-0.9808807373046875,0.021331787109375,0.0013427734375
1690840424112988200,2.28998828125,-0.98101806640625,0.020965576171875,0.0009765625
1690840424123029200,2.300029296875,-0.9815673828125,0.020355224609375,0.002838134765625
1690840424133069300,2.3100693359375,-0.9815216064453125,0.0200653076171875,0.002471923828125
1690840424143109000,2.320109130859375,-0.981353759765625,0.0206756591796875,0.001739501953125
1690840424153149200,2.330149169921875,-0.9815826416015625,0.0216522216796875,0.0014495849609375
1690840424163190000,2.34018994140625,-0.9814453125,0.0205535888671875,0.001922607421875
1690840424173230000,2.35022998046875,-0.9817047119140625,0.0210723876953125,0.0021514892578125
1690840424183270100,2.360270263671875,-0.981781005859375,0.021148681640625,0.0019683837890625
1690840424193311200,2.370311279296875,-0.9815673828125,0.0214691162109375,0.0018310546875
1690840424203351300,2.380351318359375,-0.9815216064453125,0.021209716796875,0.0029754638671875
1690840424213391400,2.390391357421875,-0.9818572998046875,0.0204315185546875,0.00225830078125
1690840424223431200,2.40043115234375,-0.9806671142578125,0.0194854736328125,0.0019683837890625
1690840424233502200,2.410502197265625,-0.9817657470703125,0.0206298828125,0.00152587890625
1690840424243543000,2.42054296875,-0.9811859130859375,0.0215301513671875,0.001800537109375
1690840424253583000,2.4305830078125,-0.9813385009765625,0.021026611328125,0.001617431640625
1690840424263623200,2.440623046875,-0.9807281494140625,0.0203857421875,0.0019073486328125
1690840424273663200,2.450663330078125,-0.980987548828125,0.0202789306640625,0.00128173828125
1690840424283704300,2.460704345703125,-0.981353759765625,0.021026611328125,0.002593994140625
1690840424293744000,2.470744140625,-0.9820098876953125,0.02081298828125,0.0025634765625
1690840424303784200,2.4807841796875,-0.9813385009765625,0.0208587646484375,0.000946044921875
1690840424313824300,2.49082421875,-0.981597900390625,0.02093505859375,0.002227783203125
1690840424323865000,2.500864990234375,-0.9814910888671875,0.0206756591796875,0.001495361328125
1690840424333905200,2.5109052734375,-0.9813232421875,0.02142333984375,0.001495361328125
1690840424343945200,2.5209453125,-0.9817352294921875,0.0208892822265625,0.0013580322265625
1690840424353986300,2.530986328125,-0.9818115234375,0.0207061767578125,0.001800537109375
1690840424364026400,2.5410263671875,-0.9815216064453125,0.021270751953125,0.0013275146484375
1690840424374066200,2.551066162109375,-0.9818572998046875,0.0208892822265625,0.0022125244140625
1690840424384137200,2.56113720703125,-0.98193359375,0.021148681640625,0.0019378662109375
1690840424394177300,2.57117724609375,-0.982086181640625,0.02117919921875,0.0010833740234375
1690840424404218000,2.581218017578125,-0.9819183349609375,0.020904541015625,0.0016937255859375
1690840424414258200,2.591258056640625,-0.9815216064453125,0.0206451416015625,0.0027923583984375
1690840424424298200,2.60129833984375,-0.980926513671875,0.02105712890625,0.00238037109375
1690840424434338000,2.611338134765625,-0.9817962646484375,0.0208282470703125,0.00225830078125
1690840424444379100,2.621379150390625,-0.9823455810546875,0.020782470703125,0.0019378662109375
1690840424454419200,2.631419189453125,-0.9818572998046875,0.0216064453125,0.0025482177734375
1690840424464452900,2.641452880859375,-0.98193359375,0.02117919921875,0.00213623046875
1690840424474494000,2.651493896484375,-0.98193359375,0.0207977294921875,0.0021820068359375
1690840424484534000,2.661533935546875,-0.98211669921875,0.0211029052734375,0.00189208984375
1690840424494574000,2.671573974609375,-0.981201171875,0.0195770263671875,0.0019989013671875
1690840424504614100,2.6816142578125,-0.9821319580078125,0.0204315185546875,0.0015716552734375
1690840424514655200,2.6916552734375,-0.9826202392578125,0.0206756591796875,0.0015411376953125
1690840424524725000,2.70172509765625,-0.9814605712890625,0.0213623046875,0.0020904541015625
1690840424534766000,2.71176611328125,-0.9815521240234375,0.0210723876953125,0.0024566650390625
1690840424544806000,2.721805908203125,-0.981719970703125,0.020751953125,0.00177001953125
1690840424554846000,2.731845947265625,-0.981109619140625,0.020721435546875,0.002197265625
1690840424564887000,2.741886962890625,-0.9824371337890625,0.02093505859375,0.0023956298828125
1690840424574927000,2.751927001953125,-0.9821624755859375,0.0211944580078125,0.0018463134765625
1690840424584967200,2.76196728515625,-0.981048583984375,0.021087646484375,0.0017242431640625
1690840424595007200,2.77200732421875,-0.981231689453125,0.0216827392578125,0.0013275146484375
1690840424605048000,2.782048095703125,-0.981658935546875,0.020782470703125,0.001800537109375
1690840424615087900,2.792087890625,-0.981689453125,0.0203094482421875,0.002105712890625
1690840424625128000,2.8021279296875,-0.9816741943359375,0.0204315185546875,0.00213623046875
1690840424635169000,2.8121689453125,-0.9816436767578125,0.020294189453125,0.0025177001953125
1690840424645209000,2.822208984375,-0.9813690185546875,0.020660400390625,0.0015411376953125
1690840424655249200,2.832249267578125,-0.9810638427734375,0.0201873779296875,0.0013580322265625
1690840424665320200,2.8423203125,-0.98089599609375,0.020965576171875,0.0014801025390625
1690840424675360000,2.852360107421875,-0.981842041015625,0.0220489501953125,0.001434326171875
1690840424685401000,2.862401123046875,-0.9810638427734375,0.0210113525390625,0.0024261474609375
1690840424695441000,2.87244091796875,-0.9813385009765625,0.02130126953125,0.000885009765625
1690840424705481000,2.88248095703125,-0.9821624755859375,0.0213775634765625,0.0022125244140625
1690840424715521000,2.89252099609375,-0.9815826416015625,0.0206451416015625,0.001739501953125
1690840424725562000,2.90256201171875,-0.9823455810546875,0.0213470458984375,0.001617431640625
1690840424735602200,2.912602294921875,-0.9815521240234375,0.0202484130859375,0.0021820068359375
1690840424745642200,2.922642333984375,-0.9815521240234375,0.0206451416015625,0.0021209716796875
1690840424755682000,2.93268212890625,-0.9822540283203125,0.021514892578125,0.001708984375
1690840424765723000,2.942722900390625,-0.981536865234375,0.0205078125,0.001617431640625
1690840424775763000,2.952762939453125,-0.9820404052734375,0.0208892822265625,0.002166748046875
1690840424785803000,2.962802978515625,-0.981292724609375,0.02093505859375,0.002166748046875
1690840424795844000,2.972843994140625,-0.9813385009765625,0.021087646484375,0.002166748046875
1690840424805884200,2.98288427734375,-0.9819183349609375,0.021026611328125,0.0019989013671875
1690840424815955200,2.992955078125,-0.9819488525390625,0.0211334228515625,0.0016937255859375
1690840424825995000,3.0029951171875,-0.9818878173828125,0.021514892578125,0.0018463134765625
1690840424836035000,3.01303515625,-0.9818878173828125,0.021209716796875,0.0018157958984375
1690840424846076000,3.023075927734375,-0.981109619140625,0.02069091796875,0.0016021728515625
1690840424856116000,3.033115966796875,-0.98089599609375,0.0207061767578125,0.0015411376953125
1690840424866156000,3.043156005859375,-0.981231689453125,0.0217132568359375,0.001190185546875
1690840424876196000,3.053196044921875,-0.981475830078125,0.021392822265625,0.001922607421875
1690840424886237200,3.0632373046875,-0.98175048828125,0.020233154296875,0.00225830078125
1690840424896277200,3.07327734375,-0.9819183349609375,0.0209503173828125,0.002410888671875
1690840424906317000,3.083317138671875,-0.9819793701171875,0.0205078125,0.0018463134765625
1690840424916358000,3.09335791015625,-0.9818115234375,0.0212249755859375,0.00201416015625
1690840424926398000,3.10339794921875,-0.9828643798828125,0.021026611328125,0.00164794921875
1690840424936438000,3.11343798828125,-0.981903076171875,0.02032470703125,0.0011444091796875
1690840424946478000,3.12347802734375,-0.9816436767578125,0.02166748046875,0.0012054443359375
1690840424956549000,3.133549072265625,-0.980926513671875,0.0206756591796875,0.0015716552734375
1690840424966589000,3.1435888671875,-0.98077392578125,0.020751953125,0.001861572265625
1690840424976630000,3.153630126953125,-0.98126220703125,0.0208587646484375,0.0019073486328125
1690840424986670000,3.163670166015625,-0.9815826416015625,0.0207061767578125,0.0020294189453125
1690840424996710100,3.173710205078125,-0.98065185546875,0.0204925537109375,0.0020599365234375
1690840425006751000,3.1837509765625,-0.9814605712890625,0.0209197998046875,0.0017242431640625
1690840425016791000,3.193791015625,-0.9816436767578125,0.020172119140625,0.0035247802734375
1690840425026831000,3.2038310546875,-0.9818572998046875,0.0201873779296875,0.0027008056640625
1690840425036871000,3.213870849609375,-0.9811248779296875,0.0200347900390625,0.002166748046875
1690840425046912000,3.223912109375,-0.98101806640625,0.0207366943359375,0.0020294189453125
1690840425056952000,3.2339521484375,-0.9805145263671875,0.0213470458984375,0.0021514892578125
1690840425066992000,3.2439921875,-0.981292724609375,0.020751953125,0.00213623046875
1690840425077033000,3.254032958984375,-0.9817962646484375,0.0209197998046875,0.002044677734375
1690840425087073000,3.264072998046875,-0.982391357421875,0.020660400390625,0.0017242431640625
1690840425097144000,3.27414404296875,-0.9812774658203125,0.020904541015625,0.00213623046875
1690840425107184000,3.28418408203125,-0.9818878173828125,0.020843505859375,0.0018768310546875
1690840425117224000,3.294223876953125,-0.9817962646484375,0.020782470703125,0.0013580322265625
1690840425127265000,3.30426513671875,-0.98114013671875,0.020660400390625,0.00213623046875
1690840425137305000,3.31430517578125,-0.981719970703125,0.021331787109375,0.00286865234375
1690840425147345200,3.32434521484375,-0.9810333251953125,0.021270751953125,0.002197265625
1690840425157385200,3.33438525390625,-0.980377197265625,0.021209716796875,0.002655029296875
1690840425167426000,3.344426025390625,-0.981048583984375,0.020721435546875,0.0020904541015625
1690840425177466000,3.354466064453125,-0.9806060791015625,0.022003173828125,0.0013580322265625
1690840425187506000,3.364505859375,-0.98138427734375,0.02093505859375,0.0008697509765625
1690840425197547000,3.374547119140625,-0.9821624755859375,0.0207672119140625,0.001708984375
1690840425207587000,3.384587158203125,-0.98126220703125,0.0210723876953125,0.0015869140625
1690840425217627100,3.394627197265625,-0.981414794921875,0.0205230712890625,0.001251220703125
1690840425227667200,3.404667236328125,-0.9820556640625,0.021148681640625,0.0015106201171875
1690840425237738200,3.41473828125,-0.9824676513671875,0.020721435546875,0.00177001953125
1690840425247778300,3.4247783203125,-0.9808197021484375,0.02081298828125,0.0025634765625
1690840425257819100,3.434819091796875,-0.981658935546875,0.0213775634765625,0.0020904541015625
1690840425267859000,3.44485888671875,-0.9809417724609375,0.0208587646484375,0.001922607421875
1690840425277899000,3.45489892578125,-0.980682373046875,0.0203704833984375,0.0025482177734375
1690840425287940000,3.464940185546875,-0.9821929931640625,0.0207061767578125,0.0027923583984375
1690840425297980200,3.474980224609375,-0.9820404052734375,0.02142333984375,0.0020294189453125
1690840425308020200,3.485020263671875,-0.9823150634765625,0.020660400390625,0.0015106201171875
1690840425318060000,3.49506005859375,-0.9811248779296875,0.0204010009765625,0.0018157958984375
1690840425328101000,3.50510107421875,-0.9811859130859375,0.021392822265625,0.0020599365234375
1690840425338141000,3.515140869140625,-0.9819488525390625,0.0204925537109375,0.001739501953125
1690840425348181000,3.525180908203125,-0.9812469482421875,0.0215911865234375,0.0018768310546875
1690840425358222000,3.53522216796875,-0.98114013671875,0.0218963623046875,0.0018310546875
1690840425368262100,3.54526220703125,-0.9815673828125,0.0207977294921875,0.0023345947265625
1690840425378302200,3.55530224609375,-0.9810943603515625,0.0207977294921875,0.00225830078125
1690840425388373200,3.565373291015625,-0.98114013671875,0.020904541015625,0.0015716552734375
1690840425398413000,3.5754130859375,-0.9824066162109375,0.02081298828125,0.00189208984375
1690840425408452900,3.585452880859375,-0.9819183349609375,0.020843505859375,0.0021514892578125
1690840425418494000,3.595493896484375,-0.981903076171875,0.0205230712890625,0.0022125244140625
1690840425428534000,3.605533935546875,-0.981170654296875,0.0206146240234375,0.00189208984375
1690840425438574000,3.615573974609375,-0.981964111328125,0.020904541015625,0.0021820068359375
1690840425448615200,3.625615234375,-0.9823150634765625,0.02081298828125,0.002960205078125
1690840425458630100,3.635630126953125,-0.982269287109375,0.02032470703125,0.00225830078125
1690840425468670200,3.645670166015625,-0.9828338623046875,0.0208587646484375,0.00140380859375
1690840425478710300,3.655710205078125,-0.98150634765625,0.0208892822265625,0.002227783203125
1690840425488751000,3.665751220703125,-0.9819183349609375,0.02093505859375,0.0028228759765625
1690840425498791200,3.675791259765625,-0.981658935546875,0.02093505859375,0.0023956298828125
1690840425508831000,3.6858310546875,-0.9818878173828125,0.0207672119140625,0.0022430419921875
1690840425518872000,3.6958720703125,-0.9817352294921875,0.0207061767578125,0.0022735595703125
1690840425528942000,3.705942138671875,-0.981689453125,0.0208892822265625,0.0020904541015625
1690840425538983200,3.715983154296875,-0.9814910888671875,0.02142333984375,0.0021514892578125
1690840425549023200,3.726023193359375,-0.9819793701171875,0.0207977294921875,0.002166748046875
1690840425559063300,3.736063232421875,-0.981414794921875,0.02093505859375,0.00164794921875
1690840425569104100,3.746104248046875,-0.9818878173828125,0.0205230712890625,0.0018463134765625
1690840425579144000,3.75614404296875,-0.9814605712890625,0.0205841064453125,0.0019073486328125
1690840425589184000,3.76618408203125,-0.9811248779296875,0.0212860107421875,0.002105712890625
1690840425599224000,3.77622412109375,-0.9811859130859375,0.02099609375,0.001068115234375
1690840425609265200,3.78626513671875,-0.981109619140625,0.0198974609375,0.0018768310546875
1690840425619305200,3.79630517578125,-0.9810943603515625,0.02069091796875,0.0017242431640625
1690840425629345300,3.80634521484375,-0.981781005859375,0.020904541015625,0.0012969970703125
1690840425639386000,3.81638623046875,-0.9820709228515625,0.020233154296875,0.0014801025390625
1690840425649426200,3.82642626953125,-0.9808349609375,0.020233154296875,0.001617431640625
1690840425659466000,3.836466064453125,-0.9809417724609375,0.021026611328125,0.00152587890625
1690840425669537000,3.846537109375,-0.9819488525390625,0.0211639404296875,0.0016021728515625
1690840425679577000,3.8565771484375,-0.98126220703125,0.020965576171875,0.002105712890625
1690840425689617200,3.8666171875,-0.9809722900390625,0.0207672119140625,0.0023651123046875
1690840425699658200,3.876658203125,-0.98211669921875,0.0203857421875,0.0029144287109375
1690840425709698300,3.8866982421875,-0.981353759765625,0.0207061767578125,0.0019683837890625
1690840425719738000,3.896738037109375,-0.980865478515625,0.0204620361328125,0.001708984375
1690840425729779000,3.906779052734375,-0.981658935546875,0.0211029052734375,0.0022430419921875
1690840425739819000,3.916819091796875,-0.9808502197265625,0.0211029052734375,0.0022430419921875
1690840425749859000,3.926859130859375,-0.9808349609375,0.0206146240234375,0.0027618408203125
1690840425759899100,3.936899169921875,-0.981689453125,0.021026611328125,0.002471923828125
1690840425769940200,3.946940185546875,-0.980621337890625,0.02020263671875,0.002471923828125
1690840425779980300,3.956980224609375,-0.98138427734375,0.0216827392578125,0.0016326904296875
1690840425790020400,3.967020263671875,-0.9825897216796875,0.0215606689453125,0.001983642578125
1690840425800061200,3.977061279296875,-0.9823150634765625,0.0201568603515625,0.0023193359375
1690840425810101000,3.98710107421875,-0.981231689453125,0.0210418701171875,0.0023345947265625
1690840425820172000,3.997172119140625,-0.981231689453125,0.021331787109375,0.0025634765625
1690840425830212000,4.007212158203125,-0.9819793701171875,0.0206451416015625,0.002777099609375
1690840425840252200,4.017252197265625,-0.9816131591796875,0.020721435546875,0.00189208984375
1690840425850293200,4.027293212890625,-0.9812774658203125,0.0204620361328125,0.001129150390625
1690840425860333300,4.037333251953125,-0.981903076171875,0.0208282470703125,0.0018310546875
1690840425870373000,4.047373046875,-0.9809722900390625,0.021026611328125,0.001556396484375
1690840425880413000,4.057412841796875,-0.9812164306640625,0.0206451416015625,0.001739501953125
1690840425890454000,4.0674541015625,-0.9821624755859375,0.02032470703125,0.0022735595703125
1690840425900494000,4.077494140625,-0.9825897216796875,0.0210113525390625,0.001983642578125
1690840425910534100,4.0875341796875,-0.98138427734375,0.0206146240234375,0.002197265625
1690840425920574200,4.09757421875,-0.9809112548828125,0.021026611328125,0.00274658203125
1690840425930615300,4.107615234375,-0.9821624755859375,0.0211639404296875,0.001922607421875
1690840425940655000,4.117655029296875,-0.9813079833984375,0.0215606689453125,0.00164794921875
1690840425950695000,4.12769482421875,-0.981292724609375,0.0215301513671875,0.0019989013671875
1690840425960766000,4.137765869140625,-0.98114013671875,0.0212554931640625,0.001678466796875
1690840425970806000,4.147805908203125,-0.981414794921875,0.0208282470703125,0.0026092529296875
1690840425980847000,4.15784716796875,-0.9815673828125,0.0210723876953125,0.001556396484375
1690840425990887200,4.16788720703125,-0.9812774658203125,0.021759033203125,0.0018463134765625
1690840426000927200,4.17792724609375,-0.9820098876953125,0.02142333984375,0.00201416015625
1690840426010968300,4.18796826171875,-0.981964111328125,0.0204925537109375,0.00128173828125
1690840426021008100,4.198008056640625,-0.981353759765625,0.0213775634765625,0.0019989013671875
1690840426031048000,4.2080478515625,-0.9820709228515625,0.021484375,0.001861572265625
1690840426041088000,4.218087890625,-0.981353759765625,0.0205078125,0.001739501953125
1690840426051129000,4.228129150390625,-0.98046875,0.020904541015625,0.0022125244140625
1690840426061169200,4.238169189453125,-0.981597900390625,0.020751953125,0.0019073486328125
1690840426071209200,4.248209228515625,-0.9826507568359375,0.020416259765625,0.001251220703125
1690840426081250300,4.258250244140625,-0.9820098876953125,0.01983642578125,0.00238037109375
1690840426091290000,4.2682900390625,-0.9806976318359375,0.0209808349609375,0.002227783203125
1690840426101361200,4.278361083984375,-0.9812774658203125,0.020904541015625,0.0025177001953125
1690840426111401000,4.28840087890625,-0.9823455810546875,0.0201873779296875,0.0033721923828125
1690840426121441000,4.29844091796875,-0.9819793701171875,0.0201263427734375,0.0027008056640625
1690840426131481000,4.308481201171875,-0.98150634765625,0.020355224609375,0.001434326171875
1690840426141522200,4.318522216796875,-0.98138427734375,0.0211334228515625,0.001983642578125
1690840426151562200,4.328562255859375,-0.981353759765625,0.0207672119140625,0.001800537109375
1690840426161602000,4.33860205078125,-0.9824371337890625,0.020538330078125,0.0022125244140625
1690840426171643100,4.34864306640625,-0.9817047119140625,0.02142333984375,0.001922607421875
1690840426181683000,4.358682861328125,-0.982391357421875,0.0207672119140625,0.001983642578125
1690840426191723000,4.368722900390625,-0.98193359375,0.019866943359375,0.0020904541015625
1690840426201763000,4.37876318359375,-0.981353759765625,0.019927978515625,0.0013580322265625
1690840426211804200,4.38880419921875,-0.982086181640625,0.02001953125,0.0012969970703125
1690840426221844200,4.39884423828125,-0.9818115234375,0.021514892578125,0.0023193359375
1690840426231884000,4.408884033203125,-0.980865478515625,0.0211334228515625,0.00238037109375
1690840426241925000,4.418925048828125,-0.98150634765625,0.0217132568359375,0.0016326904296875
1690840426251995100,4.4289951171875,-0.9813232421875,0.0213775634765625,0.0019683837890625
1690840426262036000,4.439035888671875,-0.98126220703125,0.0204315185546875,0.0018157958984375
1690840426272076000,4.449075927734375,-0.9827880859375,0.0207672119140625,0.001678466796875
1690840426282116000,4.4591162109375,-0.9815826416015625,0.0206298828125,0.0017547607421875
1690840426292157200,4.4691572265625,-0.9816436767578125,0.021392822265625,0.0016632080078125
1690840426302197200,4.479197265625,-0.9813995361328125,0.0204925537109375,0.002410888671875
1690840426312237000,4.489237060546875,-0.98193359375,0.0205535888671875,0.0018310546875
1690840426322277000,4.499277099609375,-0.9822998046875,0.0207366943359375,0.0018463134765625
1690840426332318000,4.50931787109375,-0.981231689453125,0.019927978515625,0.001983642578125
1690840426342358000,4.51935791015625,-0.98199462890625,0.0203704833984375,0.002166748046875
1690840426352398000,4.529398193359375,-0.9814605712890625,0.0213165283203125,0.00152587890625
1690840426362439200,4.539439208984375,-0.9821014404296875,0.0206298828125,0.0017547607421875
1690840426372479200,4.549479248046875,-0.980987548828125,0.020599365234375,0.00213623046875
1690840426382519000,4.55951904296875,-0.9802703857421875,0.0207061767578125,0.0028076171875
1690840426392590000,4.569590087890625,-0.9807586669921875,0.02081298828125,0.0023345947265625
1690840426402630100,4.579630126953125,-0.981353759765625,0.0205230712890625,0.0024566650390625
1690840426412670200,4.589670166015625,-0.981597900390625,0.0205841064453125,0.002288818359375
1690840426422711000,4.5997109375,-0.981719970703125,0.0212554931640625,0.001708984375
1690840426432751000,4.609751220703125,-0.9813079833984375,0.0212860107421875,0.00128173828125
1690840426442791200,4.619791259765625,-0.98126220703125,0.021240234375,0.00244140625
1690840426452832300,4.629832275390625,-0.98089599609375,0.020751953125,0.002044677734375
1690840426462876700,4.639876708984375,-0.9809112548828125,0.0205535888671875,0.002105712890625
1690840426472916500,4.64991650390625,-0.98101806640625,0.0211944580078125,0.002532958984375
1690840426482956500,4.65995654296875,-0.9815826416015625,0.020904541015625,0.00189208984375
1690840426492997600,4.66999755859375,-0.98193359375,0.021026611328125,0.0015869140625
1690840426503037700,4.68003759765625,-0.981353759765625,0.0216522216796875,0.002288818359375
1690840426513077800,4.690077880859375,-0.9805145263671875,0.0209503173828125,0.002044677734375
1690840426523118800,4.700118896484375,-0.9812774658203125,0.020782470703125,0.0015411376953125
1690840426533188600,4.710188720703125,-0.9822998046875,0.020782470703125,0.001617431640625
1690840426543229700,4.720229736328125,-0.9812774658203125,0.02044677734375,0.0020751953125
1690840426553269500,4.73026953125,-0.981170654296875,0.020782470703125,0.002349853515625
1690840426563309600,4.7403095703125,-0.98150634765625,0.02105712890625,0.0022125244140625
1690840426573349600,4.750349609375,-0.9820709228515625,0.0208740234375,0.0014190673828125
1690840426583390700,4.760390625,-0.9821929931640625,0.021240234375,0.002716064453125
1690840426593430800,4.7704306640625,-0.9818572998046875,0.0205078125,0.0015411376953125
1690840426603470800,4.780470947265625,-0.98223876953125,0.0206756591796875,0.00189208984375
1690840426613511700,4.79051171875,-0.9813232421875,0.0212860107421875,0.002166748046875
1690840426623551500,4.800551513671875,-0.9814910888671875,0.02044677734375,0.001617431640625
1690840426633591600,4.810591552734375,-0.98150634765625,0.0210113525390625,0.002288818359375
1690840426643631600,4.820631591796875,-0.98046875,0.02044677734375,0.0018768310546875
1690840426653672700,4.830672607421875,-0.980865478515625,0.0208892822265625,0.001251220703125
1690840426663712800,4.840712646484375,-0.981658935546875,0.02069091796875,0.001953125
1690840426673752800,4.8507529296875,-0.9814453125,0.0207061767578125,0.0018463134765625
1690840426683823600,4.86082373046875,-0.9808502197265625,0.0209808349609375,0.0021514892578125
1690840426693863700,4.87086376953125,-0.9814453125,0.0208282470703125,0.0023651123046875
1690840426703904500,4.880904541015625,-0.9814910888671875,0.0201568603515625,0.0013275146484375
1690840426713944600,4.890944580078125,-0.98162841796875,0.0206451416015625,0.0018310546875
1690840426723984600,4.900984619140625,-0.9817962646484375,0.0213775634765625,0.0029296875
1690840426734025700,4.911025634765625,-0.9820556640625,0.020965576171875,0.002166748046875
1690840426744065800,4.921065673828125,-0.982086181640625,0.0202484130859375,0.0023193359375
1690840426754105900,4.93110595703125,-0.981536865234375,0.020782470703125,0.0016632080078125
1690840426764145700,4.941145751953125,-0.9820404052734375,0.0211181640625,0.002685546875
1690840426774186500,4.9511865234375,-0.981719970703125,0.02117919921875,0.0024261474609375
1690840426784226600,4.9612265625,-0.981658935546875,0.020355224609375,0.0018463134765625
1690840426794266600,4.9712666015625,-0.964569091796875,0.0130462646484375,0.000274658203125
1690840426804307700,4.9813076171875,-0.9731903076171875,0.00799560546875,-0.0423431396484375
1690840426814347800,4.99134765625,-1.0288848876953125,0.00567626953125,0.0671844482421875
1690840426824418800,5.001418701171875,-0.9655303955078125,0.04425048828125,0.0047454833984375
1690840426834458600,5.011458740234375,-0.966339111328125,0.0350494384765625,-0.0060577392578125
1690840426844498700,5.021498779296875,-0.9959564208984375,0.0211639404296875,0.01275634765625
1690840426854538800,5.031538818359375,-0.971405029296875,0.02716064453125,-0.00048828125
1690840426864579600,5.04157958984375,-0.9863128662109375,0.0248260498046875,-0.004058837890625
1690840426874619600,5.05161962890625,-0.9706268310546875,0.02496337890625,-0.00677490234375
1690840426884659700,5.06165966796875,-0.9846649169921875,0.026580810546875,-0.00433349609375
1690840426894700800,5.07170068359375,-0.975006103515625,0.02606201171875,-0.00079345703125
1690840426904740900,5.081740966796875,-0.9829559326171875,0.024871826171875,0.0043792724609375
1690840426914780700,5.09178076171875,-0.9808197021484375,0.023040771484375,0.007110595703125
1690840426924820700,5.10182080078125,-0.9849090576171875,0.022064208984375,0.0089874267578125
1690840426934861600,5.111861572265625,-0.982391357421875,0.02117919921875,0.00750732421875
1690840426944901600,5.121901611328125,-0.9821929931640625,0.0201263427734375,0.0049285888671875
1690840426954941700,5.131941650390625,-0.9849700927734375,0.0199737548828125,0.0014495849609375
1690840426965012700,5.1420126953125,-0.978607177734375,0.0196380615234375,-0.00146484375
1690840426975052500,5.152052490234375,-0.980438232421875,0.0199737548828125,-0.0025177001953125
1690840426985093600,5.16209375,-0.982879638671875,0.0189056396484375,-0.0015411376953125
1690840426995133700,5.1721337890625,-0.981109619140625,0.0192718505859375,-0.0001373291015625
1690840427005173800,5.182173828125,-0.9813232421875,0.019805908203125,0.0023956298828125
1690840427015213800,5.1922138671875,-0.9818115234375,0.020050048828125,0.0051422119140625
1690840427025254700,5.202254638671875,-0.983245849609375,0.02166748046875,0.0055084228515625
1690840427035294700,5.212294677734375,-0.983001708984375,0.023345947265625,0.0046234130859375
1690840427045334500,5.22233447265625,-0.9805908203125,0.0236663818359375,0.003875732421875
1690840427055376000,5.2323759765625,-0.981719970703125,0.0244598388671875,0.0022125244140625
1690840427065415700,5.242415771484375,-0.9799346923828125,0.024566650390625,0.000518798828125
1690840427075455700,5.252455810546875,-0.977569580078125,0.0241546630859375,-0.0008087158203125
1690840427085495800,5.262495849609375,-0.981964111328125,0.0240936279296875,0.0000152587890625
1690840427095536600,5.27253662109375,-0.980072021484375,0.023712158203125,0.0011749267578125
1690840427105576700,5.28257666015625,-0.981048583984375,0.0232391357421875,0.00238037109375
1690840427115647700,5.292647705078125,-0.9830169677734375,0.0228424072265625,0.0042266845703125
1690840427125687600,5.3026875,-0.9815521240234375,0.0225982666015625,0.0043182373046875
1690840427135727600,5.3127275390625,-0.98223876953125,0.022186279296875,0.0040130615234375
1690840427145768700,5.322768798828125,-0.980987548828125,0.021759033203125,0.002410888671875
1690840427155808800,5.332808837890625,-0.9807281494140625,0.021514892578125,0.00115966796875
1690840427165848800,5.342848876953125,-0.981689453125,0.0211944580078125,0.000396728515625
1690840427175889700,5.3528896484375,-0.9815521240234375,0.019927978515625,0.0004119873046875
1690840427185929700,5.3629296875,-0.982666015625,0.0205535888671875,0.0014801025390625
1690840427195969500,5.372969482421875,-0.9820709228515625,0.0202789306640625,0.002227783203125
1690840427206009600,5.383009521484375,-0.981475830078125,0.020843505859375,0.002410888671875
1690840427216050700,5.39305078125,-0.9828948974609375,0.021453857421875,0.003387451171875
1690840427226090800,5.4030908203125,-0.98114013671875,0.022125244140625,0.00341796875
1690840427236130800,5.413130859375,-0.9814605712890625,0.0218048095703125,0.0029296875
1690840427246171600,5.423171630859375,-0.9821624755859375,0.0220947265625,0.002685546875
1690840427256242000,5.433241943359375,-0.9808807373046875,0.0229644775390625,0.0019378662109375
1690840427266282800,5.44328271484375,-0.980438232421875,0.0229949951171875,0.00128173828125
1690840427276322600,5.453322509765625,-0.9808349609375,0.023681640625,0.00164794921875
1690840427286362600,5.463362548828125,-0.9814605712890625,0.0231781005859375,0.0019989013671875
1690840427296402700,5.473402587890625,-0.9814910888671875,0.0229949951171875,0.0030517578125
1690840427306443800,5.48344384765625,-0.9812164306640625,0.02313232421875,0.003265380859375
1690840427316483800,5.49348388671875,-0.981903076171875,0.0230712890625,0.0025787353515625
1690840427326524000,5.50352392578125,-0.98175048828125,0.022613525390625,0.0029296875
1690840427336564700,5.513564697265625,-0.981719970703125,0.0219573974609375,0.002197265625
1690840427346604500,5.5236044921875,-0.9820709228515625,0.0211944580078125,0.00262451171875
1690840427356644600,5.53364453125,-0.982025146484375,0.0217132568359375,0.0013427734375
1690840427366684700,5.5436845703125,-0.9807586669921875,0.0209197998046875,0.0018157958984375
1690840427376725800,5.553725830078125,-0.9819793701171875,0.0205078125,0.0016632080078125
1690840427386765800,5.563765869140625,-0.981903076171875,0.0209808349609375,0.002777099609375
1690840427396836900,5.5738369140625,-0.9826507568359375,0.021270751953125,0.0035400390625
1690840427406877000,5.583876953125,-0.9826507568359375,0.0212249755859375,0.002655029296875
1690840427416916700,5.593916748046875,-0.9812469482421875,0.022125244140625,0.002349853515625
1690840427426957600,5.60395751953125,-0.982177734375,0.0224761962890625,0.002471923828125
1690840427436997600,5.61399755859375,-0.9812469482421875,0.02294921875,0.002593994140625
1690840427447037700,5.62403759765625,-0.980804443359375,0.0225830078125,0.002044677734375
1690840427457078800,5.634078857421875,-0.98187255859375,0.0232391357421875,0.0021209716796875
1690840427467109000,5.644109130859375,-0.981048583984375,0.0230865478515625,0.0028533935546875
1690840427477149200,5.654149169921875,-0.98052978515625,0.022705078125,0.0022430419921875
1690840427487189200,5.664189208984375,-0.9816741943359375,0.02252197265625,0.0019378662109375
1690840427497230300,5.674230224609375,-0.9816436767578125,0.02215576171875,0.0021820068359375
1690840427507270400,5.6842705078125,-0.98077392578125,0.0220947265625,0.0020904541015625
1690840427517310500,5.694310546875,-0.9821014404296875,0.022186279296875,0.0027008056640625
1690840427527350500,5.7043505859375,-0.982025146484375,0.022308349609375,0.0027618408203125
1690840427537421300,5.71442138671875,-0.981475830078125,0.0219879150390625,0.00274658203125
1690840427547462100,5.724462158203125,-0.980987548828125,0.0211334228515625,0.0014801025390625
1690840427557502200,5.734502197265625,-0.9814453125,0.020721435546875,0.002197265625
1690840427567542300,5.744542236328125,-0.9825439453125,0.0208282470703125,0.002105712890625
1690840427577582300,5.754582275390625,-0.9818878173828125,0.0214691162109375,0.0025787353515625
1690840427587623400,5.76462353515625,-0.9820404052734375,0.0219879150390625,0.0020294189453125
1690840427597663500,5.77466357421875,-0.9821319580078125,0.0228271484375,0.0020904541015625
1690840427607703300,5.784703369140625,-0.9813995361328125,0.0222930908203125,0.00360107421875
1690840427617744100,5.794744140625,-0.9820098876953125,0.0214080810546875,0.0028533935546875
1690840427627784200,5.8047841796875,-0.9821624755859375,0.021240234375,0.002227783203125
1690840427637824300,5.81482421875,-0.981353759765625,0.0220947265625,0.002197265625
1690840427647864300,5.8248642578125,-0.9814910888671875,0.0222625732421875,0.0022430419921875
1690840427657905400,5.834905517578125,-0.9811553955078125,0.0229339599609375,0.002288818359375
1690840427667945500,5.844945556640625,-0.980926513671875,0.02313232421875,0.001129150390625
1690840427677985500,5.854985595703125,-0.980712890625,0.0229644775390625,0.0018768310546875
1690840427688056300,5.865056396484375,-0.9817047119140625,0.0218505859375,0.0029144287109375
1690840427698096400,5.875096435546875,-0.98272705078125,0.0221405029296875,0.002899169921875
1690840427708137200,5.88513720703125,-0.981475830078125,0.0220947265625,0.0025787353515625
1690840427718177300,5.89517724609375,-0.981964111328125,0.021636962890625,0.0025634765625
1690840427728217300,5.90521728515625,-0.9813995361328125,0.022369384765625,0.0024261474609375
1690840427738257400,5.91525732421875,-0.9807891845703125,0.0214080810546875,0.0030059814453125
1690840427748298500,5.925298583984375,-0.982147216796875,0.0219268798828125,0.0018463134765625
1690840427758338300,5.93533837890625,-0.9815521240234375,0.022186279296875,0.0029296875
1690840427768378400,5.94537841796875,-0.980987548828125,0.0218505859375,0.0023193359375
1690840427778419200,5.955419189453125,-0.980712890625,0.0218048095703125,0.0023345947265625
1690840427788459300,5.965459228515625,-0.9807281494140625,0.0227813720703125,0.0026397705078125
1690840427798499300,5.975499267578125,-0.984039306640625,0.02178955078125,0.002685546875
1690840427808539400,5.985539306640625,-0.9789276123046875,0.0221099853515625,0.002716064453125
1690840427818580500,5.99558056640625,-0.9839019775390625,0.022064208984375,0.0019378662109375
1690840427828651500,6.005651611328125,-0.9804534912109375,0.0221405029296875,0.0018463134765625
1690840427838691300,6.01569140625,-0.9832916259765625,0.0223846435546875,0.00238037109375
1690840427848731400,6.0257314453125,-0.980682373046875,0.022216796875,0.0020599365234375
1690840427858771200,6.035771240234375,-0.98223876953125,0.0231170654296875,0.00238037109375
1690840427868812300,6.045812255859375,-0.9821624755859375,0.0226593017578125,0.0029144287109375
1690840427878852400,6.055852294921875,-0.9819183349609375,0.0220794677734375,0.003875732421875
1690840427888892400,6.065892333984375,-0.98114013671875,0.022796630859375,0.00341796875
1690840427898933500,6.07593359375,-0.9812774658203125,0.022796630859375,0.0029296875
1690840427908973300,6.085973388671875,-0.9818878173828125,0.0228118896484375,0.0028839111328125
1690840427919013400,6.096013427734375,-0.9815826416015625,0.0223388671875,0.002044677734375
1690840427929053200,6.10605322265625,-0.98211669921875,0.0232391357421875,0.0019683837890625
1690840427939094300,6.11609423828125,-0.9808349609375,0.0225372314453125,0.0030975341796875
1690840427949134300,6.12613427734375,-0.981658935546875,0.0220794677734375,0.0014801025390625
1690840427959174400,6.13617431640625,-0.98187255859375,0.0221710205078125,0.001861572265625
1690840427969245400,6.146245361328125,-0.9819183349609375,0.021575927734375,0.0025787353515625
1690840427979285200,6.15628515625,-0.9814910888671875,0.02154541015625,0.00274658203125
1690840427989326300,6.166326416015625,-0.9809722900390625,0.021697998046875,0.0028533935546875
1690840427999366400,6.176366455078125,-0.9806671142578125,0.0217437744140625,0.002593994140625
1690840428009406200,6.18640625,-0.9817962646484375,0.0208740234375,0.0023345947265625
1690840428019446300,6.1964462890625,-0.982391357421875,0.0218658447265625,0.0023040771484375
1690840428029487400,6.2064873046875,-0.98236083984375,0.021820068359375,0.001434326171875
1690840428039527400,6.21652734375,-0.9825286865234375,0.0220184326171875,0.0018768310546875
1690840428049567200,6.226567138671875,-0.9812164306640625,0.0224456787109375,0.0025482177734375
1690840428059608300,6.2366083984375,-0.98199462890625,0.0231781005859375,0.0012359619140625
1690840428069648400,6.2466484375,-0.981689453125,0.0225067138671875,0.0029144287109375
1690840428079688200,6.256688232421875,-0.98114013671875,0.022552490234375,0.0023956298828125
1690840428089728300,6.266728271484375,-0.9821319580078125,0.02294921875,0.001922607421875
1690840428099769300,6.276769287109375,-0.981536865234375,0.02197265625,0.002532958984375
1690840428109809400,6.286809326171875,-0.9818115234375,0.0226287841796875,0.00299072265625
1690840428119880400,6.29688037109375,-0.9813995361328125,0.0224609375,0.002685546875
1690840428129920300,6.306920166015625,-0.981170654296875,0.0227813720703125,0.002044677734375
1690840428139960300,6.316960205078125,-0.982208251953125,0.0219573974609375,0.0024261474609375
1690840428150001400,6.32700146484375,-0.98095703125,0.0218505859375,0.002410888671875
1690840428160041200,6.337041259765625,-0.9808197021484375,0.0220794677734375,0.00250244140625
1690840428170081300,6.347081298828125,-0.9818878173828125,0.021575927734375,0.003082275390625
1690840428180121300,6.357121337890625,-0.9814910888671875,0.022491455078125,0.00299072265625
1690840428190162400,6.367162353515625,-0.9810638427734375,0.022979736328125,0.002105712890625
1690840428200202200,6.3772021484375,-0.9821624755859375,0.0229034423828125,0.0021209716796875
1690840428210242300,6.3872421875,-0.98126220703125,0.0220489501953125,0.0029449462890625
1690840428220283400,6.397283447265625,-0.98089599609375,0.022430419921875,0.0019683837890625
1690840428230323200,6.4073232421875,-0.9801483154296875,0.0216064453125,0.0021514892578125
1690840428240363300,6.41736328125,-0.9810791015625,0.022796630859375,0.002593994140625
1690840428250403300,6.4274033203125,-0.9813690185546875,0.0222015380859375,0.0013427734375
1690840428260474000,6.43747412109375,-0.9812774658203125,0.02276611328125,0.002349853515625
1690840428270515200,6.44751513671875,-0.9819793701171875,0.0222015380859375,0.00213623046875
1690840428280555300,6.45755517578125,-0.98162841796875,0.0216827392578125,0.0020294189453125
1690840428290595300,6.46759521484375,-0.98077392578125,0.0226287841796875,0.002960205078125
1690840428300635400,6.477635498046875,-0.981353759765625,0.02239990234375,0.002349853515625
1690840428310676200,6.48767626953125,-0.9818267822265625,0.022247314453125,0.0030364990234375
1690840428320716300,6.49771630859375,-0.9818115234375,0.0228424072265625,0.00286865234375
1690840428330756400,6.50775634765625,-0.981201171875,0.021759033203125,0.0024871826171875
1690840428340797400,6.51779736328125,-0.9819183349609375,0.0220184326171875,0.001617431640625
1690840428350837200,6.527837158203125,-0.981658935546875,0.0224456787109375,0.002227783203125
1690840428360877300,6.537877197265625,-0.9814453125,0.0230712890625,0.0023193359375
1690840428370917400,6.54791748046875,-0.982269287109375,0.0229339599609375,0.0027313232421875
1690840428380958200,6.557958251953125,-0.9819183349609375,0.0224151611328125,0.0030059814453125
1690840428390998300,6.567998291015625,-0.9815521240234375,0.02252197265625,0.0021514892578125
1690840428401069300,6.5780693359375,-0.982208251953125,0.0224761962890625,0.00213623046875
1690840428411109000,6.588109130859375,-0.981109619140625,0.0224609375,0.002593994140625
1690840428421149200,6.598149169921875,-0.9818267822265625,0.02276611328125,0.002960205078125
1690840428431190300,6.608190185546875,-0.9815673828125,0.0223541259765625,0.0033721923828125
1690840428441230300,6.618230224609375,-0.980926513671875,0.02264404296875,0.002593994140625
1690840428451270400,6.6282705078125,-0.9811553955078125,0.022369384765625,0.0025177001953125
1690840428461293000,6.63829296875,-0.98162841796875,0.0228729248046875,0.002838134765625
1690840428471334000,6.648333984375,-0.980712890625,0.022186279296875,0.003021240234375
1690840428481374000,6.6583740234375,-0.980743408203125,0.0216827392578125,0.0028533935546875
1690840428491413800,6.668413818359375,-0.9824676513671875,0.0222625732421875,0.0023040771484375
1690840428501454800,6.678454833984375,-0.982696533203125,0.0224456787109375,0.002593994140625
1690840428511495000,6.688494873046875,-0.9820709228515625,0.022216796875,0.00225830078125
1690840428521535000,6.698534912109375,-0.98065185546875,0.0216217041015625,0.0022430419921875
1690840428531575000,6.708574951171875,-0.981231689453125,0.022674560546875,0.001983642578125
1690840428541615900,6.718615966796875,-0.980560302734375,0.022552490234375,0.002410888671875
1690840428551687000,6.72868701171875,-0.9811248779296875,0.02166748046875,0.002410888671875
1690840428561727000,6.73872705078125,-0.981048583984375,0.0223846435546875,0.002410888671875
1690840428571766800,6.748766845703125,-0.980987548828125,0.0223236083984375,0.0023193359375
1690840428581806800,6.758806884765625,-0.9811859130859375,0.0219573974609375,0.0027008056640625
1690840428591848000,6.768847900390625,-0.9808502197265625,0.0227508544921875,0.00250244140625
1690840428601888000,6.778887939453125,-0.981109619140625,0.0225982666015625,0.002532958984375
1690840428611928000,6.788927978515625,-0.98126220703125,0.0221710205078125,0.00201416015625
1690840428621969000,6.798968994140625,-0.9819793701171875,0.022216796875,0.0025787353515625
1690840428632009000,6.809009033203125,-0.981658935546875,0.022674560546875,0.0028076171875
1690840428642048800,6.819048828125,-0.9820098876953125,0.0219268798828125,0.00250244140625
1690840428652088800,6.8290888671875,-0.981781005859375,0.021484375,0.0018310546875
1690840428662130000,6.8391298828125,-0.9817352294921875,0.0225372314453125,0.0021514892578125
1690840428672170000,6.849169921875,-0.982269287109375,0.02191162109375,0.00262451171875
1690840428682210000,6.8592099609375,-0.9820709228515625,0.0225067138671875,0.0020599365234375
1690840428692281000,6.869281005859375,-0.98248291015625,0.0234832763671875,0.0012054443359375
1690840428702321200,6.879321044921875,-0.982574462890625,0.0220947265625,0.00225830078125
1690840428712362000,6.889362060546875,-0.9818115234375,0.0220794677734375,0.0021820068359375
1690840428722401800,6.89940185546875,-0.980712890625,0.0219268798828125,0.002288818359375
1690840428732441900,6.90944189453125,-0.9820404052734375,0.022705078125,0.0024261474609375
1690840428742482000,6.91948193359375,-0.9821929931640625,0.022857666015625,0.0021209716796875
1690840428752523000,6.92952294921875,-0.9818572998046875,0.0223541259765625,0.0023345947265625
1690840428762563000,6.93956298828125,-0.981353759765625,0.022552490234375,0.00311279296875
1690840428772603100,6.94960302734375,-0.9815673828125,0.0217132568359375,0.0023193359375
1690840428782644000,6.95964404296875,-0.980682373046875,0.021881103515625,0.0023345947265625
1690840428792683800,6.969683837890625,-0.9818115234375,0.021820068359375,0.0032958984375
1690840428802723800,6.979723876953125,-0.9820556640625,0.02264404296875,0.0023956298828125
1690840428812764000,6.989763916015625,-0.9817352294921875,0.0227203369140625,0.00286865234375
1690840428822805000,6.999804931640625,-0.9813690185546875,0.0225982666015625,0.002227783203125
1690840428832875000,7.009875,-0.9819793701171875,0.02178955078125,0.0027008056640625
1690840428842916000,7.019916015625,-0.981842041015625,0.021697998046875,0.003143310546875
1690840428852956200,7.0299560546875,-0.9822235107421875,0.0221710205078125,0.0030670166015625
1690840428862996000,7.039995849609375,-0.9821319580078125,0.0227508544921875,0.0032196044921875
1690840428873036800,7.050036865234375,-0.9810028076171875,0.0225067138671875,0.003265380859375
1690840428883076900,7.060076904296875,-0.9808349609375,0.0221099853515625,0.0029754638671875
1690840428893117000,7.070116943359375,-0.981414794921875,0.0225677490234375,0.0022430419921875
1690840428903157000,7.080156982421875,-0.98199462890625,0.021240234375,0.0028076171875
1690840428913198000,7.090197998046875,-0.9821929931640625,0.0219573974609375,0.003021240234375
1690840428923238100,7.100238037109375,-0.9814300537109375,0.0220184326171875,0.0029449462890625
1690840428933278000,7.11027783203125,-0.981536865234375,0.022491455078125,0.0023193359375
1690840428943318800,7.12031884765625,-0.9813232421875,0.02301025390625,0.001953125
1690840428953358800,7.13035888671875,-0.982086181640625,0.0225067138671875,0.002105712890625
1690840428963399000,7.14039892578125,-0.9814300537109375,0.0223846435546875,0.0029296875
1690840428973439000,7.15043896484375,-0.980987548828125,0.02313232421875,0.0025482177734375
1690840428983510000,7.160510009765625,-0.981109619140625,0.021820068359375,0.001953125
1690840428993551000,7.170551025390625,-0.9821014404296875,0.0217437744140625,0.001953125
1690840429003591200,7.180591064453125,-0.982635498046875,0.021881103515625,0.0030975341796875
1690840429013631000,7.190630859375,-0.981414794921875,0.0218353271484375,0.0029754638671875
1690840429023670800,7.2006708984375,-0.98095703125,0.02239990234375,0.0023956298828125
1690840429033711900,7.2107119140625,-0.9816741943359375,0.0223541259765625,0.0018768310546875
1690840429043752000,7.220751953125,-0.982879638671875,0.0219268798828125,0.001953125
1690840429053792000,7.2307919921875,-0.9821014404296875,0.0225372314453125,0.002838134765625
1690840429063833000,7.2408330078125,-0.98077392578125,0.0227508544921875,0.002593994140625
1690840429073873200,7.250873046875,-0.981689453125,0.022064208984375,0.0019989013671875
1690840429083913000,7.260912841796875,-0.9813232421875,0.0219879150390625,0.0025787353515625
1690840429093952800,7.270952880859375,-0.9810028076171875,0.022064208984375,0.0025482177734375
1690840429103993900,7.280993896484375,-0.9817962646484375,0.021881103515625,0.003265380859375
1690840429114034000,7.291033935546875,-0.9830474853515625,0.02197265625,0.0031585693359375
1690840429124105000,7.30110498046875,-0.9813690185546875,0.02227783203125,0.0029449462890625
1690840429134145000,7.31114501953125,-0.980255126953125,0.0221405029296875,0.0024871826171875
1690840429144184800,7.321184814453125,-0.9810638427734375,0.0220184326171875,0.0021514892578125
1690840429154226200,7.33122607421875,-0.982330322265625,0.0222930908203125,0.00213623046875
1690840429164266000,7.341265869140625,-0.9817047119140625,0.022308349609375,0.0019073486328125
1690840429174305800,7.351305908203125,-0.980682373046875,0.0221099853515625,0.002105712890625
1690840429184345900,7.361345947265625,-0.9813690185546875,0.0223236083984375,0.002044677734375
1690840429194387000,7.371386962890625,-0.98187255859375,0.023406982421875,0.0018310546875
1690840429204427000,7.381427001953125,-0.981964111328125,0.023040771484375,0.0023193359375
1690840429214467000,7.391467041015625,-0.98199462890625,0.0224761962890625,0.0020599365234375
1690840429224508200,7.401508056640625,-0.980224609375,0.022552490234375,0.002288818359375
1690840429234548000,7.4115478515625,-0.9810028076171875,0.0224151611328125,0.001953125
1690840429244587800,7.421587890625,-0.9818115234375,0.0216827392578125,0.00244140625
1690840429254627800,7.4316279296875,-0.9811859130859375,0.02191162109375,0.0026397705078125
1690840429264699000,7.441698974609375,-0.981292724609375,0.021820068359375,0.002655029296875
1690840429274740000,7.451739990234375,-0.9822845458984375,0.0218353271484375,0.00213623046875
1690840429284780000,7.461780029296875,-0.9811859130859375,0.023040771484375,0.0023193359375
1690840429294819800,7.47181982421875,-0.981658935546875,0.022064208984375,0.0015716552734375
1690840429304860000,7.48185986328125,-0.9820404052734375,0.022216796875,0.002960205078125
1690840429314901000,7.49190087890625,-0.9827728271484375,0.022064208984375,0.002655029296875
1690840429324940800,7.50194091796875,-0.9828948974609375,0.02264404296875,0.0020904541015625
1690840429334980900,7.51198095703125,-0.982330322265625,0.0227203369140625,0.00286865234375
1690840429345021000,7.52202099609375,-0.9817962646484375,0.0230255126953125,0.0030517578125
1690840429355062000,7.53206201171875,-0.981719970703125,0.0220184326171875,0.002838134765625
1690840429365102000,7.54210205078125,-0.9822845458984375,0.0222320556640625,0.00250244140625
1690840429375142000,7.552141845703125,-0.9810791015625,0.022247314453125,0.0016021728515625
1690840429385183000,7.562182861328125,-0.9813385009765625,0.0223846435546875,0.001983642578125
1690840429395222800,7.572222900390625,-0.9818267822265625,0.0222930908203125,0.0024871826171875
1690840429405262800,7.582262939453125,-0.9812469482421875,0.022125244140625,0.0020599365234375
1690840429415334000,7.592333984375,-0.98199462890625,0.0225372314453125,0.0029754638671875
1690840429425374000,7.6023740234375,-0.982086181640625,0.0219268798828125,0.0020904541015625
1690840429435415000,7.6124150390625,-0.9812774658203125,0.021881103515625,0.0023651123046875
1690840429445454800,7.622454833984375,-0.9818267822265625,0.0221405029296875,0.003021240234375
1690840429455495000,7.632494873046875,-0.981719970703125,0.0219573974609375,0.0028228759765625
1690840429465522000,7.64252197265625,-0.98095703125,0.022735595703125,0.002593994140625
1690840429475562800,7.652562744140625,-0.980194091796875,0.0226593017578125,0.00244140625
1690840429485602600,7.6626025390625,-0.981170654296875,0.0224761962890625,0.0028839111328125
1690840429495642600,7.672642578125,-0.9816436767578125,0.0224609375,0.002777099609375
1690840429505683700,7.68268359375,-0.981353759765625,0.02166748046875,0.00341796875
1690840429515723800,7.692723876953125,-0.9820709228515625,0.022064208984375,0.002532958984375
1690840429525763800,7.702763916015625,-0.9817047119140625,0.0217437744140625,0.0027008056640625
1690840429535804000,7.712803955078125,-0.9813995361328125,0.0219268798828125,0.0022430419921875
1690840429545844700,7.7228447265625,-0.981048583984375,0.0220184326171875,0.0018157958984375
1690840429555914800,7.732914794921875,-0.980926513671875,0.0220794677734375,0.0028076171875
1690840429565955600,7.74295556640625,-0.982147216796875,0.0220489501953125,0.002227783203125
1690840429575995600,7.75299560546875,-0.981536865234375,0.0227508544921875,0.0020599365234375
1690840429586035700,7.76303564453125,-0.981170654296875,0.02215576171875,0.00201416015625
1690840429596076800,7.773076904296875,-0.9816436767578125,0.0220794677734375,0.001739501953125
1690840429606116900,7.783116943359375,-0.9819488525390625,0.0226287841796875,0.00250244140625
1690840429616156700,7.79315673828125,-0.9824066162109375,0.021942138671875,0.0024566650390625
1690840429626196700,7.80319677734375,-0.9814605712890625,0.02313232421875,0.002410888671875
1690840429636237600,7.813237548828125,-0.98138427734375,0.0226593017578125,0.00250244140625
1690840429646277600,7.823277587890625,-0.9820098876953125,0.0227203369140625,0.00341796875
1690840429656317700,7.833317626953125,-0.98126220703125,0.0225677490234375,0.0023345947265625
1690840429666358800,7.84335888671875,-0.98199462890625,0.0222930908203125,0.002410888671875
1690840429676398800,7.85339892578125,-0.9816436767578125,0.0216522216796875,0.0029296875
1690840429686439000,7.86343896484375,-0.980621337890625,0.02203369140625,0.0021820068359375
1690840429696509700,7.873509765625,-0.980987548828125,0.0229644775390625,0.0018768310546875
1690840429706549800,7.8835498046875,-0.9817047119140625,0.02197265625,0.0029449462890625
1690840429716590600,7.893590576171875,-0.9810943603515625,0.0224151611328125,0.00286865234375
1690840429726630700,7.903630615234375,-0.9815216064453125,0.02197265625,0.001800537109375
1690840429736670700,7.913670654296875,-0.9808502197265625,0.022613525390625,0.002044677734375
1690840429746710800,7.923710693359375,-0.98150634765625,0.0221405029296875,0.0026092529296875
1690840429756752000,7.933751953125,-0.9825897216796875,0.02215576171875,0.0027923583984375
1690840429766791700,7.943791748046875,-0.9820404052734375,0.0225830078125,0.002105712890625
1690840429776831700,7.953831787109375,-0.9821014404296875,0.0222930908203125,0.00311279296875
1690840429786871600,7.96387158203125,-0.9820709228515625,0.021881103515625,0.003204345703125
1690840429796912600,7.97391259765625,-0.9816131591796875,0.022705078125,0.0020599365234375
1690840429806952700,7.98395263671875,-0.982208251953125,0.0224761962890625,0.002227783203125
1690840429816992800,7.99399267578125,-0.98175048828125,0.0217132568359375,0.0025634765625
1690840429827033900,8.004033935546875,-0.9813385009765625,0.022003173828125,0.002593994140625
1690840429837074000,8.014073974609374,-0.9807281494140625,0.0224609375,0.0023651123046875
1690840429847144700,8.024144775390624,-0.981048583984375,0.022491455078125,0.002593994140625
1690840429857184800,8.034184814453125,-0.9806365966796875,0.0226287841796875,0.0029754638671875
1690840429867224600,8.044224609375,-0.98199462890625,0.022552490234375,0.0024871826171875
1690840429877265700,8.054265625,-0.9823150634765625,0.02239990234375,0.0031585693359375
1690840429887305700,8.0643056640625,-0.9810791015625,0.0223388671875,0.0027008056640625
1690840429897345800,8.074345703125,-0.9813232421875,0.0217132568359375,0.001983642578125
1690840429907385600,8.084385498046874,-0.9821929931640625,0.021820068359375,0.001983642578125
1690840429917426700,8.0944267578125,-0.980926513671875,0.0221405029296875,0.00244140625
1690840429927466800,8.104466796875,-0.9813385009765625,0.0225830078125,0.002899169921875
1690840429937506600,8.114506591796875,-0.9823150634765625,0.023223876953125,0.0023040771484375
1690840429947547600,8.124547607421874,-0.9819488525390625,0.0231170654296875,0.0025787353515625
1690840429957587700,8.134587646484375,-0.98187255859375,0.0221710205078125,0.003021240234375
1690840429967627800,8.144627685546874,-0.98248291015625,0.0224456787109375,0.00250244140625
1690840429977667800,8.154667724609375,-0.98150634765625,0.02294921875,0.00238037109375
1690840429987738600,8.164738525390625,-0.9810638427734375,0.02294921875,0.0025787353515625
1690840429997778700,8.17477880859375,-0.98138427734375,0.0215606689453125,0.0028228759765625
1690840430007819800,8.18481982421875,-0.9814605712890625,0.0218353271484375,0.0023193359375
1690840430017859600,8.194859619140624,-0.9817962646484375,0.022247314453125,0.002655029296875
1690840430027899600,8.204899658203125,-0.9811859130859375,0.0218353271484375,0.0034332275390625
1690840430037940700,8.214940673828124,-0.9816131591796875,0.0226287841796875,0.0026397705078125
1690840430047980800,8.224980712890625,-0.980438232421875,0.0225677490234375,0.001861572265625
1690840430058020600,8.2350205078125,-0.9799652099609375,0.0228118896484375,0.002593994140625
1690840430068060700,8.245060791015625,-0.981781005859375,0.0222320556640625,0.002716064453125
1690840430078101800,8.255101806640624,-0.9807281494140625,0.021728515625,0.0028228759765625
1690840430088141600,8.2651416015625,-0.9823455810546875,0.0221405029296875,0.0019683837890625
1690840430098181600,8.275181640625,-0.98223876953125,0.022491455078125,0.0018768310546875
1690840430108222700,8.28522265625,-0.9814300537109375,0.0226287841796875,0.0018157958984375
1690840430118262800,8.2952626953125,-0.981719970703125,0.0225067138671875,0.0026397705078125
1690840430128333800,8.305333740234374,-0.9822845458984375,0.0221405029296875,0.0028076171875
1690840430138373600,8.31537353515625,-0.981781005859375,0.022216796875,0.0021514892578125
1690840430148413700,8.32541357421875,-0.9812164306640625,0.0220184326171875,0.0027313232421875
1690840430158454800,8.335454833984375,-0.981719970703125,0.0223846435546875,0.0019683837890625
1690840430168494600,8.34549462890625,-0.981689453125,0.02191162109375,0.00213623046875
1690840430178534700,8.35553466796875,-0.981658935546875,0.0225830078125,0.0015106201171875
1690840430188574700,8.36557470703125,-0.981536865234375,0.0221405029296875,0.0018157958984375
1690840430198615800,8.37561572265625,-0.981353759765625,0.021881103515625,0.002716064453125
1690840430208655600,8.385655517578124,-0.9815673828125,0.0218658447265625,0.0023193359375
1690840430218695700,8.39569580078125,-0.9809417724609375,0.02197265625,0.0022430419921875
1690840430228736500,8.405736572265624,-0.9811859130859375,0.02197265625,0.0023193359375
1690840430238776600,8.415776611328125,-0.98089599609375,0.0222625732421875,0.0023956298828125
1690840430248816600,8.425816650390624,-0.981201171875,0.0222625732421875,0.0023345947265625
1690840430258856700,8.435856689453125,-0.9817352294921875,0.0230712890625,0.001678466796875
1690840430268897800,8.445897705078124,-0.9819488525390625,0.0221405029296875,0.0024871826171875
1690840430278967600,8.455967529296874,-0.982574462890625,0.0220794677734375,0.0023651123046875
1690840430289008600,8.466008544921875,-0.9820556640625,0.02227783203125,0.002685546875
1690840430299048700,8.476048583984374,-0.9810333251953125,0.022003173828125,0.0028228759765625
1690840430309088800,8.4860888671875,-0.9808807373046875,0.022735595703125,0.002044677734375
1690840430319129600,8.496129638671874,-0.981597900390625,0.0221405029296875,0.002166748046875
1690840430329169700,8.506169677734375,-0.9817047119140625,0.0226593017578125,0.0029144287109375
1690840430339209700,8.516209716796874,-0.982269287109375,0.02197265625,0.002655029296875
1690840430349249500,8.52624951171875,-0.982147216796875,0.0220794677734375,0.0023345947265625
1690840430359290600,8.53629052734375,-0.982086181640625,0.02313232421875,0.0027923583984375
1690840430369330700,8.54633056640625,-0.98175048828125,0.0227508544921875,0.0030670166015625
1690840430379370800,8.556370849609374,-0.98114013671875,0.022491455078125,0.00360107421875
1690840430389411600,8.56641162109375,-0.9817657470703125,0.0218505859375,0.0028228759765625
1690840430399451600,8.57645166015625,-0.98193359375,0.022674560546875,0.0026092529296875
1690840430409491700,8.58649169921875,-0.98187255859375,0.0226898193359375,0.0027008056640625
1690840430419562500,8.5965625,-0.981689453125,0.0223388671875,0.00213623046875
1690840430429602600,8.6066025390625,-0.981719970703125,0.02215576171875,0.001708984375
1690840430439642600,8.616642578125,-0.9820098876953125,0.022308349609375,0.002685546875
1690840430449683700,8.62668359375,-0.98248291015625,0.021453857421875,0.00286865234375
1690840430459723800,8.636723876953125,-0.9822540283203125,0.021240234375,0.002105712890625
1690840430469774800,8.64677490234375,-0.98095703125,0.0220184326171875,0.00262451171875
1690840430479816000,8.65681591796875,-0.9810791015625,0.0220184326171875,0.0029754638671875
1690840430489855700,8.666855712890625,-0.981536865234375,0.0229644775390625,0.0022430419921875
1690840430499895800,8.676895751953126,-0.981170654296875,0.022613525390625,0.0023193359375
1690840430509935900,8.686935791015625,-0.98101806640625,0.021575927734375,0.002593994140625
1690840430519977000,8.69697705078125,-0.9817962646484375,0.0215606689453125,0.0020904541015625
1690840430530017000,8.70701708984375,-0.982147216796875,0.0222625732421875,0.001953125
1690840430540056800,8.717056884765626,-0.9815673828125,0.0218048095703125,0.00213623046875
1690840430550098000,8.727097900390625,-0.98065185546875,0.022918701171875,0.0021820068359375
1690840430560167700,8.737167724609375,-0.9815216064453125,0.0225982666015625,0.0022735595703125
1690840430570208800,8.747208740234376,-0.9819793701171875,0.0221099853515625,0.0026092529296875
1690840430580248800,8.757248779296875,-0.982696533203125,0.0230560302734375,0.002960205078125
1690840430590289000,8.767288818359376,-0.9817657470703125,0.0225067138671875,0.0030059814453125
1690840430600330000,8.777330078125,-0.9815826416015625,0.022369384765625,0.00262451171875
1690840430610370000,8.7873701171875,-0.9817657470703125,0.02276611328125,0.00189208984375
1690840430620409900,8.797409912109375,-0.981658935546875,0.0224609375,0.0028228759765625
1690840430630449700,8.80744970703125,-0.980712890625,0.022430419921875,0.002960205078125
1690840430640490800,8.81749072265625,-0.9810028076171875,0.022613525390625,0.0024566650390625
1690840430650530800,8.82753076171875,-0.98077392578125,0.022735595703125,0.0020751953125
1690840430660571000,8.83757080078125,-0.981475830078125,0.022735595703125,0.00274658203125
1690840430670612000,8.847612060546876,-0.98162841796875,0.0218048095703125,0.002471923828125
1690840430680651800,8.85765185546875,-0.9820709228515625,0.0228424072265625,0.0017242431640625
1690840430690691800,8.86769189453125,-0.9801788330078125,0.023284912109375,0.002410888671875
1690840430700731600,8.877731689453125,-0.9807281494140625,0.022735595703125,0.0028076171875
1690840430710802700,8.887802734375,-0.9807586669921875,0.0227203369140625,0.0022430419921875
1690840430720842800,8.8978427734375,-0.9810333251953125,0.0233154296875,0.0024871826171875
1690840430730883800,8.9078837890625,-0.98095703125,0.0229339599609375,0.0030059814453125
1690840430740924000,8.917923828125,-0.9813995361328125,0.02178955078125,0.00335693359375
1690840430750964000,8.9279638671875,-0.981414794921875,0.0232391357421875,0.0021209716796875
1690840430761004800,8.9380048828125,-0.981964111328125,0.022064208984375,0.0019989013671875
1690840430771044900,8.948044921875,-0.981353759765625,0.0228729248046875,0.0024871826171875
1690840430781084700,8.958084716796876,-0.98114013671875,0.0223541259765625,0.0025482177734375
1690840430791124700,8.968124755859375,-0.9819183349609375,0.0215911865234375,0.00250244140625
1690840430801165800,8.978165771484376,-0.9817962646484375,0.022552490234375,0.0023956298828125
1690840430811206000,8.988205810546875,-0.9823760986328125,0.0220794677734375,0.0019073486328125
1690840430821246000,8.998245849609376,-0.9814910888671875,0.0216522216796875,0.0031890869140625
1690840430831286800,9.008286865234375,-0.9813079833984375,0.0233612060546875,0.002471923828125
1690840430841326800,9.018326904296876,-0.98138427734375,0.022613525390625,0.00274658203125
1690840430851397600,9.028397705078126,-0.981781005859375,0.0220947265625,0.002288818359375
1690840430861437700,9.038437744140625,-0.980865478515625,0.022247314453125,0.003021240234375
1690840430871477800,9.048477783203126,-0.9802703857421875,0.0227813720703125,0.002685546875
1690840430881518800,9.058518798828125,-0.9812469482421875,0.0221710205078125,0.002197265625
1690840430891559000,9.068558837890626,-0.9812164306640625,0.0225067138671875,0.0028839111328125
1690840430901599000,9.078598876953125,-0.9806976318359375,0.0223846435546875,0.00299072265625
1690840430911639000,9.08863916015625,-0.9810638427734375,0.022308349609375,0.0027008056640625
1690840430921680000,9.098679931640625,-0.9814910888671875,0.022796630859375,0.0025177001953125
1690840430931719700,9.1087197265625,-0.9814605712890625,0.02252197265625,0.0025482177734375
1690840430941759700,9.118759765625,-0.9811859130859375,0.0223236083984375,0.0023956298828125
1690840430951799800,9.1287998046875,-0.981658935546875,0.022064208984375,0.0028228759765625
1690840430961841000,9.1388408203125,-0.9819793701171875,0.022308349609375,0.00286865234375
1690840430971881000,9.148880859375,-0.9828948974609375,0.0226898193359375,0.0026397705078125
1690840430981921000,9.158921142578125,-0.981048583984375,0.02264404296875,0.00274658203125
1690840430991991800,9.16899169921875,-0.980987548828125,0.0225372314453125,0.0023040771484375
1690840431002031900,9.179031982421876,-0.9821319580078125,0.0222930908203125,0.0034637451171875
1690840431012072700,9.18907275390625,-0.9816131591796875,0.0228729248046875,0.0030975341796875
1690840431022112800,9.19911279296875,-0.981048583984375,0.0222320556640625,0.0028228759765625
1690840431032152800,9.20915283203125,-0.9816741943359375,0.0218963623046875,0.0030975341796875
1690840431042194000,9.21919384765625,-0.9819183349609375,0.022216796875,0.00213623046875
1690840431052234000,9.22923388671875,-0.981689453125,0.0220489501953125,0.00238037109375
1690840431062274000,9.239274169921876,-0.9813690185546875,0.0222320556640625,0.002532958984375
1690840431072313900,9.24931396484375,-0.9825286865234375,0.0218505859375,0.0024566650390625
1690840431082354700,9.259354736328126,-0.9810943603515625,0.02239990234375,0.0017852783203125
1690840431092394800,9.269394775390625,-0.9811859130859375,0.022308349609375,0.0021209716796875
1690840431102434800,9.279434814453126,-0.982635498046875,0.0226898193359375,0.0022125244140625
1690840431112476000,9.289475830078125,-0.9834136962890625,0.0222625732421875,0.001739501953125
1690840431122516000,9.299515869140626,-0.98236083984375,0.0223541259765625,0.0029144287109375
1690840431132556000,9.30955615234375,-0.980987548828125,0.023345947265625,0.0020751953125
1690840431142626800,9.319626708984375,-0.9810791015625,0.022674560546875,0.00250244140625
1690840431152667000,9.3296669921875,-0.981292724609375,0.02301025390625,0.003143310546875
1690840431162707000,9.33970703125,-0.982025146484375,0.0225372314453125,0.00262451171875
1690840431172747800,9.349747802734376,-0.9816436767578125,0.021820068359375,0.002105712890625
1690840431182787800,9.359787841796875,-0.9814910888671875,0.0227203369140625,0.002716064453125
1690840431192828000,9.369827880859376,-0.981170654296875,0.0228424072265625,0.0027313232421875
1690840431202869000,9.379868896484375,-0.9806060791015625,0.0229339599609375,0.002899169921875
1690840431212908800,9.38990869140625,-0.98089599609375,0.0218353271484375,0.0017242431640625
1690840431222948900,9.399948974609375,-0.9811859130859375,0.022552490234375,0.0020751953125
1690840431232989000,9.409989013671876,-0.9813690185546875,0.02337646484375,0.001251220703125
1690840431243029800,9.42002978515625,-0.98089599609375,0.02197265625,0.001922607421875
1690840431253069800,9.43006982421875,-0.9816436767578125,0.0218505859375,0.0024871826171875
1690840431263110000,9.44010986328125,-0.98187255859375,0.022979736328125,0.0023956298828125
1690840431273151000,9.45015087890625,-0.9821014404296875,0.0228271484375,0.0020904541015625
1690840431283220700,9.460220703125,-0.9804534912109375,0.0218505859375,0.0013275146484375
1690840431293261800,9.47026171875,-0.981170654296875,0.022247314453125,0.0019073486328125
1690840431303302000,9.480302001953126,-0.98150634765625,0.022705078125,0.0020751953125
1690840431313342000,9.490342041015625,-0.9801025390625,0.0224456787109375,0.0024871826171875
1690840431323382800,9.5003828125,-0.9808349609375,0.02215576171875,0.0025177001953125
1690840431333422800,9.5104228515625,-0.9813232421875,0.0220947265625,0.0030670166015625
1690840431343463000,9.520462890625,-0.981170654296875,0.02264404296875,0.0025482177734375
1690840431353502700,9.530502685546875,-0.9821319580078125,0.02252197265625,0.00225830078125
1690840431363543800,9.540543701171876,-0.9813385009765625,0.021728515625,0.001861572265625
1690840431373584000,9.550583984375,-0.9819793701171875,0.0218658447265625,0.0027313232421875
1690840431383624000,9.5606240234375,-0.9816131591796875,0.0219268798828125,0.0026092529296875
1690840431393664800,9.570664794921875,-0.98114013671875,0.0230865478515625,0.001983642578125
1690840431403704800,9.580704833984376,-0.9813079833984375,0.02325439453125,0.0015411376953125
1690840431413745000,9.590744873046875,-0.980865478515625,0.022552490234375,0.0026397705078125
1690840431423816000,9.60081591796875,-0.9810791015625,0.0224609375,0.003204345703125
1690840431433855700,9.610855712890626,-0.98162841796875,0.022491455078125,0.002777099609375
1690840431443895800,9.620895751953125,-0.982391357421875,0.02252197265625,0.0029296875
1690840431453937000,9.63093701171875,-0.9816741943359375,0.0218048095703125,0.0030059814453125
1690840431463950000,9.6409501953125,-0.9811859130859375,0.0220184326171875,0.0023956298828125
1690840431473990000,9.650989990234375,-0.9808807373046875,0.02166748046875,0.0025634765625
1690840431484031000,9.661031005859375,-0.9810333251953125,0.0228271484375,0.0031280517578125
1690840431494071000,9.671071044921876,-0.9812469482421875,0.022247314453125,0.0025787353515625
1690840431504111000,9.681111083984375,-0.981292724609375,0.0225677490234375,0.0024871826171875
1690840431514151200,9.691151123046875,-0.980804443359375,0.0228118896484375,0.0027618408203125
1690840431524192000,9.70119189453125,-0.9817047119140625,0.02264404296875,0.00250244140625
1690840431534232000,9.711232177734376,-0.9818572998046875,0.0219879150390625,0.0028839111328125
1690840431544272100,9.721272216796875,-0.98150634765625,0.0223236083984375,0.00146484375
1690840431554313200,9.731313232421876,-0.9824066162109375,0.021575927734375,0.0018768310546875
1690840431564353000,9.74135302734375,-0.980987548828125,0.0220489501953125,0.002471923828125
1690840431574424000,9.751424072265625,-0.980010986328125,0.02276611328125,0.001556396484375
1690840431584464100,9.761464111328126,-0.98101806640625,0.0220489501953125,0.0026397705078125
1690840431594504200,9.771504150390625,-0.98101806640625,0.02252197265625,0.0024871826171875
1690840431604544300,9.781544189453125,-0.9816131591796875,0.0221710205078125,0.0028228759765625
1690840431614585000,9.791585205078125,-0.9822235107421875,0.022186279296875,0.002838134765625
1690840431624625000,9.801625,-0.981414794921875,0.0218048095703125,0.0027618408203125
1690840431634665000,9.8116650390625,-0.9813232421875,0.02227783203125,0.002593994140625
1690840431644706000,9.8217060546875,-0.9810638427734375,0.0223236083984375,0.0020599365234375
1690840431654746000,9.83174609375,-0.980743408203125,0.022216796875,0.0026092529296875
1690840431664786200,9.8417861328125,-0.98199462890625,0.022308349609375,0.0035552978515625
1690840431674826200,9.851826171875,-0.981201171875,0.0224609375,0.0018768310546875
1690840431684867000,9.8618671875,-0.9812469482421875,0.022705078125,0.0024261474609375
1690840431694907100,9.8719072265625,-0.981597900390625,0.0218963623046875,0.0022735595703125
1690840431704947000,9.881947021484375,-0.981201171875,0.022247314453125,0.002044677734375
1690840431715018000,9.89201806640625,-0.9810638427734375,0.02294921875,0.00341796875
1690840431725058000,9.90205810546875,-0.98126220703125,0.0222320556640625,0.0030059814453125
1690840431735099100,9.91209912109375,-0.9816741943359375,0.0223846435546875,0.0028533935546875
1690840431745139200,9.92213916015625,-0.98187255859375,0.02252197265625,0.001953125
1690840431755179300,9.93217919921875,-0.9819183349609375,0.0222930908203125,0.00244140625
1690840431765220000,9.94222021484375,-0.9814605712890625,0.0222015380859375,0.002777099609375
1690840431775260000,9.952260009765626,-0.981109619140625,0.0225067138671875,0.001953125
1690840431785300000,9.962300048828125,-0.9807891845703125,0.022064208984375,0.0026092529296875
1690840431795340000,9.972340087890625,-0.981292724609375,0.0233612060546875,0.002685546875
1690840431805381000,9.982381103515625,-0.981048583984375,0.0225372314453125,0.0024566650390625
1690840431815421200,9.992421142578126,-0.9803009033203125,0.022674560546875,0.00250244140625
1690840431825461200,10.002461181640625,-0.9468231201171875,0.029754638671875,0.0005340576171875
1690840431835502000,10.012502197265626,-1.0348358154296875,-0.0700836181640625,-0.0579833984375
1690840431845542000,10.0225419921875,-0.9840545654296875,0.0761871337890625,0.0527801513671875
1690840431855613000,10.032613037109375,-0.962860107421875,0.01513671875,0.039825439453125
1690840431865653000,10.042653076171876,-1.0028076171875,0.0260772705078125,0.020355224609375
1690840431875693000,10.052693115234375,-0.9801788330078125,0.03839111328125,0.0236968994140625
1690840431885733000,10.062733154296875,-0.9793853759765625,0.038421630859375,-0.019866943359375
1690840431895774200,10.072774169921875,-0.9606475830078125,0.04022216796875,-0.010345458984375
1690840431905814300,10.082814208984376,-0.981048583984375,0.041473388671875,-0.0174407958984375
1690840431915854000,10.09285400390625,-0.963531494140625,0.034149169921875,-0.0149993896484375
1690840431925895000,10.10289501953125,-0.985443115234375,0.029296875,-0.0104827880859375
1690840431935935000,10.11293505859375,-0.967620849609375,0.02490234375,-0.00799560546875
1690840431945975000,10.12297509765625,-0.9916839599609375,0.0236358642578125,0.001190185546875
1690840431956015000,10.13301513671875,-0.978118896484375,0.0218658447265625,0.0105743408203125
1690840431966056200,10.14305615234375,-0.9878692626953125,0.01953125,0.01922607421875
1690840431976096300,10.15309619140625,-0.991546630859375,0.018585205078125,0.0206756591796875
1690840431986136000,10.163135986328125,-0.9893798828125,0.016693115234375,0.01800537109375
1690840431996177000,10.173177001953125,-0.9823760986328125,0.0167083740234375,0.0100250244140625
1690840432006247200,10.1832470703125,-0.988250732421875,0.01617431640625,0.00103759765625
1690840432016288000,10.1932880859375,-0.9794464111328125,0.0164337158203125,-0.006988525390625
1690840432026328000,10.203328125,-0.9806365966796875,0.0174102783203125,-0.01043701171875
1690840432036368100,10.2133681640625,-0.97967529296875,0.01763916015625,-0.0101776123046875
1690840432046408200,10.223408203125,-0.9801025390625,0.019073486328125,-0.006195068359375
1690840432056449300,10.23344921875,-0.9836578369140625,0.0206146240234375,0.000457763671875
1690840432066489000,10.243489013671875,-0.9807586669921875,0.0240325927734375,0.0061798095703125
1690840432076529200,10.253529052734375,-0.985321044921875,0.026336669921875,0.0106201171875
1690840432086570000,10.263570068359375,-0.9852447509765625,0.0278778076171875,0.012359619140625
1690840432096610000,10.273610107421876,-0.9796295166015625,0.0283050537109375,0.0116729736328125
1690840432106650000,10.283650146484375,-0.98248291015625,0.029205322265625,0.0073089599609375
1690840432116690200,10.293690185546875,-0.980804443359375,0.02978515625,0.0032501220703125
1690840432126731300,10.303731201171875,-0.9777069091796875,0.0296783447265625,-0.0002288818359375
1690840432136771000,10.31377099609375,-0.9800262451171875,0.02923583984375,-0.0024871826171875
1690840432146842000,10.323842041015626,-0.977691650390625,0.028472900390625,-0.004180908203125
1690840432156882000,10.3338818359375,-0.9792327880859375,0.0276641845703125,-0.0023956298828125
1690840432166922000,10.343921875,-0.9805450439453125,0.0269927978515625,-0.00030517578125
1690840432176963000,10.353963134765625,-0.9812164306640625,0.0251312255859375,0.003570556640625
1690840432187003100,10.364003173828126,-0.9843292236328125,0.0240478515625,0.0059814453125
1690840432197043200,10.374043212890625,-0.9827728271484375,0.0222930908203125,0.0069122314453125
1690840432207084300,10.384084228515626,-0.9835968017578125,0.020843505859375,0.0075836181640625
1690840432217124000,10.3941240234375,-0.985076904296875,0.020263671875,0.0057525634765625
1690840432227164000,10.404163818359375,-0.9828948974609375,0.0197906494140625,0.0034332275390625
1690840432237204000,10.414203857421874,-0.9835357666015625,0.0195159912109375,0.00140380859375
1690840432247245000,10.4242451171875,-0.982879638671875,0.0189666748046875,-0.000091552734375
1690840432257285000,10.43428515625,-0.9803619384765625,0.019775390625,0.0001220703125
1690840432267325200,10.4443251953125,-0.982269287109375,0.0201568603515625,-0.00018310546875
1690840432277366300,10.4543662109375,-0.9813690185546875,0.0210113525390625,0.0006561279296875
1690840432287436000,10.46443603515625,-0.9818267822265625,0.0218048095703125,0.002716064453125
1690840432297477000,10.47447705078125,-0.9834136962890625,0.0235748291015625,0.003662109375
1690840432307517000,10.484516845703125,-0.980072021484375,0.0244140625,0.004730224609375
1690840432317557000,10.494556884765625,-0.981903076171875,0.025726318359375,0.0047454833984375
1690840432327597000,10.50459716796875,-0.9807586669921875,0.02685546875,0.004058837890625
1690840432337638100,10.51463818359375,-0.9798126220703125,0.026641845703125,0.0028533935546875
1690840432347678200,10.52467822265625,-0.9819183349609375,0.0270843505859375,0.0031585693359375
1690840432357718000,10.534718017578125,-0.9789886474609375,0.0279998779296875,0.0021514892578125
1690840432367759000,10.544759033203125,-0.9793853759765625,0.027252197265625,0.001678466796875
1690840432377799000,10.554798828125,-0.981597900390625,0.0262603759765625,0.002410888671875
1690840432387839000,10.5648388671875,-0.9802703857421875,0.02606201171875,0.0023651123046875
1690840432397879000,10.574879150390625,-0.9815673828125,0.024810791015625,0.0029144287109375
1690840432407920000,10.584920166015625,-0.9824676513671875,0.02435302734375,0.0028076171875
1690840432417960200,10.594960205078126,-0.9818572998046875,0.023651123046875,0.0037078857421875
1690840432428031000,10.605031005859376,-0.982269287109375,0.022552490234375,0.003509521484375
1690840432438071000,10.615071044921875,-0.9816131591796875,0.022674560546875,0.0031585693359375
1690840432448111000,10.625111083984375,-0.98223876953125,0.0217437744140625,0.0032501220703125
1690840432458152000,10.63515185546875,-0.98211669921875,0.0213623046875,0.0024566650390625
1690840432468206000,10.6452060546875,-0.9816741943359375,0.0207977294921875,0.0029754638671875
1690840432478246000,10.655245849609376,-0.9818572998046875,0.0213165283203125,0.00262451171875
1690840432488287000,10.665286865234375,-0.98138427734375,0.021759033203125,0.002593994140625
1690840432498327000,10.6753271484375,-0.9806671142578125,0.022186279296875,0.002593994140625
1690840432508367000,10.6853671875,-0.98236083984375,0.0220489501953125,0.00244140625
1690840432518407200,10.6954072265625,-0.981048583984375,0.023284912109375,0.0025787353515625
1690840432528448000,10.705447998046875,-0.980682373046875,0.02447509765625,0.002166748046875
1690840432538488000,10.715488037109376,-0.9809112548828125,0.0240936279296875,0.00274658203125
1690840432548527900,10.72552783203125,-0.980987548828125,0.0248260498046875,0.002899169921875
1690840432558568000,10.73556787109375,-0.9815521240234375,0.0259246826171875,0.0033111572265625
1690840432568609000,10.745609130859375,-0.979949951171875,0.0257568359375,0.0029754638671875
1690840432578680000,10.75568017578125,-0.9806365966796875,0.0256195068359375,0.0033111572265625
1690840432588720000,10.76572021484375,-0.98138427734375,0.025970458984375,0.00408935546875
1690840432598760200,10.77576025390625,-0.98101806640625,0.0257110595703125,0.0034637451171875
1690840432608800300,10.78580029296875,-0.981964111328125,0.0257720947265625,0.0033111572265625
1690840432618841000,10.795841064453125,-0.981597900390625,0.0247650146484375,0.0025482177734375
1690840432628881000,10.805880859375,-0.9811248779296875,0.024169921875,0.0024566650390625
1690840432638921000,10.8159208984375,-0.98199462890625,0.0230560302734375,0.0020904541015625
1690840432648962000,10.825962158203126,-0.98211669921875,0.023193359375,0.001220703125
1690840432659002000,10.836002197265625,-0.9815673828125,0.02301025390625,0.00164794921875
1690840432669042200,10.846042236328126,-0.981903076171875,0.0225067138671875,0.001861572265625
1690840432679082200,10.856082275390625,-0.9821624755859375,0.022064208984375,0.002288818359375
1690840432689123000,10.866123046875,-0.981231689453125,0.0226898193359375,0.0029754638671875
1690840432699163000,10.876162841796875,-0.981414794921875,0.022369384765625,0.003448486328125
1690840432709203000,10.886202880859376,-0.980560302734375,0.0224761962890625,0.0029449462890625
1690840432719274000,10.89627392578125,-0.9832305908203125,0.0235443115234375,0.00238037109375
1690840432729314000,10.90631396484375,-0.98480224609375,0.023406982421875,0.0028228759765625
1690840432739355100,10.916355224609376,-0.978668212890625,0.0243682861328125,0.002685546875
1690840432749395200,10.926395263671875,-0.9838714599609375,0.025299072265625,0.0022735595703125
1690840432759435300,10.936435302734376,-0.977752685546875,0.024383544921875,0.00225830078125
1690840432769475000,10.94647509765625,-0.984466552734375,0.0249481201171875,0.003143310546875
1690840432779516000,10.956515869140626,-0.9790191650390625,0.0253448486328125,0.0022430419921875
1690840432789556000,10.966555908203125,-0.982421875,0.0247344970703125,0.0027618408203125
1690840432799596000,10.976595947265626,-0.9794158935546875,0.02471923828125,0.00323486328125
1690840432809637000,10.98663720703125,-0.9818878173828125,0.0250244140625,0.003173828125
1690840432819677200,10.99667724609375,-0.9799957275390625,0.0253753662109375,0.0024261474609375
1690840432829717200,11.00671728515625,-0.982147216796875,0.024810791015625,0.002838134765625
1690840432839757000,11.016757080078126,-0.98065185546875,0.0248870849609375,0.00250244140625
1690840432849798000,11.0267978515625,-0.9807586669921875,0.0244598388671875,0.00335693359375
1690840432859869000,11.036868896484375,-0.9823150634765625,0.02435302734375,0.0032501220703125
1690840432869909000,11.046908935546876,-0.98114013671875,0.0234375,0.0030364990234375
1690840432879949000,11.056948974609375,-0.98236083984375,0.02325439453125,0.00299072265625
1690840432889989000,11.066989013671876,-0.980255126953125,0.022705078125,0.0027618408203125
1690840432900030200,11.0770302734375,-0.9817352294921875,0.022308349609375,0.0027313232421875
1690840432910070300,11.0870703125,-0.9811859130859375,0.022552490234375,0.002166748046875
1690840432920110000,11.097110107421875,-0.9814910888671875,0.0227813720703125,0.00299072265625
1690840432930151000,11.10715087890625,-0.9811553955078125,0.023193359375,0.002105712890625
1690840432940191000,11.11719091796875,-0.9812164306640625,0.023468017578125,0.0015716552734375
1690840432950231000,11.12723095703125,-0.980712890625,0.0239410400390625,0.00213623046875
1690840432960271000,11.13727099609375,-0.9826202392578125,0.02435302734375,0.0027313232421875
1690840432970312200,11.147312255859376,-0.981536865234375,0.024322509765625,0.0036468505859375
1690840432980352300,11.157352294921875,-0.9816131591796875,0.023651123046875,0.0033111572265625
1690840432990392000,11.16739208984375,-0.9816741943359375,0.024139404296875,0.0032806396484375
1690840433000433000,11.177432861328125,-0.980712890625,0.0238800048828125,0.002593994140625
1690840433010503200,11.187503173828125,-0.980499267578125,0.0246124267578125,0.0029144287109375
1690840433020544000,11.1975439453125,-0.9811248779296875,0.0249786376953125,0.002197265625
1690840433030584000,11.207583984375,-0.980987548828125,0.0241241455078125,0.001556396484375
1690840433040624000,11.2176240234375,-0.9807586669921875,0.02447509765625,0.0019073486328125
1690840433050664200,11.227664306640625,-0.98175048828125,0.0245361328125,0.00299072265625
1690840433060705300,11.237705322265626,-0.9817657470703125,0.023712158203125,0.0023956298828125
1690840433070745000,11.2477451171875,-0.9816436767578125,0.0242156982421875,0.0020294189453125
1690840433080785200,11.25778515625,-0.98138427734375,0.024505615234375,0.0026092529296875
1690840433090826000,11.267825927734375,-0.981414794921875,0.02398681640625,0.0042266845703125
1690840433100866000,11.277865966796876,-0.9816131591796875,0.023193359375,0.0034027099609375
1690840433110906000,11.287906005859375,-0.98095703125,0.0232696533203125,0.00299072265625
1690840433120946200,11.2979462890625,-0.9821319580078125,0.0226593017578125,0.002685546875
1690840433130987300,11.3079873046875,-0.9814453125,0.022796630859375,0.001922607421875
1690840433141027000,11.318027099609376,-0.98187255859375,0.0236358642578125,0.001739501953125
1690840433151098000,11.32809814453125,-0.982635498046875,0.02362060546875,0.001708984375
1690840433161138200,11.33813818359375,-0.9819183349609375,0.0239410400390625,0.0015106201171875
1690840433171178000,11.348177978515626,-0.9815826416015625,0.024169921875,0.00201416015625
1690840433181219000,11.358218994140625,-0.98175048828125,0.024169921875,0.0022125244140625
1690840433191259100,11.368259033203126,-0.9820404052734375,0.0235443115234375,0.003021240234375
1690840433201299000,11.378298828125,-0.982177734375,0.0240936279296875,0.0031890869140625
1690840433211339000,11.388339111328126,-0.9811553955078125,0.0243988037109375,0.002777099609375
1690840433221380000,11.398380126953125,-0.981658935546875,0.024322509765625,0.0027618408203125
1690840433231420200,11.408420166015626,-0.9814453125,0.024658203125,0.0029754638671875
1690840433241460000,11.4184599609375,-0.9818878173828125,0.0251922607421875,0.003082275390625
1690840433251501000,11.4285009765625,-0.98260498046875,0.0255126953125,0.00225830078125
1690840433261541000,11.438541015625,-0.9818267822265625,0.0245819091796875,0.002288818359375
1690840433271581200,11.448581298828126,-0.9812164306640625,0.0243682861328125,0.0032501220703125
1690840433281621000,11.45862109375,-0.982269287109375,0.0245361328125,0.0027313232421875
1690840433291692000,11.468692138671875,-0.982025146484375,0.0236968994140625,0.0024261474609375
1690840433301733000,11.478733154296876,-0.9820404052734375,0.0233917236328125,0.0031890869140625
1690840433311773200,11.488773193359375,-0.982330322265625,0.0230255126953125,0.0023956298828125
1690840433321813000,11.49881298828125,-0.9804229736328125,0.0232696533203125,0.0023040771484375
1690840433331853000,11.50885302734375,-0.9813995361328125,0.023590087890625,0.003082275390625
1690840433341894100,11.51889404296875,-0.9804840087890625,0.0237884521484375,0.0024261474609375
1690840433351934000,11.528933837890625,-0.98089599609375,0.0246429443359375,0.002685546875
1690840433361974000,11.53897412109375,-0.9823150634765625,0.02398681640625,0.0024261474609375
1690840433372015000,11.54901513671875,-0.9806060791015625,0.0243072509765625,0.003570556640625
1690840433382055200,11.55905517578125,-0.9813385009765625,0.0238189697265625,0.0030670166015625
1690840433392095000,11.569094970703125,-0.9819183349609375,0.0234832763671875,0.002471923828125
1690840433402135000,11.579135009765626,-0.97998046875,0.0241851806640625,0.0028533935546875
1690840433412176100,11.589176025390625,-0.9813232421875,0.02374267578125,0.0023193359375
1690840433422216200,11.59921630859375,-0.9807281494140625,0.024200439453125,0.0022125244140625
1690840433432256000,11.609256103515625,-0.98114013671875,0.0244140625,0.002227783203125
1690840433442327000,11.6193271484375,-0.9817657470703125,0.0242767333984375,0.00238037109375
1690840433452367000,11.6293671875,-0.9810028076171875,0.0238037109375,0.0021209716796875
1690840433462408200,11.639408203125,-0.9817962646484375,0.024627685546875,0.002410888671875
1690840433472426200,11.64942626953125,-0.9814453125,0.023895263671875,0.0027923583984375
1690840433482466300,11.65946630859375,-0.9813995361328125,0.0240478515625,0.0031890869140625
1690840433492506400,11.66950634765625,-0.983245849609375,0.0238494873046875,0.003662109375
1690840433502547200,11.679547119140626,-0.98193359375,0.023468017578125,0.00286865234375
1690840433512587300,11.689587158203125,-0.980499267578125,0.0237579345703125,0.0018768310546875
1690840433522627000,11.699626953125,-0.98126220703125,0.02410888671875,0.00274658203125
1690840433532668200,11.709668212890625,-0.980987548828125,0.0228118896484375,0.00262451171875
1690840433542708200,11.719708251953126,-0.982421875,0.0234375,0.002777099609375
1690840433552748300,11.729748291015625,-0.9822235107421875,0.0235443115234375,0.001983642578125
1690840433562788400,11.739788330078126,-0.9820556640625,0.024322509765625,0.002105712890625
1690840433572829200,11.7498291015625,-0.9815521240234375,0.0234222412109375,0.00286865234375
1690840433582900200,11.759900146484375,-0.98175048828125,0.0238189697265625,0.003509521484375
1690840433592940000,11.76993994140625,-0.9818878173828125,0.024627685546875,0.0041961669921875
1690840433602980000,11.77997998046875,-0.982330322265625,0.0242462158203125,0.0030975341796875
1690840433613020200,11.790020263671876,-0.9816131591796875,0.0243072509765625,0.0032196044921875
1690840433623061200,11.800061279296875,-0.9815826416015625,0.0250244140625,0.0025634765625
1690840433633101300,11.810101318359376,-0.98187255859375,0.0244140625,0.002349853515625
1690840433643141400,11.820141357421875,-0.98101806640625,0.02410888671875,0.0019989013671875
1690840433653182200,11.83018212890625,-0.9811553955078125,0.0245513916015625,0.0016326904296875
1690840433663222300,11.84022216796875,-0.981048583984375,0.0240631103515625,0.001007080078125
1690840433673262000,11.850261962890626,-0.9810638427734375,0.0238037109375,0.0024871826171875
1690840433683302100,11.86030224609375,-0.98138427734375,0.0244293212890625,0.0037078857421875
1690840433693343200,11.87034326171875,-0.982147216796875,0.024322509765625,0.0038299560546875
1690840433703383300,11.88038330078125,-0.9820098876953125,0.0238189697265625,0.003204345703125
1690840433713423400,11.89042333984375,-0.9827117919921875,0.02362060546875,0.003204345703125
1690840433723494400,11.900494384765626,-0.9827423095703125,0.02435302734375,0.0027618408203125
1690840433733534200,11.9105341796875,-0.9820404052734375,0.023773193359375,0.001739501953125
1690840433743575000,11.920574951171876,-0.9814910888671875,0.0236968994140625,0.001739501953125
1690840433753615000,11.930614990234375,-0.9813385009765625,0.0242156982421875,0.0018310546875
1690840433763655200,11.9406552734375,-0.9813995361328125,0.0236663818359375,0.0023040771484375
1690840433773695200,11.9506953125,-0.981109619140625,0.024566650390625,0.0029754638671875
1690840433783736300,11.960736328125,-0.981597900390625,0.0234527587890625,0.002288818359375
1690840433793776400,11.9707763671875,-0.981842041015625,0.023773193359375,0.0031585693359375
1690840433803816200,11.980816162109376,-0.9817352294921875,0.024688720703125,0.003570556640625
1690840433813857000,11.99085693359375,-0.98175048828125,0.023712158203125,0.0037994384765625
1690840433823897000,12.00089697265625,-0.9824676513671875,0.0236053466796875,0.0033721923828125
1690840433833937200,12.010937255859375,-0.9822845458984375,0.0252532958984375,0.0022430419921875
1690840433843977200,12.020977294921876,-0.981414794921875,0.0241241455078125,0.0023956298828125
1690840433854018300,12.031018310546875,-0.9813995361328125,0.0240936279296875,0.0020751953125
1690840433864058400,12.041058349609376,-0.9811553955078125,0.0235748291015625,0.00079345703125
1690840433874129400,12.05112939453125,-0.9820709228515625,0.023834228515625,0.0016326904296875
1690840433884169200,12.061169189453125,-0.981842041015625,0.023590087890625,0.00274658203125
1690840433894209000,12.071208984375,-0.981658935546875,0.0245208740234375,0.002655029296875
1690840433904250000,12.08125,-0.981597900390625,0.02410888671875,0.00341796875
1690840433914290200,12.091290283203126,-0.981231689453125,0.024200439453125,0.0040130615234375
1690840433924330200,12.101330322265625,-0.9817657470703125,0.024078369140625,0.0028228759765625
1690840433934370300,12.111370361328126,-0.981597900390625,0.024993896484375,0.00286865234375
1690840433944411400,12.121411376953125,-0.981109619140625,0.024444580078125,0.002777099609375
1690840433954451200,12.131451171875,-0.9811859130859375,0.024078369140625,0.0024871826171875
1690840433964491000,12.141490966796875,-0.981292724609375,0.0244140625,0.002899169921875
1690840433974532000,12.151531982421876,-0.980865478515625,0.023712158203125,0.0028076171875
1690840433984572200,12.161572265625,-0.9810638427734375,0.0242919921875,0.0033721923828125
1690840433994612200,12.1716123046875,-0.9811859130859375,0.024139404296875,0.0032501220703125
1690840434004652300,12.18165234375,-0.9815521240234375,0.023895263671875,0.00262451171875
1690840434014723300,12.191723388671875,-0.982666015625,0.023345947265625,0.00299072265625
1690840434024764400,12.201764404296876,-0.9828643798828125,0.024444580078125,0.0028228759765625
1690840434034804200,12.21180419921875,-0.9810333251953125,0.0235443115234375,0.002960205078125
1690840434044844000,12.221843994140626,-0.980560302734375,0.0240325927734375,0.0030517578125
1690840434054884000,12.231884033203125,-0.980987548828125,0.0243988037109375,0.002777099609375
1690840434064925200,12.24192529296875,-0.9815216064453125,0.0243988037109375,0.002349853515625
1690840434074965200,12.25196533203125,-0.9814300537109375,0.0241851806640625,0.00225830078125
1690840434085005300,12.26200537109375,-0.982086181640625,0.023590087890625,0.0029449462890625
1690840434095046400,12.27204638671875,-0.9822998046875,0.0237579345703125,0.002410888671875
1690840434105086200,12.282086181640626,-0.9813232421875,0.02410888671875,0.00262451171875
1690840434115126000,12.2921259765625,-0.981414794921875,0.023590087890625,0.002838134765625
1690840434125166000,12.302166015625,-0.9825439453125,0.0241241455078125,0.001953125
1690840434135207200,12.312207275390625,-0.9818572998046875,0.0247344970703125,0.002593994140625
1690840434145247200,12.322247314453126,-0.9813690185546875,0.0238494873046875,0.0024261474609375
1690840434155318300,12.332318359375,-0.981353759765625,0.0240020751953125,0.0027008056640625
1690840434165358300,12.3423583984375,-0.98193359375,0.02410888671875,0.00244140625
1690840434175398100,12.352398193359376,-0.9821624755859375,0.024627685546875,0.00274658203125
1690840434185439200,12.362439208984375,-0.9820709228515625,0.0240325927734375,0.0032501220703125
1690840434195479000,12.37247900390625,-0.9819488525390625,0.024078369140625,0.0029144287109375
1690840434205519000,12.38251904296875,-0.981903076171875,0.0238189697265625,0.0035858154296875
1690840434215559200,12.39255908203125,-0.9807281494140625,0.02410888671875,0.00311279296875
1690840434225600300,12.402600341796875,-0.982269287109375,0.0233306884765625,0.003265380859375
1690840434235640300,12.412640380859376,-0.9818115234375,0.0239105224609375,0.0029449462890625
1690840434245680000,12.42268017578125,-0.9813079833984375,0.02392578125,0.00225830078125
1690840434255721200,12.43272119140625,-0.9814453125,0.024139404296875,0.0025177001953125
1690840434265761000,12.442760986328125,-0.9813690185546875,0.0245819091796875,0.00250244140625
1690840434275801000,12.452801025390626,-0.9817657470703125,0.02325439453125,0.002166748046875
1690840434285841200,12.462841064453125,-0.9811553955078125,0.023712158203125,0.0026092529296875
1690840434295882200,12.47288232421875,-0.9805450439453125,0.0251922607421875,0.002655029296875
1690840434305953300,12.482953369140626,-0.981353759765625,0.0245208740234375,0.00244140625
1690840434315993300,12.492993408203125,-0.9820404052734375,0.0243377685546875,0.002716064453125
1690840434326033200,12.503033203125,-0.98162841796875,0.0237579345703125,0.003387451171875
1690840434336073200,12.5130732421875,-0.98138427734375,0.0244598388671875,0.002532958984375
1690840434346114000,12.523114013671876,-0.98138427734375,0.0246124267578125,0.0021820068359375
1690840434356154000,12.533154052734375,-0.9813232421875,0.0244598388671875,0.001251220703125
1690840434366194200,12.543194091796876,-0.9817047119140625,0.02410888671875,0.0025787353515625
1690840434376234200,12.553234130859375,-0.98187255859375,0.024139404296875,0.0023651123046875
1690840434386275300,12.563275390625,-0.9820556640625,0.0238037109375,0.00250244140625
1690840434396315100,12.573315185546875,-0.9814453125,0.0237884521484375,0.0023193359375
1690840434406355200,12.583355224609376,-0.9814605712890625,0.0243072509765625,0.0022735595703125
1690840434416396000,12.59339599609375,-0.98175048828125,0.0247650146484375,0.0037384033203125
1690840434426436000,12.60343603515625,-0.9816741943359375,0.023681640625,0.0036773681640625
1690840434436476200,12.61347607421875,-0.9817352294921875,0.02423095703125,0.0028839111328125
1690840434446547200,12.623547119140625,-0.981903076171875,0.023773193359375,0.0024566650390625
1690840434456587300,12.633587158203126,-0.9817047119140625,0.0238189697265625,0.0032501220703125
1690840434466628900,12.64362890625,-0.9812469482421875,0.024078369140625,0.0029144287109375
1690840434476669000,12.6536689453125,-0.9799957275390625,0.0239410400390625,0.00201416015625
1690840434486709000,12.663708984375,-0.98114013671875,0.0234832763671875,0.002197265625
1690840434496748800,12.673748779296876,-0.981414794921875,0.0240631103515625,0.002716064453125
1690840434506790000,12.683789794921875,-0.98175048828125,0.0238800048828125,0.0030364990234375
1690840434516829700,12.69382958984375,-0.9819183349609375,0.024017333984375,0.003204345703125
1690840434526869800,12.703869873046875,-0.9815826416015625,0.0247955322265625,0.00323486328125
1690840434536910800,12.713910888671874,-0.9810943603515625,0.0247650146484375,0.0029144287109375
1690840434546951000,12.723950927734375,-0.9805450439453125,0.023529052734375,0.0022125244140625
1690840434556991000,12.733990966796876,-0.98028564453125,0.024383544921875,0.002960205078125
1690840434567030800,12.74403076171875,-0.98046875,0.0239105224609375,0.0024566650390625
1690840434577071900,12.75407177734375,-0.9815216064453125,0.0240478515625,0.0016021728515625
1690840434587141600,12.7641416015625,-0.9812774658203125,0.0245819091796875,0.0028076171875
1690840434597182700,12.7741826171875,-0.9814453125,0.0243988037109375,0.002685546875
1690840434607222800,12.784222900390626,-0.9812469482421875,0.024627685546875,0.002532958984375
1690840434617262800,12.794262939453125,-0.9807586669921875,0.0245513916015625,0.0025482177734375
1690840434627304000,12.804303955078124,-0.98187255859375,0.024505615234375,0.0023651123046875
1690840434637344000,12.814343994140625,-0.9825897216796875,0.023590087890625,0.0031280517578125
1690840434647383800,12.8243837890625,-0.9818572998046875,0.0248260498046875,0.002685546875
1690840434657423600,12.834423583984375,-0.98150634765625,0.0249176025390625,0.00286865234375
1690840434667464700,12.844464599609376,-0.98175048828125,0.024688720703125,0.003509521484375
1690840434677504800,12.8545048828125,-0.981475830078125,0.0240478515625,0.0024871826171875
1690840434687544800,12.864544921875,-0.9814605712890625,0.02398681640625,0.00201416015625
1690840434697586000,12.8745859375,-0.981231689453125,0.02459716796875,0.0032501220703125
1690840434707626000,12.8846259765625,-0.981170654296875,0.024078369140625,0.002716064453125
1690840434717665800,12.894665771484375,-0.981689453125,0.0246124267578125,0.0030364990234375
1690840434727705600,12.90470556640625,-0.9817047119140625,0.024169921875,0.0032958984375
1690840434737776600,12.914776611328126,-0.9820709228515625,0.0242767333984375,0.0038604736328125
1690840434747817700,12.924817626953125,-0.9815826416015625,0.0239715576171875,0.00299072265625
1690840434757857800,12.93485791015625,-0.981689453125,0.0238494873046875,0.0024566650390625
1690840434767897900,12.94489794921875,-0.980499267578125,0.02459716796875,0.002899169921875
1690840434777938000,12.95493798828125,-0.98065185546875,0.024169921875,0.0026092529296875
1690840434787979000,12.96497900390625,-0.98126220703125,0.0236968994140625,0.002471923828125
1690840434798018800,12.975018798828126,-0.981719970703125,0.0229949951171875,0.00225830078125
1690840434808058600,12.98505859375,-0.981231689453125,0.0230712890625,0.0020599365234375
1690840434818098700,12.9950986328125,-0.9813690185546875,0.0242919921875,0.001861572265625
1690840434828139800,13.005139892578125,-0.9819793701171875,0.0243072509765625,0.002410888671875
1690840434838179800,13.015179931640626,-0.9814300537109375,0.023956298828125,0.0029296875
1690840434848220000,13.025219970703125,-0.981689453125,0.0240020751953125,0.002685546875
1690840434858261000,13.035260986328124,-0.98126220703125,0.0242767333984375,0.00238037109375
1690840434868300800,13.04530078125,-0.98089599609375,0.0247650146484375,0.0024566650390625
1690840434878371800,13.055371826171875,-0.9810791015625,0.024688720703125,0.0015411376953125
1690840434888411600,13.06541162109375,-0.9809417724609375,0.023834228515625,0.002410888671875
1690840434898451700,13.07545166015625,-0.98089599609375,0.024749755859375,0.0031890869140625
