time,seconds_elapsed,z,y,x
1690840421857467100,0.034467041015625,-0.0016764599131420255,0.016230635344982147,0.16616234183311462
1690840421867507200,0.044507080078125,-0.0013883059145882726,0.014622884802520275,0.15178899466991425
1690840421877547300,0.05454736328125,-0.0012937636347487569,0.008281632326543331,0.12194561213254929
1690840421887587300,0.06458740234375,-0.004770254250615835,-0.0016279903938993812,0.08068392425775528
1690840421897628400,0.07462841796875,-0.005773200653493404,-0.010948521085083485,0.029950175434350967
1690840421907668500,0.08466845703125,-0.00484269205480814,-0.012553342618048191,-0.021613948047161102
1690840421917708000,0.0947080078125,-0.004600344225764275,-0.015047925524413586,-0.07485799491405487
1690840421927749000,0.1047490234375,-0.005662146955728531,-0.007131146267056465,-0.11229804903268814
1690840421937789200,0.1147890625,-0.005232844967395067,0.0008908273885026574,-0.1443667709827423
1690840421947829200,0.124829345703125,-0.004560397006571293,0.004757204558700323,-0.1581323742866516
1690840421957869300,0.134869384765625,-0.003662378992885351,0.004144144710153341,-0.1637745499610901
1690840421967910400,0.144910400390625,-0.003315103007480502,0.001642371411435306,-0.15633554756641388
1690840421977950200,0.1549501953125,-0.0028850024100393057,-0.0011339739430695772,-0.13952487707138062
1690840421987990000,0.164989990234375,-0.0025648903101682663,-0.005577724426984787,-0.11691729724407196
1690840421998061000,0.17506103515625,-0.0034011229872703552,-0.012075571343302727,-0.08854424953460693
1690840422008101000,0.18510107421875,-0.003899666713550687,-0.014398912899196148,-0.05739857628941536
1690840422018142200,0.19514208984375,-0.004031759686768055,-0.010518686845898628,-0.023612385615706444
1690840422028182300,0.205182373046875,-0.004856273997575045,-0.008039018139243126,0.009237440302968025
1690840422038222300,0.215222412109375,-0.0059987702406942844,-0.00321869645267725,0.038476020097732544
1690840422048263400,0.225263427734375,-0.00635057408362627,0.003849599277600646,0.05952910706400871
1690840422058303200,0.23530322265625,-0.005385976750403643,0.010578341782093048,0.0777275487780571
1690840422068343000,0.245343017578125,-0.006791593506932259,0.011713380925357342,0.08696579188108444
1690840422078383000,0.255383056640625,-0.0054911719635128975,0.008036620914936066,0.08562728762626648
1690840422088424200,0.265424072265625,-0.003013899317011237,0.004806472919881344,0.0781954675912857
1690840422098464300,0.27546435546875,-0.004854676313698292,-0.0013986921403557062,0.06360986828804016
1690840422108504300,0.28550439453125,-0.004799549002200365,-0.00833835732191801,0.04014928266406059
1690840422118545400,0.29554541015625,-0.005209143273532391,-0.011427624151110649,0.01329769566655159
1690840422128585200,0.305585205078125,-0.004276237916201353,-0.009282980114221573,-0.01672172173857689
1690840422138656300,0.31565625,-0.003620034782215953,-0.005156146362423897,-0.04288488253951073
1690840422148696000,0.325696044921875,-0.0051476238295435905,-0.0008663262706249952,-0.06697078049182892
1690840422158736100,0.335736083984375,-0.004512726329267025,0.0013222594279795885,-0.08521290123462677
1690840422168776200,0.345776123046875,-0.004692489746958017,0.003102316288277507,-0.09721390157938004
1690840422178817300,0.3558173828125,-0.004973187111318111,-0.00010146643762709573,-0.1004810705780983
1690840422188857300,0.365857421875,-0.004640291910618544,-0.001967277145013213,-0.09742721915245056
1690840422198897200,0.375897216796875,-0.002900448627769947,-0.005426190793514252,-0.08792612701654434
1690840422208938200,0.385938232421875,-0.0028818065766245127,-0.006196376867592335,-0.07424893230199814
1690840422218978000,0.39597802734375,-0.002624278888106346,-0.007904528640210629,-0.055392418056726456
1690840422229018000,0.40601806640625,-0.004357464145869017,-0.008626777678728104,-0.03882009908556938
1690840422239058200,0.41605810546875,-0.006783603690564632,-0.004235757514834404,-0.01956065185368061
1690840422249099300,0.426099365234375,-0.00529542937874794,-0.001178182428702712,-0.00019734023953787982
1690840422259139300,0.436139404296875,-0.005292766261845827,-0.0003502056933939457,0.01595339924097061
1690840422269179400,0.446179443359375,-0.006679740734398365,0.0018359832465648651,0.030050577595829964
1690840422279250200,0.456250244140625,-0.00555162550881505,0.002267681760713458,0.03473907336592674
1690840422289290200,0.466290283203125,-0.004718055948615074,0.0019156117923557758,0.03969947621226311
1690840422299331000,0.4763310546875,-0.0038360171020030975,0.0011611381778493524,0.03510525822639465
1690840422309371100,0.48637109375,-0.00444002216681838,-0.0044195158407092094,0.027886757627129555
1690840422319411200,0.4964111328125,-0.00407516909763217,-0.003808320267125964,0.0184682235121727
1690840422329451300,0.506451171875,-0.005569202359765768,-0.0046759783290326595,0.0027885958552360535
1690840422339492400,0.516492431640625,-0.005502357147634029,-0.00276063266210258,-0.010187922976911068
1690840422349532200,0.5265322265625,-0.0033278861083090305,-0.003356115659698844,-0.026731213554739952
1690840422359572200,0.536572265625,-0.004917260725051165,-0.00012623383372556418,-0.04301963746547699
1690840422369613000,0.546613037109375,-0.004090082831680775,0.0006269080913625658,-0.05345070734620094
1690840422379653000,0.556653076171875,-0.005006742663681507,0.0031787490006536245,-0.05919301509857178
1690840422389693200,0.566693115234375,-0.004114051349461079,-0.0008532768115401268,-0.0630391538143158
1690840422399733200,0.576733154296875,-0.005403287708759308,-0.001882854849100113,-0.06301917880773544
1690840422409774300,0.5867744140625,-0.004323109518736601,-0.0022535668686032295,-0.05952484533190727
1690840422419814400,0.596814453125,-0.004674912896007299,-0.007396397180855274,-0.054666440933942795
1690840422429885200,0.60688525390625,-0.004719920456409454,-0.0031438616570085287,-0.04211869090795517
1690840422439925200,0.61692529296875,-0.004303668159991503,-0.00373082235455513,-0.0296148844063282
1690840422449965300,0.62696533203125,-0.006138320080935955,-0.0014825817197561264,-0.019181950017809868
1690840422459983400,0.6369833984375,-0.004971855320036411,-0.0018777948571369052,-0.007900000549852848
1690840422470023400,0.6470234375,-0.002737463219091296,0.002177400514483452,-0.0009949569357559085
1690840422480063500,0.6570634765625,-0.005847236607223749,0.0025161546654999256,0.005673598498106003
1690840422490104300,0.667104248046875,-0.003949468024075031,-0.0028248149901628494,0.011149057187139988
1690840422500144400,0.677144287109375,-0.005195028148591518,-0.0035867453552782536,0.011005513370037079
1690840422510184400,0.687184326171875,-0.004138552118092775,-0.003367567202076316,0.009631854481995106
1690840422520224300,0.697224365234375,-0.004497013986110687,-0.0015755260828882456,0.003923901356756687
1690840422530265300,0.707265380859375,-0.005209941882640123,-0.005437908694148064,-0.004219778813421726
1690840422540305400,0.717305419921875,-0.0027198863681405783,-0.002484995638951659,-0.009211075492203236
1690840422550345500,0.727345458984375,-0.004875448998063803,-0.0019057580502703786,-0.01836489327251911
1690840422560386300,0.73738623046875,-0.005739111918956041,-0.0010580739472061396,-0.027889687567949295
1690840422570456600,0.74745654296875,-0.004174504894763231,-0.002204830991104245,-0.03572950139641762
1690840422580497400,0.757497314453125,-0.005028048064559698,-0.002412557601928711,-0.03922756388783455
1690840422590537500,0.767537353515625,-0.004318581894040108,-0.002746251644566655,-0.041787926107645035
1690840422600577300,0.777577392578125,-0.005368932615965605,-0.0025893915444612503,-0.043479833751916885
1690840422610617300,0.787617431640625,-0.0037622477393597364,-0.002660498023033142,-0.04343535751104355
1690840422620658400,0.797658447265625,-0.0044440170750021935,-0.003316967049613595,-0.040888044983148575
1690840422630698500,0.807698486328125,-0.0044200485572218895,-0.003081543603911996,-0.032639436423778534
1690840422640738600,0.817738525390625,-0.004258128348737955,-0.003635481232777238,-0.029445240274071693
1690840422650779400,0.827779296875,-0.00401737866923213,-0.004917793441563845,-0.0227415319532156
1690840422660819500,0.8378193359375,-0.00561021501198411,0.00013528858835343271,-0.015168566256761551
1690840422670859300,0.847859375,-0.005323126446455717,-0.0005704491049982607,-0.009222527034580708
1690840422680899300,0.8578994140625,-0.006354302167892456,-0.000597879639826715,-0.007653392385691404
1690840422690940400,0.8679404296875,-0.004147074185311794,-0.0015022892039269209,-0.0030546458438038826
1690840422700980500,0.87798046875,-0.003522030543535948,-0.0029491845052689314,-0.003263437654823065
1690840422711051500,0.888051513671875,-0.005654956214129925,-0.0031108383554965258,-0.003093527862802148
1690840422721091600,0.898091552734375,-0.004707936197519302,-0.002350772265344858,-0.0076025258749723434
1690840422731131600,0.908131591796875,-0.0029768813401460648,-0.0033923345617949963,-0.0103770075365901
1690840422741172500,0.91817236328125,-0.005583050660789013,-0.0035233621019870043,-0.015238340944051743
1690840422751212300,0.92821240234375,-0.0038900794461369514,-0.002749447477981448,-0.020433902740478516
1690840422761252400,0.93825244140625,-0.005117264110594988,-0.0040948763489723206,-0.025198563933372498
1690840422771292400,0.94829248046875,-0.004895688965916634,-0.0021960425656288862,-0.027366111055016518
1690840422781333500,0.95833349609375,-0.00256435782648623,0.0001715075777610764,-0.028852686285972595
1690840422791373600,0.96837353515625,-0.004464257042855024,-0.0007912251749075949,-0.031089475378394127
1690840422801413600,0.97841357421875,-0.003689276985824108,-0.002828276949003339,-0.033784862607717514
1690840422811454500,0.988454345703125,-0.004093811381608248,-0.002111886627972126,-0.031925443559885025
1690840422821494300,0.998494384765625,-0.003964648116379976,-0.004876514431089163,-0.031860459595918655
1690840422831534300,1.008534423828125,-0.0038839541375637054,-0.004376372788101435,-0.027782628312706947
1690840422841574400,1.018574462890625,-0.00555135915055871,-0.0016010924009606242,-0.023874439299106598
1690840422851645400,1.0286455078125,-0.0046573360450565815,-0.003519367426633835,-0.019059445708990097
1690840422861686500,1.0386865234375,-0.005031776614487171,-0.002115881536155939,-0.01618269830942154
1690840422871726600,1.0487265625,-0.003081277245655656,-0.0015867113834246993,-0.014319551177322865
1690840422881766700,1.0587666015625,-0.0063210129737854,-0.0036557212006300688,-0.011758921667933464
1690840422891806500,1.068806396484375,-0.005162005312740803,-0.002027997048571706,-0.010177004151046276
1690840422901847300,1.078847412109375,-0.005644570104777813,-0.0035742283798754215,-0.01267158705741167
1690840422911887400,1.088887451171875,-0.005409945268183947,-0.003181145992130041,-0.012378638610243797
1690840422921927400,1.098927490234375,-0.003948668949306011,-0.0024716798216104507,-0.01518960576504469
1690840422931968500,1.108968505859375,-0.005075718741863966,-0.0038189729675650597,-0.015910256654024124
1690840422942008600,1.119008544921875,-0.0038312235847115517,0.00012596751912496984,-0.017973940819501877
1690840422952048600,1.129048583984375,-0.0054336474277079105,-0.0029047098942101,-0.02129809744656086
1690840422962088400,1.13908837890625,-0.006256031803786755,-0.0029672940727323294,-0.023911191150546074
1690840422972129300,1.14912939453125,-0.004736165516078472,0.0018543590558692813,-0.026078738272190094
1690840422982169300,1.15916943359375,-0.0056919739581644535,-0.004756139125674963,-0.026623355224728584
1690840422992209400,1.16920947265625,-0.00669358903542161,-0.0019342538435012102,-0.02725292555987835
1690840423002280400,1.179280517578125,-0.0044109937734901905,-0.001418932224623859,-0.02828090637922287
1690840423012320500,1.189320556640625,-0.0062975771725177765,-0.001290834159590304,-0.02678660675883293
1690840423022361600,1.199361572265625,-0.0046160570345819,-0.003276220755651593,-0.025405757129192352
1690840423032401700,1.209401611328125,-0.004712196998298168,-0.002680205274373293,-0.021995846182107925
1690840423042441500,1.21944140625,-0.0037444045301526785,-0.0028423918411135674,-0.02111114375293255
1690840423052481500,1.2294814453125,-0.004786232952028513,-0.0011731224367395043,-0.01895984262228012
1690840423062522400,1.2395224609375,-0.00418489146977663,-0.0025478461757302284,-0.019692478701472282
1690840423072562400,1.2495625,-0.00444055488333106,-0.0015574166318401694,-0.01619707979261875
1690840423082602500,1.2596025390625,-0.006068544927984476,-0.0015789881581440568,-0.014507037587463856
1690840423092643600,1.2696435546875,-0.003930825740098953,-0.00458676228299737,-0.015661783516407013
1690840423102683600,1.27968359375,-0.004138019867241383,-0.0005142564186826348,-0.014916365034878254
1690840423112723500,1.289723388671875,-0.005682120565325022,-0.001222657272592187,-0.01667671464383602
1690840423122763500,1.299763427734375,-0.005576659459620714,-0.003013632958754897,-0.018086591735482216
1690840423132804400,1.309804443359375,-0.006146309431642294,-0.004443750716745853,-0.018751850351691246
1690840423142875400,1.31987548828125,-0.004882107023149729,-0.0038160434924066067,-0.021926337853074074
1690840423152915500,1.32991552734375,-0.004768389742821455,-0.004002198576927185,-0.022356703877449036
1690840423162955500,1.33995556640625,-0.0067780110985040665,-0.0007720504072494805,-0.022714367136359215
1690840423172995300,1.349995361328125,-0.005035238806158304,-0.00014141385327093303,-0.024828650057315826
1690840423183036400,1.360036376953125,-0.005062136333435774,0.000434361572843045,-0.0237045306712389
1690840423193076500,1.370076416015625,-0.004599545616656542,-0.0011137339752167463,-0.02430400811135769
1690840423203116500,1.380116455078125,-0.0036855486687272787,-0.0026439863722771406,-0.024900289252400398
1690840423213157400,1.390157470703125,-0.0046546729281544685,-0.0012697952333837748,-0.023498933762311935
1690840423223197400,1.400197509765625,-0.004041879437863827,-0.005572398193180561,-0.022482406347990036
1690840423233237500,1.410237548828125,-0.005243764258921146,-0.003808320267125964,-0.0219108909368515
1690840423243277600,1.420277587890625,-0.004535629414021969,-0.0038048583082854748,-0.020241089165210724
1690840423253318700,1.430318603515625,-0.005222725216299295,-0.001526523963548243,-0.019416574388742447
1690840423263358500,1.4403583984375,-0.0043769050389528275,-0.0022021678742021322,-0.017915351316332817
1690840423273398300,1.450398193359375,-0.003808053908869624,-0.002372077666223049,-0.017649566754698753
1690840423283469300,1.46046923828125,-0.0044048684649169445,-0.0027502465527504683,-0.01804770901799202
1690840423293509400,1.47050927734375,-0.0052080778405070305,-0.002286856295540929,-0.01786821335554123
1690840423303550500,1.480550537109375,-0.004606469534337521,-0.0027811392210423946,-0.018679145723581314
1690840423313590500,1.490590576171875,-0.005332713946700096,-0.001056209672242403,-0.01967117376625538
1690840423323630300,1.50063037109375,-0.00436145905405283,-0.002382996492087841,-0.020015252754092216
1690840423333670400,1.51067041015625,-0.006207029335200787,-0.002389121800661087,-0.0199207104742527
1690840423343711500,1.52071142578125,-0.0044051348231732845,-0.0023513049818575382,-0.022158032283186913
1690840423353751300,1.530751220703125,-0.0038519962690770626,-0.0023606258910149336,-0.022776152938604355
1690840423363791400,1.540791259765625,-0.004867726005613804,-0.001826395862735808,-0.023330090567469597
1690840423373832400,1.55083251953125,-0.0043928842060267925,-0.00034674355993047357,-0.022305572405457497
1690840423383872500,1.56087255859375,-0.004918059334158897,-0.0028245486319065094,-0.023373765870928764
1690840423393912600,1.57091259765625,-0.00452843913808465,-0.0015571502735838294,-0.021988922730088234
1690840423403952400,1.580952392578125,-0.005662945564836264,-0.0020839234348386526,-0.020910074934363365
1690840423413993500,1.590993408203125,-0.005406217183917761,-0.0027957865968346596,-0.02250956930220127
1690840423424033300,1.601033203125,-0.005255482159554958,-0.0010181264951825142,-0.020314592868089676
1690840423434104300,1.611104248046875,-0.003799265483394265,-0.002737196860834956,-0.019287677481770515
1690840423444144400,1.621144287109375,-0.004215251188725233,-0.0021638183388859034,-0.020050140097737312
1690840423454184400,1.631184326171875,-0.0029526466969400644,-0.0018463695887476206,-0.01962110586464405
1690840423464246300,1.641246337890625,-0.002889263443648815,-0.001948368619196117,-0.01836489327251911
1690840423474286000,1.6512861328125,-0.00466505903750658,-0.0023039006628096104,-0.018909774720668793
1690840423484326100,1.661326171875,-0.004217382054775953,-0.003710049670189619,-0.019645607098937035
1690840423494366200,1.6713662109375,-0.003989415243268013,-0.0035260252188891172,-0.020594224333763123
1690840423504407000,1.681406982421875,-0.0037414750549942255,-0.0037947380915284157,-0.020477578043937683
1690840423514447000,1.691447021484375,-0.004807538352906704,-0.0014050838071852922,-0.02047118730843067
1690840423524487200,1.701487060546875,-0.0033457293175160885,-0.003427754621952772,-0.02274472638964653
1690840423534528300,1.7115283203125,-0.0046882289461791515,-0.0035004590172320604,-0.022416891530156136
1690840423544568300,1.721568359375,-0.003925499506294727,-0.0010881676571443677,-0.022640597075223923
1690840423554608000,1.731608154296875,-0.003899400355294347,-0.0038069887086749077,-0.02220943197607994
1690840423564648200,1.741648193359375,-0.005389705300331116,-0.0015901734586805105,-0.022773489356040955
1690840423574719200,1.75171923828125,-0.006103964988142252,-0.0026501116808503866,-0.022340726107358932
1690840423584760000,1.761760009765625,-0.005396896041929722,-0.0019206717843189836,-0.022878684103488922
1690840423594800000,1.771800048828125,-0.005004079546779394,-0.0018844527658075094,-0.021832061931490898
1690840423604840200,1.781840087890625,-0.0038099181838333607,-0.004593153949826956,-0.021891983225941658
1690840423614880000,1.7918798828125,-0.005193696822971106,-0.0038282941095530987,-0.02087811753153801
1690840423624921000,1.801921142578125,-0.005528722424060106,-0.001454884884878993,-0.019963588565587997
1690840423634961200,1.811961181640625,-0.005107942968606949,-0.0005691175465472043,-0.020368387922644615
1690840423645001200,1.822001220703125,-0.0054336474277079105,-0.0023315974976867437,-0.020290357992053032
1690840423655042000,1.8320419921875,-0.0054182009771466255,0.00088976213010028,-0.02052604779601097
1690840423665082000,1.84208203125,-0.003674363251775503,-0.0009992180857807398,-0.0200370904058218
1690840423675122200,1.8521220703125,-0.004466920159757137,-0.0024687503464519978,-0.020783308893442154
1690840423685162200,1.862162353515625,-0.004323109518736601,-0.00213612150400877,-0.01804371550679207
1690840423695203300,1.872203369140625,-0.004728442523628473,-0.004229099955409765,-0.02191248908638954
1690840423705243100,1.8822431640625,-0.004293015692383051,-0.002055694116279483,-0.023975640535354614
1690840423715314200,1.892314208984375,-0.0025814019609242678,-0.004336691461503506,-0.022768961265683174
1690840423725354200,1.902354248046875,-0.005547896958887577,-0.002630404196679592,-0.01841442659497261
1690840423735394300,1.912394287109375,-0.005554022267460823,-0.002276470186188817,-0.02101180888712406
1690840423745435100,1.92243505859375,-0.004762797150760889,0.0014165353495627642,-0.02052178606390953
1690840423755475200,1.93247509765625,-0.004584365524351597,-0.0016610135789960623,-0.02269625850021839
1690840423765515000,1.942514892578125,-0.0036509274505078793,-0.0027614317368716,-0.021698104217648506
1690840423775555000,1.95255517578125,-0.004369714763015509,-0.003832821501418948,-0.021225925534963608
1690840423785596200,1.96259619140625,-0.003922836389392614,-0.002817091764882207,-0.019882362335920334
1690840423795636200,1.97263623046875,-0.003763579297810793,-0.0019108180422335863,-0.02177853137254715
1690840423805676300,1.98267626953125,-0.0031348068732768297,-0.0014961638953536749,-0.020803814753890038
1690840423815717000,1.992717041015625,-0.004579039290547371,-0.0024282701779156923,-0.021494906395673752
1690840423825757200,2.002757080078125,-0.0054243262857198715,-0.0005044027348048985,-0.020420586690306664
1690840423835797200,2.01279736328125,-0.004851746838539839,-0.0028013791888952255,-0.02183366008102894
1690840423845837000,2.022837158203125,-0.004400873556733131,-0.0014170679496601224,-0.020018449053168297
1690840423855878100,2.032878173828125,-0.005462143570184708,-0.0036597158759832382,-0.019337479025125504
1690840423865949200,2.04294921875,-0.004811533261090517,-0.002251968951895833,-0.021441109478473663
1690840423875989200,2.0529892578125,-0.0034533210564404726,-0.0012650014832615852,-0.021495969966053963
1690840423886029300,2.063029296875,-0.003727360162883997,-0.001776062068529427,-0.02177959680557251
1690840423896069400,2.0730693359375,-0.003066629869863391,-0.003171292133629322,-0.020309798419475555
1690840423906110200,2.083110107421875,-0.003853061469271779,-0.0022455775178968906,-0.021810490638017654
1690840423916150000,2.09314990234375,-0.004190217703580856,-0.0031153657473623753,-0.022595589980483055
1690840423926190000,2.103190185546875,-0.0037116475868970156,-0.00195156445261091,-0.021767612546682358
1690840423936230100,2.113230224609375,-0.003852528752759099,-0.00355904852040112,-0.022938339039683342
1690840423946271200,2.123271240234375,-0.004200337454676628,-0.0038839541375637054,-0.02213672734797001
1690840423956311300,2.133311279296875,-0.0038037928752601147,-0.002606435678899288,-0.02052098698914051
1690840423966351400,2.143351318359375,-0.0038338867016136646,-0.003739610780030489,-0.0215913113206625
1690840423976392200,2.15339208984375,-0.003856257302686572,-0.004194478504359722,-0.020422451198101044
1690840423986432300,2.163432373046875,-0.00574869941920042,-0.004713795147836208,-0.0203380286693573
1690840423996472000,2.17347216796875,-0.004693288821727037,-0.0013411679537966847,-0.020378507673740387
1690840424006543000,2.183543212890625,-0.0037875475827604532,-0.0013733921805396676,-0.022345252335071564
1690840424016583200,2.193583251953125,-0.00424374733120203,-0.003631486324593425,-0.020051205530762672
1690840424026624300,2.203624267578125,-0.004658135119825602,-0.0016847157385200262,-0.021521536633372307
1690840424036664300,2.213664306640625,-0.006459497381001711,-0.0015430354978889227,-0.019365442916750908
1690840424046704400,2.223704345703125,-0.0031350732315331697,0.000012783173588104546,-0.01895318552851677
1690840424056744200,2.233744140625,-0.004084223881363869,-0.0012338425731286407,-0.01925918273627758
1690840424066785000,2.243784912109375,-0.0032687638886272907,-0.0018439727136865258,-0.021154819056391716
1690840424076825000,2.2538251953125,-0.005512476898729801,-0.004174238536506891,-0.01943068951368332
1690840424086865200,2.263865234375,-0.004402738064527512,-0.00247567449696362,-0.021829398348927498
1690840424096906200,2.27390625,-0.005077849142253399,-0.0013606089632958174,-0.020297814160585403
1690840424106946300,2.2839462890625,-0.006772951222956181,-0.003376621985808015,-0.019700467586517334
1690840424116986400,2.293986328125,-0.004743356257677078,-0.0017233315156772733,-0.02003442868590355
1690840424127026200,2.304026123046875,-0.005512743256986141,-0.0022743395529687405,-0.02009914256632328
1690840424137067000,2.31406689453125,-0.003766775131225586,-0.00370072852820158,-0.021614747121930122
1690840424147137300,2.32413720703125,-0.004683701321482658,-0.00018082863243762404,-0.02106027863919735
1690840424157178000,2.33417822265625,-0.003712979145348072,0.0011230550007894635,-0.01979394443333149
1690840424167218200,2.34421826171875,-0.005366535857319832,-0.0015776565996930003,-0.019473033025860786
1690840424177258200,2.35425830078125,-0.004515922162681818,-0.0019449065439403057,-0.022324213758111
1690840424187299300,2.36429931640625,-0.0038123151753097773,-0.0032256206031888723,-0.020562533289194107
1690840424197339400,2.37433935546875,-0.004350007511675358,-0.0018216022290289402,-0.02047118730843067
1690840424207379200,2.384379150390625,-0.005242166109383106,-0.0017712684348225594,-0.019218701869249344
1690840424217419300,2.394419189453125,-0.004248274490237236,-0.0013571468880400062,-0.021527396515011787
1690840424227460000,2.404460205078125,-0.0033427998423576355,-0.0019744676537811756,-0.02137106843292713
1690840424237500200,2.414500244140625,-0.0028418591246008873,-0.0018735338235273957,-0.017737718299031258
1690840424247540200,2.424540283203125,-0.005714078433811665,0.0002932140196207911,-0.02052045427262783
1690840424257581300,2.434581298828125,-0.005133509170264006,-0.0057167415507137775,-0.022837936878204346
1690840424267621400,2.444621337890625,-0.004515389446169138,-0.0034322820138186216,-0.021939920261502266
1690840424277661200,2.4546611328125,-0.005066663958132267,-0.002656769473105669,-0.019693544134497643
1690840424287701200,2.464701171875,-0.0052179316990077496,-0.0023334617726504803,-0.019904732704162598
1690840424297772300,2.474772216796875,-0.004117247182875872,-0.003721767570823431,-0.02219664864242077
1690840424307813000,2.484813232421875,-0.004738030023872852,-0.004547880031168461,-0.01895717903971672
1690840424317853200,2.494853271484375,-0.004161987919360399,-0.0014628743520006537,-0.02189810760319233
1690840424327893200,2.504893310546875,-0.004844556096941233,-0.004649879410862923,-0.02268906682729721
1690840424337933300,2.514933349609375,-0.003796069882810116,-0.0003430151555221528,-0.021585453301668167
1690840424347974400,2.524974365234375,-0.005173456855118275,-0.00005326322207110934,-0.020849620923399925
1690840424358014200,2.53501416015625,-0.003947603516280651,-0.0021526331547647715,-0.02143232151865959
1690840424368054300,2.54505419921875,-0.004003529902547598,-0.0027744811959564686,-0.021383052691817284
1690840424378095000,2.55509521484375,-0.004328435752540827,-0.004548679105937481,-0.02075055241584778
1690840424388135200,2.56513525390625,-0.0029726203065365553,0.0002181128947995603,-0.0209438968449831
1690840424398175200,2.57517529296875,-0.005371063016355038,-0.003765709698200226,-0.02076280303299427
1690840424408215300,2.58521533203125,-0.005431783385574818,-0.002034388715401292,-0.019764117896556854
1690840424418256400,2.59525634765625,-0.005114068277180195,-0.0020546286832541227,-0.01925145834684372
1690840424428296200,2.605296142578125,-0.006764429155737162,-0.0008000136003829539,-0.0209465604275465
1690840424438367200,2.6153671875,-0.002728408435359597,0.00027270769351162016,-0.020376378670334816
1690840424448407300,2.6254072265625,-0.003799531841650605,-0.0011864382540807128,-0.021524999290704727
1690840424458441000,2.63544091796875,-0.002724946476519108,-0.001612011343240738,-0.02226908691227436
1690840424468482000,2.64548193359375,-0.003926032222807407,-0.002665025182068348,-0.02172154001891613
1690840424478522000,2.655522216796875,-0.0037025928031653166,-0.0008913599886000156,-0.020712735131382942
1690840424488562200,2.665562255859375,-0.005672533065080643,-0.0035814191214740276,-0.019903933629393578
1690840424498602200,2.675602294921875,-0.00455613574013114,-0.0021044297609478235,-0.01998515985906124
1690840424508643000,2.68564306640625,-0.005191565956920385,-0.0012482235906645656,-0.022658441215753555
1690840424518683000,2.695682861328125,-0.004326837603002787,-0.0033744913525879383,-0.02022617496550083
1690840424528723000,2.705722900390625,-0.003062102710828185,-0.0022245384752750397,-0.020685037598013878
1690840424538764000,2.715763916015625,-0.004513791762292385,-0.001386441639624536,-0.022823290899395943
1690840424548804000,2.72580419921875,-0.004743356257677078,-0.0009353021741844714,-0.019053319469094276
1690840424558844200,2.73584423828125,-0.005193696822971106,-0.0008391620358452201,-0.020500481128692627
1690840424568884200,2.74588427734375,-0.0055004931055009365,-0.0038152446504682302,-0.021210746839642525
1690840424578955300,2.755955322265625,-0.0049526807852089405,-0.0004623247659765184,-0.019715381786227226
1690840424588995000,2.7659951171875,-0.0044133905321359634,-0.0038751657120883465,-0.02166454866528511
1690840424599036000,2.776035888671875,-0.005121258553117514,-0.004087952431291342,-0.021195832639932632
1690840424609076000,2.786075927734375,-0.0048829056322574615,-0.0006985471700318158,-0.019245333969593048
1690840424619116000,2.796115966796875,-0.0038575888611376286,-0.0018660769565030932,-0.021226990967988968
1690840424629157000,2.8061572265625,-0.005256014876067638,-0.0010657970560714602,-0.02070341445505619
1690840424639197200,2.816197265625,-0.004179032519459724,-0.0006644586683250964,-0.0201066005975008
1690840424649237200,2.8262373046875,-0.004701011814177036,-0.0007459514308720827,-0.021442707628011703
1690840424659277000,2.836277099609375,-0.0025888588279485703,-0.0012918994762003422,-0.02009647898375988
1690840424669318000,2.84631787109375,-0.004246144089847803,0.0014231932582333684,-0.019154785200953484
1690840424679358000,2.85635791015625,-0.0029521139804273844,-0.003531085327267647,-0.021695442497730255
1690840424689398000,2.86639794921875,-0.004257595632225275,-0.00484189298003912,-0.02171594835817814
1690840424699439000,2.876439208984375,-0.0043779704719781876,-0.0031292142812162638,-0.022100774571299553
1690840424709479200,2.886479248046875,-0.004947620443999767,-0.002516953507438302,-0.021649101749062538
1690840424719519200,2.896519287109375,-0.003946005832403898,-0.0026381274219602346,-0.020894896239042282
1690840424729590300,2.90659033203125,-0.002788063371554017,-0.0006386260502040386,-0.020730046555399895
1690840424739630000,2.916630126953125,-0.004378503188490868,-0.0031398669816553593,-0.019037339836359024
1690840424749671000,2.9266708984375,-0.0041699777357280254,-0.0027017768006771803,-0.02147866040468216
1690840424759711000,2.9367109375,-0.005126585252583027,-0.0033904702868312597,-0.021079719066619873
1690840424769751000,2.9467509765625,-0.004664793144911528,-0.001270594191737473,-0.017833326011896133
1690840424779791000,2.956791015625,-0.00475587323307991,-0.0016527577536180615,-0.02052871137857437
1690840424789832200,2.966832275390625,-0.005652026738971472,-0.0026085663121193647,-0.02129623293876648
1690840424799872300,2.976872314453125,-0.0057585532777011395,-0.0025718146935105324,-0.02063736692070961
1690840424809912000,2.986912109375,-0.0052259210497140884,-0.0023369237314909697,-0.02100248634815216
1690840424819953000,2.996952880859375,-0.005989449098706245,-0.004224305972456932,-0.021562283858656883
1690840424829993000,3.006992919921875,-0.0036762275267392397,-0.000803209375590086,-0.020681310445070267
1690840424840033000,3.017032958984375,-0.005101284943521023,-0.0013795174891129136,-0.01990979164838791
1690840424850073000,3.027072998046875,-0.0040735709480941296,-0.0017496967921033502,-0.019961990416049957
1690840424860114200,3.0371142578125,-0.0046578687615692616,-0.004778243601322174,-0.022965237498283386
1690840424870184200,3.04718408203125,-0.004811533261090517,-0.003750795964151621,-0.022302642464637756
1690840424880225300,3.057225341796875,-0.004838963504880667,-0.002293247962370515,-0.020122578367590904
1690840424890265000,3.06726513671875,-0.003996872343122959,-0.001297225710004568,-0.02010100707411766
1690840424900305200,3.07730517578125,-0.004738296382129192,-0.0034171019215136766,-0.020660271868109703
1690840424910346000,3.087345947265625,-0.004065581597387791,-0.0014442323008552194,-0.020192353054881096
1690840424920386000,3.097385986328125,-0.005250954534858465,-0.0026040389202535152,-0.02022670768201351
1690840424930426000,3.107426025390625,-0.0057279267348349094,-0.0010791128734126687,-0.01980353146791458
1690840424940466200,3.117466064453125,-0.004191016778349876,-0.002133724745362997,-0.02052444964647293
1690840424950507300,3.12750732421875,-0.004318581894040108,-0.00475560687482357,-0.02172420360147953
1690840424960547000,3.137547119140625,-0.004600610584020615,-0.004911668132990599,-0.020841365680098534
1690840424970587100,3.147587158203125,-0.003765709698200226,-0.0013512879377231002,-0.022402776405215263
1690840424980628000,3.1576279296875,-0.004348675720393658,-0.002080195117741823,-0.02118491381406784
1690840424990668000,3.16766796875,-0.0032916669733822346,-0.0022836606949567795,-0.02191062457859516
1690840425000708000,3.1777080078125,-0.005692773032933474,-0.002101234160363674,-0.021468274295330048
1690840425010779100,3.187779052734375,-0.0023118900135159492,-0.0007073355955071747,-0.0205119326710701
1690840425020819200,3.197819091796875,-0.005218996666371822,-0.0021579593885689974,-0.019328424707055092
1690840425030859000,3.20785888671875,-0.005428054835647345,-0.0008844357798807323,-0.01973855122923851
1690840425040900000,3.217900146484375,-0.0046876962296664715,-0.0031494542490690947,-0.021147629246115685
1690840425050940200,3.227940185546875,-0.0046605318784713745,-0.0008194546680897474,-0.02057132124900818
1690840425060980000,3.23797998046875,-0.0036690370179712772,-0.0024234766606241465,-0.019284747540950775
1690840425071021000,3.24802099609375,-0.004889830015599728,-0.001900964416563511,-0.022054968401789665
1690840425081061000,3.25806103515625,-0.0046605318784713745,-0.002710299100726843,-0.02154603786766529
1690840425091101200,3.26810107421875,-0.00512685114517808,-0.003837615018710494,-0.018326276913285255
1690840425101141000,3.27814111328125,-0.003820570884272456,-0.0015960324089974165,-0.020713800564408302
1690840425111182000,3.28818212890625,-0.005377987399697304,-0.0034179009962826967,-0.020683174952864647
1690840425121222100,3.29822216796875,-0.006203833501785994,-0.0037089844699949026,-0.020805945619940758
1690840425131262000,3.308261962890625,-0.0026578346733003855,-0.004471180960536003,-0.020199278369545937
1690840425141303000,3.318302978515625,-0.005745503585785627,-0.003882622579112649,-0.01889965496957302
1690840425151343000,3.328343017578125,-0.004337756894528866,-0.0010958907660096884,-0.019894080236554146
1690840425161414100,3.3384140625,-0.003290335414931178,-0.002114816103130579,-0.02105575054883957
1690840425171454000,3.348453857421875,-0.0046237800270318985,-0.002977414056658745,-0.018987273797392845
1690840425181494000,3.358493896484375,-0.004005660768598318,-0.001088966615498066,-0.020502345636487007
1690840425191535000,3.36853515625,-0.003829092951491475,0.00003968110104324296,-0.022766299545764923
1690840425201575200,3.3785751953125,-0.003805657150223851,-0.0026852653827518225,-0.01895025558769703
1690840425211615000,3.388614990234375,-0.005608084611594677,-0.0018093516118824482,-0.019389409571886063
1690840425221655000,3.398655029296875,-0.004776113200932741,-0.00398595305159688,-0.020125774666666985
1690840425231696100,3.408696044921875,-0.004969192203134298,-0.0013848437229171395,-0.0194298904389143
1690840425241736200,3.418736083984375,-0.0038991342298686504,-0.0027265443932265043,-0.02113085240125656
1690840425251776000,3.42877587890625,-0.0052293832413852215,-0.0026130937039852142,-0.021742314100265503
1690840425261817000,3.438817138671875,-0.004531368613243103,-0.0020777983590960503,-0.022040586918592453
1690840425271857000,3.44885693359375,-0.004595017991960049,-0.0019502328941598535,-0.021731926128268242
1690840425281897000,3.45889697265625,-0.003922303672879934,-0.0021491709630936384,-0.019963854923844337
1690840425291937000,3.46893701171875,-0.005485845264047384,-0.004294879734516144,-0.021889586001634598
1690840425302008000,3.479008056640625,-0.0054307179525494576,-0.0014138722326606512,-0.021278923377394676
1690840425312047900,3.4890478515625,-0.0027028422337025404,-0.002261290093883872,-0.02063896507024765
1690840425322089000,3.4990888671875,-0.005597165785729885,-0.0016330503858625889,-0.02190529927611351
1690840425332129000,3.50912890625,-0.0044011399149894714,-0.0027598338201642036,-0.019711386412382126
1690840425342169000,3.519169189453125,-0.005578523501753807,-0.0036943370942026377,-0.02245470881462097
1690840425352210000,3.5292099609375,-0.005447762086987495,-0.002584597794339061,-0.02262967824935913
1690840425362250000,3.53925,-0.005857889074832201,-0.0046394928358495235,-0.02021046355366707
1690840425372290000,3.5492900390625,-0.004429635591804981,-0.00192226970102638,-0.021397700533270836
1690840425382330000,3.559330078125,-0.005058940965682268,-0.0021904499735683203,-0.021510884165763855
1690840425392371200,3.56937109375,-0.005625927820801735,-0.00336090917699039,-0.02107119746506214
1690840425402411000,3.579410888671875,-0.004683168604969978,-0.0017965685110539198,-0.021826202049851418
1690840425412451000,3.589451171875,-0.004445082042366266,-0.001731587341055274,-0.01894759200513363
1690840425422492000,3.599491943359375,-0.0046152579598128796,-0.0008056062506511807,-0.019768644124269485
1690840425432532000,3.609531982421875,-0.003859186777845025,-0.0029952572658658028,-0.021648837253451347
1690840425442603000,3.61960302734375,-0.006922354456037283,-0.0022005699574947357,-0.020712735131382942
1690840425452643000,3.62964306640625,-0.005519667640328407,-0.004282096866518259,-0.021031249314546585
1690840425462658000,3.639657958984375,-0.004846154246479273,-0.0028855351265519857,-0.020244019106030464
1690840425472699100,3.64969921875,-0.00392869533970952,-0.001978995045647025,-0.02135801874101162
1690840425482739200,3.6597392578125,-0.004308728501200676,-0.0029084382113069296,-0.021502628922462463
1690840425492779000,3.669779052734375,-0.004467719234526157,-0.0032831449061632156,-0.018154768273234367
1690840425502819000,3.679819091796875,-0.004822718445211649,-0.004138818476349115,-0.021348698064684868
1690840425512860200,3.689860107421875,-0.0041276332922279835,0.00036911413189955056,-0.021620074287056923
1690840425522900200,3.699900146484375,-0.004688761197030544,-0.00250470289029181,-0.020266922190785408
1690840425532940000,3.70993994140625,-0.0054855793714523315,-0.0032021848019212484,-0.021702365949749947
1690840425542980000,3.71997998046875,-0.00509888818487525,-0.005810484755784273,-0.01949061080813408
1690840425553021200,3.730021240234375,-0.0033726270776242018,-0.003430151380598545,-0.01998036541044712
1690840425563061000,3.74006103515625,-0.005260009318590164,-0.0020823257509618998,-0.02094815857708454
1690840425573101000,3.75010107421875,-0.0035145736765116453,-0.0023313311394304037,-0.02082219161093235
1690840425583172000,3.760172119140625,-0.00615243474021554,-0.0027297399938106537,-0.02190743014216423
1690840425593212200,3.770212158203125,-0.00313001312315464,-0.002246110001578927,-0.021147362887859344
1690840425603253200,3.780253173828125,-0.006505303550511599,-0.0005496764206327498,-0.02166055515408516
1690840425613293000,3.79029296875,-0.005209409166127443,-0.002435460686683655,-0.02130928263068199
1690840425623333000,3.8003330078125,-0.004102333448827267,-0.0019925772212445736,-0.01901150867342949
1690840425633374200,3.810374267578125,-0.005251487251371145,0.00054142065346241,-0.02190743014216423
1690840425643414000,3.8204140625,-0.005233111325651407,-0.0044227116741240025,-0.020897824317216873
1690840425653454000,3.8304541015625,-0.0059934440068900585,-0.0022482406347990036,-0.020231235772371292
1690840425663494100,3.840494140625,-0.0037979339249432087,-0.002892459277063608,-0.022491993382573128
1690840425673535200,3.85053515625,-0.003916711080819368,-0.003724164329469204,-0.021876802667975426
1690840425683575000,3.860574951171875,-0.004881307948380709,-0.0012958941515535116,-0.020804613828659058
1690840425693615000,3.870614990234375,-0.004555337131023407,-0.0023425165563821793,-0.019715381786227226
1690840425703656200,3.88065625,-0.004234958905726671,-0.0033830134198069572,-0.019829364493489265
1690840425713696000,3.890696044921875,-0.005824067164212465,-0.0010367685463279486,-0.020430972799658775
1690840425723736000,3.900736083984375,-0.004265851341187954,-0.0027358653023838997,-0.020115654915571213
1690840425733807000,3.91080712890625,-0.00535588338971138,-0.003650128608569503,-0.020181167870759964
1690840425743847200,3.92084716796875,-0.0051897019147872925,-0.005353220272809267,-0.023361515253782272
1690840425753887200,3.93088720703125,-0.005761216394603252,-0.0021995047573000193,-0.02069063112139702
1690840425763928000,3.940927978515625,-0.005013933405280113,-0.0010034791193902493,-0.022909043356776237
1690840425773968100,3.950968017578125,-0.00381471193395555,-0.0014314490836113691,-0.021351361647248268
1690840425784008000,3.961008056640625,-0.004764928016811609,-0.0006993460701778531,-0.019989952445030212
1690840425794049000,3.971049072265625,-0.005027781706303358,-0.0034322820138186216,-0.019942283630371094
1690840425804089000,3.981089111328125,-0.005829659756273031,-0.0032290827948600054,-0.019903667271137238
1690840425814129200,3.991129150390625,-0.0037414750549942255,-0.0019174759509041905,-0.020191553980112076
1690840425824169200,4.001169189453125,-0.005489573813974857,-0.001901230658404529,-0.020610203966498375
1690840425834210000,4.0112099609375,-0.0057132793590426445,-0.0008527441532351077,-0.020299678668379784
1690840425844250000,4.02125,-0.003575559938326478,-0.0013598100049421191,-0.021457621827721596
1690840425854290000,4.0312900390625,-0.0027177559677511454,-0.0011028150329366326,-0.019942283630371094
1690840425864331000,4.0413310546875,-0.0054182009771466255,-0.0026615632232278585,-0.02088078111410141
1690840425874401000,4.051401123046875,-0.005345230456441641,-0.0018964370246976614,-0.02015214040875435
1690840425884442000,4.061442138671875,-0.005612345412373543,-0.002168612089008093,-0.021795043721795082
1690840425894482200,4.071482177734375,-0.004307929426431656,-0.0038922098465263844,-0.021195033565163612
1690840425904522200,4.081522216796875,-0.006391853094100952,-0.002198173198848963,-0.021811023354530334
1690840425914563000,4.09156298828125,-0.006707437336444855,-0.00159443449229002,-0.020807277411222458
1690840425924603100,4.10160302734375,-0.0027052389923483133,-0.0024620923213660717,-0.020801419392228127
1690840425934643000,4.111642822265625,-0.005281581077724695,-0.0014642059104517102,-0.020712468773126602
1690840425944683000,4.12168310546875,-0.004539890680462122,-0.0019233349012210965,-0.020493024960160255
1690840425954724000,4.13172412109375,-0.005772934295237064,-0.003597398055717349,-0.019813917577266693
1690840425964764200,4.14176416015625,-0.00566853815689683,-0.00227939966134727,-0.01986691541969776
1690840425974804200,4.15180419921875,-0.004187554586678743,-0.0036069853231310844,-0.021450962871313095
1690840425984845000,4.161844970703125,-0.003575559938326478,-0.0009235842735506594,-0.020081033930182457
1690840425994885000,4.171885009765625,-0.004744155332446098,-0.004005660768598318,-0.019949473440647125
1690840426004925000,4.181925048828125,-0.004196076653897762,-0.004530569538474083,-0.020419787615537643
1690840426014996000,4.191995849609375,-0.0038655782118439674,-0.0005211806274019182,-0.02190982550382614
1690840426025036000,4.2020361328125,-0.005322860088199377,-0.003686880227178335,-0.02003655955195427
1690840426035076000,4.212076171875,-0.005608883686363697,-0.002112152986228466,-0.02105468511581421
1690840426045117200,4.2221171875,-0.0038874163292348385,-0.003822701284661889,-0.01992284134030342
1690840426055157200,4.2321572265625,-0.004083957523107529,-0.0025031049735844135,-0.021950040012598038
1690840426065197300,4.242197265625,-0.0029728866647928953,-0.002804841147735715,-0.020471986383199692
1690840426075238100,4.252238037109375,-0.004642955027520657,-0.0028186896815896034,-0.020118318498134613
1690840426085278000,4.26227783203125,-0.005110872443765402,-0.003065032185986638,-0.022916501387953758
1690840426095318000,4.272318115234375,-0.00387330143712461,-0.0030466562602669,-0.022280272096395493
1690840426105358000,4.282358154296875,-0.00487092137336731,-0.003073287894949317,-0.021457089111208916
1690840426115399200,4.292399169921875,-0.004397677723318338,-0.004930309951305389,-0.020139889791607857
1690840426125439200,4.302439208984375,-0.005034173373132944,-0.0007302387384697795,-0.019897541031241417
1690840426135479300,4.312479248046875,-0.005735383834689856,-0.000651675509288907,-0.02047092095017433
1690840426145520000,4.32252001953125,-0.003930559381842613,-0.001430916483514011,-0.0220259390771389
1690840426155560000,4.332559814453125,-0.004985437728464603,-0.005534315016120672,-0.021087441593408585
1690840426165631000,4.342630859375,-0.005899168085306883,-0.0007243797881528735,-0.02189464680850506
1690840426175671000,4.352671142578125,-0.004632302559912205,-0.0020682108588516712,-0.019694609567523003
1690840426185711000,4.362711181640625,-0.004877845756709576,-0.002743588527664542,-0.02179024927318096
1690840426195751200,4.372751220703125,-0.0043801008723676205,-0.0013510215794667602,-0.020135628059506416
1690840426205792300,4.382792236328125,-0.005711415316909552,-0.005201153457164764,-0.020382503047585487
1690840426215832000,4.39283203125,-0.004198739770799875,-0.0026903252582997084,-0.020441625267267227
1690840426225872100,4.4028720703125,-0.004294347018003464,-0.0023880566004663706,-0.020084228366613388
1690840426235913000,4.412912841796875,-0.004983573220670223,-0.0051987566985189915,-0.021881863474845886
1690840426245953000,4.422953125,-0.003937750123441219,-0.002689792774617672,-0.020620323717594147
1690840426255993000,4.4329931640625,-0.003968109842389822,-0.001103880233131349,-0.019956929609179497
1690840426266033200,4.443033203125,-0.0049825082533061504,-0.0015491608064621687,-0.020355870947241783
1690840426276074200,4.45307421875,-0.005114600993692875,-0.004150004126131535,-0.020915402099490166
1690840426286114300,4.4631142578125,-0.005524727515876293,-0.005034439731389284,-0.021456290036439896
1690840426296154000,4.473154052734375,-0.004500475712120533,-0.0024916534312069416,-0.019889818504452705
1690840426306225200,4.48322509765625,-0.005380384158343077,-0.002633333671838045,-0.02069915272295475
1690840426316265200,4.49326513671875,-0.004180630203336477,-0.004854409955441952,-0.020414194092154503
1690840426326306000,4.50330615234375,-0.00378994457423687,-0.0028391960076987743,-0.02178066223859787
1690840426336346000,4.51334619140625,-0.0051652006804943085,-0.0011283813510090113,-0.022967899218201637
1690840426346386200,4.52338623046875,-0.0054818508215248585,-0.002007757080718875,-0.021870678290724754
1690840426356427300,4.53342724609375,-0.004096208140254021,-0.0031696942169219255,-0.02093164622783661
1690840426366467000,4.543467041015625,-0.003689809702336788,-0.0007446198142133653,-0.020594757050275803
1690840426376507100,4.553507080078125,-0.004763329867273569,0.0007930893916636705,-0.019945744425058365
1690840426386547200,4.563547119140625,-0.0057769292034208775,-0.0031523837242275476,-0.018602978438138962
1690840426396588000,4.573588134765625,-0.004349474795162678,-0.0059718722477555275,-0.020897824317216873
1690840426406628000,4.583628173828125,-0.004751611966639757,-0.003023220458999276,-0.019161710515618324
1690840426416668200,4.593668212890625,-0.006446980405598879,-0.003984888084232807,-0.020368920639157295
1690840426426709200,4.603709228515625,-0.0038400120101869106,-0.0028881982434540987,-0.020506607368588448
1690840426436749300,4.613749267578125,-0.0051564122550189495,-0.003020024625584483,-0.02153991349041462
1690840426446820000,4.623820068359375,-0.005002748221158981,-0.0029438582714647055,-0.020252807065844536
1690840426456860200,4.633860107421875,-0.004604339133948088,-0.0044072652235627174,-0.02039608545601368
1690840426466904600,4.643904541015625,-0.005252819042652845,0.00016964336100500077,-0.02039209008216858
1690840426476944600,4.653944580078125,-0.003910053055733442,-0.001886317040771246,-0.02172180637717247
1690840426486985700,4.66398583984375,-0.00549250328913331,-0.0018879148410633206,-0.02058916538953781
1690840426497025800,4.67402587890625,-0.003990747034549713,-0.001496430253610015,-0.02124243788421154
1690840426507065900,4.68406591796875,-0.0037768951151520014,-0.0021973741240799427,-0.023809459060430527
1690840426517106700,4.694106689453125,-0.005382781382650137,-0.0022498385515064,-0.020973458886146545
1690840426527146500,4.704146484375,-0.00407623453065753,-0.0016165387351065874,-0.020354274660348892
1690840426537186600,4.7141865234375,-0.005455485545098782,-0.0032373385038226843,-0.020979050546884537
1690840426547226600,4.7242265625,-0.004376638680696487,-0.0013989584986120462,-0.020708207041025162
1690840426557267700,4.734267822265625,-0.005720470100641251,-0.0030149647500365973,-0.0213572196662426
1690840426567307800,4.744307861328125,-0.003958788700401783,-0.0016785904299467802,-0.020689832046628
1690840426577347800,4.754347900390625,-0.003962517250329256,-0.002558498876169324,-0.02274472638964653
1690840426587388700,4.764388671875,-0.004716724622994661,-0.002243713242933154,-0.02149144373834133
1690840426597458700,4.774458740234375,-0.0031872710678726435,-0.0018423747969791293,-0.022072279825806618
1690840426607499500,4.78449951171875,-0.00523683987557888,-0.0037526602391153574,-0.021857894957065582
1690840426617539600,4.79453955078125,-0.0037020600866526365,-0.0017915084026753902,-0.021155618131160736
1690840426627579600,4.80457958984375,-0.005474926438182592,-0.00390286254696548,-0.01997477374970913
1690840426637620700,4.814620849609375,-0.004917793441563845,-0.002133458387106657,-0.019061308354139328
1690840426647660800,4.824660888671875,-0.006287190597504377,-0.0017052220646291971,-0.02046772465109825
1690840426657700900,4.834700927734375,-0.00515721132978797,-0.0033012544736266136,-0.0190767552703619
1690840426667740700,4.84474072265625,-0.00541473925113678,-0.0027984497137367725,-0.020865866914391518
1690840426677781500,4.854781494140625,-0.004245078656822443,-0.0008719189208932221,-0.021253090351819992
1690840426687821600,4.864821533203125,-0.0041763694025576115,-0.0019262643763795495,-0.02069169655442238
1690840426697861600,4.874861572265625,-0.004733236040920019,-0.0027379959356039762,-0.01876995898783207
1690840426707901700,4.884901611328125,-0.004234426189213991,-0.0008159925346262753,-0.02148585021495819
1690840426717942800,4.89494287109375,-0.0042733084410429,0.00005885586142539978,-0.020472783595323563
1690840426727982800,4.90498291015625,-0.005601426586508751,-0.002064748667180538,-0.022668827325105667
1690840426738054000,4.915053955078125,-0.0037113812286406755,-0.004824582487344742,-0.020435767248272896
1690840426748093700,4.92509375,-0.004231496714055538,-0.0012751214671880007,-0.020178237929940224
1690840426758133800,4.9351337890625,-0.003072488820180297,-0.002409628126770258,-0.020620323717594147
1690840426768174600,4.945174560546875,-0.004929777234792709,-0.001636246219277382,-0.021861888468265533
1690840426778214700,4.955214599609375,-0.0041705104522407055,-0.0015949672088027,-0.022467492148280144
1690840426788254700,4.965254638671875,0.023988157510757446,0.4809165596961975,-0.10314182937145233
1690840426798295800,4.9752958984375,-0.0014506238512694836,0.05781695991754532,-0.06795401871204376
1690840426808336000,4.9853359375,0.02905295602977276,-0.024350613355636597,-0.07496718317270279
1690840426818375700,4.995375732421875,-0.011561847291886806,-0.03425677493214607,-0.06791619956493378
1690840426828415700,5.005415771484375,-0.013879329897463322,-0.05311807990074158,-0.07083475589752197
1690840426838456600,5.01545654296875,-0.008641690947115421,0.008918926119804382,-0.04856140911579132
1690840426848496600,5.02549658203125,0.0026964505668729544,0.004022704903036356,-0.03436809405684471
1690840426858536700,5.03553662109375,0.004710599314421415,-0.01076662726700306,-0.02466593123972416
1690840426868577800,5.045577880859375,0.003718838095664978,0.004298075567930937,-0.020388362929224968
1690840426878647800,5.055647705078125,-0.0029174929950386286,0.01569533906877041,-0.01290621142834425
1690840426888689000,5.06568896484375,-0.008894691243767738,0.024686437100172043,-0.007419566623866558
1690840426898728700,5.075728759765625,-0.011691809631884098,0.020920727401971817,-0.0031308121979236603
1690840426908768800,5.085768798828125,-0.011378621682524681,0.010392453521490097,0.0009600695921108127
1690840426918808600,5.09580859375,-0.006409695837646723,-0.0014751249691471457,0.00044900894863530993
1690840426928849700,5.105849609375,-0.0022389194928109646,-0.013745905831456184,-0.002296443795785308
1690840426938889700,5.1158896484375,-0.00009667274571256712,-0.02064482495188713,-0.006101834587752819
1690840426948929800,5.1259296875,0.0005933523061685264,-0.01798432692885399,-0.009730657562613487
1690840426958971000,5.135970947265625,-0.0033566481433808804,-0.00996395107358694,-0.01423725951462984
1690840426969010700,5.1460107421875,-0.003980626817792654,0.0006125270738266408,-0.02154470607638359
1690840426979050800,5.15605078125,-0.009997240267693996,0.01019671093672514,-0.02558285742998123
1690840426989090600,5.166090576171875,-0.008841162547469139,0.011356251314282417,-0.02955389767885208
1690840426999131600,5.176131591796875,-0.00643792562186718,0.009687514975667,-0.03383359685540199
1690840427009171700,5.186171630859375,-0.004093012306839228,0.003263970138505101,-0.03338751941919327
1690840427019211800,5.196211669921875,-0.0023284016642719507,-0.004702077247202396,-0.035888224840164185
1690840427029282800,5.20628271484375,-0.0014215953415259719,-0.00945235788822174,-0.033659957349300385
1690840427039322600,5.216322509765625,-0.003946538548916578,-0.013331783935427666,-0.03187297657132149
1690840427049363700,5.22636376953125,-0.003885818412527442,-0.010085124522447586,-0.02888278104364872
1690840427059403800,5.23640380859375,-0.0070342072285711765,-0.005589442327618599,-0.0241391584277153
1690840427069443600,5.246443603515625,-0.0070770843885838985,-0.0006788397440686822,-0.020964937284588814
1690840427079484700,5.256484619140625,-0.006380667444318533,0.0018871158827096224,-0.02010713331401348
1690840427089524700,5.266524658203125,-0.004761732183396816,0.005603291094303131,-0.015195997431874275
1690840427099564800,5.276564697265625,-0.0034261567052453756,0.005022455472499132,-0.010278736241161823
1690840427109604600,5.2866044921875,-0.00350472005084157,-0.0033417344093322754,-0.01016954705119133
1690840427119645700,5.296645751953125,-0.005387574899941683,-0.006478405557572842,-0.00956927053630352
1690840427129685800,5.306685791015625,-0.004788896068930626,-0.008841162547469139,-0.009460346773266792
1690840427139725600,5.3167255859375,-0.006077067460864782,-0.007077882997691631,-0.010213488712906837
1690840427149766700,5.3267666015625,-0.0057196710258722305,-0.004082892090082169,-0.016319317743182182
1690840427159806700,5.336806640625,-0.005130046978592873,-0.0014383733505383134,-0.0163616631180048
1690840427169877800,5.346877685546875,-0.0037851508241146803,0.0024881914723664522,-0.019118301570415497
1690840427179917800,5.356917724609375,-0.002891660202294588,0.00037390782381407917,-0.024226509034633636
1690840427189957600,5.36695751953125,-0.003964914008975029,0.002413090318441391,-0.024923458695411682
1690840427199997700,5.376997802734375,-0.0035449336282908916,-0.0006386260502040386,-0.027700336650013924
1690840427210038800,5.387038818359375,-0.004492220003157854,-0.0006679208017885685,-0.027823641896247864
1690840427220078600,5.39707861328125,-0.005630454979836941,-0.002892192918807268,-0.027367176488041878
1690840427230118700,5.40711865234375,-0.006819556467235088,-0.00812130980193615,-0.02696770243346691
1690840427240159700,5.41715966796875,-0.005133509170264006,-0.005429652985185385,-0.028022579848766327
1690840427250199800,5.42719970703125,-0.004208859521895647,-0.0046568033285439014,-0.024649420753121376
1690840427260239600,5.437239501953125,-0.0038211036007851362,-0.003067961661145091,-0.023575367406010628
1690840427270279700,5.44727978515625,-0.00538464542478323,0.0024628913961350918,-0.0223870649933815
1690840427280320800,5.45732080078125,-0.005665875039994717,-0.0001675128296483308,-0.020183831453323364
1690840427290360600,5.467360595703125,-0.003171025775372982,0.0009869674686342478,-0.01739843189716339
1690840427300400600,5.477400634765625,-0.0057492321357131,-0.002141980454325676,-0.017302025109529495
1690840427310471700,5.4874716796875,-0.005225388333201408,-0.0028216191567480564,-0.016038620844483376
1690840427320511500,5.497511474609375,-0.005517004523426294,-0.00358860963024199,-0.014574415050446987
1690840427330552600,5.507552490234375,-0.004421646241098642,-0.004344680812209845,-0.013924604281783104
1690840427340592600,5.517592529296875,-0.005480785388499498,-0.0032237565610557795,-0.016513196751475334
1690840427350632700,5.5276328125,-0.004318315535783768,-0.00256382510997355,-0.017161676660180092
1690840427360672800,5.5376728515625,-0.0032927324064075947,-0.0017172062071040273,-0.018791263923048973
1690840427370713600,5.547713623046875,-0.004818457178771496,-0.0008639294537715614,-0.020320717245340347
1690840427380753700,5.557753662109375,-0.004035754129290581,-0.0016966998809948564,-0.02202114649116993
1690840427390793700,5.567793701171875,-0.007102916948497295,-0.0008005462004803121,-0.023273896425962448
1690840427400834800,5.577834716796875,-0.005672000348567963,-0.00005512743518920615,-0.02231729030609131
1690840427410874600,5.58787451171875,-0.004020574036985636,-0.0033787523861974478,-0.025063274428248405
1690840427420914700,5.597914794921875,-0.004490622319281101,-0.0033960631117224693,-0.026003902778029442
1690840427430954800,5.607954833984375,-0.0028061727061867714,-0.0046695866622030735,-0.025437450036406517
1690840427440995600,5.61799560546875,-0.0041276332922279835,-0.0037433390971273184,-0.02322862297296524
1690840427451066600,5.628066650390625,-0.0046757119707763195,-0.0016961672808974981,-0.022401180118322372
1690840427461097200,5.63809716796875,-0.003638677066192031,-0.002400306984782219,-0.023812921717762947
1690840427471137300,5.64813720703125,-0.004024835303425789,-0.0002873550693038851,-0.022486932575702667
1690840427481177300,5.65817724609375,-0.005560147576034069,-0.0008641957538202405,-0.020745225250720978
1690840427491218400,5.668218505859375,-0.0054485611617565155,-0.0008532768115401268,-0.01948395185172558
1690840427501258500,5.678258544921875,-0.005721268709748983,-0.0015845808666199446,-0.01661652699112892
1690840427511298300,5.68829833984375,-0.0031308121979236603,-0.0007214503129944205,-0.01570093259215355
1690840427521339400,5.69833935546875,-0.006733270362019539,-0.0030719563364982605,-0.018612831830978394
1690840427531379200,5.708379150390625,-0.003757187630981207,-0.004909005016088486,-0.0181712806224823
1690840427541419300,5.718419189453125,-0.005036303773522377,-0.00572979124262929,-0.01786768063902855
1690840427551459300,5.728459228515625,-0.002665824256837368,-0.0024945829063653946,-0.019594740122556686
1690840427561500400,5.73850048828125,-0.004077565856277943,0.0003755057114176452,-0.02069409377872944
1690840427571540500,5.74854052734375,-0.003754524514079094,-0.0007621967233717442,-0.020810473710298538
1690840427581580300,5.758580322265625,-0.0051934304647147655,-0.003936684690415859,-0.021920211613178253
1690840427591621400,5.768621337890625,-0.006050169467926025,-0.00407543545588851,-0.02395300380885601
1690840427601691100,5.778691162109375,-0.002837331732735038,-0.001689509372226894,-0.022010494023561478
1690840427611732200,5.788732177734375,-0.004552407655864954,-0.004857073072344065,-0.02304673008620739
1690840427621772300,5.798772216796875,-0.005568403284996748,-0.003210174385458231,-0.02279878966510296
1690840427631812400,5.808812255859375,-0.004745753016322851,-0.0020266654901206493,-0.024055534973740578
1690840427641852400,5.818852294921875,-0.0060083577409386635,-0.003025883575901389,-0.023974575102329254
1690840427651893500,5.8288935546875,-0.004459995776414871,-0.003820304526016116,-0.023562051355838776
1690840427661933300,5.838933349609375,-0.0057218014262616634,-0.0027196200098842382,-0.021921010687947273
1690840427671973000,5.84897314453125,-0.005513808690011501,0.00023462448734790087,-0.01913587749004364
1690840427682014200,5.85901416015625,-0.004743622615933418,-0.0008364989189431071,-0.019285013899207115
1690840427692054300,5.86905419921875,-0.004277302883565426,-0.002639725338667631,-0.01895265281200409
1690840427702094300,5.87909423828125,-0.004020041786134243,-0.0013819142477586865,-0.01949753426015377
1690840427712134400,5.889134521484375,-0.005894640926271677,-0.0018210695125162601,-0.016924655064940453
1690840427722175200,5.89917529296875,-0.0038048583082854748,-0.0020181434229016304,-0.019641345366835594
1690840427732215300,5.90921533203125,-0.005060005933046341,-0.0021044297609478235,-0.016825318336486816
1690840427742286000,5.9192861328125,-0.003596865339204669,-0.003198722843080759,-0.020330039784312248
1690840427752326100,5.929326171875,-0.004258394706994295,-0.0010812433902174234,-0.01938088797032833
1690840427762366200,5.9393662109375,-0.002953445538878441,-0.003599262097850442,-0.02094256691634655
1690840427772407300,5.9494072265625,-0.006673615425825119,-0.0030389330349862576,-0.021521270275115967
1690840427782447400,5.959447265625,-0.006304234731942415,-0.0014381069922819734,-0.020832045003771782
1690840427792487400,5.9694873046875,-0.005007275380194187,-0.003683151677250862,-0.020547885447740555
1690840427802527500,5.979527587890625,-0.0038093857001513243,-0.0016314524691551924,-0.02245257794857025
1690840427812568300,5.989568359375,-0.004058923572301865,-0.002120675053447485,-0.02095002308487892
1690840427822608100,5.999608154296875,-0.005566539242863655,-0.000015446334145963192,-0.02292955107986927
1690840427832648200,6.009648193359375,-0.003757187630981207,-0.0015936355339363217,-0.02148105762898922
1690840427842689300,6.019689208984375,-0.0029755497816950083,-0.000026897927455138415,-0.02244299091398716
1690840427852729300,6.029729248046875,-0.004963865969330072,-0.0008234494016505778,-0.022951655089855194
1690840427862769400,6.039769287109375,-0.004531901329755783,-0.0034043188206851482,-0.020911673083901405
1690840427872809500,6.0498095703125,-0.0057223341427743435,-0.002715891692787409,-0.020978517830371857
1690840427882880300,6.05988037109375,-0.004756139125674963,-0.003826429834589362,-0.022721823304891586
1690840427892921000,6.069921142578125,-0.005548962391912937,0.000005592638444795739,-0.019331885501742363
1690840427902961200,6.079961181640625,-0.004520716145634651,-0.001939846551977098,-0.018505508080124855
1690840427913001200,6.090001220703125,-0.004024302586913109,-0.0034328147303313017,-0.018921758979558945
1690840427923041300,6.100041259765625,-0.003929493948817253,-0.0024058998096734285,-0.017413344234228134
1690840427933082400,6.110082275390625,-0.004195810295641422,-0.001549959764815867,-0.02027038484811783
1690840427943122400,6.120122314453125,-0.00493217445909977,-0.003053047927096486,-0.020187294110655785
1690840427953162500,6.13016259765625,-0.004173705819994211,-0.0020956413354724646,-0.020249610766768456
1690840427963203300,6.140203369140625,-0.005344964098185301,-0.00008096009696600959,-0.020563598722219467
1690840427973243100,6.1502431640625,-0.0034165694378316402,-0.0016610135789960623,-0.022476546466350555
1690840427983283200,6.160283203125,-0.004250138532370329,-0.002627474721521139,-0.022889869287610054
1690840427993323300,6.1703232421875,-0.0037385455798357725,-0.0023726101499050856,-0.024168452247977257
1690840428003364400,6.1803642578125,-0.003710582386702299,-0.001995772821828723,-0.020923657342791557
1690840428013404400,6.190404296875,-0.005931125953793526,-0.004805141594260931,-0.022468823939561844
1690840428023444500,6.200444580078125,-0.0049007488414645195,-0.0037031255196779966,-0.021035511046648026
1690840428033515300,6.210515380859375,-0.004569451790302992,-0.00455746753141284,-0.019520437344908714
1690840428043555300,6.220555419921875,-0.004622448701411486,-0.002545981900766492,-0.02062857896089554
1690840428053596200,6.23059619140625,-0.004225904121994972,-0.0007994809420779347,-0.021505558863282204
1690840428063636200,6.24063623046875,-0.004147074185311794,-0.0011518171522766352,-0.021252823993563652
1690840428073676300,6.25067626953125,-0.0046970173716545105,-0.005271727219223976,-0.019825102761387825
1690840428083716400,6.26071630859375,-0.004736165516078472,-0.002017610939219594,-0.02050847001373768
1690840428093757400,6.27075732421875,-0.004318581894040108,-0.0001430117554264143,-0.020869862288236618
1690840428103797500,6.280797607421875,-0.004483697935938835,-0.0041313618421554565,-0.018796058371663094
1690840428113837300,6.29083740234375,-0.005459214095026255,-0.0014729943359270692,-0.01878141053020954
1690840428123878100,6.300878173828125,-0.004393683280795813,-0.0015715312911197543,-0.020788103342056274
1690840428133918200,6.310918212890625,-0.0059756007976830006,-0.0005779059720225632,-0.018040519207715988
1690840428143958300,6.320958251953125,-0.004787564743310213,-0.0018282600212842226,-0.020112458616495132
1690840428153998300,6.330998291015625,-0.0057316552847623825,-0.0009076052810996771,-0.020422184839844704
1690840428164039400,6.341039306640625,-0.006596117280423641,0.0001549959706608206,-0.021768145263195038
1690840428174110500,6.3511103515625,-0.006127134896814823,-0.0036432044580578804,-0.021286113187670708
1690840428184150300,6.361150390625,-0.003801928833127022,-0.001449292292818427,-0.023436084389686584
1690840428194190300,6.3711904296875,-0.004605404566973448,-0.004065847955644131,-0.022777484729886055
1690840428204230400,6.38123046875,-0.003081543603911996,-0.0008524778531864285,-0.02118837647140026
1690840428214271200,6.391271240234375,-0.005031776614487171,-0.0003510046226438135,-0.02040460705757141
1690840428224311300,6.401311279296875,-0.003937750123441219,-0.0037233654875308275,-0.021925805136561394
1690840428234351400,6.411351318359375,-0.003743072971701622,-0.002010420197620988,-0.019952936097979546
1690840428244392400,6.421392333984375,-0.00469462014734745,-0.002578738844022155,-0.020367588847875595
1690840428254432500,6.4314326171875,-0.005724464543163776,-0.0016892430139705539,-0.01853426918387413
1690840428264472300,6.441472412109375,-0.005133775528520346,-0.0014849785948172212,-0.020564131438732147
1690840428274512400,6.451512451171875,-0.004893824923783541,-0.002584864152595401,-0.02166428230702877
1690840428284553200,6.46155322265625,-0.003919906914234161,-0.0028429245576262474,-0.021459752693772316
1690840428294593300,6.47159326171875,-0.005002748221158981,-0.0006111954571679235,-0.020182766020298004
1690840428304633300,6.48163330078125,-0.004522047471255064,-0.002114816103130579,-0.022899456322193146
1690840428314704400,6.491704345703125,-0.0036107138730585575,-0.0019230686593800783,-0.019388612359762192
1690840428324744200,6.501744140625,-0.005590774118900299,-0.005286640953272581,-0.020964670926332474
1690840428334785300,6.511785400390625,-0.004760666750371456,-0.0012341088149696589,-0.01996625028550625
1690840428344825300,6.521825439453125,-0.006103964988142252,-0.0013627394801005721,-0.017795242369174957
1690840428354865400,6.531865478515625,-0.00523790530860424,0.0009739180095493793,-0.02016572281718254
1690840428364905500,6.541905517578125,-0.004364122170954943,-0.0026530411560088396,-0.021333251148462296
1690840428374946300,6.5519462890625,-0.004914597608149052,-0.0031257520895451307,-0.02070261538028717
1690840428384986400,6.561986328125,-0.004750546533614397,-0.002924150787293911,-0.021376661956310272
1690840428395026200,6.572026123046875,-0.0051779840141534805,-0.0009805759182199836,-0.020558271557092667
1690840428405067300,6.5820673828125,-0.004006725735962391,-0.00347409350797534,-0.021767079830169678
1690840428415107300,6.592107421875,-0.005479720421135426,-0.0033808830194175243,-0.02141554281115532
1690840428425147400,6.6021474609375,-0.005093295592814684,-0.0015448997728526592,-0.021276792511343956
1690840428435187500,6.6121875,-0.003840544493868947,-0.00010412959818495438,-0.021219534799456596
1690840428445228300,6.622228271484375,-0.003822701284661889,-0.005167331546545029,-0.023877369239926338
1690840428455268400,6.632268310546875,-0.0032525185961276293,-0.0021763353142887354,-0.02123125270009041
1690840428465322000,6.642322021484375,-0.004261856433004141,-0.0016556872287765145,-0.021571870893239975
1690840428475362000,6.652362060546875,-0.004679706413298845,-0.004366252571344376,-0.021158281713724136
1690840428485401900,6.66240185546875,-0.0063124909065663815,-0.0031188279390335083,-0.02147679589688778
1690840428495443000,6.67244287109375,-0.004265584982931614,-0.001740642124786973,-0.021154021844267845
1690840428505483000,6.68248291015625,-0.005483448505401611,-0.0026969832833856344,-0.02131034806370735
1690840428515523000,6.692523193359375,-0.005687180440872908,-0.004433896858245134,-0.022937539964914322
1690840428525563000,6.70256298828125,-0.0026786073576658964,-0.0025920546613633633,-0.021865617483854294
1690840428535604000,6.71260400390625,-0.005239236634224653,-0.001886317040771246,-0.02154577150940895
1690840428545644000,6.72264404296875,-0.003832555143162608,-0.0019896477460861206,-0.021518075838685036
1690840428555683800,6.732683837890625,-0.005763613153249025,-0.003369963960722089,-0.021389445289969444
1690840428565725000,6.742724853515625,-0.00427117757499218,-0.0023462448734790087,-0.01997983269393444
1690840428575765000,6.752764892578125,-0.005146292503923178,-0.0024791366886347532,-0.020738834515213966
1690840428585805000,6.76280517578125,-0.0032120386604219675,-0.002460494404658675,-0.01877901330590248
1690840428595844900,6.772844970703125,-0.005608350969851017,-0.0031135017052292824,-0.020498616620898247
1690840428605916000,6.782916015625,-0.003912449814379215,-0.0018916432745754719,-0.019875969737768173
1690840428615957000,6.79295703125,-0.003941744565963745,-0.0014253237750381231,-0.02268107794225216
1690840428625996800,6.802996826171875,-0.004640291910618544,-0.002231196267530322,-0.0208890363574028
1690840428636036900,6.813036865234375,-0.004165982827544212,-0.003811782458797097,-0.020988905802369118
1690840428646077000,6.823076904296875,-0.00447038235142827,-0.002439721953123808,-0.020688500255346298
1690840428656118000,6.833117919921875,-0.005608617328107357,-0.004944158717989922,-0.021567609161138535
1690840428666158000,6.843157958984375,-0.0046970173716545105,-0.0025747441686689854,-0.02117426134645939
1690840428676198000,6.853197998046875,-0.004495682194828987,-0.0011803129455074668,-0.02075241692364216
1690840428686239000,6.863239013671875,-0.004061587154865265,-0.0025268071331083775,-0.01895158737897873
1690840428696279000,6.873279052734375,-0.0041614556685090065,-0.004347876645624638,-0.021947376430034637
1690840428706318800,6.88331884765625,-0.0058669438585639,-0.002557966159656644,-0.02183552458882332
1690840428716359000,6.89335888671875,-0.0057471017353236675,0.00025246766745112836,-0.018911639228463173
1690840428726400000,6.90339990234375,-0.005201419815421104,-0.004204066004604101,-0.022848857566714287
1690840428736440000,6.913440185546875,-0.0048916940577328205,-0.00603498937562108,-0.02171248570084572
1690840428746511000,6.923510986328125,-0.004733502399176359,-0.003103115363046527,-0.020915668457746506
1690840428756551000,6.933551025390625,-0.004459995776414871,-0.004051200579851866,-0.020084228366613388
1690840428766590700,6.9435908203125,-0.00455613574013114,-0.0023166837636381388,-0.021192902699112892
1690840428776631800,6.9536318359375,-0.004206995479762554,-0.001133174984715879,-0.018994729965925217
1690840428786671900,6.963671875,-0.004576908424496651,-0.0036301547661423683,-0.02014894410967827
1690840428796712000,6.9737119140625,-0.0046903593465685844,-0.002144643571227789,-0.022654445841908455
1690840428806752000,6.983751953125,-0.003067162586376071,-0.0007432882557623088,-0.02256576344370842
1690840428816793000,6.99379296875,-0.004495948553085327,-0.000026897927455138415,-0.021286379545927048
1690840428826833000,7.0038330078125,-0.003934554290026426,-0.0017584852175787091,-0.020923124626278877
1690840428836873000,7.013873046875,-0.004774248693138361,-0.004084490239620209,-0.020198745653033257
1690840428846914000,7.0239140625,-0.003201385959982872,-0.004538558889180422,-0.02047092095017433
1690840428856953900,7.033953857421875,-0.00503923324868083,-0.0008559399866499007,-0.02040061354637146
1690840428866994000,7.043993896484375,-0.005718073341995478,-0.0007683219737373292,-0.021928202360868454
1690840428877034000,7.054033935546875,-0.004288754425942898,-0.0001155811914941296,-0.022786006331443787
1690840428887075000,7.064074951171875,-0.003871171036735177,-0.0036634444259107113,-0.022048844024538994
1690840428897146000,7.07414599609375,-0.003896737238392234,-0.0026399914640933275,-0.021464811637997627
1690840428907186000,7.08418603515625,-0.004495149478316307,-0.0010908307740464807,-0.022413961589336395
1690840428917225700,7.094225830078125,-0.00387330143712461,-0.003525758860632777,-0.020911673083901405
1690840428927265800,7.104265869140625,-0.005650162696838379,-0.0019033611752092838,-0.020021645352244377
1690840428937307000,7.114306884765625,-0.005586512852460146,-0.00096113485051319,-0.022911706939339638
1690840428947347000,7.124346923828125,-0.0057252636179327965,-0.001255680457688868,-0.020309798419475555
1690840428957387000,7.134386962890625,-0.004868790972977877,-0.002365685999393463,-0.02159850299358368
1690840428967427000,7.144427001953125,-0.004997421521693468,-0.0018820558907464147,-0.02063763327896595
1690840428977468000,7.154468017578125,-0.004559065215289593,-0.0008567389450035989,-0.019053852185606956
1690840428987508000,7.164508056640625,-0.0043505397625267506,-0.003772634081542492,-0.020116187632083893
1690840428997547800,7.1745478515625,-0.0038338867016136646,-0.0026818031910806894,-0.02099343203008175
1690840429007588900,7.1845888671875,-0.003326021833345294,-0.0021824603900313377,-0.020416591316461563
1690840429017629000,7.19462890625,-0.00555135915055871,-0.003951065707951784,-0.02118944190442562
1690840429027669000,7.2046689453125,-0.0054552191868424416,-0.002216815249994397,-0.021262677386403084
1690840429037740000,7.214739990234375,-0.004494084510952234,-0.000627973407972604,-0.01997796818614006
1690840429047780000,7.224780029296875,-0.002951048780232668,-0.0020474381744861603,-0.02010153979063034
1690840429057821000,7.234821044921875,-0.005657619331032038,0.00022210762836039066,-0.019962523132562637
1690840429067860700,7.24486083984375,-0.004385693464428186,-0.0034256239887326956,-0.020724985748529434
1690840429077900800,7.25490087890625,-0.004352404270321131,-0.0018666095566004515,-0.022174544632434845
1690840429087940900,7.26494091796875,-0.005765743553638458,-0.002587793627753854,-0.020179836079478264
1690840429097982000,7.27498193359375,-0.00520674604922533,-0.0013480921043083072,-0.02076360210776329
1690840429108022000,7.28502197265625,-0.003984888084232807,-0.002240251051262021,-0.02045014686882496
1690840429118062000,7.29506201171875,-0.0031995216850191355,-0.0022482406347990036,-0.02136041596531868
1690840429128103000,7.30510302734375,-0.004196875728666782,-0.0014977618120610714,-0.019877301529049873
1690840429138143000,7.31514306640625,-0.004207794554531574,-0.0020820593927055597,-0.021283451467752457
1690840429148182800,7.325182861328125,-0.004535097163170576,0.0011201255256310105,-0.019893281161785126
1690840429158222800,7.335222900390625,-0.003955326974391937,0.0003587277897167951,-0.02142779342830181
1690840429168264000,7.345263916015625,-0.005420864559710026,-0.0028181569650769234,-0.023848608136177063
1690840429178334000,7.355333984375,-0.005527390632778406,-0.0008625978953205049,-0.021494906395673752
1690840429188375000,7.365375,-0.005408347584307194,-0.004151601810008287,-0.01902269385755062
1690840429198415000,7.3754150390625,-0.004435760900378227,-0.0007206514128483832,-0.021155351772904396
1690840429208455000,7.385454833984375,-0.005341502372175455,-0.002415487077087164,-0.021332185715436935
1690840429218495700,7.395495849609375,-0.004489024169743061,-0.0033342777751386166,-0.02052764594554901
1690840429228535800,7.405535888671875,-0.0036767602432519197,-0.0012924320762977004,-0.02008662559092045
1690840429238575900,7.415575927734375,-0.004826180636882782,-0.0011925635626539588,-0.021885590627789497
1690840429248616000,7.425615966796875,-0.004039749037474394,-0.0024226775858551264,-0.018937738612294197
1690840429258657000,7.435656982421875,-0.005288505461066961,-0.0012120045721530914,-0.020416324958205223
1690840429268697000,7.445697021484375,-0.004236822947859764,-0.0041518681682646275,-0.021089572459459305
1690840429278737000,7.45573681640625,-0.0034469293896108866,-0.000046072687837295234,-0.02051379717886448
1690840429288777700,7.46577783203125,-0.006448045372962952,-0.005532717332243919,-0.019902069121599197
1690840429298817800,7.47581787109375,-0.005730856209993362,-0.0007949535502120852,-0.022105036303400993
1690840429308857900,7.48585791015625,-0.003148389048874378,-0.0009797769598662853,-0.01937343180179596
1690840429318898000,7.49589794921875,-0.005268265027552843,-0.0006111954571679235,-0.02123471535742283
1690840429328969000,7.505968994140625,-0.005417136009782553,-0.0030423952266573906,-0.023805197328329086
1690840429339010000,7.516010009765625,-0.005649097263813019,-0.00213558878749609,-0.021095432341098785
1690840429349050000,7.526050048828125,-0.001663144095800817,-0.003305249148979783,-0.021344436332583427
1690840429359090000,7.53608984375,-0.005591573193669319,-0.0017070862231776118,-0.021939387544989586
1690840429369130000,7.5461298828125,-0.004789961501955986,-0.0024791366886347532,-0.021341508254408836
1690840429379170800,7.5561708984375,-0.002928145695477724,-0.0012695288751274347,-0.021210480481386185
1690840429389211000,7.5662109375,-0.004566788673400879,-0.002816825406625867,-0.020724985748529434
1690840429399251000,7.5762509765625,-0.004381432663649321,-0.0013190637109801173,-0.022697322070598602
1690840429409292000,7.5862919921875,-0.0037886130157858133,-0.002410160843282938,-0.02040460705757141
1690840429419332000,7.59633203125,-0.0043801008723676205,-0.002027997048571706,-0.020436830818653107
1690840429429372000,7.606371826171875,-0.0051745218224823475,-0.0015560849569737911,-0.020663999021053314
1690840429439412000,7.616411865234375,-0.003507649526000023,-0.0005848301807418466,-0.022890934720635414
1690840429449452800,7.626452880859375,-0.0051955608651041985,-0.005539108533412218,-0.02075641043484211
1690840429459492900,7.636492919921875,-0.004108458757400513,0.0010274475207552314,-0.02063949778676033
1690840429469550600,7.646550537109375,-0.004614459350705147,-0.0015219965716823936,-0.020360132679343224
1690840429479590700,7.656590576171875,-0.005017395596951246,-0.002805640222504735,-0.021873872727155685
1690840429489630700,7.666630615234375,-0.005308745428919792,-0.005594768561422825,-0.019820842891931534
1690840429499671800,7.676671875,-0.004765992984175682,-0.0008839031797833741,-0.021923141553997993
1690840429509711600,7.686711669921875,-0.0067657604813575745,-0.001133441342972219,-0.02039848268032074
1690840429519751700,7.696751708984375,-0.003953196108341217,-0.0010996191995218396,-0.019933760166168213
1690840429529791500,7.70679150390625,-0.004247475415468216,-0.0007683219737373292,-0.020680511370301247
1690840429539832600,7.71683251953125,-0.004777710884809494,-0.0023670175578445196,-0.022295719012618065
1690840429549872600,7.72687255859375,-0.0043923514895141125,-0.0031076427549123764,-0.020552679896354675
1690840429559912700,7.73691259765625,-0.004992894362658262,-0.0019121496006846428,-0.02015826478600502
1690840429569953800,7.746953857421875,-0.003183010034263134,-0.0007475492893718183,-0.020319918170571327
1690840429579993600,7.75699365234375,-0.003126817522570491,-0.0006463492172770202,-0.02191248908638954
1690840429590033700,7.76703369140625,-0.004535629414021969,-0.0006793724023737013,-0.019836554303765297
1690840429600073700,7.77707373046875,-0.004770520608872175,-0.002901247702538967,-0.01955266296863556
1690840429610144500,7.78714453125,-0.005888249259442091,-0.0013382384786382318,-0.021506091579794884
1690840429620184600,7.7971845703125,-0.004714327864348888,-0.0029345371294766665,-0.020448017865419388
1690840429630225700,7.8072255859375,-0.004126035608351231,-0.0009392969077453017,-0.020715398713946342
1690840429640265700,7.817265625,-0.005146026145666838,-0.0031497206073254347,-0.020327376201748848
1690840429650305800,7.827305908203125,-0.006308495998382568,-0.004308462142944336,-0.019061574712395668
1690840429660346600,7.8373466796875,-0.005401689559221268,-0.004107393324375153,-0.02172660082578659
1690840429670386700,7.84738671875,-0.0035425368696451187,-0.0028820729348808527,-0.022672289982438087
1690840429680426500,7.857426513671875,-0.002799781272187829,-0.00015339808305725455,-0.018898855894804
1690840429690466600,7.867466552734375,-0.006336991675198078,-0.0023401195649057627,-0.0210107434540987
1690840429700507600,7.877507568359375,-0.004518052563071251,-0.00475400872528553,-0.02063683420419693
1690840429710547700,7.887547607421875,-0.004504204262048006,-0.003120425855740905,-0.020296482369303703
1690840429720587800,7.897587890625,-0.005056810099631548,-0.0010104032699018717,-0.019543074071407318
1690840429730628600,7.907628662109375,-0.004259726032614708,-0.004582767374813557,-0.021327126771211624
1690840429740668700,7.917668701171875,-0.004655205644667149,-0.0013869742397218943,-0.020323380827903748
1690840429750708500,7.92770849609375,-0.003960386849939823,-0.001835716888308525,-0.021889586001634598
1690840429760779500,7.937779541015625,-0.003921504598110914,-0.003887948812916875,-0.01979847252368927
1690840429770819600,7.947819580078125,-0.0029696908313781023,-0.0024112260434776545,-0.02148558385670185
1690840429780860700,7.957860595703125,-0.004796353168785572,-0.0031457259319722652,-0.0216568261384964
1690840429790900700,7.967900634765625,-0.0041310954838991165,-0.00023435817274730653,-0.02045227773487568
1690840429800940800,7.97794091796875,-0.0036903421860188246,-0.00155262288171798,-0.021586785092949867
1690840429810980900,7.98798095703125,-0.004661863669753075,-0.0010958907660096884,-0.02058650180697441
1690840429821021700,7.998021728515625,-0.0026312030386179686,-0.0012772521004080772,-0.0212983638048172
1690840429831061500,8.0080615234375,-0.004207528196275234,-0.0024343954864889383,-0.020960409194231033
1690840429841101600,8.0181015625,-0.0041433461010456085,-0.00019281286222394556,-0.022279473021626472
1690840429851142700,8.028142578125,-0.004676776938140392,-0.0002479403046891093,-0.020002203062176704
1690840429861182700,8.0381826171875,-0.004962267819792032,0.00033928672201000154,-0.020606741309165955
1690840429871222800,8.048222900390625,-0.003805390791967511,0.00022184131375979632,-0.020412331447005272
1690840429881262800,8.058262939453124,-0.005106877535581589,-0.004430701024830341,-0.020172379910945892
1690840429891303700,8.0683037109375,-0.0041121868416666985,-0.0021646174136549234,-0.020622188225388527
1690840429901373700,8.078373779296875,-0.003930293023586273,-0.0020793962758034468,-0.019666112959384918
1690840429911414500,8.08841455078125,-0.0043563987128436565,-0.0017869811272248626,-0.019835490733385086
1690840429921454600,8.09845458984375,-0.005015531089156866,-0.0017986990278586745,-0.02160143293440342
1690840429931494700,8.10849462890625,-0.004382497631013393,-0.0007241134881041944,-0.022999325767159462
1690840429941535700,8.11853564453125,-0.003899933071807027,-0.0011515507940202951,-0.019567042589187622
1690840429951575800,8.128575927734374,-0.004194212146103382,-0.0009776464430615306,-0.020016318187117577
1690840429961616000,8.138615966796875,-0.004139351192861795,-0.001615473534911871,-0.022250443696975708
1690840429971655700,8.14865576171875,-0.004600876942276955,-0.0017339842161163688,-0.020923657342791557
1690840429981696500,8.158696533203125,-0.003728425595909357,-0.003722566645592451,-0.019285013899207115
1690840429991736600,8.168736572265624,-0.002915362361818552,-0.003463707398623228,-0.02135695330798626
1690840430001776600,8.178776611328125,-0.005119660869240761,-0.0006119944155216217,-0.020203271880745888
1690840430011817700,8.188817626953124,-0.0037590519059449434,-0.0011776498286053538,-0.019236544147133827
1690840430021857800,8.19885791015625,-0.00570049649104476,-0.0021025657188147306,-0.021886123344302177
1690840430031897900,8.20889794921875,-0.005679723806679249,-0.003305515507236123,-0.018822424113750458
1690840430041968600,8.21896875,-0.004165716469287872,-0.0018136126454919577,-0.022130070254206657
1690840430052008700,8.2290087890625,-0.006397445686161518,-0.002311357529833913,-0.02143072336912155
1690840430062048800,8.239048828125,-0.0029518476221710443,-0.0002748382103163749,-0.01774863712489605
1690840430072089600,8.249089599609375,-0.003918575122952461,-0.002097771968692541,-0.0212983638048172
1690840430082129700,8.259129638671874,-0.0035718316212296486,-0.002426672261208296,-0.0202189851552248
1690840430092169700,8.269169677734375,-0.0041161817498505116,-0.0026668894570320845,-0.022533537819981575
1690840430102210800,8.2792109375,-0.0041457428596913815,-0.00016698020044714212,-0.021765483543276787
1690840430112251000,8.2892509765625,-0.006361492909491062,-0.00141041015740484,-0.02034921385347843
1690840430122290700,8.299290771484374,-0.0035172367934137583,-0.0027973842807114124,-0.01998808979988098
1690840430132330800,8.309330810546875,-0.004732437431812286,-0.0020865867845714092,-0.020980115979909897
1690840430142371600,8.31937158203125,-0.004316185135394335,-0.002630137838423252,-0.020350812003016472
1690840430152411600,8.32941162109375,-0.004238154739141464,-0.0029111013282090425,-0.022853650152683258
1690840430162451700,8.33945166015625,-0.003790477057918906,0.0006375607335940003,-0.021041901782155037
1690840430172492800,8.349492919921875,-0.0028519791085273027,-0.0020756677258759737,-0.020426977425813675
1690840430182532900,8.359532958984374,-0.004606203176081181,-0.0015672702575102448,-0.021131383255124092
1690840430192603600,8.369603759765624,-0.005563077051192522,-0.0012042814632877707,-0.0190232265740633
1690840430202643700,8.379643798828125,-0.004003529902547598,-0.0019113506423309445,-0.019940951839089394
1690840430212683800,8.389683837890624,-0.004988100845366716,-0.0035742283798754215,-0.020590228959918022
1690840430222724600,8.399724609375,-0.003689543344080448,-0.0032021848019212484,-0.020709006115794182
1690840430232764700,8.4097646484375,-0.00503923324868083,-0.0021459751296788454,-0.022814501076936722
1690840430242804700,8.4198046875,-0.004461327567696571,-0.004192880820482969,-0.02069648914039135
1690840430252844800,8.4298447265625,-0.004705006722360849,-0.002582467393949628,-0.020080234855413437
1690840430262886000,8.439885986328125,-0.005555886775255203,-0.0025920546613633633,-0.02081499993801117
1690840430272925700,8.44992578125,-0.0041308291256427765,-0.002681004349142313,-0.022898657247424126
1690840430282965800,8.4599658203125,-0.0037944719661027193,-0.0025278725661337376,-0.022890135645866394
1690840430293006600,8.470006591796874,-0.0055002267472445965,-0.0025843314360827208,-0.0186447910964489
1690840430303046700,8.480046630859375,-0.00520727876573801,-0.000300404557492584,-0.02165442891418934
1690840430313086700,8.490086669921874,-0.003570766421034932,-0.0013946974650025368,-0.018871426582336426
1690840430323126800,8.500126708984375,-0.004713528789579868,-0.0024173513520509005,-0.020773189142346382
1690840430333197600,8.510197509765625,-0.005071723833680153,-0.0022972426377236843,-0.021824872121214867
1690840430343237600,8.520237548828124,-0.004712196998298168,-0.004795554094016552,-0.020236296579241753
1690840430353278700,8.53027880859375,-0.0054152715019881725,-0.004247475415468216,-0.021952437236905098
1690840430363318800,8.54031884765625,-0.004567321389913559,-0.0012405004817992449,-0.021247498691082
1690840430373358800,8.55035888671875,-0.004580636974424124,-0.0041247038170695305,-0.021891716867685318
1690840430383399700,8.560399658203124,-0.005497563164681196,-0.0006354302167892456,-0.02033456601202488
1690840430393439700,8.570439697265625,-0.002936135046184063,-0.004935902543365955,-0.0203313697129488
1690840430403479800,8.580479736328124,-0.003951864782720804,-0.0020743361674249172,-0.02220037765800953
1690840430413519600,8.59051953125,-0.004290885291993618,-0.0009885653853416443,-0.020126573741436005
1690840430423560700,8.600560791015624,-0.004756405483931303,-0.003876497270539403,-0.02142086997628212
1690840430433600800,8.610600830078125,-0.0044291033409535885,-0.0017302557826042175,-0.02268454059958458
1690840430443640800,8.620640869140624,-0.004421646241098642,-0.0017158746486529708,-0.019154518842697144
1690840430453681700,8.630681640625,-0.004963865969330072,0.0013190637109801173,-0.020595822483301163
1690840430463733000,8.64073291015625,-0.0039116512052714825,-0.0018341189716011286,-0.019825369119644165
1690840430473803800,8.6508037109375,-0.005051483865827322,-0.0031334753148257732,-0.020383302122354507
1690840430483843800,8.66084375,-0.005693572107702494,-0.0015267902053892612,-0.021454159170389175
1690840430493884000,8.6708837890625,-0.0037800907157361507,-0.002017344580963254,-0.02219957858324051
1690840430503924700,8.6809248046875,-0.004287423100322485,-0.0027925907634198666,-0.01973349042236805
1690840430513964800,8.69096484375,-0.0041156490333378315,-0.001972603378817439,-0.02081846259534359
1690840430524004900,8.7010048828125,-0.00563950976356864,-0.0024652881547808647,-0.02081766352057457
1690840430534045000,8.711044921875,-0.004514058120548725,-0.0028594359755516052,-0.020193152129650116
1690840430544086000,8.7210859375,-0.004798217210918665,-0.002288188086822629,-0.019961457699537277
1690840430554125800,8.731125732421875,-0.0041428133845329285,-0.000355532014509663,-0.019118035212159157
1690840430564166000,8.741165771484376,-0.003936151973903179,-0.0005552690709009767,-0.020255737006664276
1690840430574206000,8.7512060546875,-0.0029952572658658028,-0.0007582019316032529,-0.019840283319354057
1690840430584246800,8.761246826171876,-0.0056919739581644535,-0.00006711165769957006,-0.02129676565527916
1690840430594286800,8.771286865234375,-0.0057409764267504215,-0.003632551757618785,-0.02039235644042492
1690840430604327000,8.781326904296876,-0.004466920159757137,-0.003862116253003478,-0.019122561439871788
1690840430614368000,8.791367919921875,-0.0043777041137218475,-0.00045380264054983854,-0.021709289401769638
1690840430624437800,8.801437744140625,-0.004403536673635244,-0.0015997608425095677,-0.020189689472317696
1690840430634478800,8.811478759765626,-0.005628590937703848,-0.001871403306722641,-0.020738035440444946
1690840430644519000,8.821518798828125,-0.005411277059465647,-0.004562261048704386,-0.01883094571530819
1690840430654559000,8.83155908203125,-0.00529463030397892,-0.0012596751330420375,-0.019391274079680443
1690840430664599800,8.841599853515625,-0.006619286723434925,-0.0005320995696820319,-0.022179869934916496
1690840430674640000,8.851639892578126,-0.005334844347089529,0.0001411475386703387,-0.019030150026082993
1690840430684679700,8.8616796875,-0.0029060414526611567,-0.003763312939554453,-0.022250443696975708
1690840430694719700,8.8717197265625,-0.005517803598195314,-0.0015132081462070346,-0.021795842796564102
1690840430704760800,8.8817607421875,-0.0051654670387506485,-0.0028490496333688498,-0.020377974957227707
1690840430714801000,8.89180078125,-0.003745469730347395,-0.0029941920656710863,-0.018498316407203674
1690840430724841000,8.901841064453125,-0.005971073638647795,-0.002627741079777479,-0.01998329535126686
1690840430734881800,8.9118818359375,-0.002817624481394887,-0.0005153216770850122,-0.020560136064887047
1690840430744921900,8.921921875,-0.004437359049916267,-0.0013970943400636315,-0.021378790959715843
1690840430754962000,8.9319619140625,-0.004772651009261608,-0.002674079965800047,-0.01834971271455288
1690840430765032700,8.94203271484375,-0.003885019337758422,-0.002385659608989954,-0.021798506379127502
1690840430775072800,8.95207275390625,-0.005783853121101856,-0.0029816750902682543,-0.02058783359825611
1690840430785112800,8.96211279296875,-0.0037233654875308275,-0.003322559641674161,-0.024804415181279182
1690840430795154000,8.97215380859375,-0.005653890781104565,-0.0006322344415821135,-0.02189597859978676
1690840430805194000,8.982194091796876,-0.005541239399462938,-0.002010952914133668,-0.020779846236109734
1690840430815234000,8.992234130859375,-0.0060142166912555695,-0.002493251347914338,-0.019519638270139694
1690840430825275000,9.00227490234375,-0.004186222795397043,-0.0023164174053817987,-0.02064828760921955
1690840430835314700,9.012314697265625,-0.0037822213489562273,-0.0034112429711967707,-0.021155351772904396
1690840430845354800,9.022354736328126,-0.005130046978592873,-0.0031902005430310965,-0.0215351190418005
1690840430855394800,9.032394775390625,-0.0036943370942026377,0.00037523938226513565,-0.021439511328935623
1690840430865436000,9.042435791015626,-0.0037816886324435472,-0.0020482372492551804,-0.0209518875926733
1690840430875476000,9.05247607421875,-0.0059508332051336765,-0.0037822213489562273,-0.02257242053747177
1690840430885516000,9.06251611328125,-0.005764145869761705,-0.0008250473183579743,-0.020434701815247536
1690840430895556900,9.072556884765625,-0.004047472029924393,-0.001237571006640792,-0.020565995946526527
1690840430905627000,9.082626953125,-0.004719654098153114,-0.0030123014003038406,-0.019302591681480408
1690840430915667700,9.092667724609376,-0.00564030883833766,-0.0038535939529538155,-0.022911440581083298
1690840430925707800,9.102707763671875,-0.003743072971701622,-0.002226136391982436,-0.020169183611869812
1690840430935747800,9.112747802734376,-0.003733485471457243,-0.0013662016717717052,-0.020073575899004936
1690840430945789000,9.122788818359375,-0.005637113004922867,-0.003569967346265912,-0.02142592892050743
1690840430955829000,9.1328291015625,-0.005345230456441641,-0.002046372974291444,-0.0211284551769495
1690840430965869000,9.142869140625,-0.004415787290781736,-0.00007376955909421667,-0.020264791324734688
1690840430975908900,9.152908935546876,-0.00558118661865592,-0.0007901599165052176,-0.02178305946290493
1690840430985949700,9.16294970703125,-0.0037001960445195436,-0.003266633255407214,-0.019600866362452507
1690840430995989800,9.17298974609375,-0.00561101408675313,-0.002623746171593666,-0.021513015031814575
1690840431006029800,9.18302978515625,-0.003263970138505101,-0.0015273229219019413,-0.021502895280718803
1690840431016071000,9.19307080078125,-0.006697850301861763,-0.0029140308033674955,-0.02118890918791294
1690840431026111000,9.203111083984375,-0.0036914076190441847,-0.000773381965700537,-0.019305521622300148
1690840431036151000,9.213151123046876,-0.0046701193787157536,-0.0011145329335704446,-0.019031748175621033
1690840431046191000,9.223191162109375,-0.004222974646836519,-0.0011222560424357653,-0.022778017446398735
1690840431056262000,9.233261962890625,-0.003811782458797097,-0.0032557144295424223,-0.01882561855018139
1690840431066301700,9.2433017578125,-0.003697799053043127,-0.0019078885670751333,-0.021628862246870995
1690840431076342800,9.2533427734375,-0.0057281930930912495,0.0006263754912652075,-0.020808076485991478
1690840431086382800,9.2633828125,-0.004058923572301865,-0.00018109494703821838,-0.02082511968910694
1690840431096423000,9.2734228515625,-0.004740160424262285,-0.0041702440939843655,-0.02075294964015484
1690840431106464000,9.283464111328126,-0.0037563887890428305,-0.0018780612153932452,-0.022902918979525566
1690840431116504000,9.293504150390625,-0.004238686989992857,-0.0024437166284769773,-0.020837370306253433
1690840431126544000,9.3035439453125,-0.0049428269267082214,-0.004731105640530586,-0.021877868101000786
1690840431136583700,9.313583740234375,-0.003495931625366211,-0.0029854036401957273,-0.01996838115155697
1690840431146624800,9.323624755859376,-0.005665875039994717,-0.002397910226136446,-0.020922591909766197
1690840431156664800,9.333664794921875,-0.004266916774213314,-0.0013528858544304967,-0.021098360419273376
1690840431166705000,9.343704833984376,-0.004227501805871725,-0.005322593729943037,-0.022337529808282852
1690840431176746000,9.35374609375,-0.003911917097866535,0.0010029464028775692,-0.02172846533358097
1690840431186786000,9.3637861328125,-0.0042144525796175,-0.0008082693675532937,-0.020786238834261894
1690840431196857000,9.373857177734376,-0.0052176653407514095,-0.0021859225817024708,-0.019083945080637932
1690840431206897000,9.38389697265625,-0.003850398352369666,-0.0007813714328221977,-0.021384118124842644
1690840431216936700,9.393936767578126,-0.004285558592528105,-0.0031257520895451307,-0.022186528891324997
1690840431226976800,9.403976806640625,-0.0067902617156505585,-0.0017755294684320688,-0.01938807964324951
1690840431237017900,9.414017822265626,-0.004667189903557301,-0.0031079088803380728,-0.02057505026459694
1690840431247058000,9.424057861328125,-0.004911668132990599,-0.0016077503096312284,-0.02118038572371006
1690840431257098000,9.434097900390626,-0.0036155073903501034,-0.001023186487145722,-0.02190023846924305
1690840431267139000,9.44413916015625,-0.004019775427877903,-0.0004964132094755769,-0.02033243514597416
1690840431277179000,9.454178955078126,-0.006195577792823315,-0.002630936913192272,-0.020649883896112442
1690840431287218700,9.46421875,-0.0046211169101297855,-0.0009683253592811525,-0.01889832317829132
1690840431297258800,9.4742587890625,-0.004765726625919342,-0.001035436987876892,-0.020198745653033257
1690840431307299800,9.4842998046875,-0.004348942078649998,-0.0014764565275982022,-0.020624319091439247
1690840431317340000,9.49433984375,-0.0044109937734901905,-0.0005038700764998794,-0.020777450874447823
1690840431327380000,9.5043798828125,-0.005406217183917761,-0.0018413095967844129,-0.02082192525267601
1690840431337451000,9.514450927734375,-0.00561074772849679,-0.002523611532524228,-0.019087940454483032
1690840431347490800,9.52449072265625,-0.004510329570621252,-0.002254632068797946,-0.021859759464859962
1690840431357532000,9.534531982421875,-0.004927380476146936,-0.0014514228096231818,-0.02076200395822525
1690840431367571700,9.54457177734375,-0.004917260725051165,-0.00030546457855962217,-0.02455541118979454
1690840431377611800,9.55461181640625,-0.005732454359531403,-0.0013046825770288706,-0.020189689472317696
1690840431387652900,9.56465283203125,-0.004580636974424124,0.0017259946325793862,-0.020358268171548843
1690840431397693000,9.57469287109375,-0.004768656101077795,-0.0034171019215136766,-0.02093191258609295
1690840431407733000,9.58473291015625,-0.00632127933204174,-0.0010495517635717988,-0.02131034806370735
1690840431417772800,9.594772705078125,-0.005495965480804443,-0.003145193215459585,-0.0205761156976223
1690840431427814000,9.60481396484375,-0.005715143866837025,-0.002302036387845874,-0.020901286974549294
1690840431437853700,9.614853759765625,-0.005431517027318478,-0.00418489146977663,-0.021019531413912773
1690840431447893800,9.624893798828126,-0.0036658411845564842,-0.0019526296528056264,-0.01950605772435665
1690840431457934800,9.634934814453125,-0.006411027628928423,-0.003070358419790864,-0.02046852372586727
1690840431467948000,9.644947998046876,-0.004188619554042816,-0.003029079409316182,-0.021510351449251175
1690840431477988000,9.654988037109375,-0.005009139887988567,-0.002665824256837368,-0.02052844502031803
1690840431488059100,9.66505908203125,-0.005320463329553604,-0.005629922728985548,-0.021527396515011787
1690840431498099200,9.67509912109375,-0.0054762582294642925,-0.0012857741676270962,-0.020071446895599365
1690840431508139000,9.685138916015624,-0.005349225364625454,-0.001660214620642364,-0.0200384221971035
1690840431518180000,9.69518017578125,-0.0057071540504693985,-0.000731836655177176,-0.02069995179772377
1690840431528220200,9.70522021484375,-0.0052176653407514095,-0.000857005245052278,-0.021437114104628563
1690840431538260000,9.715260009765625,-0.004606203176081181,-0.003582484321668744,-0.021075723692774773
1690840431548301000,9.725301025390625,-0.005291434936225414,-0.003863980295136571,-0.021405689418315887
1690840431558341000,9.735341064453126,-0.004552407655864954,-0.0009768474847078323,-0.021629128605127335
1690840431568381200,9.745381103515625,-0.00379021093249321,-0.0034967304673045874,-0.021091436967253685
1690840431578421000,9.7554208984375,-0.004833104554563761,-0.00290391081944108,-0.020196614786982536
1690840431588462000,9.765462158203125,-0.005585447885096073,-0.004877313040196896,-0.0202203169465065
1690840431598502100,9.775502197265626,-0.005201153457164764,-0.002438922878354788,-0.020653346553444862
1690840431608542000,9.7855419921875,-0.0051926313899457455,-0.00404587434604764,-0.021330855786800385
1690840431618583000,9.7955830078125,-0.004369182046502829,-0.004637895151972771,-0.021268537268042564
1690840431628653000,9.805653076171875,-0.00449754623696208,-0.0023526365403085947,-0.02040327526628971
1690840431638694100,9.815694091796875,-0.004732437431812286,-0.003732952754944563,-0.02081499993801117
1690840431648734200,9.825734130859376,-0.00421258807182312,-0.0034322820138186216,-0.01848100684583187
1690840431658774000,9.83577392578125,-0.004630970768630505,-0.00221947836689651,-0.021568940952420235
1690840431668815000,9.845815185546876,-0.00520754512399435,-0.002067678142338991,-0.020363328978419304
1690840431678855200,9.855855224609375,-0.0026136261876672506,-0.0022064289078116417,-0.02022617496550083
1690840431688895000,9.86589501953125,-0.003692739177495241,0.0016357135027647018,-0.020789435133337975
1690840431698935000,9.87593505859375,-0.003802461316809058,-0.0011544802691787481,-0.020687701180577278
1690840431708976000,9.88597607421875,-0.003781422507017851,-0.00506852800026536,-0.022307967767119408
1690840431719016200,9.89601611328125,-0.003334543900564313,-0.0008103998843580484,-0.020472250878810883
1690840431729056000,9.906055908203125,-0.004474643152207136,-0.004727377090603113,-0.020607540383934975
1690840431739096000,9.916095947265624,-0.0046602655202150345,-0.0019385149935260415,-0.02124536782503128
1690840431749137200,9.92613720703125,-0.005057342816144228,-0.0016415724530816078,-0.020361198112368584
1690840431759177000,9.936177001953125,-0.0041039311327040195,-0.0028192223981022835,-0.02143152244389057
1690840431769248000,9.946248046875,-0.005421929527074099,-0.0015313175972551107,-0.019753465428948402
1690840431779288000,9.9562880859375,-0.004804608877748251,-0.0019571571610867977,-0.02189890667796135
1690840431789328100,9.966328125,-0.004679706413298845,-0.0017419736832380295,-0.02250131405889988
1690840431799369200,9.976369140625,-0.004571049474179745,-0.004314321093261242,-0.022759640589356422
1690840431809409000,9.986408935546875,-0.004349741153419018,-0.0010974886827170849,-0.02189544588327408
1690840431819449000,9.996448974609375,-0.014578144066035748,0.3897080719470978,-0.10719729214906693
1690840431829490200,10.006490234375,-0.006697317585349083,0.049963030964136124,-0.05421103909611702
1690840431839530000,10.016530029296876,-0.009193764999508858,0.005131378769874573,-0.10343770682811737
1690840431849570000,10.026570068359375,0.008188953623175621,-0.0696784108877182,-0.08663369715213776
1690840431859610000,10.036610107421875,0.01258103922009468,-0.10290587693452835,-0.091407410800457
1690840431869651200,10.046651123046875,0.015458318404853344,-0.11834289133548737,-0.07975581288337708
1690840431879691000,10.05669091796875,0.010581538081169128,-0.08399450033903122,-0.047500405460596085
1690840431889731000,10.06673095703125,0.0044229780323803425,-0.03738012909889221,-0.02466513216495514
1690840431899772200,10.076772216796876,-0.004400873556733131,-0.0020823257509618998,0.009257680736482143
1690840431909812000,10.08681201171875,-0.011418303474783897,0.033317212015390396,0.026269420981407166
1690840431919883000,10.096883056640625,-0.014006895944476128,0.04683834686875343,0.030236465856432915
1690840431929923000,10.106923095703126,-0.013391172513365746,0.06625598669052124,0.02948598749935627
1690840431939963100,10.116963134765625,-0.01005050353705883,0.06846827268600464,0.03075738064944744
1690840431950003200,10.127003173828125,-0.009008674882352352,0.052625395357608795,0.028089158236980438
1690840431960044000,10.1370439453125,-0.0057590859942138195,0.015861520543694496,0.024220384657382965
1690840431970083800,10.147083740234375,-0.000024767397917457856,-0.016981912776827812,0.01595153659582138
1690840431980124000,10.1571240234375,-0.0003680488734971732,-0.043403930962085724,0.007201986387372017
1690840431990165000,10.1671650390625,-0.0008785768295638263,-0.05440784618258476,-0.007110906299203634
1690840432000205000,10.177205078125,-0.0032117723021656275,-0.05088448524475098,-0.018555307760834694
1690840432010245000,10.1872451171875,-0.005798500496894121,-0.02798023633658886,-0.0324503518640995
1690840432020285200,10.19728515625,-0.008252603933215141,-0.008125570602715015,-0.04650518298149109
1690840432030326000,10.207325927734376,-0.0067718857899308205,0.016049806028604507,-0.05314337834715843
1690840432040366000,10.217365966796875,-0.005615274887531996,0.032941702753305435,-0.058042798191308975
1690840432050406000,10.227406005859375,-0.00452737370505929,0.034200578927993774,-0.059364788234233856
1690840432060477000,10.237476806640625,-0.0031760858837515116,0.024280039593577385,-0.06133553013205528
1690840432070517000,10.24751708984375,-0.003463174682110548,0.008887501433491707,-0.05799832195043564
1690840432080558000,10.25755810546875,-0.003019758267328143,-0.007693339604884386,-0.05293405428528786
1690840432090598100,10.26759814453125,-0.004664793144911528,-0.020425379276275635,-0.04386918619275093
1690840432100638200,10.27763818359375,-0.004778243601322174,-0.026863038539886475,-0.03648024797439575
1690840432110679000,10.287678955078125,-0.005538043566048145,-0.026261964812874794,-0.027758127078413963
1690840432120718800,10.29771875,-0.004809136036783457,-0.019531622529029846,-0.016675915569067
1690840432130759000,10.307759033203125,-0.0046570696868002415,-0.008734103292226791,-0.010851848870515823
1690840432140799000,10.317799072265625,-0.0037816886324435472,0.003482881933450699,-0.0018825886072590947
1690840432150840000,10.327840087890625,-0.0049558766186237335,0.01188275869935751,0.0017864484107121825
1690840432160880000,10.337880126953126,-0.0044133905321359634,0.01998382806777954,0.010127202607691288
1690840432170920200,10.347920166015625,-0.004789428785443306,0.01380795706063509,0.009108277037739754
1690840432180961000,10.3579609375,-0.0059660132974386215,0.008009190671145916,0.008549013175070286
1690840432191001000,10.3680009765625,-0.00515721132978797,0.0002537992550060153,0.004295945167541504
1690840432201071900,10.37807177734375,-0.005452289711683989,-0.005311674904078245,-0.002430667169392109
1690840432211112000,10.38811181640625,-0.005474660079926252,-0.012370916083455086,-0.0065292720682919025
1690840432221152000,10.398152099609375,-0.002688993699848652,-0.014028733596205711,-0.01127822045236826
1690840432231192000,10.408192138671875,-0.004259193316102028,-0.010992197319865227,-0.01786102168262005
1690840432241233200,10.418233154296875,-0.005512476898729801,-0.00631914846599102,-0.026151709258556366
1690840432251273200,10.428273193359376,-0.0037982002831995487,0.0009760485263541341,-0.03304263949394226
1690840432261313000,10.43831298828125,-0.0038314899429678917,0.0038860845379531384,-0.03759691119194031
1690840432271353900,10.448353759765626,-0.0038368161767721176,0.004705273080617189,-0.04092719405889511
1690840432281394000,10.458393798828125,-0.005311674904078245,0.006423011887818575,-0.043361056596040726
1690840432291434000,10.46843408203125,-0.0046698530204594135,0.0010897654574364424,-0.04132853075861931
1690840432301474000,10.47847412109375,-0.0036155073903501034,-0.0017070862231776118,-0.03913435339927673
1690840432311515100,10.48851513671875,-0.003200586885213852,-0.00458622956648469,-0.03918681666254997
1690840432321555200,10.49855517578125,-0.004322576802223921,-0.008311193436384201,-0.03507702797651291
1690840432331595300,10.50859521484375,-0.0049348375760018826,-0.007107177749276161,-0.030521424487233162
1690840432341666000,10.518666015625,-0.00475400872528553,-0.005789978429675102,-0.023501330986618996
1690840432351706000,10.5287060546875,-0.006327404174953699,-0.002433863002806902,-0.018506838008761406
1690840432361747000,10.538746826171876,-0.0027244137600064278,-0.0012905678013339639,-0.012619921006262302
1690840432371787000,10.548787109375,-0.005262672435492277,0.0002561961009632796,-0.010515491478145123
1690840432381827000,10.5588271484375,-0.004011253360658884,-0.0024407871533185244,-0.0078059914521873
1690840432391867100,10.5688671875,-0.0049249837175011635,-0.0006418218254111707,-0.006885869428515434
1690840432401908200,10.578908203125,-0.004354268312454224,-0.0024074974935501814,-0.00529542937874794
1690840432411948000,10.588947998046875,-0.004546548705548048,-0.0012900352012366056,-0.00672315014526248
1690840432421988000,10.598988037109375,-0.006548180244863033,-0.004234159830957651,-0.007711981888860464
1690840432432029000,10.60902880859375,-0.004624845460057259,-0.003849599277600646,-0.01178954727947712
1690840432442069000,10.619069091796876,-0.0055034225806593895,-0.004486094694584608,-0.013651896268129349
1690840432452109000,10.629109130859375,-0.0046658581122756,-0.0043444144539535046,-0.018559036776423454
1690840432462149000,10.639149169921875,-0.003947070799767971,-0.0013739247806370258,-0.022968431934714317
1690840432472204000,10.6492041015625,-0.003635747591033578,-0.0001001348573481664,-0.026320554316043854
1690840432482244000,10.659244140625,-0.004628307651728392,0.0012809804175049067,-0.028836708515882492
1690840432492315100,10.669315185546875,-0.004656536970287561,-0.00011584750609472394,-0.03250334784388542
1690840432502355200,10.679355224609376,-0.004621915984898806,-0.004634965676814318,-0.03356621414422989
1690840432512395300,10.689395263671875,-0.004090881906449795,-0.0032836776226758957,-0.034758247435092926
1690840432522436000,10.69943603515625,-0.005212338641285896,-0.003198456484824419,-0.034566231071949005
1690840432532476200,10.70947607421875,-0.004102067090570927,-0.002843457041308284,-0.03181279078125954
1690840432542516000,10.719515869140626,-0.006163353566080332,-0.002846386516466737,-0.029521673917770386
1690840432552557000,10.72955712890625,-0.0031276163645088673,-0.0032565132714807987,-0.02683054842054844
1690840432562597000,10.73959716796875,-0.0038157771341502666,-0.0008727178792469203,-0.024633973836898804
1690840432572637200,10.74963720703125,-0.005721002817153931,-0.0034171019215136766,-0.01926051266491413
1690840432582677200,10.75967724609375,-0.004341219086199999,-0.001184041379019618,-0.0181084293872118
1690840432592718000,10.769718017578125,-0.0049012815579771996,-0.003308444982394576,-0.01242178212851286
1690840432602758100,10.779758056640626,-0.004062119405716658,-0.0036125779151916504,-0.014486530795693398
1690840432612798000,10.7897978515625,-0.0051659997552633286,-0.0020666129421442747,-0.012798885814845562
1690840432622839000,10.799839111328126,-0.00546240946277976,-0.004584898240864277,-0.011427357792854309
1690840432632909000,10.809908935546876,-0.006506102625280619,-0.006384928710758686,-0.011012704111635685
1690840432642950100,10.8199501953125,-0.003974501509219408,-0.002930542454123497,-0.013525662012398243
1690840432652990200,10.829990234375,-0.004572114907205105,-0.003433613572269678,-0.015460182912647724
1690840432663030300,10.8400302734375,-0.004317250568419695,-0.0012570120161399245,-0.016919860616326332
1690840432673070000,10.850070068359376,-0.004942027851939201,0.0000018642127770363004,-0.01685887575149536
1690840432683111000,10.86011083984375,-0.004512726329267025,-0.0003832288784906268,-0.019760122522711754
1690840432693151000,10.87015087890625,-0.004570250865072012,-0.0033712955191731453,-0.021558288484811783
1690840432703191000,10.88019091796875,-0.005404086317867041,-0.0046906257048249245,-0.022775620222091675
1690840432713232100,10.890232177734376,-0.004882373381406069,-0.005285043269395828,-0.02641056850552559
1690840432723272200,10.900272216796875,-0.004849882796406746,-0.006959639023989439,-0.030223682522773743
1690840432733312300,10.910312255859376,-0.0041310954838991165,-0.0038511971943080425,-0.03146631270647049
1690840432743352000,10.92035205078125,-0.004001399502158165,-0.0021875204984098673,-0.030360035598278046
1690840432753393200,10.93039306640625,-0.0049220542423427105,-0.002502039773389697,-0.028920598328113556
1690840432763433000,10.940432861328125,-0.005170793738216162,-0.003462908323854208,-0.028807679191231728
1690840432773504000,10.95050390625,-0.0038519962690770626,-0.0013739247806370258,-0.025905899703502655
1690840432783544000,10.9605439453125,-0.005241101142019033,-0.00455800024792552,-0.021823540329933167
1690840432793584000,10.970584228515625,-0.0038181741256266832,-0.0029265477787703276,-0.01858779974281788
1690840432803625200,10.980625244140626,-0.0044410875998437405,-0.0032562471460551023,-0.017642376944422722
1690840432813665000,10.9906650390625,-0.005375856999307871,-0.0038402783684432507,-0.015472699888050556
1690840432823704800,11.000704833984376,-0.005475192796438932,-0.0013462279457598925,-0.013859889470040798
1690840432833745000,11.010744873046875,-0.005624596029520035,-0.0025899240281432867,-0.014816496521234512
1690840432843786000,11.020785888671876,-0.00503896689042449,-0.004727110732346773,-0.018367288634181023
1690840432853826000,11.030825927734375,-0.0044983453117311,-0.0018463695887476206,-0.017786454409360886
1690840432863866000,11.0408662109375,-0.004123372491449118,-0.0014729943359270692,-0.019602729007601738
1690840432873907200,11.0509072265625,-0.004742290824651718,-0.0007661914569325745,-0.019159313291311264
1690840432883947000,11.060947021484376,-0.004888232331722975,-0.005828061606734991,-0.021392107009887695
1690840432893987000,11.070987060546875,-0.0051867724396288395,-0.004495948553085327,-0.020126041024923325
1690840432904027000,11.08102685546875,-0.005629922728985548,-0.0054546864703297615,-0.018256235867738724
1690840432914068000,11.09106787109375,-0.003013899317011237,-0.004163586068898439,-0.018125740811228752
1690840432924139000,11.101138916015625,-0.0033369408920407295,-0.0028969866689294577,-0.019934559240937233
1690840432934179000,11.111178955078126,-0.003853327827528119,-0.004245877731591463,-0.021875204518437386
1690840432944219100,11.12121923828125,-0.005093029234558344,-0.0017006946727633476,-0.023371901363134384
1690840432954259200,11.13125927734375,-0.005037102848291397,0.0010852381819859147,-0.025605227798223495
1690840432964300000,11.141300048828125,-0.00538571085780859,0.0017531589837744832,-0.0270697008818388
1690840432974339800,11.15133984375,-0.0047116647474467754,-0.0005699164466932416,-0.02642681449651718
1690840432984380000,11.1613798828125,-0.0046669235453009605,-0.0046599991619586945,-0.026575418189167976
1690840432994421000,11.1714208984375,-0.005573463626205921,-0.004169445019215345,-0.025464879348874092
1690840433004461000,11.1814609375,-0.004087419714778662,-0.0015869776252657175,-0.020187294110655785
1690840433014501000,11.191501220703126,-0.005616073962301016,-0.002031459240242839,-0.019363578408956528
1690840433024541200,11.201541259765625,-0.0036943370942026377,-0.003946005832403898,-0.019571037963032722
1690840433034582000,11.21158203125,-0.004924451000988483,-0.0017457021167501807,-0.016211992129683495
1690840433044622000,11.2216220703125,-0.005602492019534111,-0.0015121428295969963,-0.017073791474103928
1690840433054662000,11.231661865234376,-0.004895688965916634,0.0005046690348535776,-0.018073808401823044
1690840433064733000,11.24173291015625,-0.005623531062155962,-0.0022980417124927044,-0.020505009219050407
1690840433074773000,11.25177294921875,-0.0025893915444612503,-0.0028663603588938713,-0.02161022089421749
1690840433084814000,11.26181396484375,-0.005647765472531319,-0.002487392397597432,-0.020905815064907074
1690840433094854100,11.271854248046875,-0.005675728898495436,-0.0004106594424229115,-0.019568640738725662
1690840433104894200,11.281894287109376,-0.0031902005430310965,-0.004372644238173962,-0.019694343209266663
1690840433114934000,11.29193408203125,-0.004131894558668137,-0.0049311090260744095,-0.019748937338590622
1690840433124974800,11.301974853515626,-0.00421258807182312,-0.003442934714257717,-0.01913134939968586
1690840433135015000,11.312014892578125,-0.00660597113892436,-0.0037619813811033964,-0.01960992068052292
1690840433145055000,11.322054931640626,-0.005772667936980724,-0.002014148747548461,-0.02178412489593029
1690840433155096000,11.332095947265625,-0.004297809209674597,0.00006178533658385277,-0.022659773007035255
1690840433165136100,11.34213623046875,-0.004231230355799198,0.0006146575906313956,-0.023121563717722893
1690840433175176200,11.35217626953125,-0.0037790255155414343,-0.0019976370967924595,-0.02665052004158497
1690840433185216300,11.36221630859375,-0.005653890781104565,-0.0023276028223335743,-0.02322888933122158
1690840433195257000,11.372257080078125,-0.0044200485572218895,-0.002448510378599167,-0.0256278645247221
1690840433205328000,11.382327880859375,-0.006440855097025633,-0.00307595101185143,-0.02431892231106758
1690840433215368000,11.392367919921876,-0.004519384354352951,-0.0030538467690348625,-0.021885324269533157
1690840433225408000,11.402407958984375,-0.005597698036581278,-0.0038666436448693275,-0.01932229846715927
1690840433235448000,11.412447998046876,-0.005911418702453375,-0.0009749832679517567,-0.018391523510217667
1690840433245489200,11.4224892578125,-0.005946838762611151,0.00005379585491027683,-0.01908154971897602
1690840433255529200,11.432529296875,-0.0038426751270890236,-0.0003230414295103401,-0.016928916797041893
1690840433265569000,11.442569091796875,-0.005170793738216162,0.0019209380261600018,-0.01818033494055271
1690840433275609900,11.45260986328125,-0.006256564520299435,-0.0027023095171898603,-0.020083695650100708
1690840433285650000,11.46264990234375,-0.00387383415363729,-0.003453853540122509,-0.020562000572681427
1690840433295690000,11.47268994140625,-0.005258411634713411,0.00011877698125317693,-0.02280278317630291
1690840433305730000,11.48272998046875,-0.005131112411618233,-0.0026666230987757444,-0.020472250878810883
1690840433315771100,11.492771240234376,-0.005032841581851244,-0.003668770659714937,-0.019648004323244095
1690840433325811200,11.502811279296875,-0.005480785388499498,-0.0032346753869205713,-0.01841043308377266
1690840433335851000,11.51285107421875,-0.00577772781252861,0.00005512743518920615,-0.01563754864037037
1690840433345891000,11.52289111328125,-0.006423810962587595,-0.0012985573848709464,-0.018866099417209625
1690840433355962000,11.532962158203125,-0.005371595732867718,-0.0015132081462070346,-0.020473316311836243
1690840433366003000,11.5430029296875,-0.0035923379473388195,-0.00038775624125264585,-0.021086908876895905
1690840433376043000,11.55304296875,-0.0057012951001524925,-0.0022330605424940586,-0.022977221757173538
1690840433386083000,11.5630830078125,-0.006271477788686752,-0.0007696535321883857,-0.022800387814641
1690840433396123100,11.573123046875,-0.00401657959446311,-0.002811765531077981,-0.025106685236096382
1690840433406164200,11.583164306640626,-0.004363056737929583,-0.002375007141381502,-0.02334553562104702
1690840433416204000,11.5932041015625,-0.004254133440554142,-0.004127100575715303,-0.02172873169183731
1690840433426244000,11.603244140625,-0.004368915688246489,-0.002776079112663865,-0.022478677332401276
1690840433436285000,11.613284912109375,-0.005612611770629883,-0.002983539365231991,-0.019478093832731247
1690840433446325000,11.623324951171876,-0.006126069463789463,0.0014223942998796701,-0.019480224698781967
1690840433456365000,11.633364990234375,-0.0052027516067028046,-0.0012365056900307536,-0.017304955050349236
1690840433466383000,11.643383056640625,-0.003935352899134159,-0.0014016216155141592,-0.02056972309947014
1690840433476424200,11.653424072265626,-0.004832838196307421,-0.0011448930017650127,-0.020541228353977203
1690840433486464300,11.66346435546875,-0.005794506054371595,-0.0019435749854892492,-0.020252540707588196
1690840433496535300,11.673535400390625,-0.0026168220210820436,-0.002214152133092284,-0.022474149242043495
1690840433506575000,11.6835751953125,-0.002950782421976328,-0.00785392802208662,-0.020613931119441986
