time,seconds_elapsed,z,y,x
1690840421869491500,0.046491455078125,0.0026732152327895164,0.013117767870426178,0.16611431539058685
1690840421879561200,0.056561279296875,0.0015096801798790693,0.004025735892355442,0.13467730581760406
1690840421889602300,0.066602294921875,0.0008613888639956713,-0.0007735409308224916,0.08976759016513824
1690840421899642000,0.07664208984375,-0.0012156101875007153,-0.014012646861374378,0.04097101837396622
1690840421909682200,0.08668212890625,-0.0003216750919818878,-0.010184993967413902,-0.010700000450015068
1690840421919722200,0.09672216796875,-0.000503302551805973,-0.009832924231886864,-0.06272831559181213
1690840421929763300,0.106763427734375,-0.00043421750888228416,-0.0016933775041252375,-0.10033822804689407
1690840421939803100,0.11680322265625,0.00036712782457470894,0.003118954598903656,-0.1286335289478302
1690840421949843200,0.12684326171875,-0.001222190447151661,0.007419669069349766,-0.14119689166545868
1690840421959884300,0.13688427734375,0.0003024693578481674,0.006057728081941605,-0.14378228783607483
1690840421969924000,0.146924072265625,0.0008639786392450333,0.005619063042104244,-0.13123199343681335
1690840421979964200,0.156964111328125,0.0008866153657436371,-0.0004918260965496302,-0.11497791111469269
1690840421990004200,0.167004150390625,0.0008652957621961832,-0.006612363271415234,-0.08964355289936066
1690840422000045300,0.17704541015625,-0.00004497263580560684,-0.009251023642718792,-0.06112375855445862
1690840422010085400,0.18708544921875,-0.00011480553075671196,-0.012583418749272823,-0.030467389151453972
1690840422020125200,0.197125244140625,-0.000598701648414135,-0.009961003437638283,0.0045278798788785934
1690840422030196200,0.2071962890625,-0.0004360112361609936,-0.0041679516434669495,0.033748045563697815
1690840422040236300,0.217236328125,-0.0012874240055680275,0.000008683651685714722,0.06396879255771637
1690840422050277000,0.227277099609375,-0.0008062371052801609,0.007559413556009531,0.08567328751087189
1690840422060317200,0.237317138671875,0.00014211423695087433,0.010796486400067806,0.10186690092086792
1690840422070357200,0.247357177734375,-0.0023776646703481674,0.01353432610630989,0.10682979226112366
1690840422080398300,0.2573984375,0.00037737516686320305,0.010193657130002975,0.1078345999121666
1690840422090438100,0.267438232421875,0.0001739244908094406,0.0054799215868115425,0.09730687737464905
1690840422100478200,0.277478271484375,0.0005307882092893124,-0.0008807722479104996,0.07763197273015976
1690840422110518300,0.287518310546875,-0.0006187465041875839,-0.007099740207195282,0.056134242564439774
1690840422120559000,0.29755908203125,-0.0006776023656129837,-0.007428374141454697,0.028360137715935707
1690840422130599200,0.30759912109375,-0.0006456444971263409,-0.00714634545147419,-0.002654770389199257
1690840422140639200,0.31763916015625,0.0007056433241814375,-0.002572632860392332,-0.027726300060749054
1690840422150680300,0.327680419921875,0.0004490436986088753,0.001412273501046002,-0.05174411088228226
1690840422160720400,0.337720458984375,-0.000822615809738636,0.003078879788517952,-0.06928395479917526
1690840422170791200,0.347791259765625,0.0009790414478629827,0.004840152803808451,-0.07894959300756454
1690840422180831200,0.357831298828125,-0.00022923480719327927,0.0026997702661901712,-0.07877834886312485
1690840422190871300,0.367871337890625,-0.0014512366615235806,-0.0006902518216520548,-0.07556410878896713
1690840422200911400,0.377911376953125,0.000771970022469759,-0.0038146721199154854,-0.06523983180522919
1690840422210952200,0.3879521484375,0.0009224354289472103,-0.005022092722356319,-0.050284530967473984
1690840422220992300,0.3979921875,0.002058806363493204,-0.0066665951162576675,-0.033210474997758865
1690840422231032000,0.408031982421875,0.0008444080594927073,-0.005672759842127562,-0.014326052740216255
1690840422241073200,0.4180732421875,-0.0020291428081691265,-0.002141940873116255,0.005084131844341755
1690840422251113200,0.42811328125,-0.00007108598947525024,0.0007024769438430667,0.024400711059570312
1690840422261153300,0.4381533203125,-0.0005616405978798866,0.0018556256545707583,0.03864569216966629
1690840422271193300,0.448193359375,-0.0024503832682967186,0.00467605609446764,0.050187528133392334
1690840422281234200,0.458234130859375,-0.00045221345499157906,0.003034483641386032,0.0543026477098465
1690840422291274200,0.468274169921875,0.0004554940387606621,0.0038170893676579,0.05944613367319107
1690840422301314300,0.478314208984375,0.00003604590892791748,0.002695632167160511,0.05442367494106293
1690840422311385000,0.488385009765625,0.000055738724768161774,-0.0012717403005808592,0.04723285883665085
1690840422321425200,0.498425048828125,0.0005625379271805286,-0.002160436939448118,0.036870233714580536
1690840422331466200,0.50846630859375,-0.0009126737713813782,-0.003623418975621462,0.020219510421156883
1690840422341506300,0.51850634765625,0.0000452650710940361,-0.0011405539698898792,0.007972698658704758
1690840422351546400,0.52854638671875,0.00017098011448979378,-0.0013151939492672682,-0.00899241678416729
1690840422361586400,0.53858642578125,-0.000024762004613876343,0.0021831344347447157,-0.02350638061761856
1690840422371627300,0.548627197265625,-0.0005402620881795883,0.0013933463487774134,-0.032886192202568054
1690840422381667000,0.5586669921875,-0.0006049768999218941,0.001541151781566441,-0.04147568345069885
1690840422391707100,0.56870703125,0.0006830922793596983,0.0006315133068710566,-0.044407956302165985
1690840422401748200,0.578748291015625,-0.0006812452338635921,-0.00044600176624953747,-0.04320739954710007
1690840422411788300,0.588788330078125,0.0004480513744056225,-0.00405541667714715,-0.03781329095363617
1690840422421828400,0.598828369140625,-0.0009671524167060852,-0.0033313031308352947,-0.03048320859670639
1690840422431868400,0.608868408203125,-0.0001943507231771946,-0.0016888794489204884,-0.019076252356171608
1690840422441909200,0.6189091796875,0.0004890165291726589,-0.0008177594281733036,-0.008550107479095459
1690840422451980300,0.628980224609375,0.0004699835553765297,0.0010551023297011852,0.0022697653621435165
1690840422461997600,0.63899755859375,0.0010111380834132433,0.001235930947586894,0.014271300286054611
1690840422472037600,0.64903759765625,-0.00021263165399432182,0.0021556224673986435,0.01923634484410286
1690840422482077400,0.659077392578125,0.0002049519680440426,0.0025415143463760614,0.026731012389063835
1690840422492118300,0.6691181640625,0.00011052237823605537,0.0013028961839154363,0.03230733424425125
1690840422502158300,0.679158447265625,-0.00022050878033041954,-0.001253738533705473,0.03067667968571186
1690840422512198400,0.689198486328125,0.001767404843121767,-0.00039126910269260406,0.028182657435536385
1690840422522239500,0.699239501953125,-0.0005191853269934654,-0.00037156185135245323,0.02297058515250683
1690840422532279600,0.709279541015625,0.0003002705052495003,-0.002498405519872904,0.015353290364146233
1690840422542319600,0.719319580078125,0.001438505481928587,-0.0034454255364835262,0.009544936008751392
1690840422552359400,0.729359375,-0.0009028026834130287,0.0009153734426945448,0.0007301047444343567
1690840422562400300,0.739400146484375,-0.0004609841853380203,0.0009707672288641334,-0.0075722988694906235
1690840422572440300,0.7494404296875,-0.0007776669226586819,0.001088227378204465,-0.016717929393053055
1690840422582480400,0.75948046875,0.00016961945220828056,-0.00017837202176451683,-0.021068468689918518
1690840422592551400,0.769551513671875,-0.0002644662745296955,0.000481152324937284,-0.02195473201572895
1690840422602591500,0.779591552734375,0.0005216989666223526,0.0005200344603508711,-0.024226410314440727
1690840422612632600,0.789632568359375,0.0016277693212032318,0.0008584145689383149,-0.02222435362637043
1690840422622672600,0.799672607421875,0.0000900602899491787,-0.0011322982609272003,-0.019829904660582542
1690840422632712400,0.80971240234375,-0.0011704256758093834,-0.002207967219874263,-0.011977232992649078
1690840422642752500,0.81975244140625,0.0014906050637364388,-0.0017307286616414785,-0.00856545940041542
1690840422652793300,0.82979345703125,0.00034656235948204994,-0.0002675210125744343,-0.0013583861291408539
1690840422662833400,0.83983349609375,-0.0008308207616209984,0.00024114269763231277,0.0038278531283140182
1690840422672873500,0.84987353515625,-0.00027594203129410744,0.0001871553249657154,0.010544017888605595
1690840422682914600,0.85991455078125,-0.0008479892276227474,0.0016502959188073874,0.01541973277926445
1690840422692954600,0.86995458984375,0.0006955403368920088,0.001047194586135447,0.016548242419958115
1690840422702994400,0.879994384765625,-0.0008248584344983101,-0.000907832058146596,0.017169557511806488
1690840422713034500,0.890034423828125,0.000554403755813837,-0.0003488564398139715,0.015349900349974632
1690840422723075300,0.900075439453125,-0.0009404285810887814,-0.0015603285282850266,0.011739986017346382
1690840422733115400,0.910115478515625,0.0007688258774578571,-0.0019614500924944878,0.009777444414794445
1690840422743186400,0.9201865234375,-0.0006543672643601894,-0.003151616547256708,0.004130477085709572
1690840422753226500,0.9302265625,-0.0003970111720263958,-0.00047970027662813663,-0.0005677547305822372
1690840422763266600,0.9402666015625,-0.0019869180396199226,-0.0022456422448158264,-0.006755078211426735
1690840422773307600,0.9503076171875,0.000449158251285553,0.0004165781429037452,-0.008636565878987312
1690840422783347500,0.960347412109375,0.0012808635365217924,0.0017452292377129197,-0.009730059653520584
1690840422793387500,0.970387451171875,0.0009289437439292669,0.00013594783376902342,-0.011843783780932426
1690840422803428400,0.980428466796875,-0.00039491383358836174,0.001024378347210586,-0.014468593522906303
1690840422813468400,0.990468505859375,-0.0008444325067102909,0.000935670337639749,-0.011554213240742683
1690840422823508500,1.000508544921875,0.0010850278194993734,-0.0010494499001652002,-0.01038268767297268
1690840422833548500,1.010548583984375,0.001530402572825551,-0.0021385992877185345,-0.006837565451860428
1690840422843589600,1.020589599609375,0.00018603913486003876,-0.001458427868783474,-0.003835650160908699
1690840422853629400,1.03062939453125,-0.0010568872094154358,-0.00027736020274460316,0.0025960616767406464
1690840422863669500,1.04066943359375,0.00005258573219180107,0.00005100760608911514,0.00493245292454958
1690840422873709600,1.05070947265625,-0.0001635025255382061,0.0014320890186354518,0.005871620960533619
1690840422883780400,1.0607802734375,-0.0014237104915082455,-0.0009668865241110325,0.009174473583698273
1690840422893821400,1.070821533203125,-0.0002717217430472374,-0.0008939157705754042,0.008693239651620388
1690840422903861500,1.080861572265625,-0.0003215228207409382,-0.0002302562352269888,0.008895906619727612
1690840422913901300,1.0909013671875,-0.0007640104740858078,-0.0009248980786651373,0.008583340793848038
1690840422923941400,1.10094140625,0.0004069814458489418,-0.00005031609907746315,0.005731095559895039
1690840422933982500,1.110982421875,-0.0017944932915270329,-0.0007273901719599962,0.002653408795595169
1690840422944022500,1.1210224609375,0.0005533494986593723,0.0024707999546080828,0.0005412548780441284
1690840422954062300,1.131062255859375,-0.0008308668620884418,0.0011525113368406892,-0.002398509532213211
1690840422964103400,1.141103515625,-0.0013483189977705479,0.0010393270058557391,-0.004493352025747299
1690840422974143500,1.1511435546875,-0.0009168018586933613,0.0017366923857480288,-0.00520634651184082
1690840422984183600,1.16118359375,-0.00035247765481472015,-0.0012092965189367533,-0.005844173952937126
1690840422994223400,1.171223388671875,0.0005434597842395306,0.00003111688420176506,-0.006095757707953453
1690840423004264400,1.181264404296875,0.00035517429932951927,0.0009429833153262734,-0.006384709849953651
1690840423014304500,1.191304443359375,-0.0005899765528738499,0.0012196142924949527,-0.006440315395593643
1690840423024375600,1.20137548828125,0.00019831908866763115,0.00026593636721372604,-0.004109783098101616
1690840423034415400,1.211415283203125,-0.0009481273591518402,-0.000151696614921093,-0.004685448482632637
1690840423044455400,1.221455322265625,-0.00023067183792591095,-0.0012119009625166655,-0.00018843449652194977
1690840423054496500,1.23149658203125,-0.001815269235521555,-0.0005641917232424021,0.0036054886877536774
1690840423064536300,1.241536376953125,-0.00030925171449780464,-0.00029574520885944366,0.0022744406014680862
1690840423074576400,1.251576416015625,0.0015338209923356771,0.0000787514727562666,0.005560653284192085
1690840423084616400,1.261616455078125,0.00035617128014564514,-0.001335120527073741,0.004814968444406986
1690840423094657500,1.271657470703125,-0.00042995577678084373,-0.0004735540132969618,0.005476230755448341
1690840423104697300,1.281697265625,-0.0011396878398954868,-0.0002075042575597763,0.004878884181380272
1690840423114737400,1.2917373046875,-0.00041031185537576675,-0.00025854003615677357,0.0026905443519353867
1690840423124778500,1.301778564453125,-0.0005615795962512493,-0.0006223279051482677,0.002238338813185692
1690840423134818600,1.311818603515625,-0.0005582161247730255,-0.0015865343157202005,0.0008506793528795242
1690840423144858400,1.3218583984375,-0.0006495625711977482,0.00044039764907211065,-0.0013917014002799988
1690840423154898400,1.3318984375,-0.001834639348089695,-0.001124612521380186,-0.0037134643644094467
1690840423164939500,1.341939453125,0.0006785858422517776,0.0024589370004832745,-0.0015403255820274353
1690840423175010600,1.352010498046875,-0.0010620318353176117,0.003910919651389122,-0.003483615815639496
1690840423185050400,1.36205029296875,-0.0011632321402430534,0.0014746596571058035,-0.0030468571931123734
1690840423195090400,1.37209033203125,-0.0009674727916717529,-0.0006651582662016153,-0.0053453464061021805
1690840423205130200,1.382130126953125,-0.0011672098189592361,0.00043392821680754423,-0.0036446526646614075
1690840423215171300,1.39217138671875,-0.00004529673606157303,0.00003098789602518082,-0.0025131944566965103
1690840423225211400,1.40221142578125,-0.00008231448009610176,-0.001901934389024973,-0.00245007686316967
1690840423235251500,1.41225146484375,0.00046828296035528183,-0.0011532781645655632,0.00029349327087402344
1690840423245292500,1.42229248046875,0.0005955817177891731,0.0009913654066622257,0.0012775305658578873
1690840423255332400,1.432332275390625,-0.0003989199176430702,0.002147276420146227,0.0014950130134820938
1690840423265372400,1.442372314453125,0.0007811267860233784,-0.0009105650242418051,0.0036902576684951782
1690840423275412500,1.45241259765625,-0.000056589022278785706,-0.00035902950912714005,0.002156028524041176
1690840423285453600,1.46245361328125,0.00017590494826436043,-0.0002791346050798893,0.002695586532354355
1690840423295493400,1.472493408203125,0.0006223316304385662,-0.0004799789749085903,0.0025598034262657166
1690840423305533400,1.482533447265625,-0.0005350778810679913,0.00031524093355983496,0.0006729532033205032
1690840423315604500,1.4926044921875,0.00012276647612452507,0.0004022781504318118,0.0010744519531726837
1690840423325644500,1.50264453125,0.0009344976861029863,-0.0012494144029915333,-0.00039534643292427063
1690840423335685400,1.512685302734375,-0.0004891115240752697,-0.0015249561984091997,-0.0004080813378095627
1690840423345725400,1.522725341796875,0.0002001146785914898,0.0006750811589881778,-0.002594003453850746
1690840423355765200,1.53276513671875,-0.0007283855229616165,-0.0011516227386891842,-0.004062984138727188
1690840423365805300,1.542805419921875,-0.0016498388722538948,-0.0013878452591598034,-0.0029362011700868607
1690840423375846400,1.552846435546875,-0.00004930095747113228,-0.000057667260989546776,-0.002744413912296295
1690840423385886500,1.562886474609375,-0.0008429228328168392,0.001860874006524682,-0.0026988741010427475
1690840423395926500,1.572926513671875,-0.00047258147969841957,0.0010453442810103297,-0.0012789499014616013
1690840423405967400,1.58296728515625,0.001787909772247076,0.0009334915084764361,-0.00343877449631691
1690840423416007400,1.59300732421875,0.0005529294721782207,0.00188730051741004,0.00017453916370868683
1690840423426047500,1.603047607421875,-0.0007144687697291374,0.0012236407492309809,0.0007740166038274765
1690840423436087300,1.61308740234375,-0.00029145460575819016,-0.00022531766444444656,0.0006676279008388519
1690840423446128400,1.62312841796875,0.0007754077669233084,0.00036643678322434425,0.0014987997710704803
1690840423456220200,1.63322021484375,0.000300433486700058,0.0011452196631580591,0.0019659139215946198
1690840423466260200,1.64326025390625,0.0009670229628682137,0.0008474781643599272,0.0009565763175487518
1690840423476300300,1.65330029296875,-0.0007859906181693077,0.00046382611617445946,0.0019098706543445587
1690840423486340400,1.66334033203125,0.0008984587620943785,0.00016928045079112053,0.0007404759526252747
1690840423496381200,1.673381103515625,-0.00014489423483610153,-0.0008537729736417532,0.0014858618378639221
1690840423506421000,1.6834208984375,-0.0010791309177875519,0.0005763444351032376,0.0014517735689878464
1690840423516461000,1.6934609375,0.00033868197351694107,0.001073668710887432,-0.00014148466289043427
1690840423526501000,1.703501220703125,-0.00018516182899475098,0.0003881710581481457,-0.001072525978088379
1690840423536542200,1.713542236328125,0.0014184154570102692,-0.002439376898109913,-0.004564326256513596
1690840423546582300,1.723582275390625,0.0002796477638185024,0.0009657409973442554,-0.00212087482213974
1690840423556622300,1.733622314453125,-0.0005980725400149822,0.0013224061112850904,-0.0031879525631666183
1690840423566663200,1.7436630859375,-0.0016071442514657974,0.00000680447556078434,-0.0022798143327236176
1690840423576703200,1.753703125,-0.002232747618108988,0.001758405938744545,0.00011557526886463165
1690840423586743000,1.763742919921875,-0.0009706756100058556,0.001035890425555408,-0.0014735329896211624
1690840423596783000,1.773783203125,0.0005559627898037434,0.000057666562497615814,0.002353910356760025
1690840423606854100,1.783854248046875,-0.0003955848515033722,-0.0015290449373424053,0.0002540089190006256
1690840423616895200,1.793895263671875,-0.0002599107101559639,-0.00017318385653197765,-0.0016123242676258087
1690840423626935300,1.803935302734375,0.0015835296362638474,0.0006936751306056976,-0.000531613826751709
1690840423636975400,1.813975341796875,-0.00023167021572589874,-0.0024987158831208944,0.0006086342036724091
1690840423647015200,1.82401513671875,-0.0008652363903820515,-0.0002986784093081951,0.0019085220992565155
1690840423657056000,1.834055908203125,-0.0010242103599011898,0.0013991803862154484,0.0009541250765323639
1690840423667096000,1.844095947265625,-0.0007720091380178928,0.002430622698739171,-0.00020008906722068787
1690840423677136100,1.85413623046875,0.0005781948566436768,0.0017338852630928159,0.00022889859974384308
1690840423687177200,1.86417724609375,0.00003783963620662689,0.0015522576868534088,0.001249954104423523
1690840423697217300,1.87421728515625,0.0005494575016200542,-0.0006496245041489601,-0.0016393940895795822
1690840423707257300,1.88425732421875,0.0005880733951926231,-0.00025494396686553955,-0.002644205465912819
1690840423717297200,1.894297119140625,0.00031253835186362267,-0.0013339389115571976,-0.000909171998500824
1690840423727338200,1.904338134765625,0.00007312046363949776,-0.0005879874806851149,0.0012152306735515594
1690840423737378000,1.9143779296875,0.00009032292291522026,0.0022203042171895504,-0.0006690341979265213
1690840423747449000,1.924448974609375,-0.0004276619292795658,0.003188895992934704,-0.00040378235280513763
1690840423757489200,1.9344892578125,-0.0006685559637844563,0.001080561545677483,-0.0005228444933891296
1690840423767529200,1.944529296875,0.0008856647182255983,0.0010259667178615928,-0.0010528136044740677
1690840423777570300,1.9545703125,0.0008658182341605425,0.0011493174824863672,0.00011157989501953125
1690840423787610400,1.9646103515625,-0.00010809954255819321,0.0020697058644145727,0.0008913539350032806
1690840423797650200,1.974650146484375,-0.0005267355591058731,-0.001681638415902853,-0.0006382409483194351
1690840423807690200,1.984690185546875,0.00030283909291028976,0.001924814423546195,-0.00006832554936408997
1690840423817731000,1.99473095703125,-0.0008015967905521393,0.0003099460154771805,0.00007135607302188873
1690840423827771100,2.004771240234375,0.0003214585594832897,0.0024404749274253845,-0.00020614638924598694
1690840423837811200,2.014811279296875,-0.0007678978145122528,0.000508368480950594,0.000046214088797569275
1690840423847852300,2.024852294921875,0.0009085617493838072,-0.0014290811959654093,0.0015841890126466751
1690840423857892400,2.034892333984375,0.0006751064211130142,-0.0011756154708564281,-0.0008722823113203049
1690840423867932200,2.04493212890625,-0.00021625356748700142,-0.0011575059033930302,0.0004459824413061142
1690840423877972200,2.05497216796875,0.0010367811191827059,-0.00017309654504060745,-0.0001567211002111435
1690840423888043300,2.065043212890625,0.0014471744652837515,-0.0009880238212645054,-0.0007639210671186447
1690840423898084000,2.075083984375,0.0006410414353013039,-0.0012525517959147692,0.0003598630428314209
1690840423908124200,2.085124267578125,0.0008775300811976194,-0.0012091421522200108,-0.00045426376163959503
1690840423918164200,2.095164306640625,-0.0009545991197228432,-0.0022581692319363356,-0.001155821606516838
1690840423928204300,2.105204345703125,-0.000020895153284072876,-0.0015047609340399504,-0.0018322654068470001
1690840423938245400,2.115245361328125,0.0006677634082734585,-0.0005321360658854246,-0.0015112310647964478
1690840423948285200,2.12528515625,-0.0009229425340890884,0.0013195597566664219,-0.000627860426902771
1690840423958325200,2.1353251953125,0.0007526683621108532,-0.000965663930401206,-0.000771697610616684
1690840423968365300,2.145365234375,0.00020725280046463013,-0.0011486231815069914,-0.0005658362060785294
1690840423978406100,2.15540625,-0.0002892361953854561,-0.002572299912571907,0.00037599727511405945
1690840423988446200,2.1654462890625,0.0002308790571987629,0.001171039417386055,0.0013864003121852875
1690840423998486300,2.175486328125,0.0008081467822194099,0.0008443781407549977,-0.0004326682537794113
1690840424008527400,2.18552734375,-0.0007596560753881931,0.0013860651524737477,0.0003881175071001053
1690840424018567200,2.195567138671875,-0.000473586842417717,-0.001958994660526514,-0.0003780592232942581
1690840424028607200,2.205607177734375,0.000012706499546766281,-0.00005243765190243721,-0.0018353406339883804
1690840424038678300,2.21567822265625,-0.0007393420673906803,-0.0002632837276905775,0.0009003598242998123
1690840424048718300,2.22571826171875,0.0011227403301745653,-0.0015013872180134058,-0.00018381327390670776
1690840424058759200,2.23575927734375,0.0008588293567299843,0.0007422842318192124,-0.0010373666882514954
1690840424068799200,2.24579931640625,0.0009563008788973093,0.00010525609832257032,-0.0007465481758117676
1690840424078839300,2.25583935546875,-0.0003055119886994362,-0.002401696750894189,-0.0004439316689968109
1690840424088879000,2.265879150390625,-0.0005430658347904682,0.0006007509073242545,-0.0005499254912137985
1690840424098920200,2.275920166015625,-0.0014360235072672367,-0.00015896093100309372,-0.0001264028251171112
1690840424108960300,2.285960205078125,-0.0011513312347233295,0.00027992785908281803,0.000022999942302703857
1690840424119000300,2.296000244140625,0.0007903862278908491,-0.00029378198087215424,0.000010188668966293335
1690840424129041200,2.306041259765625,-0.0007089735008776188,-0.001408847514539957,0.0015913061797618866
1690840424139081200,2.316081298828125,-0.0016368795186281204,0.0008989542257040739,0.0004779621958732605
1690840424149121300,2.326121337890625,0.00006221747025847435,0.0019993723835796118,0.001554146409034729
1690840424159161000,2.3361611328125,-0.000035719480365514755,0.00026670272927731276,-0.0016429796814918518
1690840424169202200,2.3462021484375,0.0014671024400740862,-0.000030239811167120934,0.000805264338850975
1690840424179272200,2.356272216796875,-0.0007968014106154442,-0.0007396049331873655,-0.0018021054565906525
1690840424189313300,2.366313232421875,0.00006739422678947449,-0.0010975338518619537,-0.001277463510632515
1690840424199353300,2.376353271484375,0.00010987836867570877,0.0005627069622278214,0.0005525778979063034
1690840424209393200,2.38639306640625,-0.00034658750519156456,0.001222105696797371,0.0003357958048582077
1690840424219434200,2.396434326171875,0.0016993088647723198,0.0004884119844064116,-0.0006371233612298965
1690840424229474300,2.406474365234375,0.00031899241730570793,0.0006604521768167615,-0.0003971736878156662
1690840424239514000,2.41651416015625,0.00033868663012981415,0.00015100149903446436,0.0007834248244762421
1690840424249554200,2.42655419921875,0.00023349188268184662,-0.0002378199715167284,0.0005541276186704636
1690840424259595300,2.43659521484375,-0.0004423079080879688,-0.0008924414869397879,-0.0011518709361553192
1690840424269635300,2.44663525390625,0.0002674246206879616,-0.001749712973833084,-0.0023130103945732117
1690840424279675100,2.456675048828125,-0.001532981637865305,0.000026347581297159195,-0.0001658610999584198
1690840424289716200,2.46671630859375,0.00016345223411917686,0.00022794888354837894,-0.0011970382183790207
1690840424299756300,2.47675634765625,0.0009080246090888977,0.00005870917811989784,-0.0013130735605955124
1690840424309796000,2.486796142578125,-0.000017690006643533707,-0.0028409406077116728,0.0005649887025356293
1690840424319867100,2.4968671875,0.0008913325145840645,-0.0012391021009534597,-0.001620197668671608
1690840424329907200,2.5069072265625,-0.0009667547419667244,-0.002246842021122575,-0.001006605103611946
1690840424339948300,2.5169482421875,0.0007253088988363743,0.0013999154325574636,0.0003881361335515976
1690840424349988000,2.526988037109375,0.00033888407051563263,0.00021507509518414736,0.0005239564925432205
1690840424360028200,2.537028076171875,0.0008393540047109127,-0.0005149946082383394,-0.00006424635648727417
1690840424370068200,2.547068115234375,0.00021883752197027206,-0.0005791767034679651,-0.001317264512181282
1690840424380109300,2.557109375,-0.0009653884917497635,-0.0009644962847232819,-0.0010799486190080643
1690840424390149000,2.567149169921875,0.0006665964610874653,-0.0025136570911854506,-0.0007739514112472534
1690840424400189200,2.577189208984375,-0.0006211106665432453,-0.0005110190249979496,0.000345814973115921
1690840424410230300,2.587230224609375,-0.000974245835095644,-0.0026828269474208355,-0.0006102602928876877
1690840424420270000,2.59727001953125,0.0006421064026653767,-0.0007299860008060932,0.00019036419689655304
1690840424430310100,2.60731005859375,-0.0011475374922156334,0.0013600627426058054,-0.0012839622795581818
1690840424440350200,2.61735009765625,0.0007453183643519878,-0.00036962726153433323,0.0002363193780183792
1690840424450391300,2.627391357421875,0.0006318679079413414,-0.0007983963005244732,-0.00046782009303569794
1690840424460425200,2.63742529296875,0.001249882159754634,0.0005959274712949991,-0.0013237446546554565
1690840424470496300,2.647496337890625,-0.0002657226286828518,0.00007474690210074186,-0.0002880413085222244
1690840424480536000,2.6575361328125,0.00007492117583751678,0.00012629327829927206,0.00021679513156414032
1690840424490576100,2.667576171875,-0.00010883715003728867,0.0011388270650058985,0.0005896370857954025
1690840424500617000,2.677616943359375,-0.00000196089968085289,-0.00038663391023874283,0.0010362155735492706
1690840424510657000,2.687656982421875,0.00019484665244817734,0.0006139157339930534,-0.002148658037185669
1690840424520697000,2.697697021484375,-0.001197383739054203,-0.0006613996811211109,-0.00031766295433044434
1690840424530737200,2.707737060546875,0.0014521954581141472,0.0011444897390902042,0.001459730789065361
1690840424540778200,2.7177783203125,-0.0005030385218560696,0.0004293501842767,-0.002140212804079056
1690840424550818000,2.727818115234375,0.00024557625874876976,-0.0005951679777354002,-0.00035589560866355896
1690840424560858000,2.737858154296875,-0.00037053320556879044,0.00044492841698229313,0.00014839507639408112
1690840424570899000,2.74789892578125,-0.0008104871958494186,-0.0028102535288780928,-0.0006726589053869247
1690840424580939000,2.75793896484375,-0.0012218533083796501,-0.002949429675936699,-0.000025549903512001038
1690840424590979000,2.76797900390625,0.0001691160723567009,-0.0016668515745550394,-0.0014647226780653
1690840424601019100,2.77801904296875,-0.001116130966693163,-0.003653185907751322,0.00020033493638038635
1690840424611090200,2.788090087890625,-0.0007994808256626129,0.0009934973204508424,0.000996353104710579
1690840424621130000,2.7981298828125,-0.001081844326108694,-0.00017962581478059292,0.00002740323543548584
1690840424631171000,2.808171142578125,-0.0009430935606360435,-0.0009053372777998447,0.00002314150333404541
1690840424641211100,2.818211181640625,-0.000324759166687727,0.00048473430797457695,-0.00022154860198497772
1690840424651251200,2.828251220703125,0.0006454307585954666,-0.00043219211511313915,-0.0010378062725067139
1690840424661292000,2.8382919921875,0.00035969167947769165,0.0006735811475664377,-0.0001208428293466568
1690840424671332000,2.84833203125,0.00044224970042705536,0.0006384274456650019,0.00020273029804229736
1690840424681372200,2.8583720703125,0.0016582903917878866,0.000037883175536990166,-0.0024034008383750916
1690840424691412000,2.868411865234375,0.00006838329136371613,-0.00040713115595281124,0.0005644261837005615
1690840424701453000,2.878453125,-0.00021143164485692978,-0.0019949753768742085,-0.00032408349215984344
1690840424711493000,2.8884931640625,0.0008005697745829821,-0.0017592853400856256,-0.0008138380944728851
1690840424721533200,2.898533203125,0.0004114164039492607,-0.002552944701164961,0.00007754750549793243
1690840424731574000,2.908573974609375,0.0004987679421901703,-0.0004154916387051344,-0.00017145834863185883
1690840424741614000,2.918614013671875,-0.00046765292063355446,-0.001216425560414791,0.0010982789099216461
1690840424751685000,2.92868505859375,0.0003904174081981182,0.0012944028712809086,-0.0008908361196517944
1690840424761725200,2.93872509765625,-0.0002856566570699215,-0.0021392523776739836,0.0004895273596048355
1690840424771765000,2.948764892578125,-0.000671016052365303,-0.0015205999370664358,0.0016072560101747513
1690840424781806000,2.95880615234375,-0.0013616960495710373,-0.0006178161129355431,-0.00012291967868804932
1690840424791846100,2.96884619140625,-0.0007720724679529667,0.0003246766282245517,-0.0003836434334516525
1690840424801886200,2.97888623046875,-0.0010104328393936157,0.0009416338289156556,-0.0015430673956871033
1690840424811926000,2.988926025390625,-0.0002967054024338722,0.001159746665507555,-0.00005436129868030548
1690840424821967000,2.998967041015625,-0.0004433421418070793,-0.0011215643025934696,-0.0009145159274339676
1690840424832007200,3.009007080078125,0.0006245854310691357,0.0010118939680978656,-0.001375509425997734
1690840424842047000,3.019046875,-0.0005137142725288868,0.0004120521480217576,-0.001106206327676773
1690840424852088000,3.029088134765625,0.00020161084830760956,0.0012733184266835451,0.0013668052852153778
1690840424862128000,3.039128173828125,0.0005971118807792664,0.00007657334208488464,-0.0012248903512954712
1690840424872168200,3.049168212890625,0.0018788911402225494,0.0005367676494643092,-0.0024464819580316544
1690840424882208000,3.0592080078125,-0.0015340163372457027,-0.0011225994676351547,-0.0005461573600769043
1690840424892249000,3.0692490234375,-0.0007129637524485588,-0.0010863803327083588,-0.0004580058157444
1690840424902318800,3.07931884765625,-0.0004549464210867882,0.00015449721831828356,0.0010204166173934937
1690840424912360000,3.08935986328125,0.000051853246986866,0.00028499215841293335,0.00006593950092792511
1690840424922400000,3.09939990234375,-0.0003227335400879383,0.0017119075637310743,0.0005205180495977402
1690840424932440000,3.109440185546875,-0.0011150240898132324,-0.0015422089491039515,-0.0005069281905889511
1690840424942481200,3.119481201171875,0.00020760856568813324,-0.000995768466964364,0.00005887262523174286
1690840424952521000,3.12952099609375,0.0004403688944876194,-0.0007377080619335175,-0.0007653757929801941
1690840424962561000,3.13956103515625,-0.0012210747227072716,-0.0031435100827366114,0.0002687796950340271
1690840424972601000,3.14960107421875,0.00045804819092154503,0.0015247450210154057,-0.0029411278665065765
1690840424982642200,3.15964208984375,0.00039803702384233475,0.0009206719696521759,0.0021011997014284134
1690840424992682000,3.169681884765625,0.0005335919559001923,-0.0017643270548433065,0.0001341886818408966
1690840425002722000,3.17972216796875,-0.0007941066287457943,-0.0004042580258101225,-0.0010846219956874847
1690840425012763100,3.18976318359375,0.0019588028080761433,0.0018306669080629945,-0.0008625146001577377
1690840425022803000,3.199802978515625,-0.0007827458903193474,-0.001918344059959054,-0.0002445317804813385
1690840425032843000,3.209843017578125,0.00023484788835048676,-0.0002000727690756321,0.00006279721856117249
1690840425042914000,3.2199140625,-0.0008522630669176579,0.0009971889667212963,-0.00044329091906547546
1690840425052953900,3.229953857421875,0.00022605061531066895,0.00021714915055781603,0.0017564799636602402
1690840425062995000,3.239994873046875,-0.000819311011582613,0.0011346940882503986,0.0001367460936307907
1690840425073035000,3.250034912109375,-0.0017149322666227818,-0.0007074144668877125,-0.0022798068821430206
1690840425083075000,3.260074951171875,0.00046247104182839394,-0.00018781423568725586,-0.00037324801087379456
1690840425093115100,3.270115234375,-0.001150339376181364,-0.0007801013998687267,-0.0009298473596572876
1690840425103156000,3.280156005859375,-0.0004254342056810856,-0.0005010135937482119,0.0006423518061637878
1690840425113196000,3.290196044921875,-0.00019160844385623932,-0.0033620474860072136,-0.0006500799208879471
1690840425123236000,3.300236083984375,-0.0014062002301216125,-0.001583209726959467,0.00025940127670764923
1690840425133276000,3.31027587890625,0.0017019747756421566,-0.001560306642204523,0.0018748752772808075
1690840425143317000,3.32031689453125,0.000023799017071723938,-0.0007078156340867281,0.0009844955056905746
1690840425153357000,3.330357177734375,-0.0011037830263376236,-0.0013517679180949926,0.0011914223432540894
1690840425163397000,3.340397216796875,0.00014753779396414757,-0.0006483192555606365,0.0015331003814935684
1690840425173438000,3.35043798828125,-0.000034356024116277695,-0.0006938592996448278,-0.0008520279079675674
1690840425183508200,3.36050830078125,-0.0007201787084341049,0.0005165280308574438,-0.00027470290660858154
1690840425193549000,3.370549072265625,0.00013283174484968185,0.00039535423275083303,-0.0010371673852205276
1690840425203588900,3.3805888671875,-0.0005288729444146156,0.0000569378025829792,0.0014056526124477386
1690840425213629000,3.39062890625,-0.00008625583723187447,0.0013365867780521512,0.0013167019933462143
1690840425223670000,3.400669921875,0.0008510758634656668,-0.001620939001441002,0.0007594022899866104
1690840425233710000,3.4107099609375,0.000004723202437162399,-0.00018709315918385983,-0.00014074519276618958
1690840425243750100,3.420750244140625,0.0005882186815142632,-0.00027650268748402596,0.0013210903853178024
1690840425253790200,3.430790283203125,-0.0022762776352465153,-0.0009912950918078423,-0.0008336715400218964
1690840425263831000,3.4408310546875,0.00041750119999051094,0.00040973781142383814,-0.0006830170750617981
1690840425273871000,3.45087109375,0.00040951184928417206,0.00026938924565911293,-0.0005069822072982788
1690840425283911000,3.460910888671875,0.0005777459591627121,0.0004303922178223729,-0.0004938170313835144
1690840425293952000,3.470951904296875,-0.00006354320794343948,-0.0013358162250369787,0.000546945258975029
1690840425303992000,3.480991943359375,-0.0010899603366851807,0.0007659463444724679,-0.0005348715931177139
1690840425314032000,3.4910322265625,0.0005476172082126141,0.001346515491604805,0.0006395820528268814
1690840425324103200,3.501103271484375,-0.0003133662976324558,-0.0017761888448148966,0.0005590394139289856
1690840425334143200,3.511143310546875,0.0006871833465993404,-0.0013793779071420431,0.0017603915184736252
1690840425344183000,3.52118310546875,-0.00072871008887887,-0.0014230180531740189,-0.0032039228826761246
1690840425354223900,3.531223876953125,-0.00015959236770868301,0.00022867450024932623,-0.0009271875023841858
1690840425364264000,3.541263916015625,-0.0007603033445775509,-0.0007336889393627644,-0.0008562169969081879
1690840425374304000,3.551303955078125,0.00042746635153889656,0.00005726981908082962,0.0010346267372369766
1690840425384345000,3.561344970703125,-0.001534932292997837,-0.0005019127856940031,-0.0011503864079713821
1690840425394385200,3.57138525390625,-0.0005900426767766476,-0.0008795491885393858,0.000612625852227211
1690840425404425200,3.58142529296875,-0.00039493246003985405,0.0009353368077427149,-0.0018497873097658157
1690840425414465300,3.59146533203125,-0.000035671982914209366,-0.00039464584551751614,0.0014181770384311676
1690840425424506000,3.601506103515625,0.00008317409083247185,0.002568101044744253,-0.0001413002610206604
1690840425434546000,3.6115458984375,0.0000898321159183979,0.001380064757540822,-0.0008776653558015823
1690840425444586000,3.6215859375,-0.0014042169786989689,-0.0005253402050584555,-0.000276956707239151
1690840425454627000,3.631626953125,-0.00022337120026350021,-0.0021557272411882877,0.00038883276283741
1690840425464642000,3.64164208984375,-0.0004411502741277218,-0.00033021089620888233,0.0019415542483329773
1690840425474713000,3.651713134765625,-0.0010611340403556824,-0.0014474070630967617,-0.002175426110625267
1690840425484753200,3.661753173828125,-0.001002773642539978,-0.002483205869793892,0.0005061961710453033
1690840425494793200,3.671793212890625,0.0006774147041141987,-0.0008059472311288118,0.0018090158700942993
1690840425504834000,3.681833984375,0.00042939139530062675,-0.0005715268198400736,0.0000027623027563095093
1690840425514874000,3.6918740234375,0.0001252586953341961,-0.001646378543227911,0.0005074311047792435
1690840425524914000,3.701913818359375,-0.000983748584985733,-0.0009782202541828156,-0.001087479293346405
1690840425534954000,3.7119541015625,-0.0011166404001414776,-0.00021842052228748798,0.00011360645294189453
1690840425544995000,3.7219951171875,0.0004998259246349335,-0.0022431323304772377,-0.00010941736400127411
1690840425555035100,3.73203515625,0.00013310834765434265,-0.0007496315520256758,-0.0007088948041200638
1690840425565075200,3.7420751953125,-0.0008534458465874195,-0.001492794370278716,-0.000943012535572052
1690840425575116000,3.752115966796875,0.00012633111327886581,-0.001340727787464857,-0.0005083847790956497
1690840425585156000,3.762156005859375,-0.0004923157393932343,-0.0005661947652697563,-0.0012175645679235458
1690840425595196000,3.77219580078125,0.00052634347230196,-0.0010168016888201237,-0.001218896359205246
1690840425605236000,3.782236083984375,-0.00029475847259163857,0.0005790094146504998,-0.00040441006422042847
1690840425615307000,3.79230712890625,-0.0010931738652288914,-0.0019075842574238777,-0.0008808504790067673
1690840425625347000,3.80234716796875,0.00038342131301760674,0.0016789580695331097,0.000490926206111908
1690840425635388200,3.81238818359375,-0.00015293899923563004,0.002685100305825472,-0.0002928413450717926
1690840425645428200,3.82242822265625,0.0006761588156223297,0.000372821930795908,-0.0012017842382192612
1690840425655468300,3.83246826171875,0.0006969314999878407,0.0004652335774153471,0.00022700242698192596
1690840425665509000,3.842509033203125,0.00029535917565226555,-0.0026527708396315575,0.0006484389305114746
1690840425675549000,3.852548828125,-0.00045831548050045967,0.0009757861262187362,0.00046068616211414337
1690840425685589000,3.862589111328125,-0.0004334915429353714,0.002462398260831833,0.0007029939442873001
1690840425695629000,3.872629150390625,0.000291421078145504,0.0003883284516632557,-0.0007201991975307465
1690840425705670100,3.882670166015625,-0.00087368069216609,-0.0034066257067024708,0.0006600432097911835
1690840425715710200,3.892710205078125,-0.0015091109089553356,0.00033271859865635633,0.000628618523478508
1690840425725750300,3.902750244140625,0.0003699604421854019,-0.00012935255654156208,-0.00007968582212924957
1690840425735791000,3.912791015625,-0.0003285869024693966,0.000120984623208642,0.00016798824071884155
1690840425745831000,3.922830810546875,0.00005270726978778839,-0.0021865146700292826,-0.0019280388951301575
1690840425755902000,3.93290185546875,-0.0005840547382831573,-0.0002104493323713541,-0.001390879973769188
1690840425765942000,3.94294189453125,-0.0005618492141366005,0.0003702114336192608,0.000545743852853775
1690840425775982000,3.952982177734375,0.0007329797372221947,-0.00036854948848485947,-0.00029315240681171417
1690840425786022100,3.963022216796875,0.0005293935537338257,-0.0006565081421285868,-0.0011251624673604965
1690840425796063200,3.973063232421875,-0.0006131026893854141,-0.0004202858544886112,0.0007246676832437515
1690840425806103300,3.983103271484375,-0.0021848874166607857,-0.0008488909807056189,-0.0009380336850881577
1690840425816143000,3.99314306640625,-0.00042799999937415123,-0.00004275212995707989,0.0012550782412290573
1690840425826184000,4.003183837890625,0.00030347006395459175,-0.001168286195024848,-0.0014425329864025116
1690840425836224000,4.01322412109375,-0.0007338314317166805,-0.002302260138094425,-0.0009232163429260254
1690840425846264000,4.02326416015625,0.0002947892062366009,-0.00032588676549494267,0.0006219837814569473
1690840425856304000,4.03330419921875,0.0008117088582366705,0.0020930622704327106,0.00048776157200336456
1690840425866345200,4.04334521484375,0.000530674122273922,-0.0001717335544526577,-0.0005207899957895279
1690840425876385300,4.05338525390625,0.000801783986389637,-0.0007381879258900881,0.00021823681890964508
1690840425886425000,4.063425048828125,-0.00018546683713793755,-0.000021869316697120667,-0.0017734486609697342
1690840425896466000,4.0734658203125,0.00029416847974061966,-0.0021103201434016228,-0.0005952659994363785
1690840425906536200,4.0835361328125,-0.0014901375398039818,0.0005967956967651844,-0.0011484883725643158
1690840425916577000,4.093576904296875,0.001693139085546136,0.0009185054805129766,-0.0005431510508060455
1690840425926617000,4.1036171875,0.0001111314631998539,0.0004482812946662307,-0.0006050970405340195
1690840425936657200,4.1136572265625,0.0006195288151502609,0.0012815843801945448,0.0017794985324144363
1690840425946698200,4.1236982421875,0.00005543511360883713,-0.00004886975511908531,0.0006866045296192169
1690840425956738000,4.133738037109375,-0.0012638946063816547,-0.0009910960216075182,0.000011492520570755005
1690840425966778000,4.143778076171875,0.00014855852350592613,-0.0005514996591955423,-0.00033616088330745697
1690840425976818200,4.153818115234375,0.000819674925878644,-0.001204773085191846,0.0008087325841188431
1690840425986859000,4.16385888671875,0.00046696607023477554,0.00117496435996145,-0.0013461355119943619
1690840425996899000,4.173899169921875,-0.0011953790672123432,-0.0016650306060910225,-0.0006683599203824997
1690840426006939100,4.183939208984375,-0.00035040033981204033,-0.0017111413180828094,0.00017728284001350403
1690840426016980200,4.193980224609375,-0.00004520220682024956,0.002155235968530178,-0.0007865149527788162
1690840426027020300,4.204020263671875,-0.0010620281100273132,-0.0007218408863991499,-0.0008434616029262543
1690840426037060000,4.21406005859375,-0.0009722798131406307,0.0004701900761574507,-0.00042561255395412445
1690840426047131100,4.224131103515625,-0.00023981789126992226,-0.001175538171082735,-0.0006359368562698364
1690840426057171200,4.234171142578125,0.00036312174052000046,0.0029702046886086464,0.000317208468914032
1690840426067211300,4.244211181640625,0.00016047712415456772,0.0003805807791650295,0.00015269406139850616
1690840426077252000,4.254252197265625,-0.0011117151007056236,-0.00016829674132168293,-0.0002917870879173279
1690840426087292200,4.264292236328125,0.0006062863394618034,-0.00010818801820278168,0.0005628783255815506
1690840426097332000,4.27433203125,0.001807904802262783,-0.0010312397498637438,-0.0023828428238630295
1690840426107373000,4.284373046875,-0.0010759592987596989,-0.0014924355782568455,0.00023180246353149414
1690840426117413000,4.2944130859375,0.0004886481910943985,0.00036085816100239754,0.0006214212626218796
1690840426127453200,4.304453125,-0.00022088456898927689,-0.00003475230187177658,-0.0010841954499483109
1690840426137493200,4.3144931640625,0.0009021703153848648,0.0029410638380795717,-0.000507621094584465
1690840426147534000,4.3245341796875,0.0018217551987618208,0.001200499595142901,-0.0012402292340993881
1690840426157574100,4.33457421875,0.00023104902356863022,-0.0026994335930794477,-0.00009373947978019714
1690840426167614200,4.3446142578125,-0.000036745332181453705,0.000634864903986454,0.0004965588450431824
1690840426177655300,4.3546552734375,-0.0006290324963629246,0.0012423319276422262,-0.0006102509796619415
1690840426187725000,4.36472509765625,-0.0015302752144634724,0.00038412504363805056,-0.0011151693761348724
1690840426197766100,4.37476611328125,0.0007563147228211164,-0.0005623623728752136,-0.00017241016030311584
1690840426207806200,4.38480615234375,-0.00038355588912963867,-0.00014162319712340832,0.0000363420695066452
1690840426217846300,4.39484619140625,-0.00005012797191739082,0.0018440296407788992,0.0014222506433725357
1690840426227887000,4.40488720703125,0.0007163169793784618,-0.0004371730610728264,-0.0004063863307237625
1690840426237927200,4.41492724609375,-0.0016842563636600971,0.0004936017794534564,-0.000745406374335289
1690840426247967000,4.424967041015625,0.00029355380684137344,-0.00013531208969652653,-0.0017176922410726547
1690840426258007000,4.435007080078125,0.001309283310547471,-0.000044764718040823936,0.0005848761647939682
1690840426268048100,4.445048095703125,-0.0003035278059542179,0.0003924041520804167,0.00045280158519744873
1690840426278088200,4.455088134765625,-0.00041165249422192574,-0.00026726070791482925,-0.0011365730315446854
1690840426288128300,4.465128173828125,-0.0009391959756612778,0.00048712873831391335,-0.00005179457366466522
1690840426298168000,4.47516796875,-0.0006055021658539772,-0.00018398789688944817,-0.00001424551010131836
1690840426308209200,4.485209228515625,0.000471433624625206,-0.00048793735913932323,-0.0013448931276798248
1690840426318249200,4.495249267578125,0.0012227115221321583,-0.0002735527232289314,-7.953494787216187e-7
1690840426328289000,4.5052890625,0.0007928148843348026,-0.0005535129457712173,0.00015829503536224365
1690840426338360000,4.515360107421875,-0.0008421000093221664,-0.00013832608237862587,0.00014045089483261108
1690840426348400000,4.525400146484375,-0.00031067710369825363,-0.0004873143043369055,-0.0006303749978542328
1690840426358441200,4.535441162109375,0.000525821465998888,-0.0006652134470641613,-0.0010695308446884155
1690840426368481300,4.545481201171875,0.0005924971774220467,-0.0005543874576687813,0.00035528652369976044
1690840426378521000,4.55552099609375,-0.0005412101745605469,-0.0005996611434966326,-0.0010247640311717987
1690840426388562200,4.565562255859375,0.00035705091431736946,-0.0005864517297595739,0.001269899308681488
1690840426398602000,4.57560205078125,0.001035091932862997,0.0008676341967657208,0.0011724289506673813
1690840426408642000,4.58564208984375,0.0008531066123396158,-0.0003611673600971699,0.0002796705812215805
1690840426418682000,4.59568212890625,-0.0005333349108695984,-0.0014930109027773142,0.0006194896996021271
1690840426428723200,4.60572314453125,0.00023602508008480072,-0.0016877863090485334,0.0008290205150842667
1690840426438763300,4.61576318359375,-0.0002233702689409256,-0.0016268000472337008,-0.0021862108260393143
1690840426448803000,4.625802978515625,-0.0008458225056529045,-0.0003238625358790159,-0.0015378259122371674
1690840426458848800,4.635848876953125,0.0003845579922199249,-0.002192336367443204,0.00041533634066581726
1690840426468888800,4.645888916015625,0.0006462004967033863,0.0007831529946997762,0.0005368757992982864
1690840426478959900,4.6559599609375,-0.00031946180388331413,-0.0005566834006458521,-0.0010884515941143036
1690840426488999700,4.665999755859375,-0.000834102276712656,-0.00024884380400180817,0.00005250610411167145
1690840426499039700,4.676039794921875,-0.000043676234781742096,0.0005847255233675241,-0.0006945095956325531
1690840426509079800,4.686079833984375,-0.0011746925301849842,0.0003415861865505576,-0.0003960784524679184
1690840426519120600,4.69612060546875,-0.0005459198728203773,-0.0012861378490924835,-0.0022941138595342636
1690840426529160700,4.70616064453125,0.00017672264948487282,-0.0006932895630598068,-0.00012384355068206787
1690840426539200800,4.71620068359375,-0.0002073054201900959,-0.0005779745988547802,0.0006479397416114807
1690840426549241900,4.726241943359375,-0.002191107254475355,0.0021784354466944933,0.00043790601193904877
1690840426559281700,4.73628173828125,0.0004981528036296368,0.001258046948350966,-0.0007985997945070267
1690840426569321700,4.74632177734375,-0.0009890785440802574,0.001275405054911971,0.00025461241602897644
1690840426579361800,4.75636181640625,0.0014200170990079641,0.001036785775795579,-0.00028893910348415375
1690840426589402600,4.766402587890625,-0.0012041577138006687,0.0009010981302708387,-0.000360000878572464
1690840426599442700,4.776442626953125,0.0017937629017978907,0.0022089765407145023,-0.000034829601645469666
1690840426609482800,4.786482666015625,-0.0005969395861029625,0.00021133036352694035,-0.00016895122826099396
1690840426619553800,4.7965537109375,0.0007586092688143253,0.0001247776672244072,0.0007578302174806595
1690840426629593600,4.806593505859375,0.00039842259138822556,0.00001974613405764103,-0.00040736235678195953
1690840426639634700,4.816634765625,-0.000513976439833641,-0.00031448062509298325,0.0009998511523008347
1690840426649674800,4.8266748046875,-0.0005437275394797325,0.0011575345415621996,0.0005064699798822403
1690840426659714800,4.83671484375,-0.0002699545584619045,-0.0022864651400595903,0.0012723952531814575
1690840426669755600,4.846755615234375,0.0004173601046204567,0.0010580975795164704,0.0015105027705430984
1690840426679795700,4.856795654296875,0.0002666250802576542,-0.00006975117139518261,-0.000847991555929184
1690840426689835800,4.866835693359375,0.0000298437662422657,-0.0001430632546544075,0.0015056505799293518
1690840426699875600,4.87687548828125,-0.0006660404615104198,-0.001510063884779811,0.0008952543139457703
1690840426709916700,4.886916748046875,0.0010846233926713467,0.0006997471209615469,0.000005023553967475891
1690840426719956700,4.896956787109375,0.00023507513105869293,0.002404436469078064,0.00189213827252388
1690840426729996800,4.906996826171875,0.000033785123378038406,-0.0008849005680531263,-0.00041757337749004364
1690840426740036600,4.91703662109375,-0.0002993764355778694,-0.00040872744284570217,-0.00008308142423629761
1690840426750077700,4.92707763671875,-0.0007217582315206528,-0.00006392551586031914,-0.0020147915929555893
1690840426760117800,4.93711767578125,0.0007072940934449434,-0.0014338553883135319,0.0015138983726501465
1690840426770188800,4.947188720703125,-0.0012085274793207645,0.00022696400992572308,-0.00023860298097133636
1690840426780228600,4.957228515625,-0.0011613895185291767,-0.00009128381498157978,-0.00024206377565860748
1690840426790268700,4.9672685546875,0.04953915998339653,-0.03257841616868973,0.05161125957965851
1690840426800309800,4.977309814453125,-0.004751243162900209,-0.24901485443115234,-0.1698247343301773
1690840426810349800,4.987349853515625,0.008418935351073742,-0.04937188699841499,-0.09249916672706604
1690840426820389600,4.9973896484375,-0.011228535324335098,-0.012995237484574318,-0.03627770394086838
1690840426830430700,5.0074306640625,-0.004475530236959457,-0.03147132322192192,-0.03542998433113098
1690840426840470800,5.017470703125,0.00036769500002264977,0.05180652067065239,-0.029968371614813805
1690840426850510600,5.027510498046875,0.009386138059198856,-0.03418545424938202,-0.005691381171345711
1690840426860550700,5.037550537109375,0.009153377264738083,-0.009029502049088478,0.0025351233780384064
1690840426870591700,5.047591796875,0.00726152490824461,0.009604347869753838,0.004544559866189957
1690840426880631800,5.0576318359375,0.0006494289264082909,0.020291879773139954,0.011047999374568462
1690840426890671600,5.067671630859375,-0.004922364838421345,0.02608616091310978,0.015826068818569183
1690840426900712700,5.077712646484375,-0.006612672470510006,0.02343791350722313,0.018293488770723343
1690840426910782700,5.08778271484375,-0.00676891952753067,0.010413998737931252,0.018980849534273148
1690840426920823800,5.09782373046875,-0.0004143505357205868,-0.0007843265775591135,0.018016785383224487
1690840426930863600,5.107863525390625,0.0038434157613664865,-0.013704987242817879,0.015796756371855736
1690840426940903700,5.117903564453125,0.004840503446757793,-0.01972479745745659,0.012637447565793991
1690840426950943700,5.12794384765625,0.004573920741677284,-0.01635882817208767,0.008494102396070957
1690840426960984800,5.13798486328125,0.001743779517710209,-0.006803405936807394,0.0031379517167806625
1690840426971024600,5.148024658203125,-0.0005976860411465168,0.004951722454279661,-0.002839263528585434
1690840426981064700,5.158064697265625,-0.003962057642638683,0.016296256333589554,-0.00703054666519165
1690840426991105800,5.168105712890625,-0.006239959970116615,0.013658232986927032,-0.013603899627923965
1690840427001145600,5.1781455078125,-0.00010057445615530014,0.013535994105041027,-0.013227593153715134
1690840427011185700,5.188185546875,0.0012531820684671402,0.005051733925938606,-0.014685574918985367
1690840427021225700,5.198225830078125,0.00296612735837698,-0.00404322799295187,-0.015647508203983307
1690840427031266800,5.208266845703125,0.0020095338113605976,-0.009561500512063503,-0.013424014672636986
1690840427041306600,5.218306640625,-0.0006682747043669224,-0.010516510345041752,-0.009846590459346771
1690840427051377700,5.228377685546875,0.000565345399081707,-0.0075413077138364315,-0.008537327870726585
1690840427061417500,5.23841748046875,-0.00242591742426157,-0.003627259749919176,-0.0032818447798490524
1690840427071457500,5.24845751953125,-0.0020804908126592636,0.002867721486836672,0.0003581829369068146
1690840427081498600,5.25849853515625,-0.0018911398947238922,0.0038206004537642,0.001731308177113533
1690840427091538700,5.26853857421875,-0.001244906336069107,0.009652161970734596,0.006958143785595894
1690840427101578800,5.278578857421875,0.0019165321718901396,0.006857973523437977,0.008814366534352303
1690840427111619600,5.28861962890625,0.00000621844083070755,-0.0026914451736956835,0.010725408792495728
1690840427121659600,5.29865966796875,-0.0007320097647607327,-0.004421700723469257,0.010877741500735283
1690840427131699700,5.30869970703125,0.000881922896951437,-0.0053375838324427605,0.010168356820940971
1690840427141739500,5.318739501953125,-0.0022424976341426373,-0.005321338772773743,0.00967327505350113
1690840427151780600,5.328780517578125,-0.002080311067402363,-0.0007409681566059589,0.005642847158014774
1690840427161820700,5.338820556640625,-0.001019041519612074,0.001431638840585947,0.004651352763175964
1690840427171860700,5.34886083984375,0.0007040959317237139,0.004573944956064224,0.0011051800101995468
1690840427181901600,5.358901611328125,0.0008993055671453476,0.004728673957288265,-0.0035239271819591522
1690840427191971800,5.368971923828125,-0.0007662642747163773,0.0030880423728376627,-0.0053455643355846405
1690840427202012700,5.3790126953125,0.0019094138406217098,0.002505609067156911,-0.00678500160574913
1690840427212052500,5.389052490234375,0.0007858260069042444,-0.00018524890765547752,-0.00834987498819828
1690840427222092500,5.399092529296875,-0.002162293065339327,-0.0034484199713915586,-0.008095011115074158
1690840427232132600,5.409132568359375,-0.0022039245814085007,-0.002931599970906973,-0.007571551948785782
1690840427242173700,5.419173583984375,-0.0007197451777756214,-0.004000326618552208,-0.007250109687447548
1690840427252213800,5.4292138671875,0.0004309643991291523,-0.0009125713258981705,-0.005902081727981567
1690840427262253800,5.43925390625,-0.0011517521925270557,-0.0009543830528855324,-0.002829859033226967
1690840427272294700,5.449294677734375,0.00100067094899714,0.0025396577548235655,-0.0017935354262590408
1690840427282334700,5.459334716796875,0.00039453571662306786,0.002659766236320138,0.0002064984291791916
1690840427292374500,5.46937451171875,0.0019039867911487818,0.003373371437191963,0.0028365924954414368
1690840427302414600,5.47941455078125,-0.0009131049737334251,-0.00040378980338573456,0.0041119810193777084
1690840427312455700,5.48945556640625,-0.0009612510912120342,0.00011337408795952797,0.004754949361085892
1690840427322495700,5.499495849609375,-0.0008206358179450035,0.000042267609387636185,0.0069200992584228516
1690840427332535800,5.509535888671875,-0.0021275202743709087,0.0001953626051545143,0.0069729918614029884
1690840427342606800,5.51960693359375,-0.0006611840799450874,-0.0010334199760109186,0.0034174062311649323
1690840427352646700,5.529646728515625,-0.000017721671611070633,-0.0012353730853646994,0.0022270381450653076
1690840427362687500,5.5396875,0.000840082298964262,0.002673880895599723,0.0016925409436225891
1690840427372727600,5.5497275390625,0.0004514353349804878,0.0005659346934407949,-0.0005506891757249832
1690840427382767600,5.559767578125,-0.0018149144016206264,0.0021411944180727005,-0.0004833117127418518
1690840427392807700,5.5698076171875,-0.0007207095623016357,0.0002502420684322715,-0.002843506634235382
1690840427402848800,5.579848876953125,-0.00045812176540493965,-0.000613953685387969,-0.003583865240216255
1690840427412888800,5.589888916015625,-0.0014386833645403385,-0.0009076397400349379,-0.004980143159627914
1690840427422929000,5.599928955078125,0.0004186052829027176,-0.0012208274565637112,-0.006354600191116333
1690840427432969700,5.6099697265625,-0.000018908176571130753,-0.000848596915602684,-0.004953192546963692
1690840427443009500,5.620009521484375,0.000015446916222572327,-0.0007218304090201855,-0.0028721988201141357
1690840427453049600,5.630049560546875,-0.0009449622593820095,0.00222864025272429,-0.00118943490087986
1690840427463080400,5.64008056640625,-0.0008163317106664181,-0.001650786492973566,-0.0028475187718868256
1690840427473121300,5.650121337890625,0.00028300657868385315,-0.0008236686699092388,-0.0009327251464128494
1690840427483192300,5.6601923828125,-0.0009740055538713932,0.0004775517154484987,0.0000875331461429596
1690840427493232000,5.670232177734375,-0.0003184489905834198,0.0011774774175137281,0.0013723429292440414
1690840427503272200,5.680272216796875,-0.0006097988225519657,-0.0027229883708059788,0.0029531940817832947
1690840427513312300,5.690312255859375,-0.00003557885065674782,0.0004229175392538309,0.005591386929154396
1690840427523353300,5.700353271484375,0.00025017838925123215,-0.0001051872968673706,0.0027002599090337753
1690840427533393400,5.710393310546875,0.00043454021215438843,-0.0011357911862432957,0.002789309248328209
1690840427543433500,5.72043359375,0.00040098465979099274,-0.0025901433546096087,0.0011227037757635117
1690840427553474300,5.730474365234375,0.00025108782574534416,0.0010292860679328442,0.002081761136651039
1690840427563514000,5.74051416015625,0.0003565489314496517,0.0008897364605218172,-0.000033054500818252563
1690840427573554200,5.75055419921875,-0.0007531694136559963,0.0023711423855274916,-0.0006704628467559814
1690840427583594200,5.76059423828125,0.0013547225389629602,0.0002230366226285696,-0.0005871057510375977
1690840427593635300,5.77063525390625,-0.00006513576954603195,0.0008933771168813109,-0.0026772376149892807
1690840427603675400,5.78067529296875,0.0022020130418241024,-0.002544231014326215,-0.00285433791577816
1690840427613715500,5.790715576171875,-0.0011455821804702282,0.0005683315685018897,-0.001139780506491661
1690840427623786200,5.8007861328125,-0.0009961784817278385,0.0005480916006490588,-0.0029890798032283783
1690840427633826300,5.810826416015625,-0.0019898125901818275,-0.001984540605917573,-0.0037524793297052383
1690840427643867100,5.8208671875,-0.0008715512230992317,0.0007790215313434601,-0.001680539920926094
1690840427653907200,5.8309072265625,0.0002756942994892597,0.000793668907135725,-0.0011441800743341446
1690840427663947300,5.840947265625,0.0005926107987761497,-0.00001726369373500347,-0.0006538908928632736
1690840427673987300,5.8509873046875,-0.000164911150932312,-0.0004032792057842016,0.00031972117722034454
1690840427684028400,5.8610283203125,-0.0018552192486822605,-0.001665617572143674,0.0006414316594600677
1690840427694068500,5.871068359375,0.00027125561609864235,-0.000761010218411684,0.002231920138001442
1690840427704108300,5.8811083984375,-0.00020651565864682198,0.0007231694180518389,0.0012673232704401016
1690840427714149000,5.891149169921875,-0.000769943930208683,0.0002840458182618022,0.003158280625939369
1690840427724189200,5.901189208984375,0.0009035863913595676,-0.0012251674197614193,0.0004144255071878433
1690840427734229200,5.911229248046875,-0.00009800074622035027,0.0023528076708316803,0.0009251311421394348
1690840427744269300,5.921269287109375,0.001574198016896844,-0.0001494984608143568,0.00192275270819664
1690840427754310400,5.931310302734375,0.0001849527470767498,0.000675917835906148,0.0015748068690299988
1690840427764350500,5.9413505859375,0.0010864327196031809,0.000328109017573297,-0.0012641213834285736
1690840427774421200,5.951421142578125,-0.0010557095520198345,-0.00037955516017973423,-0.0005144625902175903
1690840427784461300,5.96146142578125,-0.0003470424562692642,0.00129370903596282,-0.0022921226918697357
1690840427794501400,5.97150146484375,0.00007470417767763138,-0.001070583239197731,-0.0013325661420822144
1690840427804542200,5.981542236328125,0.0017503651324659586,0.0012895101681351662,-0.0011333618313074112
1690840427814582300,5.991582275390625,-0.0011920863762497902,-0.002147953025996685,-0.0005674995481967926
1690840427824622300,6.001622314453125,0.00039355969056487083,-0.00020890566520392895,-0.0010745655745267868
1690840427834663400,6.011663330078125,-0.0005554109811782837,-0.0008698375895619392,-0.0008220821619033813
1690840427844703500,6.021703369140625,-0.0011269254609942436,0.002007707953453064,-0.0011813435703516006
1690840427854743300,6.031743408203125,-0.0010845782235264778,-0.00017037661746144295,-0.0004933420568704605
1690840427864783400,6.041783447265625,-0.0010771211236715317,-0.0013293842785060406,-0.0009338296949863434
1690840427874824200,6.05182421875,-0.0008386652916669846,0.0011323202634230256,-0.0012225359678268433
1690840427884864300,6.0618642578125,0.00039570964872837067,-0.00036331103183329105,-0.0010736659169197083
1690840427894904300,6.071904296875,-0.0006462568417191505,-0.0008388913702219725,0.0004534125328063965
1690840427904944400,6.0819443359375,-0.00003239791840314865,0.0003091974649578333,0.0015908479690551758
1690840427915015200,6.09201513671875,0.0002548499032855034,0.0001643772702664137,0.0000360049307346344
1690840427925056300,6.10205615234375,0.0003629741258919239,-0.0007759849540889263,0.0013566669076681137
1690840427935096300,6.112096435546875,-0.0008621495217084885,-0.0005135575775057077,0.0007806532084941864
1690840427945136400,6.122136474609375,0.000836947001516819,0.000015612458810210228,0.0005617402493953705
1690840427955176400,6.132176513671875,-0.0010964227840304375,-0.00003666034899652004,-0.002082645893096924
1690840427965217300,6.14221728515625,0.000051666051149368286,0.001763636595569551,-0.0008373521268367767
1690840427975257300,6.15225732421875,-0.0001109330914914608,-0.00016843480989336967,-0.0003864746540784836
1690840427985297200,6.162297119140625,-0.00004115840420126915,-0.0006094544660300016,-0.0014080628752708435
1690840427995338500,6.17233837890625,-0.00008856784552335739,0.0002532503567636013,-0.0032637715339660645
1690840428005378300,6.18237841796875,0.0004326128400862217,-0.0008868488948792219,-0.0017015598714351654
1690840428015418400,6.19241845703125,0.0007443828508257866,-0.0011832467280328274,-0.0003246348351240158
1690840428025458400,6.20245849609375,-0.0010002539493143559,-0.0008325083181262016,0.0003435518592596054
1690840428035499300,6.212499267578125,-0.0003861379809677601,-0.0014248315710574389,0.0004816614091396332
1690840428045539300,6.222539306640625,-0.00005617225542664528,-0.00006129313260316849,0.0007109604775905609
1690840428055610400,6.2326103515625,-0.00003595137968659401,-0.00038259499706327915,-0.0013959668576717377
1690840428065650200,6.242650146484375,-0.000026363879442214966,0.002489357953891158,0.00017103739082813263
1690840428075690200,6.252690185546875,-0.00046550342813134193,0.00007628533057868481,0.0009458903223276138
1690840428085731300,6.2627314453125,0.0006410400383174419,-0.0006614101585000753,-0.0005380231887102127
1690840428095771400,6.272771484375,0.0004942594096064568,0.0024973091203719378,0.0011841543018817902
1690840428105811500,6.2828115234375,-0.0019230921752750874,0.0003092559054493904,-0.000015599653124809265
1690840428115851500,6.2928515625,0.0005897949449717999,0.0012728911824524403,0.001739325001835823
1690840428125892400,6.302892333984375,-0.0004014335572719574,-0.001186005538329482,0.0004415661096572876
1690840428135932200,6.31293212890625,-0.0006660711951553822,0.0008254722924903035,0.0018742848187685013
1690840428145972200,6.32297216796875,-0.0010746000334620476,0.0017429313156753778,-0.001058122143149376
1690840428156013300,6.333013427734375,-0.0004409225657582283,0.0004553688922896981,0.001466868445277214
1690840428166053400,6.343053466796875,-0.0009256177581846714,-0.00043359422124922276,-0.0003834962844848633
1690840428176093400,6.353093505859375,-0.002239977940917015,-0.0019058003090322018,-0.0016359202563762665
1690840428186133500,6.363133544921875,0.00033955974504351616,0.0007152826292440295,-0.0022910572588443756
1690840428196174300,6.37317431640625,-0.0006255675107240677,0.0012148063397035003,-0.0005370769649744034
1690840428206245400,6.383245361328125,0.0019414531998336315,-0.0016012201085686684,-0.002377854660153389
1690840428216285200,6.39328515625,0.0001239590346813202,0.002358128549531102,-0.0019646547734737396
1690840428226325200,6.4033251953125,0.0007873524446040392,-0.0008081034757196903,0.00020449049770832062
1690840428236365300,6.413365234375,0.0007877701427787542,-0.0007845878135412931,0.0004924014210700989
1690840428246406400,6.423406494140625,0.00110761565156281,0.0011057239025831223,0.0018101334571838379
1690840428256446500,6.433446533203125,-0.0003730165772140026,0.00038446253165602684,0.000044364482164382935
1690840428266486500,6.443486572265625,-0.0007858066819608212,0.0013381405733525753,0.000181516632437706
1690840428276527400,6.45352734375,-0.0005536144599318504,-0.00017794105224311352,0.0004888642579317093
1690840428286567200,6.463567138671875,0.0029894548933953047,-0.0024429596960544586,-0.0007239393889904022
1690840428296607200,6.473607177734375,-0.0001965523697435856,0.0007373822154477239,-0.00021295249462127686
1690840428306647300,6.483647216796875,0.00020878063514828682,0.0008385824039578438,-0.0009831376373767853
1690840428316688400,6.4936884765625,0.0003445758484303951,0.0003406904870644212,-0.0003948025405406952
1690840428326728400,6.503728515625,-0.0007854034192860126,-0.0007924844976514578,-0.0014685895293951035
1690840428336768500,6.5137685546875,-0.00122493552044034,0.0014611156657338142,-0.0009550563991069794
1690840428346839600,6.523839599609375,-0.00008563557639718056,0.0014861493837088346,0.0017832070589065552
1690840428356879400,6.53387939453125,-0.0005721999332308769,0.0012321281246840954,0.0006241165101528168
1690840428366920200,6.543920166015625,-0.0006462358869612217,0.001403369358740747,0.0008414294570684433
1690840428376960300,6.553960205078125,-0.001044517382979393,-0.001147688366472721,-0.0021693091839551926
1690840428387000300,6.564000244140625,-0.000058881472796201706,-0.0012515515554696321,-0.0008547734469175339
1690840428397040400,6.574040283203125,-0.000875434372574091,0.0012558621820062399,-0.0009076669812202454
1690840428407081500,6.58408154296875,-0.00047915615141391754,-0.0014083641581237316,-0.0003928784281015396
1690840428417121500,6.59412158203125,-0.0015564057976007462,-0.00017990730702877045,0.000047087669372558594
1690840428427161300,6.604161376953125,-0.00011350493878126144,0.0018393014324828982,-0.00036490336060523987
1690840428437202200,6.6142021484375,-0.0012348759919404984,0.001861553406342864,0.0006943270564079285
1690840428447242200,6.6242421875,0.000059952959418296814,-0.0006194473244249821,-0.00035336054861545563
1690840428457282300,6.6342822265625,0.00154714728705585,-0.0001157047227025032,-0.00019349344074726105
1690840428467305000,6.644304931640625,0.0013870913535356522,0.000991371343843639,0.0009085219353437424
1690840428477346000,6.654345947265625,-0.0006062164902687073,-0.002167066792026162,0.0014644172042608261
1690840428487417000,6.6644169921875,0.0003802184946835041,-0.0006578536704182625,-0.002184377983212471
1690840428497457200,6.67445703125,-0.000677118543535471,0.001310469931922853,0.0017635691910982132
1690840428507497000,6.6844970703125,0.00027203187346458435,-0.0022661553230136633,-0.0002300739288330078
1690840428517536800,6.694536865234375,-0.00004301592707633972,-0.00008090469054877758,-0.0012248195707798004
1690840428527577900,6.704577880859375,0.0006491397507488728,0.0004844843642786145,0.00026628561317920685
1690840428537618000,6.714617919921875,-0.0021167579106986523,0.001161502324976027,0.0006038397550582886
1690840428547658000,6.724657958984375,-0.0004861047491431236,-0.0005453175399452448,-0.00047074444591999054
1690840428557698000,6.734697998046875,-0.0011014901101589203,-0.00042997137643396854,0.0007833726704120636
1690840428567739100,6.7447392578125,0.0019422366749495268,0.0014765856321901083,0.00024328380823135376
1690840428577779000,6.754779052734375,-0.0012233559973537922,0.0023470951709896326,0.00010900385677814484
1690840428587818800,6.76481884765625,-0.00001960713416337967,-0.0011661467142403126,0.0006690658628940582
1690840428597859800,6.77485986328125,-0.001907253172248602,-0.00017907447181642056,0.00007768906652927399
1690840428607900000,6.78489990234375,-0.0005927169695496559,-0.0014225044287741184,-0.0009385738521814346
1690840428617940000,6.79493994140625,-0.00007544830441474915,-0.0002587605267763138,-0.00014425814151763916
1690840428627980000,6.80497998046875,-0.0010187397710978985,-0.000449442770332098,0.0001691952347755432
1690840428638051000,6.815051025390625,0.0007762715686112642,-0.0007890632841736078,-0.0011003799736499786
1690840428648092000,6.825091796875,-0.0008828779682517052,-0.0007190220057964325,0.00045011378824710846
1690840428658131700,6.835131591796875,-0.0007296325638890266,-0.0012321865651756525,0.00036916136741638184
1690840428668171800,6.845171875,0.00030979933217167854,-0.0022311382927000523,-0.0010353904217481613
1690840428678211800,6.8552119140625,0.00064066331833601,0.0015065590851008892,-0.0010447613894939423
1690840428688253000,6.8652529296875,-0.001236332580447197,-0.0013544748071581125,0.0005033351480960846
1690840428698293000,6.87529296875,-0.0010650879703462124,0.0005220725433900952,-0.0004410073161125183
1690840428708333000,6.8853330078125,-0.00069011515006423,0.000926074106246233,-0.0007488690316677094
1690840428718374000,6.895373779296875,-0.0006857560947537422,0.0001066308468580246,-0.002162054181098938
1690840428728414000,6.9054140625,-0.0018751239404082298,-0.000406826613470912,-0.0006602965295314789
1690840428738453800,6.915453857421875,-0.0008987234905362129,-0.0027441515121608973,0.00011307559907436371
1690840428748493800,6.925493896484375,-0.00012241210788488388,0.0004545713309198618,0.00069391168653965
1690840428758535000,6.935534912109375,-0.0007826625369489193,-0.0012840393465012312,-0.0005066134035587311
1690840428768575000,6.945574951171875,0.0005550435744225979,0.0016792600508779287,0.00209076888859272
1690840428778646000,6.95564599609375,0.0005805022083222866,0.00010182056576013565,0.0019945893436670303
1690840428788686000,6.96568603515625,0.000014580320566892624,-0.0015994065906852484,-0.0008214376866817474
1690840428798726000,6.975725830078125,0.0008659919258207083,-0.00003551156260073185,-0.0012973342090845108
1690840428808766700,6.9857666015625,0.0007919559720903635,-0.0014882658142596483,0.00042439810931682587
1690840428818806800,6.995806884765625,0.0005027749575674534,-0.00045889406464993954,-0.0007606726139783859
1690840428828846800,7.005846923828125,0.0008876016363501549,-0.00038112979382276535,-0.0005100686103105545
1690840428838887000,7.015886962890625,0.00019090762361884117,-0.003624233417212963,0.0006410479545593262
1690840428848928000,7.025927978515625,0.00045749032869935036,-0.0009371042251586914,0.0019143056124448776
1690840428858968000,7.035968017578125,0.0005266205407679081,0.001606757752597332,0.0001898743212223053
1690840428869008100,7.046008056640625,-0.00023877201601862907,0.0006626672111451626,0.00031451135873794556
1690840428879049000,7.056049072265625,0.0006340553518384695,0.0011637058341875672,-0.0009242352098226547
1690840428889088800,7.0660888671875,-0.0008738264441490173,-0.0023420793004333973,-0.001803610473871231
1690840428899128800,7.07612890625,0.00046347733587026596,0.0009026949992403388,-0.0006322730332612991
1690840428909169000,7.0861689453125,0.0007226027082651854,0.0011256015859544277,0.0008423198014497757
1690840428919240000,7.096239990234375,0.0005817729979753494,-0.002588773611932993,0.00021816790103912354
1690840428929281000,7.106281005859375,-0.0005199769511818886,-0.00007741269655525684,-0.000514201819896698
1690840428939321000,7.116321044921875,-0.0007078973576426506,-0.0006826906464993954,-0.0011720824986696243
1690840428949361000,7.12636083984375,-0.0012035113759338856,0.0007359753362834454,-0.0005499683320522308
1690840428959401000,7.13640087890625,-0.0007558958604931831,0.00033293443266302347,0.000130409374833107
1690840428969441800,7.14644189453125,0.0006702267564833164,-0.0019512586295604706,-0.00018890202045440674
1690840428979481900,7.15648193359375,-0.0011135386303067207,0.0015772846527397633,0.000015506520867347717
1690840428989522000,7.16652197265625,-0.0010360409505665302,-0.000768427737057209,-0.0005954224616289139
1690840428999562000,7.17656201171875,0.0007994894403964281,-0.0006332611665129662,-0.0007650163024663925
1690840429009603000,7.18660302734375,0.0006013503298163414,0.0005579707212746143,0.0004541780799627304
1690840429019643000,7.196642822265625,0.0006178710609674454,0.00011455523781478405,0.0005435030907392502
1690840429029683000,7.206682861328125,0.0005912394262850285,-0.0001634787768125534,-0.000748930498957634
1690840429039723800,7.216723876953125,-0.0019032065756618977,-0.001080045709386468,0.00017893314361572266
1690840429049763800,7.226763916015625,-0.000020884443074464798,-0.0016888442914932966,0.00029611214995384216
1690840429059804000,7.236803955078125,0.0007435809820890427,0.0008790198480710387,0.00024376437067985535
1690840429069875000,7.246875,-0.0010679010301828384,-0.0021766910795122385,-0.00015224702656269073
1690840429079915000,7.2569150390625,0.0003787255845963955,0.00002737203612923622,-0.0017578955739736557
1690840429089956000,7.2669560546875,-0.0000804034061729908,-0.0016176626086235046,0.00025651976466178894
1690840429099996000,7.276995849609375,0.000037896446883678436,0.0034992943983525038,0.0003185737878084183
1690840429110036000,7.287035888671875,0.0007090133149176836,-0.0006834664382040501,0.0005593225359916687
1690840429120076000,7.297075927734375,-0.00015255436301231384,0.0008375009056180716,0.000874646008014679
1690840429130116900,7.307116943359375,0.0007840790785849094,-0.00154096819460392,-0.0010553468018770218
1690840429140157000,7.317156982421875,0.0014361608773469925,0.0021629147231578827,0.0006647594273090363
1690840429150197000,7.327197021484375,0.0003080456517636776,0.0035158004611730576,0.0005425196141004562
1690840429160238000,7.337238037109375,-0.00005745561793446541,0.0010504962410777807,-0.0010904446244239807
1690840429170278000,7.34727783203125,0.00009061582386493683,-0.002429456450045109,-0.0004922971129417419
1690840429180318000,7.35731787109375,-0.0008298098109662533,0.000629184884019196,-0.001333264634013176
1690840429190358000,7.36735791015625,-0.0005951854400336742,0.00029842020012438297,-0.0007524285465478897
1690840429200398800,7.37739892578125,-0.0005625025369226933,-0.00000902288593351841,-0.0009133778512477875
1690840429210469000,7.38746923828125,-0.0021217833273112774,-0.00022820103913545609,-0.001265980303287506
1690840429220510000,7.397510009765625,0.0007269897032529116,0.0009969794191420078,-0.0009983330965042114
1690840429230550000,7.407550048828125,0.0010516289621591568,0.0006981727201491594,-0.00021243467926979065
1690840429240589800,7.41758984375,-0.00017813174054026604,0.00002969987690448761,-0.0006304159760475159
1690840429250631000,7.427630859375,0.0003558318130671978,0.0011421021772548556,0.0006859861314296722
1690840429260671000,7.4376708984375,0.0006423266604542732,0.0006947830552235246,-0.0007194075733423233
1690840429270711000,7.4477109375,0.00000955956056714058,0.0013997217174619436,0.001965858042240143
1690840429280751000,7.457751220703125,0.0002287188544869423,0.0005475907819345593,-0.000958126038312912
1690840429290792000,7.4677919921875,-0.000793136190623045,-0.00020901323296129704,-0.00020844675600528717
1690840429300832000,7.47783203125,-0.0004937760531902313,-0.0008511773776262999,-0.0010922141373157501
1690840429310871800,7.487871826171875,0.0007981231901794672,0.001004779594950378,0.0010657459497451782
1690840429320913000,7.497912841796875,-0.0013401000760495663,0.0023998955730348825,0.0003807470202445984
1690840429330953000,7.507952880859375,-0.0002039954997599125,-0.0008504923898726702,-0.0014049019664525986
1690840429340993000,7.517992919921875,0.00043129269033670425,0.0007732887752354145,0.0004148390144109726
1690840429351064000,7.52806396484375,0.0024734048638492823,-0.0013681589625775814,-0.0005710646510124207
1690840429361104100,7.538104248046875,-0.0011309506371617317,0.0008307049283757806,-0.0005128644406795502
1690840429371145000,7.54814501953125,-0.0020145876333117485,-0.00016744784079492092,0.0013281777501106262
1690840429381185000,7.55818505859375,0.0004020226188004017,0.0006902209715917706,0.00018736161291599274
1690840429391224800,7.568224853515625,-0.000757784117013216,0.00017782882787287235,0.002001240849494934
1690840429401265000,7.578264892578125,0.0002629179507493973,0.0003944331547245383,-0.00004061497747898102
1690840429411306000,7.588305908203125,-0.0002558659762144089,-0.0009888126514852047,-0.002045176923274994
1690840429421346000,7.598345947265625,-0.0002490021288394928,-0.003035871544852853,0.00017200224101543427
1690840429431386000,7.60838623046875,0.0004942864179611206,0.0008273099083453417,0.0006913170218467712
1690840429441427000,7.618427001953125,-0.00037240423262119293,0.00275465939193964,-0.0005536731332540512
1690840429451467000,7.628467041015625,-0.0007260721176862717,-0.0003838757984340191,0.0017092153429985046
1690840429461506800,7.6385068359375,-0.0005494914948940277,0.003230647649616003,-0.0009902901947498322
1690840429471533800,7.648533935546875,-0.0010829227976500988,0.0008308732649311423,0.0009857751429080963
1690840429481574700,7.65857470703125,0.0005204030312597752,0.0007747453637421131,0.0008641108870506287
1690840429491614500,7.668614501953125,-0.000004239380359649658,-0.0015398079995065928,0.0008100494742393494
1690840429501685500,7.678685546875,0.000036007724702358246,0.00044323690235614777,0.0013962332159280777
1690840429511725600,7.6887255859375,-0.0005895686335861683,0.0010435134172439575,0.0010103415697813034
1690840429521765600,7.698765625,-0.0010021231137216091,0.001753098564222455,0.0007267463952302933
1690840429531806700,7.708806640625,0.0003606160171329975,-0.001448287395760417,-0.0008927211165428162
1690840429541846800,7.7188466796875,0.0007537845522165298,0.0008085238514468074,-0.000623190775513649
1690840429551886800,7.728886962890625,0.00005790079012513161,0.00035472121089696884,0.0008609890937805176
1690840429561926700,7.7389267578125,-0.0010402402840554714,0.0012706900015473366,-0.00040121935307979584
1690840429571967500,7.748967529296875,0.0012178539764136076,0.0022249005269259214,-0.0008675400167703629
1690840429582007600,7.759007568359375,0.00039075640961527824,0.0013378754956647754,-0.001698419451713562
1690840429592047600,7.769047607421875,0.001264273189008236,0.0008734202710911632,0.00048217736184597015
1690840429602088700,7.779088623046875,0.00018312828615307808,0.0005497599486261606,0.00023833662271499634
1690840429612128800,7.789128662109375,-0.001892272848635912,0.003256330732256174,-0.00023464113473892212
1690840429622168800,7.7991689453125,-0.00020964443683624268,0.0014953066129237413,-0.00003427080810070038
1690840429632208600,7.809208740234375,-0.00030418671667575836,0.002469490747898817,-0.0009501315653324127
1690840429642279700,7.81927978515625,-0.0008295951411128044,-0.0004314952529966831,0.0007466841489076614
1690840429652319700,7.82931982421875,-0.0008831247687339783,-0.00005891895852982998,0.0009815748780965805
1690840429662360600,7.839360595703125,0.0002524256706237793,-0.0001504947431385517,-0.0007740762084722519
1690840429672400600,7.849400634765625,0.001691864337772131,-0.0016613060142844915,-0.0006105583161115646
1690840429682440700,7.859440673828125,0.0008665260393172503,-0.0018823782447725534,-0.0000389590859413147
1690840429692481800,7.869481689453125,-0.0002472079358994961,0.0011363150551915169,-0.0001337677240371704
1690840429702521900,7.87952197265625,0.0000991462729871273,-0.000773577019572258,0.00006260909140110016
1690840429712561700,7.889561767578125,-0.00012642377987504005,0.00013482710346579552,0.00020801648497581482
1690840429722601700,7.899601806640625,-0.00025970814749598503,-0.00022893655113875866,0.00047762878239154816
1690840429732642600,7.909642578125,0.0004881075583398342,-0.0016920771449804306,0.0007117204368114471
1690840429742682600,7.9196826171875,-0.0008557462133467197,0.00012072711251676083,-0.0005512889474630356
1690840429752722700,7.92972265625,0.00048808520659804344,0.001912235515192151,-0.0000311732292175293
1690840429762763800,7.939763671875,0.0008580381982028484,-0.0005837925709784031,0.0008153486996889114
1690840429772803800,7.949803955078125,0.001422362169250846,0.002027702983468771,-0.00008027255535125732
1690840429782874600,7.95987451171875,0.0011187454219907522,-0.0001883762888610363,0.0010982062667608261
1690840429792914700,7.969914794921875,0.0003134054131805897,0.0028811830561608076,0.00001483224332332611
1690840429802954800,7.979954833984375,4.507601261138916e-7,0.0025418056175112724,0.0013672839850187302
1690840429812995600,7.98999560546875,-0.001094108447432518,0.0001638690009713173,0.0008442383259534836
1690840429823035600,8.00003564453125,-0.00007968582212924957,-0.0002758605405688286,-0.0006091762334108353
1690840429833075700,8.01007568359375,0.0000830329954624176,-0.00036241323687136173,-0.0008214302361011505
1690840429843115800,8.02011572265625,0.001311255618929863,0.0015052568633109331,0.0007423553615808487
1690840429853156900,8.030156982421875,0.0017469488084316254,0.0005670252721756697,0.0005423519760370255
1690840429863196700,8.04019677734375,-0.000046059489250183105,0.0010291998041793704,0.0018288586288690567
1690840429873236700,8.05023681640625,-0.00042955484241247177,-0.0009905416518449783,-0.00009740516543388367
1690840429883277600,8.060277587890624,0.0008804802782833576,-0.000884791137650609,0.0006178896874189377
1690840429893317600,8.070317626953125,0.0006405292078852654,-0.0010475104209035635,-0.0008756108582019806
1690840429903357700,8.080357666015624,6.612390279769897e-7,-0.000045163556933403015,-0.00006483308970928192
1690840429913397800,8.090397705078125,-0.0006502154283225536,-0.0006600874476134777,-0.0006344839930534363
1690840429923438800,8.10043896484375,0.00016900897026062012,0.0009495879057794809,-0.0013692490756511688
1690840429933508600,8.110508544921874,0.0016646403819322586,-0.00011008395813405514,0.000856354832649231
1690840429943549700,8.1205498046875,0.0003179842606186867,-0.0021785497665405273,-0.000024916604161262512
1690840429953589800,8.13058984375,0.0008165282197296619,0.000042260391637682915,0.0009063892066478729
1690840429963629800,8.1406298828125,0.0003352435305714607,0.0015293121105059981,-0.0018635764718055725
1690840429973670700,8.150670654296874,-0.00005304533988237381,0.0003846854669973254,-0.002019105479121208
1690840429983710700,8.160710693359375,-0.00005493964999914169,-0.00017235847190022469,0.0011422429233789444
1690840429993750800,8.170750732421874,0.0015655937604606152,0.002433278365060687,0.0009835176169872284
1690840430003790600,8.18079052734375,0.0000809631310403347,0.0009644338861107826,-0.0006824173033237457
1690840430013831700,8.190831787109374,0.0006687226705253124,-0.0012792793568223715,0.0003868415951728821
1690840430023871700,8.200871826171875,-0.00005728006362915039,0.0003513579722493887,-0.00019431114196777344
1690840430033911800,8.210911865234374,-0.00035608652979135513,0.00044882972724735737,0.0002621561288833618
1690840430043952600,8.22095263671875,0.0010221386328339577,0.0014639924047514796,-0.0031052790582180023
1690840430053992700,8.23099267578125,-0.0012010685168206692,-0.001900645438581705,-0.00037660449743270874
1690840430064032800,8.24103271484375,0.00007025012746453285,0.0023011574521660805,0.0017305240035057068
1690840430074103600,8.251103515625,0.0005978220142424107,-0.0006786533631384373,0.0006117299199104309
1690840430084143600,8.2611435546875,0.0007663744036108255,0.0012128287926316261,0.0007053185254335403
1690840430094184700,8.271184814453125,0.0017581356223672628,0.00007219682447612286,-0.00031493790447711945
1690840430104224800,8.281224853515624,-0.00038837408646941185,0.0014161672443151474,-0.00021544285118579865
1690840430114264800,8.291264892578125,-0.002165235113352537,0.0018036572728306055,-0.0008652545511722565
1690840430124305000,8.301304931640624,-0.00007621478289365768,0.0010635282378643751,-0.0010663215070962906
1690840430134345700,8.311345703125,-0.0008884789422154427,0.00015991763211786747,-0.001082567498087883
1690840430144385800,8.3213857421875,-0.00001858128234744072,-0.0001938364002853632,-0.0010545924305915833
1690840430154425600,8.331425537109375,0.0005827606655657291,0.0009830144699662924,-0.0005555152893066406
1690840430164465700,8.341465576171874,0.0011934840586036444,0.0007169938180595636,-0.0000335201621055603
1690840430174506800,8.3515068359375,-0.0010686051100492477,-0.00015838723629713058,-0.00011314824223518372
1690840430184546800,8.361546875,-0.0013845586217939854,0.0002299204934388399,-0.00042978115379810333
1690840430194587000,8.3715869140625,-0.0017328998073935509,0.0007734717801213264,0.0003262888640165329
1690840430204627700,8.381627685546874,0.00026545673608779907,0.0009738992666825652,0.0005751252174377441
1690840430214697500,8.391697509765624,0.0006894320249557495,0.0008591170189902186,-0.0008938740938901901
1690840430224738600,8.401738525390625,0.0018545426428318024,-0.0003336230292916298,0.0008613020181655884
1690840430234778600,8.411778564453124,-0.0005178013816475868,0.0009228562703356147,-0.000301433727145195
1690840430244818700,8.421818603515625,0.00022472115233540535,0.00020820088684558868,0.0008694827556610107
1690840430254859800,8.43185986328125,0.000018592458218336105,0.0024393971543759108,0.0005331262946128845
1690840430264899800,8.44189990234375,0.00139762950129807,-0.0003520818427205086,0.0004697982221841812
1690840430274939600,8.451939697265624,0.000731572974473238,-0.0006580790504813194,-0.0013802982866764069
1690840430284979500,8.4619794921875,0.0005963738076388836,0.0004800220485776663,0.00019539892673492432
1690840430295020500,8.4720205078125,-0.0010843472555279732,-0.00020068185403943062,0.00031790323555469513
1690840430305060600,8.482060546875,0.0007475684396922588,-0.00039229076355695724,0.00008053891360759735
1690840430315100700,8.4921005859375,0.0004548868164420128,0.0012431563809514046,0.00006935372948646545
1690840430325141800,8.502141845703125,-0.0007340949960052967,-0.0009441832080483437,0.0004928745329380035
1690840430335181800,8.512181884765624,0.0006954900454729795,-0.00035615707747638226,-0.0005614720284938812
1690840430345221600,8.5222216796875,0.000589034054428339,0.00022854190319776535,-0.00018443353474140167
1690840430355261700,8.53226171875,-0.0001502595841884613,0.0014714393764734268,-0.0020579658448696136
1690840430365332500,8.54233251953125,0.0008626873604953289,0.0001220067497342825,-0.0011373404413461685
1690840430375372500,8.55237255859375,-0.0003674267791211605,-0.0008756134193390608,-0.001351991668343544
1690840430385413600,8.56241357421875,-0.0007685283198952675,0.0013226907467469573,0.00019437819719314575
1690840430395453700,8.57245361328125,0.0011675897985696793,-0.0010171625763177872,-0.0010559763759374619
1690840430405493800,8.58249365234375,-0.00003223121166229248,0.00034497713204473257,-0.000593254342675209
1690840430415534800,8.592534912109375,0.000015173107385635376,0.0005897216033190489,0.0005913190543651581
1690840430425574700,8.60257470703125,-0.0010157055221498013,-0.002068488858640194,-0.0019352622330188751
1690840430435614500,8.612614501953125,0.00021440861746668816,0.0009249040158465505,-0.00044921785593032837
1690840430445654500,8.622654541015624,-0.0008046841248869896,0.0008389707654714584,0.0005791988223791122
1690840430455695600,8.632695556640625,0.00034127384424209595,-0.00014320318587124348,0.0005091577768325806
1690840430465747000,8.642746826171875,-0.00017583230510354042,0.001121081062592566,0.00040408968925476074
1690840430475787000,8.652787109375,-0.0007532057352364063,0.00041640864219516516,0.0016579069197177887
1690840430485827800,8.662827880859375,-0.00039783818647265434,0.0027193615678697824,0.0004385653883218765
1690840430495868000,8.672867919921876,-0.0011877315118908882,-0.00011823652312159538,-0.0003196354955434799
1690840430505938700,8.682938720703126,0.0006961140315979719,-0.000017141690477728844,0.0005829744040966034
1690840430515978800,8.692978759765625,0.001219691475853324,-8.963979780673981e-7,0.0008096080273389816
1690840430526018800,8.703018798828126,-0.0009167217649519444,-0.0011146955657750368,0.0007736757397651672
1690840430536060000,8.713059814453125,0.00045187631621956825,-0.0003703420516103506,0.0013417284935712814
1690840430546100000,8.723099853515626,-0.00036616018041968346,0.00041021709330379963,0.0006841663271188736
1690840430556140000,8.73314013671875,0.0001699342392385006,0.0019559157080948353,0.0014242585748434067
1690840430566179800,8.743179931640626,-0.00039122579619288445,0.000622750143520534,-0.0005827676504850388
1690840430576220700,8.753220703125,-0.00019468460232019424,-0.0008294715080410242,-0.0008062068372964859
1690840430586260700,8.7632607421875,-0.0009704665280878544,0.0015412254724651575,-0.0002539362758398056
1690840430596300800,8.77330078125,0.0008162481244653463,0.00022296071983873844,-0.00003129616379737854
1690840430606342000,8.783341796875,0.0006303014233708382,-0.00015269778668880463,0.0014848634600639343
1690840430616382000,8.7933818359375,0.0007650572806596756,0.0010318761924281716,-0.0008715018630027771
1690840430626422000,8.803422119140626,-0.0002598916180431843,0.0013032760471105576,0.00044875219464302063
1690840430636462000,8.813462158203125,0.0007726156618446112,-0.0002706521190702915,0.0005930960178375244
1690840430646532900,8.823532958984375,0.0003668260760605335,-0.0020101238042116165,0.0016799923032522202
1690840430656573000,8.833572998046876,0.0005961242131888866,0.0008389259455725551,-0.0010497476905584335
1690840430666613800,8.84361376953125,-0.0010641631670296192,0.0006236860062927008,0.0015792995691299438
1690840430676653800,8.85365380859375,-0.0004063625819981098,-0.0005853890907019377,0.00006209500133991241
1690840430686694000,8.86369384765625,-0.0003272891044616699,0.00026488653384149075,-0.0015746019780635834
1690840430696735000,8.87373486328125,0.0016663533169776201,0.00022147712297737598,-0.0012925732880830765
1690840430706775000,8.883775146484375,-0.0004096473567187786,-0.0007358656730502844,0.0008786078542470932
1690840430716814800,8.89381494140625,0.0006995592266321182,-0.0009760826360434294,0.001972634345293045
1690840430726855000,8.90385498046875,0.000007708556950092316,-0.00023179338313639164,-0.0003438815474510193
1690840430736895700,8.913895751953126,0.0004577827639877796,-0.00034524407237768173,0.0009043421596288681
1690840430746935800,8.923935791015625,0.00016507739201188087,-0.0012040147557854652,-0.0019278749823570251
1690840430756975900,8.933975830078126,-0.00039525143802165985,-0.000023968052119016647,0.0013824347406625748
1690840430767017000,8.944016845703125,-0.0008844416588544846,-0.0009297414217144251,-0.00013266690075397491
1690840430777057000,8.95405712890625,-0.00041572563350200653,0.00011554919183254242,-0.0007254853844642639
1690840430787097000,8.96409716796875,0.0008223755285143852,-0.0015281671658158302,-0.0019089914858341217
1690840430797167900,8.97416796875,-0.000469790305942297,-0.00024478998966515064,-0.00043306685984134674
1690840430807208000,8.9842080078125,0.00008900230750441551,0.00050971785094589,0.0012720134109258652
1690840430817247700,8.994247802734375,-0.0003000856377184391,0.00011716783046722412,0.0015726853162050247
1690840430827288800,9.004288818359376,-0.0010130694136023521,0.0008552542421966791,0.0007618144154548645
1690840430837329000,9.014328857421875,0.0005776365287601948,0.00024086306802928448,-0.0006938707083463669
1690840430847369000,9.024368896484376,-0.00010718777775764465,-0.0011426748242229223,-0.00011248141527175903
1690840430857410000,9.03441015625,0.000653943745419383,0.0006989010144025087,0.0009453259408473969
1690840430867449900,9.044449951171876,-0.000020824838429689407,0.0013908380642533302,-0.0019862577319145203
1690840430877490000,9.054489990234375,0.00005347747355699539,-0.0015005560126155615,-0.0008309781551361084
1690840430887529700,9.06452978515625,0.0005825362168252468,-0.00051898043602705,0.0015100408345460892
1690840430897570800,9.07457080078125,-0.00015702378004789352,0.0003454815596342087,-0.001163773238658905
1690840430907611000,9.08461083984375,-0.00010318262502551079,-0.00011803884990513325,0.00010011345148086548
1690840430917651000,9.09465087890625,-0.00033807335421442986,-0.0006365561857819557,-0.0002836473286151886
1690840430927692000,9.104692138671876,-0.00016818242147564888,-0.000014231307432055473,-0.000057036057114601135
1690840430937761800,9.11476171875,0.00012449873611330986,0.00045421882532536983,-0.00007727555930614471
1690840430947803000,9.124802978515625,-0.0012184283696115017,-0.0011436480563133955,-0.0004781000316143036
1690840430957843000,9.134843017578126,0.000607168534770608,-0.001282398821786046,-0.00006291456520557404
1690840430967882800,9.1448828125,-0.0012012463994324207,0.003366985823959112,0.00005363672971725464
1690840430977923800,9.154923828125,-0.0014393329620361328,0.0014082309789955616,-0.0004891138523817062
1690840430987964000,9.1649638671875,0.00035397056490182877,-0.0005452299956232309,0.0012896806001663208
1690840430998004000,9.17500390625,-0.0007664216682314873,0.00034559727646410465,-0.0008080899715423584
1690840431008043800,9.185043701171875,0.0008963244035840034,0.0014373855665326118,0.0018972288817167282
1690840431018084900,9.1950849609375,-0.0008017071522772312,-0.0002444004639983177,0.0009129233658313751
1690840431028125000,9.205125,-0.0005884002894163132,0.0003032092936336994,0.0009270533919334412
1690840431038164700,9.215164794921876,-0.0006866706535220146,0.0013887137174606323,0.0002207830548286438
1690840431048205800,9.225205810546875,-0.0010738908313214779,0.002185513498261571,-0.001013055443763733
1690840431058246000,9.235245849609376,-0.0011753570288419724,0.00042942503932863474,0.0006554145365953445
1690840431068286000,9.245285888671875,0.0005439799278974533,0.00003863079473376274,-0.0017617885023355484
1690840431078357000,9.25535693359375,0.00006274692714214325,0.0015553010161966085,0.0002267938107252121
1690840431088396800,9.265396728515626,-0.0004204418510198593,0.0010967147536575794,-0.0004921257495880127
1690840431098436900,9.275436767578125,-0.0006689149886369705,0.00015821680426597595,0.00013531558215618134
1690840431108478000,9.28547802734375,0.0012275264598429203,-0.00021067680791020393,-0.0021109916269779205
1690840431118517800,9.295517822265625,-0.00007369415834546089,0.0012418110854923725,0.0002102181315422058
1690840431128557800,9.305557861328126,-0.000981419812887907,-0.0016662287525832653,-0.0021801795810461044
1690840431138599000,9.315598876953125,0.0003498941659927368,-0.00011893198825418949,-0.00042595528066158295
1690840431148639000,9.325638916015626,-0.0004742387682199478,-0.002038700971752405,-0.0006947647780179977
1690840431158678800,9.3356787109375,-0.0011014132760465145,-0.001781705766916275,-0.0009104795753955841
1690840431168718800,9.34571875,0.0006852226797491312,-0.00088530033826828,-0.000411350280046463
1690840431178760000,9.355760009765625,0.00021490827202796936,0.0011568116024136543,-0.0003572888672351837
1690840431188799700,9.3657998046875,0.0005543231964111328,0.002568656112998724,-0.00003724545240402222
1690840431198839800,9.37583984375,-0.0010198713280260563,0.00034917762968689203,0.001370767131447792
1690840431208881000,9.385880859375,-0.0009868107736110687,0.0013761860318481922,-0.00009246170520782471
1690840431218921000,9.3959208984375,-0.000946330837905407,0.003291797824203968,0.00009848736226558685
1690840431228991700,9.40599169921875,-0.0003283158876001835,-0.000013308599591255188,0.0005231760442256927
1690840431239031800,9.41603173828125,0.0007396119181066751,-0.00030119623988866806,-0.0005761776119470596
1690840431249071900,9.42607177734375,-0.00038032419979572296,0.002042586449533701,0.000012351199984550476
1690840431259113000,9.436113037109376,-0.000651434063911438,-0.000057848868891596794,-0.0004568975418806076
1690840431269152800,9.44615283203125,0.0003379853442311287,0.00218476471491158,0.0000870097428560257
1690840431279192800,9.45619287109375,-0.001299858558923006,-0.00017346441745758057,0.0015895646065473557
1690840431289233000,9.46623291015625,-0.00012788455933332443,-0.0007422983180731535,0.003102445974946022
1690840431299274000,9.47627392578125,-0.00047915568575263023,0.001091554295271635,-0.0003585983067750931
1690840431309313800,9.486313720703125,0.00020332308486104012,0.0007604645797982812,-0.001081148162484169
1690840431319353900,9.496353759765626,0.0014757814351469278,0.002480067778378725,0.0003050267696380615
1690840431329394000,9.506393798828125,-0.0012000766582787037,-0.0007412687409669161,-0.0008125640451908112
1690840431339434800,9.516434814453126,-0.0018472247757017612,0.0013937875628471375,0.0006069019436836243
1690840431349474800,9.526474853515625,-0.0004480821080505848,-0.0006169723346829414,-0.0014018882066011429
1690840431359515000,9.536514892578126,-0.0002158544957637787,-0.0005072501953691244,-0.0020399820059537888
1690840431369585700,9.546585693359376,0.00162404403090477,0.0024220498744398355,-0.0016387701034545898
1690840431379625700,9.556625732421875,-0.0022532520815730095,0.001219100086018443,-0.000891486182808876
1690840431389666800,9.566666748046876,0.0011886870488524437,0.00003371969796717167,0.00030140578746795654
1690840431399707000,9.576706787109375,-0.00026087136939167976,-0.0007567065767943859,-0.0007191188633441925
1690840431409747000,9.586746826171876,0.00047020288184285164,-0.0003755730576813221,-0.0021474678069353104
1690840431419787800,9.596787841796875,-0.0005601742304861546,-0.00090421037748456,0.0009447280317544937
1690840431429827800,9.606827880859376,-0.0008757021278142929,-0.0026747945230454206,-0.0017463751137256622
1690840431439868000,9.616867919921875,0.000015657860785722733,0.000053880270570516586,-0.0006371699273586273
1690840431449907700,9.62690771484375,0.0005448427982628345,0.0006152066634967923,-0.0001795981079339981
1690840431459948800,9.63694873046875,-0.0007851398549973965,-0.0015819012187421322,-0.0010355375707149506
1690840431469962200,9.646962158203126,0.0002667829394340515,-0.0017380823846906424,-0.0010976381599903107
1690840431480002000,9.657001953125,-0.0010493514128029346,-0.00022194464690983295,0.00026217103004455566
1690840431490043100,9.667043212890626,-0.0004089539870619774,-0.0012681414373219013,-0.001127360388636589
1690840431500083000,9.6770830078125,-0.00024064211174845695,0.001955348765477538,0.0003237966448068619
1690840431510154000,9.687154052734375,-0.0011065625585615635,0.0005090815247967839,0.0006675757467746735
1690840431520194000,9.697194091796876,0.0001232852227985859,0.0008118830155581236,0.00016610324382781982
1690840431530234000,9.707234130859375,-0.00031520985066890717,0.0007040925556793809,0.0020551644265651703
1690840431540274200,9.717274169921875,0.00009411806240677834,-0.0027923714369535446,-0.00016511231660842896
1690840431550315300,9.727315185546875,-0.0010140640661120415,-0.001669198041781783,0.0005935896188020706
1690840431560355000,9.73735498046875,0.0007497472688555717,-0.001452416880056262,-0.0018506590276956558
1690840431570395000,9.747394775390624,0.00010809628292918205,-0.0008524172008037567,-0.0008844919502735138
1690840431580436000,9.75743603515625,-0.0007827309891581535,-0.0004364314954727888,0.0001690555363893509
1690840431590476000,9.76747607421875,0.001219538040459156,-0.0017181350849568844,0.001138973981142044
1690840431600516000,9.77751611328125,-0.0010790363885462284,-0.00172932050190866,-0.0005468074232339859
1690840431610556200,9.78755615234375,0.00030885031446814537,-0.0006946129724383354,-0.0013983100652694702
1690840431620597200,9.79759716796875,-0.000977989286184311,0.0013994306791573763,-0.00022039562463760376
1690840431630637000,9.807636962890625,0.0003647017292678356,0.00028522650245577097,0.001142958179116249
1690840431640676900,9.8176767578125,-0.0007170741446316242,0.00047351198736578226,0.0006039347499608994
1690840431650718000,9.827718017578125,-0.0011401483789086342,0.00017347768880426884,0.0011893268674612045
1690840431660788000,9.8377880859375,0.00044949259608983994,0.0002581662265583873,0.00014882907271385193
1690840431670829000,9.8478291015625,-0.000526184681802988,-0.00044123432599008083,0.0006733331829309464
1690840431680869000,9.857869140625,-0.000759743619710207,-0.0021150310058146715,-0.0019866321235895157
1690840431690909200,9.8679091796875,-0.00017202086746692657,0.004561431705951691,0.0013549663126468658
1690840431700950300,9.8779501953125,0.0007382475305348635,-0.0005355924367904663,0.00013896822929382324
1690840431710990000,9.887989990234376,0.0007741127628833055,-0.0005458553787320852,-0.0006432961672544479
1690840431721030000,9.89802978515625,0.0006532054394483566,0.00057613430544734,0.0007378198206424713
1690840431731070000,9.908070068359375,0.0006416863761842251,-0.0019839259330183268,-0.0001618117094039917
1690840431741111000,9.918111083984375,-0.0006906935013830662,0.0008579330751672387,-0.0006781984120607376
1690840431751151000,9.928151123046876,0.0006240331567823887,0.000050486763939261436,0.00010773353278636932
1690840431761191200,9.938191162109375,0.0015177899040281773,0.00023531029000878334,-0.00005525164306163788
1690840431771231200,9.948231201171875,-0.00014770962297916412,0.001624844502657652,0.001260971650481224
1690840431781272000,9.95827197265625,0.0003018318675458431,-0.001085454598069191,0.0019051898270845413
1690840431791312000,9.968311767578125,0.00007408624514937401,-0.0007948977872729301,-0.0006651859730482101
1690840431801383000,9.9783828125,0.00017741695046424866,-0.0014566932804882526,-0.00014400482177734375
1690840431811423000,9.988423095703125,0.00006930949166417122,0.0017289237584918737,0.00022882968187332153
1690840431821463000,9.998463134765625,-0.009043761529028416,-0.17062287032604218,-0.040592364966869354
1690840431831504100,10.008504150390625,-0.004637324251234531,0.01131112314760685,-0.1487007737159729
1690840431841544200,10.018544189453126,-0.00333610363304615,0.012904226779937744,-0.09069445729255676
1690840431851584000,10.028583984375,0.013980148360133171,-0.08937166631221771,-0.03800113499164581
1690840431861624800,10.038624755859376,0.023395488038659096,-0.05103626847267151,-0.03840567171573639
1690840431871665000,10.048664794921875,0.023734845221042633,-0.1620200127363205,-0.028188595548272133
1690840431881705000,10.058705078125,0.014477429911494255,-0.07215670496225357,-0.018770592287182808
1690840431891745000,10.0687451171875,0.006103513762354851,-0.03708871826529503,-0.008767841383814812
1690840431901786000,10.0787861328125,-0.0013237763196229935,0.019133809953927994,0.02855050191283226
1690840431911826200,10.088826171875,-0.007762248627841473,0.04219378903508186,0.04360613226890564
1690840431921866200,10.0988662109375,-0.009701029397547245,0.05531278997659683,0.0489465668797493
1690840431931907000,10.108906982421875,-0.010765019804239273,0.0721258819103241,0.049098819494247437
1690840431941977000,10.11897705078125,-0.007493858691304922,0.06725655496120453,0.05186877399682999
1690840431952018000,10.129017822265626,-0.0028833807446062565,0.0476970300078392,0.04904478043317795
1690840431962058000,10.13905810546875,0.002021629363298416,0.01305409986525774,0.04515976086258888
1690840431972098000,10.14909814453125,0.003913596272468567,-0.022078340873122215,0.03593864291906357
1690840431982138000,10.15913818359375,0.003605735022574663,-0.04809316620230675,0.025184266269207
1690840431992179200,10.16917919921875,0.0020404390525072813,-0.05094074830412865,0.011911636218428612
1690840432002219000,10.179218994140625,0.00298879062756896,-0.043815728276968,0.00020411424338817596
1690840432012259000,10.189259033203125,-0.0031113182194530964,-0.020137818530201912,-0.012933863326907158
1690840432022300000,10.1992998046875,-0.004017325583845377,0.0005631981184706092,-0.023328179493546486
1690840432032340000,10.209340087890626,-0.0015814034268260002,0.02383040077984333,-0.032853879034519196
1690840432042380000,10.219380126953125,-0.002224557101726532,0.03562447428703308,-0.03679163008928299
1690840432052420000,10.229420166015625,0.000823264243081212,0.03476123884320259,-0.03908686339855194
1690840432062461200,10.239461181640625,0.0018155579455196857,0.02319220080971718,-0.03978594392538071
1690840432072501200,10.249501220703126,0.0002389959990978241,0.007303373888134956,-0.0335671603679657
1690840432082572000,10.259572021484376,0.0017804335802793503,-0.009444180876016617,-0.029686404392123222
1690840432092612000,10.269612060546875,0.00020814314484596252,-0.019109226763248444,-0.02305307798087597
1690840432102652200,10.279652099609375,-0.0010736361145973206,-0.024716246873140335,-0.014320040121674538
1690840432112693000,10.28969287109375,-0.0003270125016570091,-0.02198830619454384,-0.004998214542865753
1690840432122733000,10.299733154296876,-0.001330757513642311,-0.013850750401616096,0.006559637375175953
1690840432132773000,10.309773193359375,-0.0015241876244544983,-0.0022525109816342592,0.011975307948887348
1690840432142814200,10.319814208984376,0.000557072926312685,0.009885644540190697,0.02097626030445099
1690840432152854000,10.32985400390625,-0.0010953196324408054,0.012471995316445827,0.025466768071055412
1690840432162894000,10.33989404296875,0.00030763354152441025,0.020846040919423103,0.031617339700460434
1690840432172934100,10.34993408203125,-0.00014102458953857422,0.01299293152987957,0.029548563063144684
1690840432182975000,10.35997509765625,-0.00037165451794862747,0.008248243480920792,0.02819754183292389
1690840432193015000,10.37001513671875,-0.0011701257899403572,-0.001518801087513566,0.02308780699968338
1690840432203055000,10.38005517578125,-0.001226318534463644,-0.0062485747039318085,0.019430754706263542
1690840432213096200,10.39009619140625,-0.002316616475582123,-0.009631854481995106,0.0135227981954813
1690840432223136300,10.40013623046875,0.0018078209832310677,-0.011711250990629196,0.005661413073539734
1690840432233207000,10.41020703125,0.0004788176156580448,-0.007028978317975998,-0.00047010742127895355
1690840432243247000,10.4202470703125,0.0004071788862347603,-0.001406779047101736,-0.005553016439080238
1690840432253287200,10.430287109375,0.00042387284338474274,0.0032430076971650124,-0.012006793171167374
1690840432263327200,10.4403271484375,-0.0008491179905831814,0.006589269731193781,-0.017595969140529633
1690840432273368000,10.4503681640625,-0.0004430827684700489,0.0064592305570840836,-0.021275131031870842
1690840432283408100,10.460408203125,-0.000718453899025917,0.006942328065633774,-0.024612335488200188
1690840432293448000,10.470447998046875,0.0012620959896594286,0.001591588486917317,-0.02085760608315468
1690840432303489000,10.480489013671875,0.0005273297429084778,0.002168695442378521,-0.018610961735248566
1690840432313529000,10.490529052734376,0.001715941820293665,-0.002869023708626628,-0.016760272905230522
1690840432323569200,10.500569091796875,-0.0007773097604513168,-0.005744971334934235,-0.013235578313469887
1690840432333609200,10.510609130859375,-0.00008124485611915588,-0.004677673801779747,-0.007720563560724258
1690840432343650000,10.520650146484375,0.0005872086621820927,-0.00205525872297585,-0.0017612073570489883
1690840432353690000,10.530690185546876,-0.0019772332161664963,-0.0025871843099594116,0.002356434240937233
1690840432363730000,10.54072998046875,0.00026594754308462143,-0.00022788997739553452,0.008319783955812454
1690840432373801000,10.550801025390625,0.00028742244467139244,0.004145209677517414,0.011599463410675526
1690840432383841000,10.560841064453125,-0.0009448225609958172,0.001536643598228693,0.016998490318655968
1690840432393882000,10.570882080078125,0.0007674347143620253,0.0014590169303119183,0.01628771983087063
1690840432403922200,10.580922119140626,0.0008617106359452009,-0.0014845749828964472,0.014898614957928658
1690840432413962200,10.590962158203125,-0.000031163450330495834,0.001635142369195819,0.014955475926399231
1690840432424002000,10.601001953125,-0.0007004160434007645,-0.0006477192509919405,0.011269128881394863
1690840432434043100,10.611043212890625,0.000754455104470253,-0.0017551204655319452,0.009433922357857227
1690840432444083000,10.6210830078125,0.0008292899001389742,-0.0017442014068365097,0.006327078677713871
1690840432454123000,10.631123046875,-0.0004353742115199566,-0.0032419266644865274,0.0020035412162542343
1690840432464178200,10.64117822265625,-0.00014988332986831665,0.001782393199391663,-0.0025126487016677856
1690840432474218200,10.65121826171875,-0.0005815238691866398,0.002408750122413039,-0.005293445661664009
1690840432484258000,10.661258056640625,-0.0003434373065829277,0.0024694702588021755,-0.00831453688442707
1690840432494297900,10.6712978515625,0.0008548845071345568,0.0000932344701141119,-0.011769590899348259
1690840432504339000,10.6813388671875,0.000403745099902153,-0.0005579085554927588,-0.011740295216441154
1690840432514410000,10.691409912109375,-0.0010852846316993237,-0.0006375121884047985,-0.012912971898913383
1690840432524450000,10.701449951171876,-0.0014370880089700222,-0.0024460647255182266,-0.013539081439375877
1690840432534490000,10.711489990234375,0.0006194896996021271,-0.0031335956882685423,-0.009787624701857567
1690840432544530200,10.7215302734375,-0.0005309958942234516,0.0001479515340179205,-0.007810227572917938
1690840432554571300,10.7315712890625,-0.00038772448897361755,-0.00009076530113816261,-0.0038747359067201614
1690840432564611000,10.741611083984376,0.0008751465938985348,0.0011734373401850462,-0.0030640698969364166
1690840432574651000,10.75165087890625,-0.00083594536408782,-0.0001479883212596178,0.002773687243461609
1690840432584692000,10.76169189453125,-0.0002777464687824249,0.0013633555499836802,0.00416332483291626
1690840432594732000,10.77173193359375,0.00043874140828847885,0.0007513407617807388,0.007442553527653217
1690840432604772000,10.781772216796876,0.0008842884562909603,-0.0007911620195955038,0.009260693565011024
1690840432614812200,10.791812255859375,-0.0007135164923965931,0.000666262349113822,0.008361305110156536
1690840432624853200,10.801853271484376,-0.0004163077101111412,-0.0023343211505562067,0.008823895826935768
1690840432634893000,10.81189306640625,-0.001733287237584591,-0.002676015254110098,0.009151269681751728
1690840432644932900,10.821932861328126,0.0005093608051538467,-0.00022537424229085445,0.005479036830365658
1690840432654974000,10.831973876953125,-0.0011023753322660923,-0.001414768397808075,0.004790967330336571
1690840432665044000,10.8420439453125,-0.0004437756724655628,0.0016084520611912012,0.0014553572982549667
1690840432675085000,10.8520849609375,-0.0004993141628801823,0.002417375100776553,0.0022841766476631165
1690840432685125000,10.862125,0.0007233433425426483,0.001402178080752492,0.000691339373588562
1690840432695165200,10.872165283203126,-0.0006764838472008705,-0.00013630534522235394,-0.004208695143461227
1690840432705205000,10.882205078125,-0.0011081825941801071,-0.0016641607508063316,-0.004449712112545967
1690840432715246000,10.89224609375,-0.00001832563430070877,-0.0020902915857732296,-0.005431268364191055
1690840432725286000,10.902285888671875,-0.002101716585457325,-0.0009736279025673866,-0.00810801051557064
1690840432735326000,10.912325927734376,-0.0005761925131082535,0.0024258638732135296,-0.008216779679059982
1690840432745367000,10.922366943359375,0.0007085162214934826,-0.00024315621703863144,-0.008422907441854477
1690840432755407000,10.932406982421876,0.0008484923746436834,0.0002783488016575575,-0.006958143785595894
1690840432765447200,10.942447265625,-0.0008511370979249477,-0.0012114234268665314,-0.007641777396202087
1690840432775487200,10.9524873046875,0.000764601631090045,-0.000863406341522932,-0.0063712093979120255
1690840432785528000,10.962528076171875,0.0007161321118474007,-0.0019667542073875666,-0.001738905906677246
1690840432795567900,10.97256787109375,0.0008471852634102106,-0.0020773860160261393,0.0030578654259443283
1690840432805639000,10.982638916015626,0.00041255727410316467,0.00020201376173645258,0.005822492763400078
1690840432815679000,10.992678955078125,-0.0011017052456736565,-0.0009877667762339115,0.003768438473343849
1690840432825719000,11.002718994140626,0.0002858014777302742,0.0009211871074512601,0.006448376923799515
1690840432835760000,11.012760009765625,0.0008321241475641727,0.0013428288511931896,0.005945590324699879
1690840432845800200,11.02280029296875,-0.0009836191311478615,-0.0013427026569843292,0.0021678972989320755
1690840432855840000,11.032840087890625,0.0014264872297644615,0.001610437175258994,0.0009922776371240616
1690840432865881000,11.042881103515626,-0.0010353387333452702,0.00028151983860880136,0.0012964103370904922
1690840432875921000,11.0529208984375,-0.00045329006388783455,-0.00019707437604665756,-0.00016531720757484436
1690840432885961000,11.0629609375,-0.0007670102640986443,-0.002819755347445607,0.0002693105489015579
1690840432896001000,11.0730009765625,-0.00032794754952192307,-0.0011473081540316343,0.0000978764146566391
1690840432906042000,11.0830419921875,-0.0007162364199757576,-0.001363556832075119,0.002952251583337784
1690840432916082200,11.093082275390625,-0.0004487992264330387,-0.0009744837880134583,0.002114487811923027
1690840432926122200,11.103122314453126,0.0018465793691575527,-0.002748947823420167,0.00006918050348758698
1690840432936162000,11.113162109375,0.0013134714681655169,0.00036123464815318584,0.000863315537571907
1690840432946233000,11.123233154296875,-0.0010993527248501778,0.0016938804183155298,-0.002595864236354828
1690840432956274000,11.13327392578125,0.00030994974076747894,0.0028061806224286556,-0.0038591213524341583
1690840432966314000,11.14331396484375,-0.0012376131489872932,0.004564133007079363,-0.005798701196908951
1690840432976354000,11.15335400390625,-0.0009026946499943733,0.0012123554479330778,-0.0059584882110357285
1690840432986394000,11.16339404296875,0.000308244489133358,-0.002805821830406785,-0.006436791270971298
1690840432996435200,11.173435302734376,0.0002281717024743557,-0.0037414433900266886,-0.0030839573591947556
1690840433006475000,11.18347509765625,0.0009325777646154165,-0.00019198213703930378,0.0013882890343666077
1690840433016515000,11.19351513671875,-0.00043236417695879936,-0.0006413196679204702,0.0005712099373340607
1690840433026556000,11.203555908203125,-0.0006456836126744747,-0.0013971247244626284,0.0030540768057107925
1690840433036596000,11.213595947265626,-0.0008846153505146503,-0.001234550029039383,0.004902884364128113
1690840433046636000,11.223635986328125,-0.0006294846534729004,0.0014073057100176811,0.003613116219639778
1690840433056676000,11.233676025390626,-0.0006800265982747078,0.0023832323495298624,0.0029925573617219925
1690840433066717200,11.24371728515625,0.00006033247336745262,0.0005283406935632229,0.0006058327853679657
1690840433076757000,11.253757080078126,0.0012873024679720402,0.002153164241462946,-0.00047177448868751526
1690840433086797000,11.263797119140625,0.00024227797985076904,-0.00043169991113245487,0.0008084066212177277
1690840433096868000,11.2738681640625,0.0006751283071935177,0.0008116422686725855,0.000621521845459938
1690840433106908200,11.283908203125,0.0019662289414554834,-0.0019252882339060307,0.0021421872079372406
1690840433116949000,11.293948974609375,0.0006131348200142384,-0.0012434928212314844,0.0013335607945919037
1690840433126989000,11.303989013671876,0.0006727892905473709,-0.0007891575805842876,0.002768205478787422
1690840433137029000,11.314029052734375,-0.0026326673105359077,0.0015567942755296826,0.0006374847143888474
1690840433147069000,11.32406884765625,-0.0007628616876900196,0.002051609568297863,-0.0008898396044969559
1690840433157110000,11.334110107421875,0.000041487161070108414,0.00020405463874340057,-0.0011236891150474548
1690840433167150000,11.344150146484376,0.001239643432199955,0.002573468955233693,-0.0032579470425844193
1690840433177190100,11.354190185546875,0.00043516792356967926,0.00024762144312262535,-0.005690598860383034
1690840433187231000,11.36423095703125,0.00002770405262708664,0.000752556836232543,-0.0040879081934690475
1690840433197271000,11.37427099609375,0.00047973915934562683,-0.0013591593597084284,-0.004371926188468933
1690840433207311000,11.38431103515625,-0.0005309302359819412,-0.001611360814422369,-0.0030571240931749344
1690840433217351000,11.394350830078125,0.00022679101675748825,0.00019100517965853214,0.0006792694330215454
1690840433227392000,11.40439208984375,-0.001119969878345728,-0.00011499202810227871,0.0021842215210199356
1690840433237463000,11.414463134765626,-0.00045792851597070694,-0.0006665575783699751,0.004120426252484322
1690840433247503000,11.424503173828125,0.000804143724963069,-0.0006425890605896711,0.002500159665942192
1690840433257543200,11.434543212890626,-0.0009111044928431511,0.0011482341215014458,0.00215725414454937
1690840433267583200,11.444583251953125,-0.002030964009463787,0.0034081926569342613,0.0016102399677038193
1690840433277624000,11.4546240234375,-0.0002543139271438122,-0.0005267835222184658,0.0006539430469274521
1690840433287664000,11.4646640625,0.0011425139382481575,-0.0011014938354492188,-0.0009703189134597778
1690840433297704000,11.474703857421876,0.00011551287025213242,0.0022612272296100855,0.00019239634275436401
1690840433307745000,11.4847451171875,0.00033495761454105377,-0.0014810466673225164,0.0002054460346698761
1690840433317785000,11.49478515625,-0.0015561357140541077,-0.002750010695308447,0.0031305085867643356
1690840433327825200,11.5048251953125,-0.000890078954398632,-0.0005473101045936346,0.0022439416497945786
1690840433337865200,11.514865234375,-0.00006441399455070496,0.0019139613723382354,0.002741768956184387
1690840433347906000,11.524906005859375,-0.002175235655158758,0.0021528468932956457,0.0013183094561100006
1690840433357946000,11.534946044921876,-0.0022121132351458073,0.0010354642290621996,0.0009300187230110168
1690840433367986000,11.54498583984375,0.0004744837060570717,-0.0004947881679981947,-0.0014535095542669296
1690840433378057000,11.555056884765625,-0.0009260480292141438,0.000918256351724267,-0.0023554284125566483
1690840433388097000,11.565096923828126,0.0008199203293770552,-0.0008143961895257235,-0.002263016998767853
