time,seconds_elapsed,z,y,x
1690841490625504800,0.0325048828125,-0.9854278564453125,-0.016845703125,-0.0007476806640625
1690841490635544600,0.042544677734375,-0.98443603515625,-0.0162353515625,-0.001983642578125
1690841490645585700,0.052585693359375,-0.984405517578125,-0.014312744140625,-0.000885009765625
1690841490655625500,0.06262548828125,-0.9851837158203125,-0.0114898681640625,0.000396728515625
1690841490665665500,0.07266552734375,-0.984130859375,-0.0065155029296875,0.0020599365234375
1690841490675736600,0.082736572265625,-0.9811248779296875,0.0003662109375,0.003082275390625
1690841490685776600,0.092776611328125,-0.980926513671875,0.0048675537109375,0.002532958984375
1690841490695817700,0.102817626953125,-0.978729248046875,0.008758544921875,0.001922607421875
1690841490705857500,0.112857421875,-0.9775848388671875,0.01287841796875,0.0022430419921875
1690841490715897600,0.122897705078125,-0.9772491455078125,0.0131378173828125,0.000885009765625
1690841490725938400,0.1329384765625,-0.977874755859375,0.011474609375,0.0008544921875
1690841490735978500,0.142978515625,-0.9788665771484375,0.0086822509765625,0.0016937255859375
1690841490746018600,0.1530185546875,-0.980072021484375,0.003509521484375,0.0015411376953125
1690841490756058600,0.16305859375,-0.9809722900390625,-0.0011138916015625,0.001983642578125
1690841490766099700,0.173099609375,-0.982391357421875,-0.0045013427734375,0.003326416015625
1690841490776139800,0.183139892578125,-0.9823760986328125,-0.0076904296875,0.0021514892578125
1690841490786179600,0.1931796875,-0.9822235107421875,-0.0093536376953125,0.0018157958984375
1690841490796220400,0.203220458984375,-0.9831390380859375,-0.009002685546875,0.0015411376953125
1690841490806290700,0.213290771484375,-0.9822235107421875,-0.0069580078125,0.000640869140625
1690841490816331500,0.22333154296875,-0.9818878173828125,-0.0047760009765625,-0.00030517578125
1690841490826371600,0.23337158203125,-0.9817962646484375,-0.002960205078125,0.000274658203125
1690841490836411600,0.24341162109375,-0.9794921875,0.0012359619140625,0.0009765625
1690841490846451500,0.253451416015625,-0.98004150390625,0.003936767578125,0.001983642578125
1690841490856492500,0.263492431640625,-0.9799652099609375,0.00592041015625,0.0028228759765625
1690841490866532600,0.27353271484375,-0.97906494140625,0.006683349609375,0.0030517578125
1690841490876572700,0.28357275390625,-0.978668212890625,0.0077056884765625,0.0020751953125
1690841490886613500,0.293613525390625,-0.9788665771484375,0.005645751953125,0.001617431640625
1690841490896653600,0.303653564453125,-0.978912353515625,0.003692626953125,0.00115966796875
1690841490906693600,0.313693603515625,-0.9799957275390625,0.0011749267578125,0.0001373291015625
1690841490916733700,0.323733642578125,-0.9814453125,-0.0023956298828125,0.00079345703125
1690841490926774800,0.33377490234375,-0.981842041015625,-0.0040740966796875,0.0012359619140625
1690841490936845600,0.343845458984375,-0.9816741943359375,-0.0046844482421875,0.001739501953125
1690841490946885600,0.3538857421875,-0.98272705078125,-0.00506591796875,0.0018463134765625
1690841490956925700,0.36392578125,-0.9825286865234375,-0.00433349609375,0.00262451171875
1690841490966965800,0.3739658203125,-0.9816131591796875,-0.0025634765625,0.0016326904296875
1690841490977006600,0.384006591796875,-0.9803009033203125,-0.0018768310546875,0.0014801025390625
1690841490987046700,0.394046630859375,-0.9804229736328125,-0.000213623046875,0.000946044921875
1690841490997086500,0.40408642578125,-0.9801788330078125,0.0022125244140625,0.0010223388671875
1690841491007127600,0.41412744140625,-0.9796295166015625,0.0025177001953125,0.000762939453125
1690841491017167600,0.424167724609375,-0.97906494140625,0.003021240234375,0.0012969970703125
1690841491027207700,0.434207763671875,-0.9800262451171875,0.0032501220703125,0.0016937255859375
1690841491037247700,0.444247802734375,-0.98077392578125,0.00311279296875,0.0026092529296875
1690841491047288600,0.45428857421875,-0.9794464111328125,0.00189208984375,0.00213623046875
1690841491057328600,0.46432861328125,-0.980010986328125,0.0009002685546875,0.0015869140625
1690841491067399700,0.474399658203125,-0.9802703857421875,-0.00018310546875,0.0018310546875
1690841491077439500,0.484439453125,-0.98138427734375,-0.001129150390625,0.0018310546875
1690841491087479600,0.4944794921875,-0.98248291015625,-0.0026092529296875,0.0015411376953125
1690841491097520600,0.504520751953125,-0.9822845458984375,-0.003509521484375,0.00152587890625
1690841491107560700,0.514560791015625,-0.9822845458984375,-0.0028076171875,0.001953125
1690841491117600800,0.524600830078125,-0.981231689453125,-0.002044677734375,0.00177001953125
1690841491127640800,0.534640869140625,-0.9801788330078125,-0.001495361328125,0.001434326171875
1690841491137681700,0.544681640625,-0.9805755615234375,0.0005035400390625,0.0011749267578125
1690841491147721500,0.554721435546875,-0.9806365966796875,0.0007171630859375,0.0015106201171875
1690841491157761500,0.564761474609375,-0.979644775390625,0.0018310546875,0.001739501953125
1690841491167802600,0.574802734375,-0.9789581298828125,0.0020294189453125,0.0012664794921875
1690841491177842700,0.5848427734375,-0.9800872802734375,0.002166748046875,0.0010528564453125
1690841491187882800,0.5948828125,-0.9800567626953125,0.0018463134765625,0.0018768310546875
1690841491197953800,0.604953857421875,-0.981170654296875,0.0008697509765625,0.00146484375
1690841491207993900,0.614993896484375,-0.9811553955078125,0.000518798828125,0.0010528564453125
1690841491218033700,0.62503369140625,-0.98114013671875,-0.0001373291015625,0.0012969970703125
1690841491228074500,0.635074462890625,-0.9809112548828125,-0.0012054443359375,0.0012054443359375
1690841491238114600,0.645114501953125,-0.98077392578125,-0.00103759765625,0.001953125
1690841491248154600,0.655154541015625,-0.9805755615234375,-0.00146484375,0.0012359619140625
1690841491258195700,0.66519580078125,-0.9810333251953125,-0.0013427734375,0.001190185546875
1690841491268235800,0.67523583984375,-0.98089599609375,-0.00164794921875,0.0019989013671875
1690841491278275800,0.68527587890625,-0.980438232421875,-0.0006256103515625,0.0015106201171875
1690841491288315600,0.695315673828125,-0.98065185546875,0.0008697509765625,0.00152587890625
1690841491298356500,0.7053564453125,-0.9799346923828125,0.0005645751953125,0.0009002685546875
1690841491308396500,0.715396484375,-0.9801788330078125,0.0009002685546875,0.0017852783203125
1690841491318436600,0.7254365234375,-0.980926513671875,0.001312255859375,0.00177001953125
1690841491328477700,0.735477783203125,-0.9808197021484375,0.001556396484375,0.0018768310546875
1690841491338547700,0.745547607421875,-0.97998046875,0.00030517578125,0.0018463134765625
1690841491348588800,0.7555888671875,-0.9800872802734375,-0.0001373291015625,0.00115966796875
1690841491358628600,0.765628662109375,-0.9797515869140625,-0.0001068115234375,0.0013275146484375
1690841491368668700,0.775668701171875,-0.9806671142578125,-0.0005340576171875,0.0016326904296875
1690841491378709500,0.78570947265625,-0.981597900390625,-0.001251220703125,0.0022125244140625
1690841491388749600,0.79574951171875,-0.980377197265625,-0.0010528564453125,0.002655029296875
1690841491398789600,0.80578955078125,-0.981658935546875,-0.0012359619140625,0.0018463134765625
1690841491408829700,0.81582958984375,-0.981414794921875,-0.001007080078125,0.0007476806640625
1690841491418870800,0.825870849609375,-0.980316162109375,-0.00128173828125,0.001312255859375
1690841491428910800,0.835910888671875,-0.981658935546875,-0.00030517578125,0.0021820068359375
1690841491438950700,0.84595068359375,-0.981109619140625,0.0000457763671875,0.0017547607421875
1690841491448990700,0.85599072265625,-0.9805145263671875,0.000701904296875,0.001068115234375
1690841491459030800,0.86603076171875,-0.9811553955078125,0.0009765625,0.0007476806640625
1690841491469101800,0.876101806640625,-0.981781005859375,0.0003204345703125,0.00128173828125
1690841491479141600,0.8861416015625,-0.9798126220703125,0.0009765625,0.00146484375
1690841491489181700,0.896181640625,-0.980316162109375,0.0009918212890625,0.002349853515625
1690841491499221800,0.9062216796875,-0.982025146484375,-0.0000762939453125,0.0015716552734375
1690841491509262800,0.916262939453125,-0.982330322265625,0.0003509521484375,0.0013275146484375
1690841491519303000,0.926302978515625,-0.9810943603515625,0.0003662109375,0.00164794921875
1690841491529343000,0.936343017578125,-0.98065185546875,-0.000335693359375,0.0011749267578125
1690841491539383800,0.9463837890625,-0.9808349609375,-0.0001983642578125,0.0012664794921875
1690841491549423600,0.956423583984375,-0.9823760986328125,-0.0006866455078125,0.0019378662109375
1690841491559463700,0.966463623046875,-0.9808349609375,-0.0005340576171875,0.00250244140625
1690841491569503700,0.976503662109375,-0.9817047119140625,0.0003204345703125,0.001983642578125
1690841491579544800,0.986544921875,-0.980987548828125,0.0002899169921875,0.00164794921875
1690841491589585000,0.9965849609375,-0.9813079833984375,0.000335693359375,0.001739501953125
1690841491599656000,1.006656005859375,-0.9808349609375,0.0002593994140625,0.002471923828125
1690841491609696000,1.016696044921875,-0.98126220703125,0.0004119873046875,0.0028533935546875
1690841491619735800,1.02673583984375,-0.9797821044921875,0.000579833984375,0.0019683837890625
1690841491629776600,1.036776611328125,-0.9806365966796875,0.0009918212890625,0.001556396484375
1690841491639816700,1.046816650390625,-0.9814300537109375,0.000518798828125,0.000640869140625
1690841491649856800,1.056856689453125,-0.981048583984375,0.0003204345703125,0.001312255859375
1690841491659896800,1.066896728515625,-0.980865478515625,-0.0001983642578125,0.0017242431640625
1690841491669938000,1.07693798828125,-0.9809722900390625,0.0001373291015625,0.0009613037109375
1690841491679978000,1.08697802734375,-0.9806671142578125,0.000396728515625,0.0009307861328125
1690841491690017800,1.097017822265625,-0.9802703857421875,-0.0003509521484375,0.001220703125
1690841491700058600,1.10705859375,-0.9805908203125,0.000152587890625,0.001617431640625
1690841491710098700,1.1170986328125,-0.9805145263671875,0.0005645751953125,0.0019073486328125
1690841491720138800,1.127138671875,-0.9814605712890625,-0.000823974609375,0.001861572265625
1690841491730209800,1.137209716796875,-0.9806365966796875,0.000030517578125,0.0012359619140625
1690841491740249900,1.147249755859375,-0.981292724609375,0.00006103515625,0.001922607421875
1690841491750291000,1.157291015625,-0.98095703125,0.0002593994140625,0.001373291015625
1690841491760330800,1.167330810546875,-0.9800262451171875,0.000457763671875,0.0009613037109375
1690841491770370800,1.177370849609375,-0.9812469482421875,-0.00042724609375,0.0016326904296875
1690841491780411000,1.187410888671875,-0.9808502197265625,-0.0002288818359375,0.0015869140625
1690841491790451700,1.19745166015625,-0.981597900390625,0.0004119873046875,0.001617431640625
1690841491800491800,1.20749169921875,-0.98211669921875,-0.0004425048828125,0.0016326904296875
1690841491810531800,1.21753173828125,-0.98175048828125,-0.000244140625,0.0016021728515625
1690841491820573000,1.227572998046875,-0.98040771484375,-0.0004119873046875,0.001678466796875
1690841491830613000,1.237613037109375,-0.9806976318359375,-0.0008392333984375,0.001678466796875
1690841491840652800,1.24765283203125,-0.9810638427734375,-0.000244140625,0.0015106201171875
1690841491850692900,1.25769287109375,-0.981201171875,0.0001068115234375,0.0022125244140625
1690841491860764000,1.267763916015625,-0.980987548828125,0.0004119873046875,0.0014801025390625
1690841491870803700,1.2778037109375,-0.9812774658203125,0.000244140625,0.00177001953125
1690841491880844800,1.2878447265625,-0.98028564453125,0.000030517578125,0.0014801025390625
1690841491890884900,1.297884765625,-0.980621337890625,0.0007171630859375,0.000946044921875
1690841491900924700,1.307924560546875,-0.9811859130859375,0.0005035400390625,0.001953125
1690841491910965800,1.3179658203125,-0.981842041015625,-0.0000152587890625,0.00128173828125
1690841491921005800,1.328005859375,-0.98114013671875,-0.000091552734375,0.0020751953125
1690841491931046000,1.3380458984375,-0.9809417724609375,0.0001373291015625,0.0014190673828125
1690841491941085700,1.348085693359375,-0.9810791015625,0.0003204345703125,0.0015411376953125
1690841491951126800,1.358126708984375,-0.9815826416015625,-0.00018310546875,0.0022125244140625
1690841491961166800,1.368166748046875,-0.9817352294921875,0.0005645751953125,0.0017852783203125
1690841491971207000,1.37820703125,-0.981353759765625,-0.0003509521484375,0.0015106201171875
1690841491981248000,1.388248046875,-0.981109619140625,-0.00067138671875,0.002044677734375
1690841491991317800,1.39831787109375,-0.98065185546875,-0.0000152587890625,0.0019683837890625
1690841492001358800,1.40835888671875,-0.9809417724609375,-0.000518798828125,0.0016021728515625
1690841492011399000,1.41839892578125,-0.9808349609375,-0.0000457763671875,0.0009613037109375
1690841492021438700,1.428438720703125,-0.9807281494140625,0.0007171630859375,0.0009765625
1690841492031479800,1.438479736328125,-0.980804443359375,0.000579833984375,0.0016937255859375
1690841492041519900,1.448519775390625,-0.9810028076171875,0.00115966796875,0.0013427734375
1690841492051559700,1.4585595703125,-0.9808349609375,0.001220703125,0.001739501953125
1690841492061599700,1.468599853515625,-0.98175048828125,0.00018310546875,0.001861572265625
1690841492071640800,1.478640869140625,-0.9806365966796875,0.0002899169921875,0.001556396484375
1690841492081681000,1.488680908203125,-0.981292724609375,-0.000732421875,0.00177001953125
1690841492091720700,1.498720703125,-0.980682373046875,0.0001068115234375,0.0009307861328125
1690841492101761800,1.50876171875,-0.98046875,0.0010833740234375,0.0007476806640625
1690841492111801900,1.5188017578125,-0.9810028076171875,0.0000762939453125,0.0020904541015625
1690841492121873000,1.528872802734375,-0.9807586669921875,-0.0000457763671875,0.0028076171875
1690841492131912700,1.53891259765625,-0.981170654296875,0.00079345703125,0.0020751953125
1690841492141952800,1.548952880859375,-0.9814300537109375,0.000244140625,0.0012969970703125
1690841492151992800,1.558992919921875,-0.98065185546875,0.000030517578125,0.0009918212890625
1690841492162034000,1.569033935546875,-0.9812774658203125,0.0004119873046875,0.000732421875
1690841492172073700,1.57907373046875,-0.9812774658203125,0.000244140625,0.0011749267578125
1690841492182113800,1.58911376953125,-0.980499267578125,0.0003814697265625,0.001068115234375
1690841492192155000,1.59915478515625,-0.9808807373046875,-0.00018310546875,0.0016021728515625
1690841492202194700,1.609194580078125,-0.980316162109375,-0.00048828125,0.0014801025390625
1690841492212234800,1.61923486328125,-0.9808197021484375,-0.0004425048828125,0.0023345947265625
1690841492222274800,1.62927490234375,-0.9804840087890625,0.0007781982421875,0.0011138916015625
1690841492232316000,1.63931591796875,-0.9808502197265625,0.0006256103515625,0.0015869140625
1690841492242355700,1.649355712890625,-0.9810333251953125,-0.000396728515625,0.0019073486328125
1690841492252426800,1.6594267578125,-0.9811859130859375,0.0001678466796875,0.0017852783203125
1690841492262466800,1.669466796875,-0.980621337890625,0.000396728515625,0.0022735595703125
1690841492272506600,1.679506591796875,-0.981475830078125,0.0009765625,0.0015411376953125
1690841492282547700,1.689547607421875,-0.98114013671875,-0.0001983642578125,0.0018768310546875
1690841492292587800,1.699587890625,-0.980743408203125,0.000030517578125,0.0019378662109375
1690841492302627800,1.7096279296875,-0.9814605712890625,0.000274658203125,0.0012969970703125
1690841492312668000,1.71966796875,-0.9814300537109375,-0.0001373291015625,0.00146484375
1690841492322708700,1.729708740234375,-0.98162841796875,0.0000152587890625,0.001983642578125
1690841492332748800,1.739748779296875,-0.9803924560546875,0.000396728515625,0.0021820068359375
1690841492342788600,1.74978857421875,-0.9805908203125,0.00030517578125,0.001922607421875
1690841492352829700,1.75982958984375,-0.9813079833984375,0.000762939453125,0.0016937255859375
1690841492362869800,1.769869873046875,-0.9806365966796875,0.0004730224609375,0.0014190673828125
1690841492372909800,1.779909912109375,-0.981475830078125,0.0001220703125,0.0017852783203125
1690841492382980900,1.78998095703125,-0.9810791015625,0.000274658203125,0.001373291015625
1690841492393021000,1.80002099609375,-0.979827880859375,0.00030517578125,0.00177001953125
1690841492403061800,1.810061767578125,-0.980377197265625,0.0001220703125,0.001708984375
1690841492413101800,1.820101806640625,-0.9808197021484375,-0.0001220703125,0.00140380859375
1690841492423141600,1.8301416015625,-0.981231689453125,-0.00048828125,0.0018157958984375
1690841492433181700,1.840181640625,-0.9810791015625,-0.0006103515625,0.001373291015625
1690841492443222800,1.850222900390625,-0.980987548828125,-0.000030517578125,0.0014190673828125
1690841492453245400,1.860245361328125,-0.979766845703125,0.00030517578125,0.000885009765625
1690841492463285500,1.870285400390625,-0.980377197265625,0.00048828125,0.001861572265625
1690841492473326300,1.880326416015625,-0.9802093505859375,0.0005950927734375,0.00177001953125
1690841492483366400,1.890366455078125,-0.980712890625,-0.0003814697265625,0.0011749267578125
1690841492493406200,1.90040625,-0.98052978515625,-0.0003662109375,0.0019073486328125
1690841492503446300,1.9104462890625,-0.9810943603515625,0.000518798828125,0.0028533935546875
1690841492513517300,1.920517333984375,-0.98095703125,0.000244140625,0.0016326904296875
1690841492523557400,1.930557373046875,-0.9812774658203125,-0.0006103515625,0.0015411376953125
1690841492533598500,1.940598388671875,-0.9816741943359375,0.0005340576171875,0.001007080078125
1690841492543638500,1.950638427734375,-0.9821929931640625,0.000579833984375,0.0018310546875
1690841492553678300,1.96067822265625,-0.9814605712890625,-0.0001220703125,0.0021209716796875
1690841492563719200,1.97071923828125,-0.9812469482421875,-0.000457763671875,0.00201416015625
1690841492573759200,1.98075927734375,-0.9813232421875,-0.0003509521484375,0.001678466796875
1690841492583799300,1.99079931640625,-0.9807281494140625,0.0001983642578125,0.001556396484375
1690841492593839400,2.00083935546875,-0.9806365966796875,0.0004119873046875,0.00079345703125
1690841492603880400,2.01088037109375,-0.9811248779296875,-0.0001373291015625,0.00103759765625
1690841492613920500,2.02092041015625,-0.9815673828125,0.0005645751953125,0.0011749267578125
1690841492623960600,2.030960693359375,-0.9812469482421875,0.000213623046875,0.002044677734375
1690841492634001400,2.04100146484375,-0.9810028076171875,-0.000701904296875,0.001953125
1690841492644071400,2.051071533203125,-0.9815826416015625,0.0003204345703125,0.0025177001953125
1690841492654112300,2.0611123046875,-0.980987548828125,0.00006103515625,0.001953125
1690841492664152300,2.07115234375,-0.980499267578125,-0.000396728515625,0.0013885498046875
1690841492674192400,2.0811923828125,-0.98162841796875,-0.000457763671875,0.002655029296875
1690841492684233500,2.0912333984375,-0.98126220703125,-0.0005950927734375,0.0016326904296875
1690841492694273500,2.1012734375,-0.981201171875,-0.0002288818359375,0.0013427734375
1690841492704313300,2.111313232421875,-0.9810943603515625,-0.0001068115234375,0.001373291015625
1690841492714353400,2.121353515625,-0.980712890625,0.000335693359375,0.0011749267578125
1690841492724394200,2.131394287109375,-0.9820556640625,0.0009613037109375,0.001495361328125
1690841492734434300,2.141434326171875,-0.9815216064453125,0.0001068115234375,0.0016632080078125
1690841492744474400,2.151474365234375,-0.9811248779296875,0.0004119873046875,0.00189208984375
1690841492754515500,2.161515380859375,-0.98101806640625,0.000030517578125,0.0006866455078125
1690841492764555500,2.171555419921875,-0.9824371337890625,0.000335693359375,0.0012969970703125
1690841492774626600,2.18162646484375,-0.981475830078125,-0.000518798828125,0.00152587890625
1690841492784666400,2.191666259765625,-0.9808349609375,0.0001983642578125,0.0003662109375
1690841492794706400,2.20170654296875,-0.9810333251953125,0.0005645751953125,0.0010528564453125
1690841492804746500,2.21174658203125,-0.9812774658203125,0.00018310546875,0.001556396484375
1690841492814787300,2.221787353515625,-0.9814910888671875,0.0002899169921875,0.0010833740234375
1690841492824827400,2.231827392578125,-0.9808807373046875,0.000213623046875,0.0014190673828125
1690841492834867500,2.241867431640625,-0.981109619140625,-0.00018310546875,0.0018310546875
1690841492844908500,2.251908447265625,-0.980316162109375,0.0001220703125,0.00152587890625
1690841492854948400,2.2619482421875,-0.9813079833984375,0.0005035400390625,0.0020294189453125
1690841492864988400,2.271988525390625,-0.9817047119140625,0.0003509521484375,0.0024566650390625
1690841492875028500,2.282028564453125,-0.9814605712890625,0,0.0017852783203125
1690841492885069300,2.2920693359375,-0.980926513671875,-0.0004730224609375,0.001953125
1690841492895109400,2.302109375,-0.9808502197265625,-0.000274658203125,0.0022735595703125
1690841492905149400,2.3121494140625,-0.98101806640625,0.00048828125,0.00128173828125
1690841492915220200,2.32222021484375,-0.981231689453125,-0.000030517578125,0.0014495849609375
1690841492925260300,2.33226025390625,-0.980560302734375,-0.00030517578125,0.0013275146484375
1690841492935301400,2.34230126953125,-0.9808807373046875,0.00042724609375,0.0020904541015625
1690841492945341400,2.352341552734375,-0.9818572998046875,0.0003662109375,0.0020599365234375
1690841492955381500,2.362381591796875,-0.9810028076171875,0.00042724609375,0.0015106201171875
1690841492965421300,2.37242138671875,-0.9818878173828125,-0.0006256103515625,0.001068115234375
1690841492975462400,2.38246240234375,-0.981414794921875,-0.000244140625,0.0015716552734375
1690841492985502500,2.39250244140625,-0.981201171875,-0.000091552734375,0.001922607421875
1690841492995542300,2.402542236328125,-0.98089599609375,0.000579833984375,0.001861572265625
1690841493005583400,2.412583251953125,-0.98089599609375,0.0002288818359375,0.0013275146484375
1690841493015623400,2.42262353515625,-0.9817047119140625,0.0001983642578125,0.001495361328125
1690841493025663500,2.43266357421875,-0.9820098876953125,0.0001220703125,0.0013427734375
1690841493035703300,2.442703369140625,-0.9816131591796875,-0.0003509521484375,0.0016326904296875
1690841493045774300,2.4527744140625,-0.98095703125,0.0000457763671875,0.000885009765625
1690841493055815400,2.4628154296875,-0.98052978515625,0.000885009765625,0.0009918212890625
1690841493065855200,2.472855224609375,-0.980560302734375,0.000213623046875,0.0021209716796875
1690841493075895300,2.482895263671875,-0.981903076171875,-0.0001068115234375,0.0011749267578125
1690841493085935400,2.492935302734375,-0.9811248779296875,0.000244140625,0.00079345703125
1690841493095976400,2.5029765625,-0.9815216064453125,-0.00048828125,0.0012664794921875
1690841493106016500,2.5130166015625,-0.98291015625,-0.00006103515625,0.001983642578125
1690841493116056300,2.523056396484375,-0.980987548828125,0.0007476806640625,0.001190185546875
1690841493126097400,2.533097412109375,-0.9807891845703125,0.000213623046875,0.00128173828125
1690841493136137500,2.543137451171875,-0.981170654296875,0.0003509521484375,0.0015716552734375
1690841493146177300,2.55317724609375,-0.98077392578125,0.0005035400390625,0.0020294189453125
1690841493156217300,2.56321728515625,-0.9812774658203125,0.0002593994140625,0.0014801025390625
1690841493166258400,2.573258544921875,-0.9819183349609375,-0.000091552734375,0.0013885498046875
1690841493176328400,2.583328369140625,-0.98211669921875,0.000579833984375,0.0009002685546875
1690841493186369500,2.59336962890625,-0.9813995361328125,0.0004425048828125,0.0018768310546875
1690841493196409300,2.603409423828125,-0.98101806640625,-0.0000762939453125,0.0016937255859375
1690841493206449200,2.61344921875,-0.9816741943359375,0.000701904296875,0.0017547607421875
1690841493216490200,2.623490234375,-0.9806365966796875,0,0.000823974609375
1690841493226530300,2.6335302734375,-0.9810333251953125,0.0001373291015625,0.0013885498046875
1690841493236570400,2.6435703125,-0.9813079833984375,0.000274658203125,0.001708984375
1690841493246610400,2.6536103515625,-0.9801483154296875,-0.0001373291015625,0.0013885498046875
1690841493256651500,2.663651611328125,-0.9813232421875,-0.000274658203125,0.00177001953125
1690841493266691300,2.67369140625,-0.981903076171875,-0.0002593994140625,0.0020904541015625
1690841493276731400,2.6837314453125,-0.982147216796875,0.0003662109375,0.0014801025390625
1690841493286772500,2.6937724609375,-0.9811553955078125,-0.000244140625,0.0018157958984375
1690841493296812300,2.703812255859375,-0.980682373046875,-0.0001983642578125,0.00152587890625
1690841493306883300,2.71388330078125,-0.9816436767578125,0.0002593994140625,0.00146484375
1690841493316923400,2.72392333984375,-0.980926513671875,0.0001678466796875,0.0028228759765625
1690841493326963500,2.73396337890625,-0.9806365966796875,-0.0006256103515625,0.0015106201171875
1690841493337004500,2.744004638671875,-0.98126220703125,-0.0003509521484375,0.0023651123046875
1690841493347044400,2.75404443359375,-0.98089599609375,0.0000152587890625,0.0014190673828125
1690841493357084200,2.764084228515625,-0.9812469482421875,-0.00048828125,0.001556396484375
1690841493367124200,2.774124267578125,-0.980865478515625,-0.00115966796875,0.002716064453125
1690841493377165300,2.784165283203125,-0.9818878173828125,-0.00091552734375,0.0015106201171875
1690841493387205400,2.794205322265625,-0.9813079833984375,0.00006103515625,0.001251220703125
1690841493397245400,2.804245361328125,-0.9808807373046875,0.000274658203125,0.0022125244140625
1690841493407286500,2.81428662109375,-0.9826812744140625,-0.000091552734375,0.0013580322265625
1690841493417326300,2.824326416015625,-0.98260498046875,-0.0001678466796875,0.001373291015625
1690841493427366400,2.834366455078125,-0.980682373046875,0.0006561279296875,0.0023956298828125
1690841493437437200,2.844437255859375,-0.98187255859375,-0.000091552734375,0.00140380859375
1690841493447477200,2.854477294921875,-0.9811859130859375,-0.0000457763671875,0.0012054443359375
1690841493457522400,2.8645224609375,-0.981781005859375,0.0001220703125,0.001953125
1690841493467563300,2.874563232421875,-0.981689453125,-0.0001068115234375,0.00140380859375
1690841493477603000,2.88460302734375,-0.9807891845703125,0.000335693359375,0.0013275146484375
1690841493487643100,2.89464306640625,-0.980865478515625,0.0001220703125,0.0021209716796875
1690841493497684200,2.904684326171875,-0.98126220703125,0.0002899169921875,0.0016937255859375
1690841493507724300,2.914724365234375,-0.9807281494140625,0.00048828125,0.001739501953125
1690841493517764400,2.924764404296875,-0.9808807373046875,-0.0000457763671875,0.0018157958984375
1690841493527804400,2.934804443359375,-0.9804534912109375,0.0002288818359375,0.0014495849609375
1690841493537845200,2.94484521484375,-0.9805755615234375,0.0009002685546875,0.0010833740234375
1690841493547885000,2.954885009765625,-0.9809417724609375,0.00030517578125,0.0014190673828125
1690841493557925000,2.964925048828125,-0.9818267822265625,0.000152587890625,0.0014495849609375
1690841493567996200,2.97499609375,-0.9814300537109375,-0.0003662109375,0.001312255859375
1690841493578036200,2.9850361328125,-0.9813995361328125,-0.00030517578125,0.00103759765625
1690841493588077300,2.995077392578125,-0.9817047119140625,-0.00018310546875,0.0012664794921875
1690841493598117400,3.005117431640625,-0.98126220703125,-0.0003204345703125,0.0018157958984375
1690841493608157400,3.015157470703125,-0.981597900390625,0.0001678466796875,0.0016326904296875
1690841493618197200,3.025197265625,-0.9816741943359375,-0.0001068115234375,0.000946044921875
1690841493628238000,3.035238037109375,-0.98199462890625,0.0002899169921875,0.00152587890625
1690841493638278100,3.045278076171875,-0.9821929931640625,0.0001220703125,0.0009307861328125
1690841493648318200,3.055318115234375,-0.9809417724609375,0.00030517578125,0.00146484375
1690841493658359300,3.065359375,-0.9813995361328125,0.000946044921875,0.002105712890625
1690841493668399400,3.0753994140625,-0.9804534912109375,0.000396728515625,0.001251220703125
1690841493678439400,3.085439453125,-0.9805755615234375,-0.0001068115234375,0.0011138916015625
1690841493688479200,3.095479248046875,-0.981292724609375,0.000732421875,0.001312255859375
1690841493698550300,3.10555029296875,-0.98052978515625,0.0006256103515625,0.001556396484375
1690841493708591000,3.115591064453125,-0.9817657470703125,0.000457763671875,0.00115966796875
1690841493718631200,3.125631103515625,-0.98223876953125,-0.000030517578125,0.0007476806640625
1690841493728671200,3.135671142578125,-0.9826202392578125,0.000518798828125,0.0016632080078125
1690841493738711300,3.145711181640625,-0.98162841796875,0.0007171630859375,0.0012054443359375
1690841493748752400,3.15575244140625,-0.9810638427734375,0.0004119873046875,0.001800537109375
1690841493758792400,3.16579248046875,-0.9810638427734375,0,0.0015869140625
1690841493768832300,3.175832275390625,-0.9819488525390625,0.0002593994140625,0.0014801025390625
1690841493778873000,3.185873046875,-0.981170654296875,0.0008087158203125,0.0017547607421875
1690841493788913200,3.1959130859375,-0.98162841796875,0.0003814697265625,0.00238037109375
1690841493798953200,3.205953125,-0.981536865234375,0.0006866455078125,0.0025177001953125
1690841493808993300,3.2159931640625,-0.980926513671875,0.00048828125,0.00152587890625
1690841493819034400,3.226034423828125,-0.98028564453125,0.000396728515625,0.0007476806640625
1690841493829104000,3.236104248046875,-0.9808349609375,0,0.0015106201171875
1690841493839145200,3.246145263671875,-0.98150634765625,0.000640869140625,0.0018463134765625
1690841493849185300,3.256185302734375,-0.981597900390625,0.0008392333984375,0.0008697509765625
1690841493859225300,3.266225341796875,-0.9814453125,-0.0001068115234375,0.0015869140625
1690841493869266200,3.27626611328125,-0.982025146484375,0.0004425048828125,0.00189208984375
1690841493879306200,3.28630615234375,-0.981689453125,-0.0005340576171875,0.001556396484375
1690841493889346300,3.29634619140625,-0.9814453125,0.0005340576171875,0.0018463134765625
1690841493899386400,3.306386474609375,-0.9814300537109375,-0.0001678466796875,0.0022735595703125
1690841493909427500,3.316427490234375,-0.9813232421875,0.00054931640625,0.0014190673828125
1690841493919467300,3.32646728515625,-0.980987548828125,-0.0001983642578125,0.0019378662109375
1690841493929507300,3.33650732421875,-0.9807281494140625,-0.0000457763671875,0.0013580322265625
1690841493939548200,3.346548095703125,-0.980712890625,-0.0004425048828125,0.001251220703125
1690841493949588200,3.356588134765625,-0.9813079833984375,0.000701904296875,0.002044677734375
1690841493959659300,3.3666591796875,-0.9808502197265625,0.000823974609375,0.0018768310546875
1690841493969699300,3.37669921875,-0.980987548828125,0.0003814697265625,0.0011749267578125
1690841493979739100,3.3867392578125,-0.981658935546875,0.0009613037109375,0.0015716552734375
1690841493989780200,3.3967802734375,-0.98077392578125,-0.000244140625,0.001373291015625
1690841493999820300,3.4068203125,-0.9815216064453125,0.0002288818359375,0.002105712890625
1690841494009860400,3.4168603515625,-0.9808197021484375,0.0001068115234375,0.002471923828125
1690841494019900400,3.426900390625,-0.9801025390625,0.0005950927734375,0.0024261474609375
1690841494029941200,3.436941162109375,-0.9807586669921875,0.00048828125,0.0020751953125
1690841494039981300,3.446981201171875,-0.9809722900390625,-0.0009765625,0.001251220703125
1690841494050021400,3.457021484375,-0.981536865234375,0.0001220703125,0.0010986328125
1690841494060061200,3.467061279296875,-0.9814910888671875,0.00042724609375,0.0010986328125
1690841494070102300,3.477102294921875,-0.9812469482421875,0.000274658203125,0.0012969970703125
1690841494080142300,3.487142333984375,-0.9813690185546875,-0.0001373291015625,0.0016326904296875
1690841494090213400,3.49721337890625,-0.9820404052734375,0.000152587890625,0.0016937255859375
1690841494100253400,3.50725341796875,-0.9808197021484375,-0.000213623046875,0.001556396484375
1690841494110293500,3.51729345703125,-0.9805908203125,-0.0005340576171875,0.0020294189453125
1690841494120334300,3.527334228515625,-0.9809417724609375,-0.00006103515625,0.00140380859375
1690841494130374100,3.5373740234375,-0.9810943603515625,-0.0006103515625,0.002410888671875
1690841494140414200,3.547414306640625,-0.981292724609375,-0.0006561279296875,0.0018157958984375
1690841494150455300,3.557455322265625,-0.98150634765625,0.000244140625,0.002197265625
1690841494160495400,3.567495361328125,-0.9816741943359375,0.0004425048828125,0.0017547607421875
1690841494170535400,3.577535400390625,-0.9806365966796875,-0.000274658203125,0.0017547607421875
1690841494180575500,3.587575439453125,-0.9804534912109375,-0.00018310546875,0.000762939453125
1690841494190616300,3.5976162109375,-0.980743408203125,-0.0002288818359375,0.0014801025390625
1690841494200656100,3.60765625,-0.9813079833984375,0.000152587890625,0.001708984375
1690841494210696200,3.6176962890625,-0.9816741943359375,0.0000152587890625,0.00164794921875
1690841494220767200,3.627767333984375,-0.981201171875,-0.0000152587890625,0.001922607421875
1690841494230807300,3.637807373046875,-0.9811553955078125,-0.0004119873046875,0.00213623046875
1690841494240848400,3.647848388671875,-0.9816741943359375,0.0003509521484375,0.00091552734375
1690841494250888400,3.657888427734375,-0.98077392578125,0.0007171630859375,0.001617431640625
1690841494260928500,3.667928466796875,-0.9814910888671875,0.0003662109375,0.0020904541015625
1690841494270968300,3.67796826171875,-0.9817657470703125,-0.00006103515625,0.0016632080078125
1690841494281009200,3.688009033203125,-0.9815521240234375,0.0003204345703125,0.0015869140625
1690841494291049200,3.69804931640625,-0.981597900390625,0.000701904296875,0.0015411376953125
1690841494301089300,3.70808935546875,-0.980712890625,-0.0003204345703125,0.001495361328125
1690841494311130400,3.71813037109375,-0.9809112548828125,-0.0001678466796875,0.0014801025390625
1690841494321170400,3.72817041015625,-0.9809112548828125,-0.000732421875,0.0012969970703125
1690841494331210500,3.73821044921875,-0.9171905517578125,-0.018707275390625,-0.02337646484375
1690841494341250300,3.748250244140625,-0.9909820556640625,-0.0392608642578125,0.0371856689453125
1690841494351321300,3.7583212890625,-0.9365386962890625,0.0324859619140625,0.0143585205078125
1690841494361362200,3.768362060546875,-0.975738525390625,0.014984130859375,-0.0345001220703125
1690841494371402200,3.77840234375,-0.9856109619140625,0.0284423828125,0.019866943359375
1690841494381442300,3.7884423828125,-0.972991943359375,0.0103607177734375,0.000762939453125
1690841494391482400,3.798482421875,-0.9812774658203125,0.0123443603515625,0.00323486328125
1690841494401523500,3.8085234375,-0.9759674072265625,0.008697509765625,-0.003143310546875
1690841494411563500,3.8185634765625,-0.9805755615234375,0.0006103515625,-0.00994873046875
1690841494421603300,3.828603271484375,-0.98443603515625,-0.003997802734375,-0.004180908203125
1690841494431644200,3.83864404296875,-0.9794158935546875,-0.00836181640625,0.0005340576171875
1690841494441684200,3.848684326171875,-0.98748779296875,-0.011688232421875,0.007293701171875
1690841494451724300,3.858724365234375,-0.988311767578125,-0.01116943359375,0.00830078125
1690841494461742600,3.86874267578125,-0.983184814453125,-0.0100250244140625,0.0079803466796875
1690841494471783700,3.87878369140625,-0.9808197021484375,-0.0067291259765625,0.0037994384765625
1690841494481853700,3.888853759765625,-0.9878997802734375,-0.0035552978515625,0.0000457763671875
1690841494491894800,3.898894775390625,-0.97650146484375,0.0006866455078125,-0.003875732421875
1690841494501934600,3.9089345703125,-0.976837158203125,0.005035400390625,-0.004119873046875
1690841494511974700,3.918974609375,-0.983428955078125,0.007965087890625,-0.0023956298828125
1690841494522015500,3.929015380859375,-0.9764556884765625,0.009857177734375,0.000640869140625
1690841494532055600,3.9390556640625,-0.9798431396484375,0.0097808837890625,0.0036773681640625
1690841494542095600,3.949095703125,-0.97943115234375,0.007781982421875,0.0053863525390625
1690841494552135700,3.9591357421875,-0.9803009033203125,0.006317138671875,0.0051727294921875
1690841494562176800,3.9691767578125,-0.9820709228515625,0.0028839111328125,0.0038909912109375
1690841494572216600,3.979216552734375,-0.97705078125,-0.000457763671875,0.000701904296875
1690841494582256600,3.989256591796875,-0.9849090576171875,-0.002960205078125,-0.00164794921875
1690841494592297500,3.99929736328125,-0.9819488525390625,-0.0042266845703125,-0.0026092529296875
1690841494602337500,4.009337646484375,-0.9797821044921875,-0.00469970703125,-0.0014190673828125
1690841494612408600,4.01940869140625,-0.9861297607421875,-0.005401611328125,0.0010833740234375
1690841494622448600,4.02944873046875,-0.9828948974609375,-0.0048065185546875,0.002777099609375
1690841494632488700,4.03948876953125,-0.98138427734375,-0.0019378662109375,0.00384521484375
1690841494642529800,4.04952978515625,-0.9840545654296875,0.000946044921875,0.0032196044921875
1690841494652569600,4.059569580078125,-0.979888916015625,0.002410888671875,0.001190185546875
1690841494662609700,4.069609619140625,-0.9812469482421875,0.004638671875,0.001312255859375
1690841494672649700,4.079649658203125,-0.9801025390625,0.0054168701171875,-0.0009765625
1690841494682690600,4.089690673828125,-0.979217529296875,0.0059661865234375,0.0001220703125
1690841494692730600,4.099730712890625,-0.9802398681640625,0.0059814453125,0.0008392333984375
1690841494702770700,4.109770751953125,-0.979248046875,0.003875732421875,0.000946044921875
1690841494712810500,4.119810546875,-0.981201171875,0.00244140625,0.0024871826171875
1690841494722851600,4.1298515625,-0.9825592041015625,0.0012664794921875,0.0030975341796875
1690841494732891600,4.1398916015625,-0.9797821044921875,-0.0013275146484375,0.0023193359375
1690841494742962700,4.149962646484375,-0.9836273193359375,-0.0024261474609375,0.0016937255859375
1690841494753002800,4.160002685546875,-0.9825897216796875,-0.0030364990234375,0.001007080078125
1690841494763042800,4.170042724609375,-0.979949951171875,-0.0028839111328125,-0.0001220703125
1690841494773083600,4.180083740234375,-0.984344482421875,-0.0024566650390625,0.000518798828125
1690841494783123700,4.190123779296875,-0.981536865234375,-0.001495361328125,0.00018310546875
1690841494793163500,4.20016357421875,-0.9806060791015625,0.000396728515625,0.0011444091796875
1690841494803204600,4.21020458984375,-0.9813385009765625,0.002166748046875,0.0021514892578125
1690841494813244700,4.22024462890625,-0.9806060791015625,0.0031585693359375,0.002655029296875
1690841494823284700,4.23028466796875,-0.98193359375,0.0037994384765625,0.0029144287109375
1690841494833324500,4.240324462890625,-0.9798583984375,0.0045928955078125,0.00164794921875
1690841494843365600,4.25036572265625,-0.9802703857421875,0.0034332275390625,0.0006866455078125
1690841494853405700,4.26040576171875,-0.9805450439453125,0.0029296875,-0.0002288818359375
1690841494863445500,4.270445556640625,-0.9794921875,0.0023193359375,-0.0008544921875
1690841494873516500,4.2805166015625,-0.982086181640625,0.0003509521484375,0.0004730224609375
1690841494883556600,4.290556640625,-0.983795166015625,-0.0001678466796875,0.00103759765625
1690841494893597700,4.30059765625,-0.98126220703125,-0.000396728515625,0.00146484375
1690841494903637800,4.3106376953125,-0.9825592041015625,-0.0007476806640625,0.002685546875
1690841494913677600,4.320677490234375,-0.983123779296875,-0.001190185546875,0.0017547607421875
1690841494923717600,4.330717529296875,-0.9814910888671875,-0.0010833740234375,0.0012359619140625
1690841494933758700,4.3407587890625,-0.9818878173828125,0.0003204345703125,0.0022735595703125
1690841494943798500,4.350798583984375,-0.980072021484375,-0.0000152587890625,0.0017242431640625
1690841494953838600,4.360838623046875,-0.9811859130859375,0.0012664794921875,0.0011138916015625
1690841494963879700,4.370879638671875,-0.981292724609375,0.0017242431640625,0.0012664794921875
1690841494973919700,4.380919677734375,-0.979949951171875,0.003326416015625,0.0005645751953125
1690841494983959600,4.39095947265625,-0.981201171875,0.00262451171875,0.001434326171875
1690841494993999600,4.40099951171875,-0.9810943603515625,0.001953125,0.0012664794921875
1690841495004070400,4.4110703125,-0.980712890625,0.0017852783203125,0.0010833740234375
1690841495014111500,4.421111572265625,-0.98052978515625,0.0023193359375,0.0017242431640625
1690841495024151600,4.431151611328125,-0.98052978515625,0.000885009765625,0.0007171630859375
1690841495034191600,4.441191650390625,-0.9818878173828125,0,0.0003814697265625
1690841495044231700,4.451231689453125,-0.9809112548828125,-0.0006866455078125,0.00048828125
1690841495054272800,4.461272705078125,-0.98016357421875,-0.000823974609375,0.001129150390625
1690841495064312600,4.4713125,-0.9828033447265625,0.0002593994140625,0.0006561279296875
1690841495074352600,4.4813525390625,-0.9820709228515625,0.000274658203125,0.0018157958984375
1690841495084393700,4.491393798828125,-0.98126220703125,0.0001220703125,0.001434326171875
1690841495094433500,4.50143359375,-0.9810028076171875,0.000732421875,0.001373291015625
1690841495104473600,4.5114736328125,-0.9803619384765625,0.001739501953125,0.0007171630859375
1690841495114513700,4.521513671875,-0.98077392578125,0.001953125,0.0016937255859375
1690841495124554800,4.5315546875,-0.9811248779296875,0.001739501953125,0.0010223388671875
1690841495134624800,4.541624755859375,-0.98150634765625,0.002227783203125,0.0009613037109375
1690841495144665600,4.55166552734375,-0.9812469482421875,0.0018463134765625,0.0013275146484375
1690841495154705400,4.561705322265625,-0.9803619384765625,0.0009765625,0.00128173828125
1690841495164745500,4.571745361328125,-0.9812164306640625,0.000823974609375,0.000885009765625
1690841495174786600,4.58178662109375,-0.98150634765625,0.00079345703125,0.0013580322265625
1690841495184826600,4.59182666015625,-0.9803924560546875,0.0010223388671875,0.000946044921875
1690841495194866700,4.60186669921875,-0.9816741943359375,0.0008697509765625,0.00054931640625
1690841495204906800,4.61190673828125,-0.9821014404296875,0.0001983642578125,0.000762939453125
1690841495214947600,4.621947509765625,-0.9805908203125,0.000244140625,0.00103759765625
1690841495224987600,4.631987548828125,-0.9819183349609375,0.000640869140625,0.00201416015625
1690841495235027500,4.64202734375,-0.982025146484375,0.0007476806640625,0.0010986328125
1690841495245068500,4.652068603515625,-0.9820709228515625,0.00140380859375,0.001373291015625
1690841495255108600,4.662108642578125,-0.9817962646484375,0.000732421875,0.001312255859375
1690841495265179600,4.6721796875,-0.98095703125,0.001678466796875,0.0012359619140625
1690841495275219700,4.6822197265625,-0.981597900390625,0.001373291015625,0.0018768310546875
1690841495285259800,4.692259765625,-0.9813690185546875,0.0017547607421875,0.0017547607421875
1690841495295300600,4.702300537109375,-0.98187255859375,0.0010223388671875,0.0016632080078125
1690841495305340400,4.71234033203125,-0.980926513671875,0.00103759765625,0.0017547607421875
1690841495315380500,4.72238037109375,-0.98016357421875,0.0013275146484375,0.0010833740234375
1690841495325420500,4.732420654296875,-0.9813995361328125,0.001556396484375,0.0018157958984375
1690841495335461600,4.742461669921875,-0.981781005859375,0.000274658203125,0.001953125
1690841495345501700,4.752501708984375,-0.9815216064453125,0.0001983642578125,0.00140380859375
1690841495355541800,4.762541748046875,-0.981201171875,0.0005035400390625,0.001556396484375
1690841495365581600,4.77258154296875,-0.981201171875,0.000640869140625,0.0014190673828125
1690841495375622400,4.782622314453125,-0.981781005859375,0.000946044921875,0.001007080078125
1690841495385662500,4.792662353515625,-0.980987548828125,0.001068115234375,0.0009002685546875
1690841495395733500,4.8027333984375,-0.9806365966796875,0.0012664794921875,0.0005950927734375
1690841495405773600,4.812773681640625,-0.9819183349609375,0.000701904296875,0.0009765625
1690841495415813600,4.822813720703125,-0.981109619140625,0.0019073486328125,0.000640869140625
1690841495425854700,4.832854736328125,-0.981048583984375,0.0016326904296875,0.00048828125
1690841495435894800,4.842894775390625,-0.980682373046875,0.00115966796875,0.001220703125
1690841495445934600,4.8529345703125,-0.9806671142578125,0.0007476806640625,0.001861572265625
1690841495455983400,4.8629833984375,-0.9803466796875,0.0009765625,0.0018463134765625
1690841495466023400,4.8730234375,-0.981353759765625,0.0009002685546875,0.00115966796875
1690841495476063500,4.8830634765625,-0.980194091796875,0.0023651123046875,0.00140380859375
1690841495486103300,4.893103271484375,-0.9816131591796875,0.0015411376953125,0.0014190673828125
1690841495496144400,4.903144287109375,-0.9799346923828125,0.00140380859375,0.0015106201171875
1690841495506184400,4.913184326171875,-0.9820098876953125,0.000701904296875,0.0018768310546875
1690841495516224500,4.923224609375,-0.981170654296875,0.0003662109375,0.0014495849609375
1690841495526295300,4.93329541015625,-0.9815521240234375,-0.0000152587890625,0.00091552734375
1690841495536335400,4.94333544921875,-0.9806671142578125,0.0013275146484375,0.0005035400390625
1690841495546376400,4.95337646484375,-0.982391357421875,0.00048828125,0.0011749267578125
1690841495556416300,4.963416259765625,-0.981414794921875,0.001068115234375,0.000274658203125
1690841495566456300,4.973456298828125,-0.9820709228515625,0.00103759765625,0.0006866455078125
1690841495576496400,4.983496337890625,-0.9810333251953125,0.001129150390625,0.00091552734375
1690841495586537500,4.993537353515625,-0.9822845458984375,0.00164794921875,0.0009765625
1690841495596577300,5.003577392578125,-0.9812774658203125,0.0011749267578125,0.0010223388671875
1690841495606617300,5.013617431640625,-0.9812469482421875,0.0009613037109375,0.00152587890625
1690841495616658400,5.023658447265625,-0.9810333251953125,0.00146484375,0.00140380859375
1690841495626698500,5.033698486328125,-0.9819183349609375,0.0005645751953125,0.001190185546875
1690841495636738300,5.04373828125,-0.9803466796875,0.0002899169921875,0.0014801025390625
1690841495646778400,5.0537783203125,-0.981842041015625,0.0015869140625,0.001007080078125
1690841495656849400,5.063849365234375,-0.981475830078125,0.001129150390625,0.0009765625
1690841495666890500,5.073890380859375,-0.9806976318359375,0.000762939453125,0.000946044921875
1690841495676930300,5.083930419921875,-0.9806060791015625,0.0006256103515625,0.0006866455078125
1690841495686970400,5.093970458984375,-0.982391357421875,0.0011749267578125,0.0008697509765625
1690841495697010200,5.10401025390625,-0.9813232421875,0.0014495849609375,0.001617431640625
1690841495707051300,5.11405126953125,-0.980865478515625,0.0005645751953125,0.001068115234375
1690841495717091300,5.12409130859375,-0.9809722900390625,0.0010223388671875,0.0007171630859375
1690841495727131400,5.13413134765625,-0.9815826416015625,0.0009613037109375,0.0007171630859375
1690841495737172500,5.14417236328125,-0.981048583984375,0.0014495849609375,0.0006866455078125
1690841495747212300,5.15421240234375,-0.980804443359375,0.001739501953125,0.0020294189453125
1690841495757252400,5.16425244140625,-0.981048583984375,0.0007476806640625,0.00177001953125
1690841495767292200,5.174292236328125,-0.9813995361328125,0.00067138671875,0.0012664794921875
1690841495777333200,5.184333251953125,-0.9810333251953125,0.0008697509765625,-0.0000152587890625
1690841495787403300,5.1944033203125,-0.9820556640625,0.0007476806640625,0.00048828125
1690841495797444400,5.2044443359375,-0.9810638427734375,0.001007080078125,0.000701904296875
1690841495807484400,5.214484375,-0.9812164306640625,0.0003814697265625,0.0010986328125
1690841495817524500,5.2245244140625,-0.9810943603515625,0.000457763671875,-0.000091552734375
1690841495827565300,5.2345654296875,-0.9815673828125,0.0011138916015625,0.000518798828125
1690841495837605400,5.24460546875,-0.980621337890625,0.0009918212890625,0.000579833984375
1690841495847645200,5.254645263671875,-0.981201171875,0.0009613037109375,0.002197265625
1690841495857685200,5.264685302734375,-0.981414794921875,0.0009613037109375,0.002166748046875
1690841495867726300,5.274726318359375,-0.981170654296875,0.0013580322265625,0.0008087158203125
1690841495877766400,5.284766357421875,-0.9806060791015625,0.0012054443359375,0.0011138916015625
1690841495887806500,5.294806396484375,-0.981536865234375,0.0008544921875,0.0010986328125
1690841495897847300,5.304847412109375,-0.9810638427734375,0.001251220703125,0.0001068115234375
1690841495907887400,5.314887451171875,-0.98065185546875,0.00128173828125,0.000701904296875
1690841495917958100,5.324958251953125,-0.980255126953125,0.00091552734375,0.0002288818359375
1690841495927998200,5.334998291015625,-0.98126220703125,0.0010223388671875,-0.0000762939453125
1690841495938038300,5.345038330078125,-0.98211669921875,-0.0001678466796875,0.00054931640625
1690841495948079400,5.355079345703125,-0.9811248779296875,0.000335693359375,0.00079345703125
1690841495958119400,5.365119384765625,-0.9810943603515625,0.001495361328125,0.0013885498046875
1690841495968159500,5.375159423828125,-0.9810791015625,0.0014495849609375,0.0020904541015625
1690841495978199600,5.385199462890625,-0.9810333251953125,0.0006103515625,0.00140380859375
1690841495988240400,5.395240478515625,-0.98089599609375,0.0010986328125,0.000518798828125
1690841495998280200,5.4052802734375,-0.980926513671875,0.001800537109375,0.001068115234375
1690841496008320300,5.4153203125,-0.9814453125,0.00146484375,0.0006256103515625
1690841496018360300,5.4253603515625,-0.98187255859375,0.0006256103515625,0.0003814697265625
1690841496028401400,5.4354013671875,-0.9814910888671875,0.00006103515625,0.00054931640625
1690841496038441500,5.44544140625,-0.98138427734375,0.001312255859375,0.000946044921875
1690841496048512500,5.455512451171875,-0.9816131591796875,0.0012359619140625,0.000946044921875
1690841496058552300,5.46555224609375,-0.9809112548828125,0.0005950927734375,0.0016326904296875
1690841496068592400,5.47559228515625,-0.98046875,0.000732421875,0.0015716552734375
1690841496078633200,5.48563330078125,-0.9814453125,0.001007080078125,0.0016021728515625
1690841496088673300,5.49567333984375,-0.98162841796875,0.0007476806640625,0.0009613037109375
1690841496098713300,5.50571337890625,-0.98052978515625,0.000579833984375,0.0003509521484375
1690841496108754400,5.51575439453125,-0.981597900390625,0.001129150390625,0.001495361328125
1690841496118794500,5.52579443359375,-0.981689453125,0.0009765625,0.0023040771484375
1690841496128834600,5.53583447265625,-0.9806671142578125,0.0011749267578125,0.001129150390625
1690841496138874400,5.545874267578125,-0.9817657470703125,0.000946044921875,0.000701904296875
1690841496148915200,5.555915283203125,-0.9817352294921875,0.00152587890625,0.000885009765625
1690841496158955300,5.565955322265625,-0.980438232421875,0.0022430419921875,0.000885009765625
1690841496168995300,5.575995361328125,-0.9810638427734375,0.0011749267578125,0.001007080078125
1690841496179066400,5.58606640625,-0.980987548828125,0.001373291015625,0.001220703125
1690841496189106400,5.5961064453125,-0.9812164306640625,0.0011138916015625,0.0014495849609375
1690841496199147500,5.6061474609375,-0.98248291015625,0.0011138916015625,0.0016326904296875
1690841496209187300,5.616187255859375,-0.980987548828125,0.0014495849609375,0.0011444091796875
1690841496219227400,5.626227294921875,-0.98126220703125,0.0016326904296875,0.0005950927734375
1690841496229267500,5.636267333984375,-0.9808807373046875,0.0011138916015625,0.001678466796875
1690841496239308300,5.646308349609375,-0.981231689453125,0.0007171630859375,0.0013275146484375
1690841496249348400,5.656348388671875,-0.9811553955078125,0.0015411376953125,0.0004119873046875
1690841496259388400,5.666388427734375,-0.98126220703125,0.001617431640625,0.0014495849609375
1690841496269429500,5.676429443359375,-0.9819793701171875,0.0012359619140625,0.0013275146484375
1690841496279469600,5.686469482421875,-0.980865478515625,0.0010528564453125,0.0008087158203125
1690841496289509400,5.69650927734375,-0.981353759765625,0.001129150390625,0.0014190673828125
1690841496299549400,5.706549560546875,-0.98150634765625,0.0011138916015625,0.001220703125
1690841496309620500,5.716620361328125,-0.9813232421875,0.001220703125,0.001251220703125
1690841496319661300,5.726661376953125,-0.98077392578125,0.0013885498046875,0.0018310546875
1690841496329701400,5.736701416015625,-0.9817657470703125,0.00091552734375,0.001739501953125
1690841496339741400,5.746741455078125,-0.9813690185546875,0.000732421875,0.0010223388671875
1690841496349781200,5.75678125,-0.9820404052734375,0.0009918212890625,0.002197265625
1690841496359822300,5.766822265625,-0.9806976318359375,0.000946044921875,0.0016937255859375
1690841496369862400,5.7768623046875,-0.98040771484375,0.00140380859375,0.0014190673828125
1690841496379902500,5.78690234375,-0.98223876953125,0.0011749267578125,0.0011138916015625
1690841496389943300,5.796943359375,-0.981475830078125,0.0011749267578125,0.000946044921875
1690841496399983400,5.8069833984375,-0.981201171875,0.0008697509765625,0.0006866455078125
1690841496410023400,5.8170234375,-0.98126220703125,0.00128173828125,0.0011138916015625
1690841496420063500,5.8270634765625,-0.981658935546875,0.0016021728515625,0.0012359619140625
1690841496430104600,5.8371044921875,-0.9818878173828125,0.0007781982421875,0.001678466796875
1690841496440174300,5.84717431640625,-0.981597900390625,0.0012969970703125,0.000213623046875
1690841496450215400,5.85721533203125,-0.9817657470703125,0.0010223388671875,0.00079345703125
1690841496460253400,5.86725341796875,-0.98162841796875,0.000885009765625,0.0007781982421875
1690841496470293500,5.87729345703125,-0.9808807373046875,0.0007171630859375,0.0009002685546875
1690841496480334600,5.88733447265625,-0.9813995361328125,0.0018310546875,0.0012359619140625
1690841496490374700,5.897374755859375,-0.9817047119140625,0.000152587890625,0.001129150390625
1690841496500414700,5.907414794921875,-0.981781005859375,0.0009613037109375,0.001129150390625
1690841496510454500,5.91745458984375,-0.9811859130859375,0.0022735595703125,0.001617431640625
1690841496520495400,5.927495361328125,-0.98114013671875,0.0009613037109375,0.001251220703125
1690841496530535400,5.937535400390625,-0.9806671142578125,0.000274658203125,0.0013885498046875
1690841496540575500,5.947575439453125,-0.981170654296875,0.0012054443359375,0.0019378662109375
1690841496550616600,5.957616455078125,-0.9810638427734375,0.001190185546875,0.0013427734375
1690841496560656600,5.96765673828125,-0.98126220703125,0.00042724609375,0.0019989013671875
1690841496570727700,5.977727783203125,-0.981536865234375,0.001434326171875,0.0009918212890625
1690841496580767500,5.987767578125,-0.9808807373046875,0.0012054443359375,0.001312255859375
1690841496590807600,5.9978076171875,-0.980804443359375,0.00115966796875,0.000762939453125
1690841496600848400,6.007848388671875,-0.98223876953125,0.000885009765625,0.001312255859375
1690841496610888400,6.017888427734375,-0.981536865234375,0.001434326171875,0.001739501953125
1690841496620928500,6.027928466796875,-0.9813079833984375,0.0013275146484375,0.0007171630859375
1690841496630968600,6.037968505859375,-0.98114013671875,0.0012054443359375,0.001434326171875
1690841496641009700,6.048009765625,-0.9818115234375,0.0013580322265625,0.001220703125
1690841496651049700,6.0580498046875,-0.9814910888671875,0.0016326904296875,0.0007781982421875
1690841496661089500,6.068089599609375,-0.9811553955078125,0.001312255859375,0.0006561279296875
1690841496671129300,6.07812939453125,-0.9811248779296875,0.001800537109375,0.000274658203125
1690841496681170400,6.08817041015625,-0.980224609375,0.001678466796875,0.0013275146484375
1690841496691210500,6.09821044921875,-0.98114013671875,0.0013580322265625,0.001953125
1690841496701281500,6.108281494140625,-0.98211669921875,0.00140380859375,0.0011444091796875
1690841496711321600,6.118321533203125,-0.981781005859375,0.0014190673828125,0.001251220703125
1690841496721361400,6.128361328125,-0.981781005859375,0.0016021728515625,0.001129150390625
1690841496731402500,6.138402587890625,-0.981964111328125,0.001434326171875,0.001739501953125
1690841496741442600,6.148442626953125,-0.98126220703125,0.0012664794921875,0.001007080078125
1690841496751482400,6.158482421875,-0.9825286865234375,0.0009613037109375,0.0011749267578125
1690841496761523500,6.1685234375,-0.98101806640625,0.000640869140625,0.001220703125
1690841496771563500,6.1785634765625,-0.9813079833984375,0.0008392333984375,0.00091552734375
1690841496781603600,6.188603515625,-0.9819488525390625,0.000396728515625,0.0004119873046875
1690841496791643600,6.1986435546875,-0.981109619140625,0.0008544921875,0.0011749267578125
1690841496801684700,6.208684814453125,-0.9808502197265625,0.0009002685546875,0.0015716552734375
1690841496811724500,6.218724609375,-0.9808349609375,0.0011749267578125,0.00115966796875
1690841496821764400,6.228764404296875,-0.9818878173828125,0.0009918212890625,0.0010833740234375
1690841496831835400,6.23883544921875,-0.982635498046875,0.00146484375,0.0010223388671875
1690841496841875500,6.24887548828125,-0.9817657470703125,0.001617431640625,0.0008544921875
1690841496851916500,6.25891650390625,-0.980133056640625,0.00177001953125,0.0010833740234375
1690841496861956600,6.26895654296875,-0.9812164306640625,0.00115966796875,0.001220703125
1690841496871996400,6.278996337890625,-0.980987548828125,0.00091552734375,0.0016937255859375
1690841496882036500,6.289036376953125,-0.98126220703125,0.001251220703125,0.0019378662109375
1690841496892077600,6.29907763671875,-0.981689453125,0.0006866455078125,0.001556396484375
1690841496902117400,6.309117431640625,-0.98101806640625,0.0012359619140625,0.0017242431640625
1690841496912157400,6.319157470703125,-0.981414794921875,0.00103759765625,0.001739501953125
1690841496922198500,6.329198486328125,-0.981658935546875,0.001007080078125,0.001312255859375
1690841496932238600,6.339238525390625,-0.981536865234375,0.0005340576171875,0.0016021728515625
1690841496942278400,6.3492783203125,-0.98193359375,0.00115966796875,0.0013275146484375
1690841496952318500,6.359318359375,-0.9825592041015625,0.0012359619140625,0.001495361328125
1690841496962389500,6.369389404296875,-0.980926513671875,0.0012664794921875,0.0010833740234375
1690841496972430600,6.3794306640625,-0.9812164306640625,0.00115966796875,0.0011749267578125
1690841496982470400,6.389470458984375,-0.98077392578125,0.001251220703125,0.001312255859375
1690841496992510500,6.399510498046875,-0.981231689453125,0.00164794921875,0.0008087158203125
1690841497002550500,6.409550537109375,-0.9817047119140625,0.0008087158203125,0.001373291015625
1690841497012591600,6.419591552734375,-0.9805145263671875,0.0009918212890625,0.001922607421875
1690841497022631400,6.42963134765625,-0.9815826416015625,0.0005950927734375,0.0009002685546875
1690841497032671500,6.43967138671875,-0.9819183349609375,0.0011749267578125,0.0003662109375
1690841497042712600,6.449712646484375,-0.98193359375,0.0013275146484375,0.000274658203125
1690841497052752400,6.45975244140625,-0.981414794921875,0.0008087158203125,0.001129150390625
1690841497062792400,6.46979248046875,-0.98095703125,0.001434326171875,0.001617431640625
1690841497072832500,6.47983251953125,-0.9805145263671875,0.0015411376953125,0.0012054443359375
1690841497082873600,6.48987353515625,-0.982177734375,0.000152587890625,0.00079345703125
1690841497092943400,6.499943359375,-0.9824676513671875,0.0013427734375,0.0006103515625
1690841497102984400,6.509984375,-0.980316162109375,0.0018463134765625,0.0003509521484375
1690841497113024500,6.5200244140625,-0.9816741943359375,0.0014801025390625,0.001373291015625
1690841497123064600,6.530064697265625,-0.9823455810546875,0.001007080078125,0.001129150390625
1690841497133105400,6.54010546875,-0.981201171875,0.00128173828125,0.0009002685546875
1690841497143145500,6.5501455078125,-0.9818267822265625,0.001220703125,0.0013427734375
1690841497153185500,6.560185546875,-0.9822235107421875,0.0008544921875,0.0008392333984375
1690841497163225300,6.570225341796875,-0.981353759765625,0.00115966796875,0.001129150390625
1690841497173266400,6.580266357421875,-0.9824981689453125,0.00115966796875,0.000946044921875
1690841497183306500,6.590306396484375,-0.9823760986328125,0.001007080078125,0.0005035400390625
1690841497193346600,6.6003466796875,-0.981536865234375,0.0005340576171875,0.0015411376953125
1690841497203387400,6.610387451171875,-0.9808197021484375,0.001129150390625,0.001312255859375
1690841497213427500,6.620427490234375,-0.98199462890625,0.001220703125,0.0010528564453125
1690841497223498500,6.63049853515625,-0.981048583984375,0.0008392333984375,0.00103759765625
1690841497233538300,6.640538330078125,-0.981109619140625,0.001190185546875,0.0018157958984375
1690841497243578400,6.650578369140625,-0.9818878173828125,0.00103759765625,0.0013427734375
1690841497253618400,6.660618408203125,-0.9814605712890625,0.0006561279296875,0.0015106201171875
1690841497263659500,6.670659423828125,-0.9821319580078125,0.0015106201171875,0.0012969970703125
1690841497273699600,6.680699462890625,-0.9811248779296875,0.0011749267578125,0.0005340576171875
1690841497283739600,6.69073974609375,-0.981414794921875,0.0003662109375,0.001434326171875
1690841497293780500,6.700780517578125,-0.981658935546875,0.0012359619140625,0.0013580322265625
1690841497303820500,6.710820556640625,-0.9814605712890625,0.00048828125,0.000946044921875
1690841497313860400,6.7208603515625,-0.9809417724609375,0.0003814697265625,0.0009613037109375
1690841497323900400,6.730900390625,-0.98193359375,0.0012664794921875,0.0014801025390625
1690841497333941500,6.74094140625,-0.9828948974609375,0.001373291015625,0.0010986328125
1690841497343981600,6.750981689453125,-0.98211669921875,0.0015869140625,0.0013580322265625
1690841497354052600,6.761052490234375,-0.9820556640625,0.001190185546875,0.0010833740234375
1690841497364092700,6.7710927734375,-0.9828033447265625,0.0013427734375,0.0014801025390625
1690841497374132500,6.781132568359375,-0.9821929931640625,0.0009613037109375,0.0016326904296875
1690841497384173300,6.79117333984375,-0.9808349609375,0.0012359619140625,0.0007171630859375
1690841497394213400,6.80121337890625,-0.9805908203125,0.0006561279296875,0.001556396484375
1690841497404253400,6.81125341796875,-0.9813995361328125,0.001068115234375,0.001434326171875
1690841497414294500,6.82129443359375,-0.981353759765625,0.0013427734375,0.0011444091796875
1690841497424334600,6.83133447265625,-0.98126220703125,0.000885009765625,0.0013885498046875
1690841497434374700,6.841374755859375,-0.98211669921875,0.0012359619140625,0.001983642578125
1690841497444414700,6.851414794921875,-0.9815521240234375,0.000946044921875,0.0019378662109375
1690841497454455600,6.86145556640625,-0.9808807373046875,0.0008697509765625,0.0014801025390625
1690841497464481000,6.87148095703125,-0.9813079833984375,0.0009765625,0.0018310546875
1690841497474521000,6.88152099609375,-0.9816436767578125,0.0006866455078125,0.0017547607421875
1690841497484592000,6.891592041015625,-0.9818878173828125,0.000946044921875,0.0011444091796875
1690841497494632200,6.901632080078125,-0.9817657470703125,0.0010223388671875,0.001312255859375
1690841497504673300,6.91167333984375,-0.9815521240234375,0.0015716552734375,0.001800537109375
1690841497514713300,6.92171337890625,-0.9812774658203125,0.0004119873046875,0.00146484375
1690841497524753200,6.931753173828125,-0.9810028076171875,0.00048828125,0.00054931640625
1690841497534793200,6.941793212890625,-0.9811553955078125,0.0004119873046875,0.0006561279296875
1690841497544834000,6.951833984375,-0.9805755615234375,0.00152587890625,0.0013427734375
1690841497554874000,6.9618740234375,-0.981658935546875,0.0015869140625,0.001708984375
1690841497564914200,6.9719140625,-0.98126220703125,0.00146484375,0.001495361328125
1690841497574955300,6.981955322265625,-0.9808807373046875,0.001190185546875,0.001220703125
1690841497584995300,6.991995361328125,-0.9817352294921875,0.0011749267578125,0.00146484375
1690841497595035100,7.00203515625,-0.982513427734375,0.0005340576171875,0.001312255859375
1690841497605075200,7.0120751953125,-0.9820709228515625,0.001068115234375,0.001373291015625
1690841497615146200,7.022146240234375,-0.981536865234375,0.001129150390625,0.000885009765625
1690841497625187000,7.03218701171875,-0.9810028076171875,0.00140380859375,0.00091552734375
1690841497635227100,7.04222705078125,-0.982391357421875,0.0009765625,0.00128173828125
1690841497645267200,7.05226708984375,-0.9821929931640625,0.000762939453125,0.001861572265625
1690841497655307000,7.06230712890625,-0.981536865234375,0.0010986328125,0.0017547607421875
1690841497665348000,7.07234814453125,-0.981842041015625,0.0013885498046875,0.001800537109375
1690841497675388200,7.08238818359375,-0.9817352294921875,0.0006866455078125,0.0015411376953125
1690841497685428200,7.09242822265625,-0.9814453125,0.0007781982421875,0.001068115234375
1690841497695469000,7.102468994140625,-0.981475830078125,0.0006103515625,0.00079345703125
1690841497705509000,7.112509033203125,-0.982147216796875,0.00048828125,0.001007080078125
1690841497715549200,7.122549072265625,-0.9823150634765625,0.0012054443359375,0.0012969970703125
1690841497725589200,7.13258935546875,-0.9819183349609375,0.0000152587890625,0.0019989013671875
1690841497735630300,7.14263037109375,-0.9821014404296875,0.000640869140625,0.0015411376953125
1690841497745700000,7.1527001953125,-0.9817962646484375,0.00146484375,0.0023040771484375
1690841497755741200,7.1627412109375,-0.9816131591796875,0.00140380859375,0.001190185546875
1690841497765781200,7.17278125,-0.98193359375,0.000946044921875,0.000579833984375
1690841497775821300,7.1828212890625,-0.98101806640625,0.00103759765625,0.000885009765625
1690841497785862100,7.192862060546875,-0.980194091796875,0.0011444091796875,0.0002899169921875
1690841497795902200,7.202902099609375,-0.981170654296875,0.001434326171875,0.0008392333984375
1690841497805942000,7.21294189453125,-0.982086181640625,0.0013885498046875,0.001800537109375
1690841497815982000,7.222982177734375,-0.9818267822265625,0.0018463134765625,0.0012359619140625
1690841497826023200,7.233023193359375,-0.9816436767578125,0.0008697509765625,0.0012359619140625
1690841497836063200,7.243063232421875,-0.9818115234375,0.000091552734375,0.0015411376953125
1690841497846103300,7.253103271484375,-0.9813690185546875,0.00146484375,0.000885009765625
1690841497856144100,7.26314404296875,-0.9806976318359375,0.001129150390625,0.0009918212890625
1690841497866184200,7.27318408203125,-0.981292724609375,0.0009307861328125,0.00079345703125
1690841497876255200,7.283255126953125,-0.9816131591796875,0.0015716552734375,0.0014190673828125
1690841497886295000,7.293294921875,-0.9818572998046875,0.0017852783203125,0.000732421875
1690841497896335000,7.303335205078125,-0.982086181640625,0.001007080078125,0.0009002685546875
1690841497906375200,7.313375244140625,-0.980560302734375,0.00140380859375,0.00079345703125
1690841497916416300,7.323416259765625,-0.9813690185546875,0.0013275146484375,0.0012969970703125
1690841497926456300,7.333456298828125,-0.981658935546875,0.00054931640625,0.0010833740234375
1690841497936496400,7.343496337890625,-0.981781005859375,0.0013885498046875,0.0015411376953125
1690841497946537200,7.353537109375,-0.9819183349609375,0.00091552734375,0.001983642578125
1690841497956577000,7.363576904296875,-0.9813690185546875,0.0010528564453125,0.001434326171875
1690841497966617000,7.3736171875,-0.9815826416015625,0.0012969970703125,0.001129150390625
1690841497976657200,7.3836572265625,-0.9815826416015625,0.0012664794921875,0.0010833740234375
1690841497986698200,7.3936982421875,-0.9805755615234375,0.001434326171875,0.0010528564453125
1690841497996738300,7.40373828125,-0.981781005859375,0.001190185546875,0.0016632080078125
1690841498006809300,7.413809326171875,-0.9814453125,0.0013580322265625,0.0014495849609375
1690841498016849200,7.42384912109375,-0.9818115234375,0.001007080078125,0.0015716552734375
1690841498026889000,7.433888916015625,-0.981292724609375,0.000732421875,0.0011444091796875
1690841498036930000,7.443929931640625,-0.98095703125,0.001556396484375,0.0006103515625
1690841498046970000,7.45397021484375,-0.981414794921875,0.0011138916015625,0.0012969970703125
1690841498057010200,7.46401025390625,-0.980682373046875,0.001495361328125,0.0012969970703125
1690841498067051300,7.47405126953125,-0.9816131591796875,0.001312255859375,0.0008392333984375
1690841498077091300,7.48409130859375,-0.9812469482421875,0.00091552734375,0.001251220703125
1690841498087131100,7.494131103515625,-0.9804229736328125,0.0008392333984375,0.00054931640625
1690841498097171000,7.5041708984375,-0.9805755615234375,0.0011749267578125,0.0012969970703125
1690841498107212000,7.5142119140625,-0.9814300537109375,0.0008697509765625,0.0019073486328125
1690841498117252000,7.524252197265625,-0.9813385009765625,0.000396728515625,0.00146484375
1690841498127292200,7.534292236328125,-0.981536865234375,0.0006866455078125,0.00115966796875
1690841498137363200,7.54436328125,-0.9809112548828125,0.0012664794921875,0.0015869140625
1690841498147403300,7.5544033203125,-0.9813232421875,0.001617431640625,0.0018157958984375
1690841498157444400,7.5644443359375,-0.9809417724609375,0.001251220703125,0.0015716552734375
1690841498167484200,7.574484130859375,-0.9816436767578125,0.000640869140625,0.0018768310546875
1690841498177524000,7.58452392578125,-0.981048583984375,0.0004425048828125,0.001434326171875
1690841498187564000,7.59456396484375,-0.9817352294921875,0.0009765625,0.001068115234375
1690841498197605000,7.604605224609375,-0.9814605712890625,0.001007080078125,0.001190185546875
1690841498207645200,7.614645263671875,-0.980987548828125,0.0024261474609375,0.0009613037109375
1690841498217685200,7.624685302734375,-0.9806671142578125,0.0022125244140625,0.0009918212890625
1690841498227726300,7.634726318359375,-0.98138427734375,0.002044677734375,0.001190185546875
1690841498237766100,7.64476611328125,-0.9814605712890625,0.0009918212890625,0.001708984375
1690841498247806000,7.654805908203125,-0.9805450439453125,0.000701904296875,0.0006866455078125
1690841498257846000,7.664845947265625,-0.980926513671875,0.0012054443359375,0.0019378662109375
1690841498267917000,7.6749169921875,-0.9810333251953125,0.001068115234375,0.0013885498046875
1690841498277958100,7.684958251953125,-0.98175048828125,0.0012054443359375,0.00054931640625
1690841498287998200,7.694998291015625,-0.98321533203125,0.00128173828125,0.0014190673828125
1690841498298038300,7.705038330078125,-0.9809722900390625,0.001434326171875,0.001220703125
1690841498308078000,7.715078125,-0.980926513671875,0.0013580322265625,0.0010223388671875
1690841498318119200,7.725119140625,-0.98126220703125,0.001068115234375,0.0008087158203125
1690841498328159000,7.735158935546875,-0.9820556640625,0.0004730224609375,0.001220703125
1690841498338199000,7.745198974609375,-0.9824676513671875,0.0014801025390625,0.001190185546875
1690841498348240100,7.755240234375,-0.9830322265625,0.0005340576171875,0.001953125
1690841498358280200,7.7652802734375,-0.9820709228515625,0.000701904296875,0.00177001953125
1690841498368320300,7.7753203125,-0.9808502197265625,0.0006561279296875,0.0007476806640625
1690841498378360300,7.7853603515625,-0.981170654296875,0.0004425048828125,0.00079345703125
1690841498388401200,7.795401123046875,-0.982025146484375,0.0011138916015625,0.001617431640625
1690841498398471200,7.80547119140625,-0.9819183349609375,0.0012664794921875,0.0012664794921875
1690841498408512000,7.815511962890625,-0.9819793701171875,0.0012054443359375,0.000946044921875
1690841498418552000,7.825552001953125,-0.981597900390625,0.00067138671875,0.00115966796875
1690841498428592000,7.835592041015625,-0.9812469482421875,0.00079345703125,0.0016937255859375
1690841498438633200,7.84563330078125,-0.9598541259765625,-0.0330810546875,-0.0010223388671875
1690841498448673300,7.85567333984375,-1.082366943359375,-0.0794830322265625,0.026275634765625
1690841498458707500,7.86570751953125,-0.9257049560546875,0.071563720703125,0.0009307861328125
1690841498468747300,7.875747314453125,-0.9722137451171875,0.0388031005859375,-0.0103302001953125
1690841498478788400,7.885788330078125,-0.975006103515625,0.0416717529296875,-0.00933837890625
1690841498488828400,7.895828369140625,-0.9456634521484375,0.055419921875,-0.0005340576171875
1690841498498868500,7.905868408203125,-0.9995880126953125,0.02911376953125,0.0000457763671875
1690841498508909600,7.91590966796875,-0.9578399658203125,-0.002716064453125,-0.008636474609375
1690841498518949600,7.92594970703125,-1.0022125244140625,-0.0193939208984375,0.0019378662109375
1690841498529020400,7.9360205078125,-0.9813079833984375,0.00048828125,0.00653076171875
1690841498539060500,7.946060546875,-0.978485107421875,-0.00018310546875,-0.003326416015625
1690841498549100300,7.956100341796875,-0.9933319091796875,-0.0325164794921875,0.0038604736328125
1690841498559140400,7.966140380859375,-0.992950439453125,-0.03045654296875,0.0121612548828125
1690841498569181400,7.976181396484375,-0.9833526611328125,-0.0186309814453125,-0.0048370361328125
1690841498579221500,7.986221435546875,-0.9857025146484375,-0.018157958984375,0.0009765625
1690841498589261600,7.996261474609375,-0.98724365234375,-0.0111846923828125,-0.0017242431640625
1690841498599302700,8.006302734375,-0.9809112548828125,-0.00323486328125,-0.0045928955078125
1690841498609342500,8.016342529296875,-0.9806976318359375,-0.003204345703125,-0.0007781982421875
1690841498619382300,8.02638232421875,-0.9845733642578125,0.007965087890625,0.0053253173828125
1690841498629422300,8.03642236328125,-0.97113037109375,0.0186004638671875,-0.002410888671875
1690841498639463400,8.04646337890625,-0.98175048828125,0.020233154296875,0.0038909912109375
1690841498649503500,8.05650341796875,-0.9720306396484375,0.0203857421875,0.0040130615234375
1690841498659574500,8.066574462890625,-0.979034423828125,0.0209808349609375,0.0013885498046875
1690841498669614300,8.0766142578125,-0.977142333984375,0.0171051025390625,0.0013275146484375
1690841498679654400,8.086654296875,-0.9736785888671875,0.0105438232421875,-0.0006866455078125
1690841498689695200,8.0966953125,-0.98468017578125,0.0050048828125,-0.0008087158203125
1690841498699735300,8.1067353515625,-0.9810028076171875,-0.0015411376953125,-0.000274658203125
1690841498709775400,8.116775390625,-0.9812164306640625,-0.006988525390625,0.0000152587890625
1690841498719816400,8.12681640625,-0.988616943359375,-0.010833740234375,0.001129150390625
1690841498729856500,8.1368564453125,-0.9831390380859375,-0.0137939453125,0.001251220703125
1690841498739896600,8.146896484375,-0.9867095947265625,-0.0139007568359375,0.001983642578125
1690841498749936400,8.156936279296875,-0.9863739013671875,-0.0108642578125,0.0020599365234375
1690841498759977200,8.166977294921875,-0.9830780029296875,-0.0092926025390625,0.00048828125
1690841498770017300,8.177017333984375,-0.98388671875,-0.005279541015625,0.00048828125
1690841498780057300,8.187057373046875,-0.980682373046875,0.00079345703125,-0.0003662109375
1690841498790128400,8.19712841796875,-0.97906494140625,0.0055694580078125,0.0000457763671875
1690841498800168400,8.20716845703125,-0.980438232421875,0.009552001953125,0.00048828125
1690841498810209500,8.21720947265625,-0.975677490234375,0.012664794921875,0.000396728515625
1690841498820249300,8.227249267578125,-0.979827880859375,0.0137939453125,0.0007171630859375
1690841498830289400,8.237289306640625,-0.9788970947265625,0.0127105712890625,0.001739501953125
1690841498840329500,8.24732958984375,-0.9760894775390625,0.010833740234375,0.001220703125
1690841498850370300,8.257370361328125,-0.9814605712890625,0.0076751708984375,0.0009765625
1690841498860410400,8.267410400390625,-0.9815673828125,0.0031585693359375,-0.0000457763671875
1690841498870450400,8.277450439453125,-0.9800262451171875,-0.0006256103515625,-0.000579833984375
1690841498880491500,8.287491455078126,-0.984405517578125,-0.0038909912109375,0.000091552734375
1690841498890531300,8.29753125,-0.983154296875,-0.006378173828125,0.00054931640625
1690841498900571400,8.3075712890625,-0.98486328125,-0.006744384765625,0.0006866455078125
1690841498910611500,8.317611572265625,-0.98297119140625,-0.0057525634765625,0.000244140625
1690841498920682500,8.3276826171875,-0.9830780029296875,-0.0054779052734375,0.0012054443359375
1690841498930723300,8.337723388671876,-0.9848480224609375,-0.004119873046875,0.0016326904296875
1690841498940763400,8.347763427734375,-0.9795684814453125,-0.0003814697265625,0.000640869140625
1690841498950803500,8.357803466796875,-0.980499267578125,0.00225830078125,0.0009918212890625
1690841498960843300,8.36784326171875,-0.981781005859375,0.004302978515625,0.0006103515625
1690841498970884400,8.37788427734375,-0.9787445068359375,0.0069122314453125,0.0001983642578125
1690841498980924400,8.38792431640625,-0.9801025390625,0.0074615478515625,-0.0010986328125
1690841498990964500,8.397964599609375,-0.978973388671875,0.008636474609375,-0.0002288818359375
1690841499001005300,8.40800537109375,-0.9786529541015625,0.00726318359375,-0.000274658203125
1690841499011045400,8.41804541015625,-0.980926513671875,0.00537109375,0.00115966796875
1690841499021085400,8.42808544921875,-0.98046875,0.00335693359375,0.001678466796875
1690841499031125200,8.438125244140625,-0.9809112548828125,0.00140380859375,0.0010833740234375
1690841499041166300,8.448166259765625,-0.981903076171875,-0.0002899169921875,0.0008697509765625
1690841499051236400,8.458236328125,-0.9810638427734375,-0.0015106201171875,0.000885009765625
1690841499061277400,8.46827734375,-0.9834442138671875,-0.002593994140625,0.0009613037109375
1690841499071317500,8.4783173828125,-0.9827423095703125,-0.0028228759765625,0.00018310546875
1690841499081357600,8.488357666015625,-0.9806060791015625,-0.0024261474609375,-0.00067138671875
1690841499091398400,8.4983984375,-0.983154296875,-0.002166748046875,-0.0004119873046875
1690841499101438500,8.5084384765625,-0.9814300537109375,-0.00018310546875,0.0001983642578125
1690841499111478300,8.518478271484375,-0.9806976318359375,0.001220703125,0.0003662109375
1690841499121518300,8.528518310546875,-0.9812469482421875,0.0027923583984375,0.0008697509765625
1690841499131559400,8.538559326171875,-0.979522705078125,0.004241943359375,0.001007080078125
1690841499141599500,8.548599609375,-0.98077392578125,0.005462646484375,0.0011444091796875
1690841499151639600,8.5586396484375,-0.97991943359375,0.005279541015625,0.0005950927734375
1690841499161680400,8.568680419921876,-0.98040771484375,0.004302978515625,0.0009307861328125
1690841499171720400,8.578720458984375,-0.980316162109375,0.0035552978515625,0.0008392333984375
1690841499181791200,8.588791259765625,-0.9786224365234375,0.0027618408203125,0.0003814697265625
1690841499191831300,8.598831298828125,-0.9814605712890625,0.0008544921875,0.0006103515625
1690841499201871400,8.608871337890625,-0.9820098876953125,0.0000152587890625,0.000457763671875
1690841499211911400,8.618911376953125,-0.980438232421875,-0.0001068115234375,0.001251220703125
1690841499221952500,8.628952392578125,-0.9822998046875,-0.000640869140625,0.0012969970703125
1690841499231992600,8.63899267578125,-0.9827880859375,-0.001190185546875,0.000640869140625
1690841499242032600,8.64903271484375,-0.9817352294921875,-0.0009918212890625,0.00048828125
1690841499252073500,8.659073486328126,-0.9823150634765625,0.0000457763671875,0.0008392333984375
1690841499262113300,8.66911328125,-0.981719970703125,0.0001983642578125,0.0007781982421875
1690841499272153300,8.6791533203125,-0.982452392578125,0.0013275146484375,0.000396728515625
1690841499282193400,8.689193359375,-0.9803619384765625,0.0029449462890625,0.0009765625
1690841499292234500,8.699234375,-0.981536865234375,0.003753662109375,0.000701904296875
1690841499302274600,8.709274658203125,-0.9805755615234375,0.0045318603515625,0.0006866455078125
1690841499312345600,8.719345703125,-0.980224609375,0.004119873046875,0
1690841499322385400,8.729385498046875,-0.979095458984375,0.00421142578125,0.000335693359375
1690841499332425500,8.739425537109375,-0.980194091796875,0.0030364990234375,0.0010223388671875
1690841499342466300,8.74946630859375,-0.9806365966796875,0.0015869140625,0.0005340576171875
1690841499352506400,8.75950634765625,-0.9811859130859375,0.001007080078125,0.0003814697265625
1690841499362546400,8.76954638671875,-0.9816741943359375,0.0010223388671875,0.0016021728515625
1690841499372587500,8.77958740234375,-0.982574462890625,0.00006103515625,0.001312255859375
1690841499382627600,8.789627685546876,-0.9813079833984375,-0.0002288818359375,0.0009765625
1690841499392667600,8.799667724609375,-0.982391357421875,0.0007476806640625,0.00091552734375
1690841499402707500,8.80970751953125,-0.98065185546875,0.0014495849609375,0.0009765625
1690841499412748300,8.819748291015625,-0.982574462890625,0.0010528564453125,0.0006256103515625
1690841499422788400,8.829788330078125,-0.9794464111328125,0.0019378662109375,0.0008087158203125
1690841499432828400,8.839828369140625,-0.98095703125,0.0022735595703125,0.000762939453125
1690841499442899500,8.8498994140625,-0.9798431396484375,0.0026397705078125,-0.000335693359375
1690841499452939500,8.859939453125,-0.9805145263671875,0.002471923828125,0.0001678466796875
1690841499462957600,8.86995751953125,-0.9814300537109375,0.00225830078125,0.001220703125
1690841499472997400,8.879997314453124,-0.9806671142578125,0.00250244140625,0.0025634765625
1690841499483037400,8.890037353515625,-0.9809112548828125,0.0020904541015625,0.002044677734375
1690841499493077500,8.900077392578124,-0.9815521240234375,0.001953125,0.0027313232421875
1690841499503118600,8.91011865234375,-0.980926513671875,0.0021514892578125,0.00164794921875
1690841499513158700,8.92015869140625,-0.9810638427734375,0.0015869140625,0.000335693359375
1690841499523198700,8.93019873046875,-0.9803619384765625,0.00103759765625,-0.001556396484375
1690841499533239600,8.940239501953124,-0.9804840087890625,0.0006103515625,-0.0010986328125
1690841499543279600,8.950279541015625,-0.97955322265625,-0.0001068115234375,-0.0018768310546875
1690841499553319400,8.9603193359375,-0.9816436767578125,0.000396728515625,-0.0015411376953125
1690841499563359500,8.970359375,-0.981292724609375,0.00018310546875,0.000244140625
1690841499573430500,8.980430419921875,-0.98193359375,0.0011138916015625,0.001617431640625
1690841499583471600,8.9904716796875,-0.9809722900390625,0.0016326904296875,0.0034942626953125
1690841499593511700,9.00051171875,-0.981048583984375,0.0012359619140625,0.0037841796875
1690841499603551700,9.0105517578125,-0.9809722900390625,0.0027923583984375,0.0025482177734375
1690841499613591600,9.020591552734375,-0.981475830078125,0.001953125,0.00103759765625
1690841499623632400,9.03063232421875,-0.98101806640625,0.00225830078125,-0.000213623046875
1690841499633672400,9.04067236328125,-0.98077392578125,0.0016937255859375,-0.0019378662109375
1690841499643712500,9.05071240234375,-0.9802703857421875,0.001800537109375,-0.00250244140625
1690841499653752600,9.060752685546875,-0.98040771484375,0.0019378662109375,-0.000762939453125
1690841499663793700,9.070793701171874,-0.9813385009765625,0.0014495849609375,0.0003662109375
1690841499673833700,9.080833740234375,-0.98095703125,0.00128173828125,0.0017547607421875
1690841499683873500,9.09087353515625,-0.98199462890625,0.0015411376953125,0.0032806396484375
1690841499693914600,9.10091455078125,-0.981475830078125,0.0004730224609375,0.003173828125
1690841499703984400,9.110984375,-0.98089599609375,0.0003204345703125,0.003082275390625
1690841499714025500,9.121025390625,-0.9814300537109375,0.0009002685546875,0.0020599365234375
1690841499724065500,9.1310654296875,-0.98095703125,0.0011444091796875,0.000823974609375
1690841499734105600,9.141105712890624,-0.98095703125,0.0018768310546875,-0.0006866455078125
1690841499744146700,9.151146728515625,-0.97979736328125,0.0019073486328125,-0.001861572265625
1690841499754186800,9.161186767578124,-0.9801483154296875,0.002105712890625,-0.002227783203125
1690841499764226600,9.1712265625,-0.98089599609375,0.00213623046875,-0.0005340576171875
1690841499774266400,9.181266357421874,-0.980438232421875,0.0020294189453125,0.0002899169921875
1690841499784307500,9.191307373046875,-0.98101806640625,0.002197265625,0.0016937255859375
1690841499794347500,9.201347412109374,-0.9812469482421875,0.00115966796875,0.0019378662109375
1690841499804387600,9.2113876953125,-0.980987548828125,0.001251220703125,0.00274658203125
1690841499814428700,9.2214287109375,-0.9807281494140625,0.0014495849609375,0.002227783203125
1690841499824468700,9.23146875,-0.9815673828125,0.0009918212890625,0.0016021728515625
1690841499834539800,9.241539794921875,-0.9813995361328125,0.001373291015625,0.00042724609375
1690841499844579600,9.25157958984375,-0.9808502197265625,0.001373291015625,-0.001617431640625
1690841499854619400,9.261619384765625,-0.9814605712890625,0.0012359619140625,-0.0014190673828125
1690841499864659500,9.271659423828124,-0.9809722900390625,0.0010986328125,-0.0010223388671875
1690841499874700500,9.281700439453125,-0.9804229736328125,0.001434326171875,-0.000518798828125
1690841499884740600,9.29174072265625,-0.981231689453125,0.001800537109375,-0.000030517578125
1690841499894780700,9.30178076171875,-0.982086181640625,0.0013885498046875,0.00152587890625
1690841499904821800,9.31182177734375,-0.9818115234375,0.0020599365234375,0.001800537109375
1690841499914861600,9.321861572265625,-0.9812469482421875,0.0020751953125,0.00262451171875
1690841499924901400,9.3319013671875,-0.9805908203125,0.00213623046875,0.001800537109375
1690841499934941400,9.34194140625,-0.98187255859375,0.001953125,0.000885009765625
1690841499944982500,9.351982421875,-0.9804534912109375,0.001922607421875,0.0001373291015625
1690841499955022600,9.362022705078125,-0.980133056640625,0.0014801025390625,-0.0003204345703125
1690841499965093600,9.37209375,-0.980255126953125,0.0010223388671875,-0.0008697509765625
1690841499975133700,9.3821337890625,-0.9802398681640625,0.00201416015625,0.0000152587890625
1690841499985173500,9.392173583984375,-0.9806976318359375,0.0019378662109375,0.0006256103515625
1690841499995214300,9.40221435546875,-0.9812469482421875,0.0010528564453125,0.0015869140625
1690841500005254400,9.41225439453125,-0.9808502197265625,0.001007080078125,0.0010528564453125
1690841500015294500,9.42229443359375,-0.980926513671875,0.0012664794921875,0.001678466796875
1690841500025335600,9.43233544921875,-0.98162841796875,0.0015716552734375,0.0017852783203125
1690841500035375600,9.442375732421874,-0.9812164306640625,0.0017547607421875,0.0009002685546875
1690841500045415700,9.452415771484375,-0.98138427734375,0.0009918212890625,0.000732421875
1690841500055455500,9.46245556640625,-0.9808197021484375,0.0008697509765625,0.00030517578125
1690841500065496300,9.472496337890625,-0.98040771484375,0.001068115234375,0.000152587890625
1690841500075536400,9.482536376953124,-0.9805755615234375,0.001007080078125,0.0000762939453125
1690841500085576400,9.492576416015625,-0.98138427734375,0.00091552734375,-0.000091552734375
1690841500095647500,9.5026474609375,-0.981964111328125,0.001312255859375,0.0000152587890625
1690841500105687600,9.5126875,-0.981170654296875,0.00213623046875,0.00030517578125
1690841500115728600,9.522728759765625,-0.981597900390625,0.0018463134765625,0.00091552734375
1690841500125768700,9.532768798828124,-0.98138427734375,0.001861572265625,0.001861572265625
1690841500135808500,9.54280859375,-0.980743408203125,0.0011749267578125,0.00103759765625
1690841500145848600,9.5528486328125,-0.9813232421875,0.000640869140625,0.00042724609375
1690841500155889400,9.562889404296875,-0.9803009033203125,0.001373291015625,0.00091552734375
1690841500165929500,9.572929443359374,-0.980743408203125,0.0013275146484375,0.0014495849609375
1690841500175969500,9.582969482421875,-0.980804443359375,0.0006103515625,0.0012664794921875
1690841500186010600,9.5930107421875,-0.981170654296875,0.00152587890625,0.0007171630859375
1690841500196050700,9.60305078125,-0.98150634765625,0.001678466796875,0.00042724609375
1690841500206090500,9.613090576171874,-0.9800872802734375,0.0009765625,0.0005950927734375
1690841500216130600,9.623130615234375,-0.9808349609375,0.001617431640625,0.0001983642578125
1690841500226201600,9.63320166015625,-0.9817657470703125,0.00213623046875,0.0010223388671875
1690841500236242400,9.643242431640624,-0.9807281494140625,0.0014495849609375,0.001373291015625
1690841500246282500,9.653282470703125,-0.9806060791015625,0.0024566650390625,0.001556396484375
1690841500256322600,9.663322509765624,-0.9809417724609375,0.00152587890625,0.000091552734375
1690841500266362400,9.6733623046875,-0.982025146484375,0.001373291015625,0.000946044921875
1690841500276403500,9.683403564453124,-0.9810333251953125,0.0014801025390625,0.0005340576171875
1690841500286443500,9.693443603515625,-0.9814605712890625,0.0012664794921875,0.00067138671875
1690841500296483600,9.703483642578124,-0.9810638427734375,0.0014190673828125,0.00103759765625
1690841500306523600,9.713523681640625,-0.9807281494140625,0.002166748046875,0.0005035400390625
1690841500316564500,9.723564453125,-0.9812774658203125,0.000946044921875,0.0018310546875
1690841500326604500,9.7336044921875,-0.9808502197265625,0.00177001953125,0.0017242431640625
1690841500336644600,9.74364453125,-0.98199462890625,0.00164794921875,0.0003204345703125
1690841500346685700,9.753685791015625,-0.979949951171875,0.0011749267578125,0.00006103515625
1690841500356755500,9.76375537109375,-0.9805908203125,0.0009002685546875,0.0002899169921875
1690841500366796500,9.773796630859374,-0.981597900390625,0.0011444091796875,0.000213623046875
1690841500376836600,9.783836669921875,-0.9805755615234375,0.0019683837890625,0.00006103515625
1690841500386876700,9.793876708984374,-0.980377197265625,0.002685546875,0.0001220703125
1690841500396917500,9.80391748046875,-0.9801788330078125,0.00177001953125,0.000244140625
1690841500406957600,9.81395751953125,-0.9812774658203125,0.0016021728515625,0.00018310546875
1690841500416997400,9.823997314453125,-0.9808197021484375,0.0018768310546875,0.000762939453125
1690841500427037400,9.834037353515624,-0.98077392578125,0.0023651123046875,0.00030517578125
1690841500437078500,9.84407861328125,-0.980438232421875,0.0012054443359375,0.001068115234375
1690841500447118600,9.85411865234375,-0.981842041015625,0.0012664794921875,0.0004119873046875
1690841500457158700,9.86415869140625,-0.9813995361328125,0.00146484375,0.00115966796875
1690841500467207400,9.87420751953125,-0.9809417724609375,0.00115966796875,0.000946044921875
1690841500477247500,9.88424755859375,-0.9808502197265625,0.0012664794921875,0.0004730224609375
1690841500487318500,9.894318603515625,-0.9804534912109375,0.0001983642578125,0.00079345703125
1690841500497358300,9.9043583984375,-0.9799957275390625,0.00115966796875,0.0004425048828125
1690841500507398400,9.9143984375,-0.98077392578125,0.002166748046875,0.000335693359375
1690841500517438500,9.9244384765625,-0.9808197021484375,0.0017242431640625,0.001129150390625
1690841500527479300,9.934479248046875,-0.9808807373046875,0.0015869140625,0.0007781982421875
1690841500537519400,9.944519287109374,-0.981842041015625,0.001129150390625,0.0009765625
1690841500547559400,9.954559326171875,-0.981964111328125,0.0021820068359375,0.0011138916015625
1690841500557600500,9.9646005859375,-0.98095703125,0.00213623046875,0.0010528564453125
1690841500567640300,9.974640380859375,-0.98150634765625,0.00177001953125,0.00006103515625
1690841500577680400,9.984680419921874,-0.98095703125,0.0018157958984375,0.0000152587890625
1690841500587720400,9.994720458984375,-0.9807891845703125,0.0010528564453125,0.0002288818359375
1690841500597761300,10.00476123046875,-0.9812164306640625,0.0021820068359375,0.000091552734375
1690841500607801300,10.01480126953125,-0.98138427734375,0.00274658203125,0.0008392333984375
1690841500617872400,10.024872314453125,-0.9813995361328125,0.0020904541015625,0.0004119873046875
1690841500627912400,10.034912353515624,-0.981353759765625,0.0019073486328125,0.000579833984375
1690841500637952300,10.0449521484375,-0.9813690185546875,0.000885009765625,0.0004425048828125
1690841500647993300,10.054993408203124,-0.98175048828125,0.0008087158203125,0.000732421875
1690841500658033400,10.065033447265625,-0.981964111328125,0.0013427734375,0.0010833740234375
1690841500668073500,10.075073486328124,-0.9817047119140625,0.002227783203125,0.0007781982421875
1690841500678114300,10.0851142578125,-0.980560302734375,0.0016021728515625,0.0005340576171875
1690841500688154400,10.095154296875,-0.9806976318359375,0.0019073486328125,0.000640869140625
1690841500698194400,10.1051943359375,-0.980804443359375,0.0016326904296875,0.000152587890625
1690841500708234200,10.115234130859376,-0.9804534912109375,0.0012054443359375,0.000396728515625
1690841500718275300,10.125275390625,-0.9813079833984375,0.0016021728515625,0.001220703125
1690841500728315400,10.1353154296875,-0.98248291015625,0.001556396484375,0.001373291015625
1690841500738355500,10.14535546875,-0.9811248779296875,0.001190185546875,0.0013427734375
1690841500748426500,10.155426513671875,-0.981781005859375,0.0017242431640625,0.0008544921875
1690841500758466600,10.165466552734374,-0.980926513671875,0.0022735595703125,0.0004425048828125
1690841500768507400,10.17550732421875,-0.9812164306640625,0.0018157958984375,0.0007781982421875
1690841500778547500,10.18554736328125,-0.9808197021484375,0.0017852783203125,0.00128173828125
1690841500788587300,10.195587158203125,-0.9808349609375,0.0015411376953125,0.00048828125
1690841500798627300,10.20562744140625,-0.9806365966796875,0.0020294189453125,0.00054931640625
1690841500808668400,10.21566845703125,-0.98065185546875,0.00103759765625,0.0003814697265625
1690841500818708500,10.22570849609375,-0.9808502197265625,0.0009765625,0.001007080078125
1690841500828748500,10.23574853515625,-0.981048583984375,0.0008544921875,0.00067138671875
1690841500838789400,10.245789306640624,-0.982330322265625,0.001434326171875,0
1690841500848829400,10.255829345703125,-0.980926513671875,0.0010528564453125,0.0010833740234375
1690841500858869200,10.265869140625,-0.9805908203125,0.00146484375,0.0006561279296875
1690841500868940300,10.275940185546874,-0.9805908203125,0.0010833740234375,0.00054931640625
1690841500878980400,10.28598046875,-0.9799957275390625,0.0014495849609375,0.0001373291015625
1690841500889021400,10.296021484375,-0.980621337890625,0.001678466796875,0.000946044921875
1690841500899061500,10.3060615234375,-0.98114013671875,0.00140380859375,0.0012054443359375
1690841500909101600,10.3161015625,-0.982269287109375,0.0014190673828125,0.0002593994140625
1690841500919141600,10.3261416015625,-0.981781005859375,0.0015716552734375,0.000823974609375
1690841500929182500,10.336182373046874,-0.980560302734375,0.0013580322265625,0.00115966796875
1690841500939222300,10.34622216796875,-0.9808197021484375,0.001678466796875,0.000640869140625
1690841500949262300,10.356262451171874,-0.9810638427734375,0.0013580322265625,0.0005645751953125
1690841500959302400,10.366302490234375,-0.982330322265625,0.001983642578125,0.000518798828125
1690841500969343500,10.376343505859374,-0.98046875,0.00164794921875,0.0001220703125
1690841500979383600,10.386383544921875,-0.980926513671875,0.0015106201171875,0.0009307861328125
1690841500989423600,10.396423583984374,-0.980804443359375,0.001373291015625,0.000640869140625
1690841500999494400,10.406494384765624,-0.9804534912109375,0.002105712890625,0.0004730224609375
1690841501009534500,10.416534423828125,-0.9805145263671875,0.00146484375,0.00103759765625
1690841501019575300,10.4265751953125,-0.981048583984375,0.0021514892578125,0.0004425048828125
1690841501029615400,10.436615478515625,-0.98004150390625,0.0020751953125,0.0008697509765625
1690841501039655400,10.446655517578124,-0.981201171875,0.001983642578125,0.0005340576171875
1690841501049696500,10.456696533203125,-0.9816741943359375,0.001800537109375,0.000640869140625
1690841501059736600,10.466736572265624,-0.982147216796875,0.0020904541015625,0.0010223388671875
1690841501069776600,10.476776611328125,-0.9811553955078125,0.0018157958984375,0.0014801025390625
1690841501079816400,10.48681640625,-0.9804229736328125,0.001556396484375,0.001007080078125
1690841501089857300,10.496857177734375,-0.981597900390625,0.0026397705078125,0.000640869140625
1690841501099897300,10.5068974609375,-0.980987548828125,0.0021514892578125,0.001190185546875
1690841501109937400,10.5169375,-0.98187255859375,0.001190185546875,0.0009002685546875
1690841501119978500,10.526978515625,-0.980377197265625,0.0016326904296875,0.0006866455078125
1690841501130048500,10.537048583984374,-0.981170654296875,0.0013427734375,0.0018310546875
1690841501140089600,10.547089599609375,-0.9812164306640625,0.001495361328125,0.00079345703125
1690841501150129400,10.55712939453125,-0.9813079833984375,0.0013580322265625,0.0002288818359375
1690841501160169500,10.56716943359375,-0.9814910888671875,0.0014495849609375,0.00164794921875
1690841501170209300,10.577209228515626,-0.982269287109375,0.00146484375,0.0006866455078125
1690841501180250400,10.58725048828125,-0.980682373046875,0.0018463134765625,0.0005950927734375
1690841501190290400,10.59729052734375,-0.980194091796875,0.0015411376953125,0.0004730224609375
1690841501200330500,10.60733056640625,-0.98150634765625,0.0015869140625,0.000396728515625
1690841501210371600,10.61737158203125,-0.98114013671875,0.0010833740234375,0.00048828125
1690841501220411400,10.627411376953125,-0.9801483154296875,0.0009002685546875,0.0010833740234375
1690841501230451500,10.637451416015624,-0.981414794921875,0.0016326904296875,0.0010223388671875
1690841501240491300,10.6474912109375,-0.982208251953125,0.0015716552734375,0.0004730224609375
1690841501250532400,10.657532470703124,-0.98193359375,0.0013275146484375,0.0009307861328125
1690841501260603400,10.667603271484374,-0.981658935546875,0.0017852783203125,0.001617431640625
1690841501270643500,10.6776435546875,-0.980377197265625,0.0020599365234375,0.0014190673828125
1690841501280683500,10.68768359375,-0.98095703125,0.00213623046875,0.00128173828125
1690841501290723300,10.697723388671875,-0.9800262451171875,0.00103759765625,0.0003662109375
1690841501300764400,10.707764404296874,-0.981048583984375,0.0019378662109375,0.0010528564453125
1690841501310804500,10.717804443359375,-0.982147216796875,0.0015106201171875,0.000762939453125
1690841501320844300,10.72784423828125,-0.9812164306640625,0.00152587890625,0.000335693359375
1690841501330885400,10.737885498046875,-0.9813232421875,0.0018310546875,0.0018768310546875
1690841501340925400,10.747925537109374,-0.982025146484375,0.00238037109375,0.000274658203125
1690841501350965500,10.757965576171875,-0.981048583984375,0.0016326904296875,0.0008697509765625
1690841501361005300,10.76800537109375,-0.9818115234375,0.001251220703125,0.0000457763671875
1690841501371046400,10.77804638671875,-0.9817962646484375,0.0023193359375,0.000274658203125
1690841501381086500,10.78808642578125,-0.980560302734375,0.001922607421875,0.0008087158203125
1690841501391157500,10.798157470703124,-0.9816131591796875,0.0023651123046875,0.0015106201171875
1690841501401197300,10.808197265625,-0.9817352294921875,0.0015106201171875,0.0003814697265625
1690841501411237400,10.8182373046875,-0.98095703125,0.00164794921875,0
1690841501421278500,10.828278564453125,-0.98095703125,0.00164794921875,0.0009002685546875
1690841501431318500,10.838318603515624,-0.9805450439453125,0.001251220703125,0.000579833984375
1690841501441358300,10.8483583984375,-0.981201171875,0.0014495849609375,0.0002288818359375
1690841501451398400,10.8583984375,-0.98187255859375,0.00177001953125,0.00079345703125
1690841501461439500,10.868439453125,-0.9809722900390625,0.001190185546875,0.001251220703125
1690841501471479600,10.8784794921875,-0.9801025390625,0.001983642578125,0.0006561279296875
1690841501481519600,10.88851953125,-0.98126220703125,0.001922607421875,0.0001220703125
1690841501491560700,10.898560791015624,-0.98248291015625,0.001068115234375,0.0004119873046875
1690841501501600800,10.908600830078125,-0.98114013671875,0.0009765625,0.0010223388671875
1690841501511640800,10.918640869140624,-0.9814453125,0.0011138916015625,0.0003509521484375
1690841501521711600,10.928711669921874,-0.9815521240234375,0.0014495849609375,0.0005950927734375
1690841501531751700,10.938751708984375,-0.9811859130859375,0.0018463134765625,0.00103759765625
1690841501541792500,10.94879248046875,-0.9809417724609375,0.0009613037109375,0.001373291015625
1690841501551832600,10.95883251953125,-0.9809417724609375,0.0014190673828125,0.0003204345703125
1690841501561872600,10.96887255859375,-0.98095703125,0.0015716552734375,0.0005645751953125
1690841501571912700,10.97891259765625,-0.9817047119140625,0.001373291015625,0.000732421875
1690841501581953800,10.988953857421874,-0.9817352294921875,0.00140380859375,0.0005035400390625
1690841501591993600,10.99899365234375,-0.9815673828125,0.0012969970703125,-0.0002899169921875
1690841501602033700,11.00903369140625,-0.980865478515625,0.0012054443359375,0.000396728515625
1690841501612073700,11.01907373046875,-0.9804534912109375,0.0013427734375,0.0003814697265625
1690841501622114600,11.029114501953124,-0.9812469482421875,0.0020904541015625,0.0010223388671875
1690841501632154600,11.039154541015625,-0.9812469482421875,0.0015106201171875,0.001190185546875
1690841501642194700,11.049194580078124,-0.9806976318359375,0.0015869140625,0.001007080078125
1690841501652265700,11.059265625,-0.9807891845703125,0.0018310546875,0.0011749267578125
1690841501662305500,11.069305419921875,-0.9818572998046875,0.0016021728515625,0.0010223388671875
1690841501672346600,11.0793466796875,-0.980499267578125,0.0018157958984375,0.000518798828125
1690841501682386700,11.08938671875,-0.9813079833984375,0.0016326904296875,0.0008697509765625
1690841501692426800,11.0994267578125,-0.98162841796875,0.0014801025390625,0.0012359619140625
1690841501702467600,11.109467529296875,-0.9812164306640625,0.0020294189453125,0.001434326171875
1690841501712507600,11.119507568359374,-0.9811553955078125,0.001922607421875,0.0006866455078125
1690841501722547700,11.129547607421875,-0.9809722900390625,0.0019073486328125,0.0008087158203125
1690841501732587500,11.13958740234375,-0.9816131591796875,-0.0000457763671875,0.0008392333984375
1690841501742628600,11.149628662109375,-0.9814910888671875,0.000701904296875,0.0009613037109375
1690841501752668700,11.159668701171874,-0.9815216064453125,0.0016021728515625,0.001129150390625
1690841501762708700,11.169708740234375,-0.9808197021484375,0.001312255859375,0.0003204345703125
1690841501772749600,11.17974951171875,-0.9811553955078125,0.0016937255859375,0.001617431640625
1690841501782819800,11.18981982421875,-0.9808502197265625,0.001220703125,0.0007476806640625
1690841501792860700,11.199860595703125,-0.9812164306640625,0.00146484375,0.0003662109375
1690841501802900500,11.209900390625,-0.981475830078125,0.001312255859375,0.0004425048828125
1690841501812940500,11.2199404296875,-0.9810943603515625,0.001251220703125,0.0010833740234375
1690841501822980600,11.229980712890624,-0.9819793701171875,0.0017852783203125,0.0006256103515625
1690841501833021700,11.240021728515625,-0.9829864501953125,0.0020294189453125,0.0013427734375
1690841501843061800,11.250061767578124,-0.982940673828125,0.00091552734375,0.001312255859375
1690841501853101800,11.260101806640625,-0.981201171875,0.0006561279296875,0.000579833984375
1690841501863142700,11.270142578125,-0.981201171875,0.001434326171875,0.000457763671875
1690841501873182700,11.2801826171875,-0.98150634765625,0.001495361328125,0.0001678466796875
1690841501883222500,11.290222412109374,-0.9809722900390625,0.0015869140625,0.0009918212890625
1690841501893262600,11.3002626953125,-0.9815216064453125,0.0020904541015625,0.0003204345703125
1690841501903303700,11.3103037109375,-0.981231689453125,0.0016021728515625,0.00048828125
1690841501913374700,11.320374755859374,-0.980804443359375,0.0019683837890625,0.00067138671875
1690841501923414800,11.330414794921875,-0.9810333251953125,0.002197265625,0.000335693359375
1690841501933454800,11.340454833984374,-0.9817047119140625,0.001922607421875,-0.000030517578125
1690841501943494700,11.35049462890625,-0.9813995361328125,0.00177001953125,0.0014801025390625
1690841501953535500,11.360535400390624,-0.98114013671875,0.001556396484375,0.0010833740234375
1690841501963575600,11.370575439453125,-0.980621337890625,0.0018310546875,0.000823974609375
1690841501973615600,11.38061572265625,-0.9814605712890625,0.00201416015625,0.00042724609375
1690841501983656700,11.39065673828125,-0.98089599609375,0.00225830078125,0.0005950927734375
1690841501993696800,11.40069677734375,-0.9813690185546875,0.001556396484375,0.0005340576171875
1690841502003736800,11.41073681640625,-0.98095703125,0.0017547607421875,0.00103759765625
1690841502013777000,11.42077685546875,-0.98065185546875,0.0013427734375,0.0013885498046875
1690841502023817700,11.430817626953125,-0.9811248779296875,0.001220703125,0.00042724609375
1690841502033857500,11.440857421875,-0.9810638427734375,0.0012664794921875,0.00079345703125
1690841502043928600,11.450928466796874,-0.980499267578125,0.0013275146484375,0.0009918212890625
1690841502053968600,11.46096875,-0.98052978515625,0.0019073486328125,0.000244140625
1690841502064008700,11.4710087890625,-0.9815521240234375,0.00189208984375,0.0004425048828125
1690841502074049800,11.4810498046875,-0.9816131591796875,0.0021209716796875,0.0011138916015625
1690841502084089900,11.49108984375,-0.980804443359375,0.00225830078125,0.0002288818359375
1690841502094129700,11.501129638671875,-0.980499267578125,0.0019683837890625,0.00018310546875
1690841502104169700,11.511169677734374,-0.9807891845703125,0.00103759765625,0.0001373291015625
1690841502114210600,11.52121044921875,-0.981414794921875,0.0010223388671875,0.0004119873046875
1690841502124250600,11.531250732421874,-0.98040771484375,0.001678466796875,0.00048828125
1690841502134290700,11.541290771484375,-0.9811859130859375,0.0016632080078125,0.00030517578125
1690841502144331800,11.551331787109374,-0.981231689453125,0.0024566650390625,0.000885009765625
1690841502154371800,11.561371826171875,-0.9806671142578125,0.0021209716796875,0.0012969970703125
1690841502164412000,11.571411865234374,-0.9815216064453125,0.0018463134765625,0.0006866455078125
1690841502174482700,11.581482666015624,-0.9806060791015625,0.0017547607421875,0.0007476806640625
1690841502184522800,11.591522705078125,-0.9817352294921875,0.0015869140625,0.00067138671875
1690841502194563600,11.6015634765625,-0.9821014404296875,0.0014801025390625,0.000457763671875
1690841502204603600,11.611603759765625,-0.9808197021484375,0.001708984375,0.0003509521484375
1690841502214643700,11.621643798828124,-0.9810638427734375,0.001800537109375,0.000152587890625
1690841502224683800,11.631683837890625,-0.9814453125,0.001495361328125,0.000244140625
1690841502234724900,11.641724853515624,-0.9809722900390625,0.0016937255859375,-0.0002593994140625
1690841502244764700,11.6517646484375,-0.98138427734375,0.001190185546875,0.00048828125
1690841502254804700,11.6618046875,-0.9804534912109375,0.0022735595703125,0.0010986328125
1690841502264844500,11.671844482421875,-0.9807281494140625,0.00201416015625,-0.0001068115234375
1690841502274885600,11.6818857421875,-0.98065185546875,0.001800537109375,0.00048828125
1690841502284925700,11.69192578125,-0.9804534912109375,0.0012969970703125,0.000396728515625
1690841502294965800,11.7019658203125,-0.981201171875,0.00152587890625,0.0002288818359375
1690841502305036800,11.712036865234374,-0.981201171875,0.0014495849609375,0.0002899169921875
1690841502315076600,11.72207666015625,-0.981292724609375,0.0011444091796875,0.0003204345703125
1690841502325117700,11.73211767578125,-0.9809112548828125,0.00177001953125,0.0005645751953125
1690841502335157800,11.74215771484375,-0.981170654296875,0.0016326904296875,0.0008697509765625
1690841502345197600,11.752197509765624,-0.980865478515625,0.0009613037109375,0.000457763671875
1690841502355238700,11.76223876953125,-0.9815673828125,0.001434326171875,0.0000152587890625
1690841502365278700,11.77227880859375,-0.982574462890625,0.0013885498046875,0.0014495849609375
1690841502375318800,11.78231884765625,-0.9809417724609375,0.0016632080078125,0.000091552734375
1690841502385358600,11.792358642578124,-0.98046875,0.0009613037109375,0.00048828125
1690841502395399700,11.802399658203125,-0.9809722900390625,0.00091552734375,0.0008697509765625
1690841502405439500,11.812439453125,-0.9815521240234375,0.0011444091796875,0.0008087158203125
1690841502415479600,11.8224794921875,-0.9814300537109375,0.0009765625,0.000762939453125
1690841502425520600,11.832520751953124,-0.9811248779296875,0.002532958984375,0.0002593994140625
1690841502435590700,11.842590576171874,-0.98046875,0.00225830078125,0.0003662109375
1690841502445631700,11.8526318359375,-0.9813690185546875,0.0011444091796875,0.000244140625
1690841502455671800,11.862671875,-0.98114013671875,0.001007080078125,0.0008697509765625
1690841502465703000,11.872702880859375,-0.980926513671875,0.001617431640625,0.0006561279296875
1690841502475743000,11.882742919921874,-0.980865478515625,0.001220703125,0.0003662109375
1690841502485784000,11.8927841796875,-0.981414794921875,0.001251220703125,0.000213623046875
1690841502495824100,11.90282421875,-0.9811553955078125,0.001129150390625,0.0000762939453125
1690841502505864200,11.9128642578125,-0.9803314208984375,0.0006103515625,0.000579833984375
1690841502515905000,11.922905029296874,-0.98065185546875,0.001861572265625,0.000701904296875
1690841502525945000,11.932945068359375,-0.9810943603515625,0.0016326904296875,0.000457763671875
1690841502535985200,11.942985107421874,-0.980316162109375,0.00152587890625,0.000823974609375
1690841502546025000,11.95302490234375,-0.9803009033203125,0.00128173828125,0.0008697509765625
1690841502556066000,11.963066162109374,-0.981292724609375,0.001739501953125,0.0013427734375
1690841502566137000,11.97313720703125,-0.981170654296875,0.0016937255859375,0.0008392333984375
1690841502576177200,11.98317724609375,-0.980621337890625,0.001861572265625,0.0013580322265625
1690841502586217200,11.99321728515625,-0.9805908203125,0.001983642578125,0.0005035400390625
1690841502596257300,12.00325732421875,-0.98114013671875,0.0018463134765625,0.000946044921875
1690841502606298000,12.013298095703124,-0.9810638427734375,0.001556396484375,0.000335693359375
1690841502616338000,12.023337890625,-0.9811553955078125,0.001312255859375,0.00018310546875
1690841502626378000,12.0333779296875,-0.981781005859375,0.0019073486328125,0.000701904296875
1690841502636419000,12.043419189453125,-0.98138427734375,0.0011749267578125,-0.0001678466796875
1690841502646459100,12.053459228515624,-0.981353759765625,0.0018463134765625,0.000732421875
1690841502656499200,12.063499267578125,-0.9816741943359375,0.0016326904296875,0.0001983642578125
1690841502666539300,12.073539306640624,-0.981414794921875,0.0011749267578125,0.0009613037109375
1690841502676580000,12.083580078125,-0.98095703125,0.00177001953125,0.000579833984375
1690841502686620200,12.0936201171875,-0.981353759765625,0.0020294189453125,0.0005645751953125
1690841502696691000,12.10369091796875,-0.980499267578125,0.001312255859375,0.000823974609375
1690841502706731000,12.11373095703125,-0.9802398681640625,0.00146484375,0.000640869140625
1690841502716771000,12.12377099609375,-0.9809417724609375,0.001617431640625,0.0004119873046875
1690841502726812200,12.133812255859375,-0.98077392578125,0.0016632080078125,0.00018310546875
1690841502736852200,12.143852294921874,-0.980255126953125,0.0012664794921875,0.0007171630859375
1690841502746892300,12.153892333984375,-0.980377197265625,0.0013275146484375,0.0001983642578125
1690841502756932000,12.16393212890625,-0.9813690185546875,0.0019073486328125,0.00079345703125
1690841502766973000,12.173972900390625,-0.98211669921875,0.001190185546875,0.00054931640625
1690841502777013000,12.184012939453124,-0.9810333251953125,0.0012969970703125,0.000946044921875
1690841502787053000,12.194052978515625,-0.9803466796875,0.0012054443359375,0.0003662109375
1690841502797094100,12.20409423828125,-0.9816131591796875,0.001953125,0.000457763671875
1690841502807134200,12.21413427734375,-0.981658935546875,0.001861572265625,0.0013580322265625
1690841502817205200,12.224205322265625,-0.98175048828125,0.0020294189453125,0.000885009765625
1690841502827245300,12.234245361328124,-0.982177734375,0.002410888671875,0.00042724609375
1690841502837285000,12.24428515625,-0.981414794921875,0.0024871826171875,-0.0001678466796875
1690841502847325200,12.2543251953125,-0.9816131591796875,0.001861572265625,0.0004119873046875
1690841502857366000,12.264365966796875,-0.98101806640625,0.0015716552734375,0.0013427734375
1690841502867406000,12.274406005859374,-0.9808197021484375,0.0026702880859375,0.0005950927734375
1690841502877446100,12.284446044921875,-0.9809722900390625,0.0019989013671875,0.0001983642578125
1690841502887487200,12.2944873046875,-0.98095703125,0.0018768310546875,0.000701904296875
1690841502897527300,12.30452734375,-0.981658935546875,0.002349853515625,0.0009918212890625
1690841502907567000,12.314567138671874,-0.9820556640625,0.001373291015625,0.001373291015625
1690841502917607200,12.324607177734375,-0.980926513671875,0.001373291015625,0.0008392333984375
1690841502927648000,12.33464794921875,-0.9807891845703125,0.001312255859375,0.0000457763671875
1690841502937688000,12.34468798828125,-0.9813690185546875,0.00128173828125,0.0002288818359375
1690841502947759000,12.354759033203125,-0.9817352294921875,0.0014190673828125,0.0003509521484375
1690841502957799200,12.364799072265624,-0.9815673828125,0.000885009765625,0.00018310546875
1690841502967839200,12.374839111328125,-0.981475830078125,0.0013427734375,0.001220703125
1690841502977880300,12.38488037109375,-0.980712890625,0.00177001953125,0.000701904296875
1690841502987920100,12.394920166015625,-0.9803619384765625,0.0014495849609375,-0.00018310546875
1690841502997960200,12.404960205078124,-0.9809417724609375,0.00103759765625,0.00042724609375
1690841503008001000,12.4150009765625,-0.9812774658203125,0.0020294189453125,0.000244140625
1690841503018041000,12.425041015625,-0.9802398681640625,0.00213623046875,-0.000457763671875
1690841503028081200,12.4350810546875,-0.98095703125,0.0022430419921875,0.00079345703125
1690841503038121200,12.445121337890624,-0.981201171875,0.00152587890625,0.0007781982421875
1690841503048162300,12.455162353515625,-0.980865478515625,0.00146484375,0.0006256103515625
1690841503058202000,12.4652021484375,-0.9801788330078125,0.00152587890625,0.0012054443359375
1690841503068242200,12.4752421875,-0.9806976318359375,0.0019073486328125,0.000213623046875
1690841503078313200,12.485313232421875,-0.9803619384765625,0.00213623046875,0.0009307861328125
1690841503088353300,12.495353271484374,-0.9815673828125,0.002197265625,0.00042724609375
1690841503098394000,12.50539404296875,-0.9820709228515625,0.0016937255859375,0.000030517578125
1690841503108434200,12.51543408203125,-0.9809417724609375,0.0018157958984375,0.000274658203125
1690841503118474200,12.52547412109375,-0.9814300537109375,0.00140380859375,0.000335693359375
1690841503128514000,12.53551416015625,-0.980804443359375,0.0011138916015625,-0.0001068115234375
1690841503138555100,12.54555517578125,-0.9811859130859375,0.0012969970703125,0.000457763671875
1690841503148595200,12.55559521484375,-0.981109619140625,0.0013427734375,0.00079345703125
1690841503158635300,12.56563525390625,-0.9809417724609375,0.0022735595703125,0.000823974609375
1690841503168676000,12.575676025390624,-0.9811553955078125,0.0010223388671875,0.0009307861328125
1690841503178716200,12.585716064453125,-0.980712890625,0.00225830078125,0.0003509521484375
1690841503188756200,12.595756103515624,-0.9801788330078125,0.0018768310546875,0.0005950927734375
1690841503198796000,12.605796142578125,-0.9806671142578125,0.00177001953125,0.0006103515625
1690841503208867000,12.6158671875,-0.98095703125,0.002593994140625,0.000640869140625
1690841503218908200,12.625908203125,-0.981170654296875,0.0020599365234375,0.000762939453125
1690841503228948200,12.6359482421875,-0.9809722900390625,0.0015869140625,0.0003509521484375
1690841503238988300,12.64598828125,-0.9812469482421875,0.001495361328125,0.000701904296875
1690841503249028000,12.656028076171875,-0.9813079833984375,0.001312255859375,0.000732421875
1690841503259069200,12.666069091796874,-0.98089599609375,0.00146484375,0.000457763671875
1690841503269109000,12.67610888671875,-0.98150634765625,0.001800537109375,0.000762939453125
1690841503279149000,12.686149169921874,-0.982269287109375,0.0012054443359375,0.00103759765625
1690841503289190100,12.696190185546875,-0.9801788330078125,0.002044677734375,0.0002899169921875
1690841503299230200,12.706230224609374,-0.9815521240234375,0.0016021728515625,0.000244140625
1690841503309270000,12.71627001953125,-0.9805755615234375,0.0010986328125,0.000335693359375
1690841503319310000,12.72631005859375,-0.98095703125,0.00146484375,0.000152587890625
1690841503329351200,12.73635107421875,-0.980438232421875,0.00201416015625,0.0006866455078125
1690841503339421000,12.7464208984375,-0.9905853271484375,-0.012237548828125,0.0164337158203125
1690841503349462000,12.7564619140625,-1.0329742431640625,-0.0715179443359375,0.0099639892578125
1690841503359502000,12.766502197265625,-0.969146728515625,0.022918701171875,0.0174560546875
1690841503369542100,12.776542236328124,-0.960693359375,0.0349273681640625,-0.0382232666015625
1690841503379583200,12.786583251953125,-0.9671630859375,0.0413818359375,-0.007781982421875
1690841503389623000,12.796623046875,-0.9820098876953125,0.0404052734375,-0.0063018798828125
1690841503399663000,12.8066630859375,-0.978851318359375,0.0016632080078125,0.00164794921875
1690841503409703000,12.816702880859374,-0.9803466796875,0.003265380859375,0.0003662109375
1690841503419744000,12.826743896484375,-0.9830474853515625,0.0040740966796875,-0.0061798095703125
1690841503429784000,12.8367841796875,-0.981292724609375,-0.0044097900390625,-0.00439453125
1690841503439824100,12.84682421875,-0.9836883544921875,-0.0016021728515625,0.0040740966796875
1690841503449865200,12.856865234375,-0.9833221435546875,-0.0130767822265625,0.002655029296875
1690841503459905000,12.866905029296875,-0.9880828857421875,-0.0086212158203125,0.009124755859375
1690841503469971000,12.876970947265624,-0.9838714599609375,-0.0099334716796875,0.005584716796875
1690841503480011000,12.887010986328125,-0.982696533203125,-0.0084381103515625,0.00457763671875
1690841503490051000,12.897051025390626,-0.9871673583984375,-0.0047149658203125,0.0056610107421875
1690841503500091000,12.9070908203125,-0.982696533203125,-0.00543212890625,-0.0001983642578125
1690841503510131700,12.917131591796876,-0.9785003662109375,0.0021514892578125,-0.00189208984375
1690841503520171800,12.927171875,-0.98175048828125,0.0038909912109375,-0.0061798095703125
1690841503530211800,12.9372119140625,-0.9780731201171875,0.0067291259765625,-0.004730224609375
1690841503540253000,12.9472529296875,-0.9785308837890625,0.0112152099609375,-0.00592041015625
1690841503550293000,12.95729296875,-0.976776123046875,0.009521484375,-0.0018310546875
1690841503560333000,12.9673330078125,-0.97930908203125,0.012054443359375,-0.0002593994140625
1690841503570372900,12.977372802734376,-0.979095458984375,0.0113525390625,0.0045318603515625
1690841503580413700,12.98741357421875,-0.9789276123046875,0.0097808837890625,0.003662109375
1690841503590453800,12.997453857421876,-0.981536865234375,0.0079193115234375,0.00396728515625
1690841503600524800,13.00752490234375,-0.981170654296875,0.00408935546875,0.002044677734375
1690841503610564900,13.01756494140625,-0.9805450439453125,0.0017852783203125,0.002166748046875
1690841503620605000,13.02760498046875,-0.983978271484375,-0.0007171630859375,-0.000030517578125
1690841503630646000,13.03764599609375,-0.9828338623046875,-0.0025482177734375,-0.001800537109375
1690841503640686000,13.04768603515625,-0.981475830078125,-0.003021240234375,-0.0029449462890625
1690841503650726000,13.057725830078125,-0.9831695556640625,-0.004547119140625,-0.0027923583984375
1690841503660766700,13.0677666015625,-0.98236083984375,-0.0044708251953125,-0.00201416015625
1690841503670806800,13.077806884765625,-0.9815673828125,-0.0037841796875,-0.0007781982421875
