time,seconds_elapsed,z,y,x
1690841490640577500,0.04757763671875,0.0009666557889431715,0.004297235980629921,-0.04093128442764282
1690841490650617600,0.05761767578125,-0.0018523000180721283,0.005601119250059128,-0.05910762399435043
1690841490660657700,0.06765771484375,-0.003455585800111294,0.0070006754249334335,-0.06525658816099167
1690841490670698800,0.07769873046875,-0.0015399735420942307,0.0022144420072436333,-0.06626326590776443
1690841490680738600,0.087738525390625,-0.00021609384566545486,-0.0020438279025256634,-0.05372416228055954
1690841490690778600,0.097778564453125,0.0007386491633951664,-0.004778361413627863,-0.03639230877161026
1690841490700818400,0.107818359375,0.001399691915139556,-0.004133623093366623,-0.012574829161167145
1690841490710859500,0.117859619140625,0.0005267076194286346,-0.0032023158855736256,0.008383717387914658
1690841490720899600,0.127899658203125,-0.0005394471809267998,0.00008138827979564667,0.03170762211084366
1690841490730970600,0.137970703125,-0.002111511304974556,0.002935764379799366,0.04374111443758011
1690841490741010700,0.1480107421875,-0.0009479308500885963,0.004697431810200214,0.04864589124917984
1690841490751050800,0.15805078125,-0.0009295549243688583,0.0017048376612365246,0.04541361331939697
1690841490761091600,0.168091552734375,0.0009102486073970795,-0.0018323978874832392,0.03390561416745186
1690841490771131400,0.17813134765625,0.0019872309640049934,-0.0033298933412879705,0.02128809131681919
1690841490781171500,0.18817138671875,0.0019998999778181314,-0.003635457484051585,0.005465248599648476
1690841490791212500,0.198212646484375,-0.0005727135576307774,-0.0018812331836670637,-0.012272469699382782
1690841490801252600,0.208252685546875,0.00003184610977768898,0.0012132182018831372,-0.025661630555987358
1690841490811292700,0.218292724609375,-0.0017492757178843021,0.00042252568528056145,-0.03293418884277344
1690841490821332700,0.228332763671875,0.00003896886482834816,0.005541808903217316,-0.03632936626672745
1690841490831373600,0.23837353515625,-0.0000766124576330185,0.004986539948731661,-0.033299751579761505
1690841490841413600,0.24841357421875,-0.00021568965166807175,0.001781233586370945,-0.026328403502702713
1690841490851453400,0.258453369140625,-0.000181601382791996,0.0006653690943494439,-0.014721281826496124
1690841490861524500,0.2685244140625,0.0014931228943169117,-0.0008131810463964939,-0.001513417810201645
1690841490871564500,0.278564453125,0.0010904527734965086,-0.005057993344962597,0.009391960687935352
1690841490881605600,0.288605712890625,-0.00106780044734478,-0.0005660692695528269,0.01994599960744381
1690841490891645700,0.298645751953125,-0.0019168159924447536,-0.00219352706335485,0.02331649698317051
1690841490901685800,0.308685791015625,-0.00007987627759575844,-0.0009707945864647627,0.026674987748265266
1690841490911725600,0.3187255859375,0.0007555573247373104,0.00005026138387620449,0.02321234531700611
1690841490921766400,0.328766357421875,-0.0006028753705322742,0.003033786080777645,0.01540372334420681
1690841490931806500,0.338806396484375,0.002036849968135357,0.0015653191367164254,0.007546066306531429
1690841490941846500,0.348846435546875,-0.0001881532371044159,0.00027566077187657356,-0.0027535315603017807
1690841490951887600,0.3588876953125,-0.0011317110620439053,0.00010521849617362022,-0.011125180870294571
1690841490961927700,0.368927734375,-0.00048774899914860725,0.0003978264285251498,-0.014765027910470963
1690841490971967700,0.3789677734375,0.0004222532734274864,-0.00045172194950282574,-0.02113371342420578
1690841490982007800,0.3890078125,-0.0004040440544486046,-0.0014096132945269346,-0.021000659093260765
1690841490992078600,0.39907861328125,-0.0007699625566601753,0.00028921710327267647,-0.01566288433969021
1690841491002119400,0.409119384765625,0.0009547844529151917,0.0017004802357405424,-0.010875701904296875
1690841491012159500,0.419159423828125,0.001380890142172575,0.0008416108321398497,-0.003341084346175194
1690841491022199600,0.429199462890625,-0.00017379550263285637,-0.0011796185281127691,0.003945233300328255
1690841491032239600,0.439239501953125,-0.00010455306619405746,0.0008382586529478431,0.008851042948663235
1690841491042280700,0.44928076171875,-0.0009503732435405254,-0.0011889394372701645,0.013686012476682663
1690841491052320800,0.45932080078125,0.0007926658727228642,0.001277946517802775,0.015580052509903908
1690841491062360600,0.469360595703125,-0.0018023224547505379,-0.0021398570388555527,0.012413633987307549
1690841491072401400,0.4794013671875,-0.00035116588696837425,0.001640500035136938,0.008706247434020042
1690841491082441500,0.48944140625,-0.0001532435417175293,0.000016127247363328934,0.004681628197431564
1690841491092481500,0.4994814453125,-0.0006427322514355183,0.002164233010262251,-0.002994934096932411
1690841491102521600,0.509521484375,0.00016546901315450668,-0.0015137034934014082,-0.005638297647237778
1690841491112562700,0.519562744140625,-0.0014057960361242294,-0.0009363302960991859,-0.010342240333557129
1690841491122632700,0.5296328125,0.00032343994826078415,-0.0004508495330810547,-0.011939041316509247
1690841491132673800,0.539673828125,0.00003794906660914421,-0.0007411339320242405,-0.011061262339353561
1690841491142713600,0.549713623046875,-0.0007430184632539749,0.0003374048974364996,-0.007192671298980713
1690841491152753700,0.559753662109375,0.00012543844059109688,0.0002764186356216669,-0.005599569529294968
1690841491162794500,0.56979443359375,-0.0005042036063969135,-0.00039439043030142784,-0.0007407143712043762
1690841491172834600,0.57983447265625,-0.0003968784585595131,0.0015020465943962336,0.0023091360926628113
1690841491182874600,0.58987451171875,-0.0018657711334526539,0.00005475664511322975,0.005139661952853203
1690841491192914700,0.599914794921875,-0.0002468354068696499,-0.0021719124633818865,0.0073404982686042786
1690841491202955800,0.609955810546875,0.00012109195813536644,-0.0004992908798158169,0.00892197247594595
1690841491212995600,0.61999560546875,-0.0008315211161971092,0.00032096286304295063,0.007246311753988266
1690841491223035600,0.63003564453125,-0.0009072348475456238,-0.00011901953257620335,0.0066940318793058395
1690841491233076500,0.640076416015625,-0.00021933997049927711,0.00020801648497581482,0.0017775706946849823
1690841491243116500,0.650116455078125,0.00017658574506640434,0.00044006574898958206,-0.0006150510162115097
1690841491253187600,0.6601875,-0.0004508551210165024,-0.00017272774130105972,-0.006212217733263969
1690841491263227600,0.6702275390625,0.000786700751632452,0.001527423388324678,-0.005734153091907501
1690841491273267700,0.680267822265625,-0.0008886940777301788,-0.0009610343258827925,-0.005804726853966713
1690841491283308800,0.690308837890625,0.0008223792538046837,-0.00016257073730230331,-0.007978774607181549
1690841491293348600,0.7003486328125,-0.00022131390869617462,-0.00025977613404393196,-0.006681814789772034
1690841491303388700,0.710388671875,-0.0003866152837872505,-0.0012764818966388702,-0.004771566018462181
1690841491313428700,0.7204287109375,-0.0004129805602133274,-0.001819500233978033,0.0004202667623758316
1690841491323469600,0.730469482421875,-0.0011554285883903503,-0.0002616404090076685,0.002940986305475235
1690841491333509600,0.740509521484375,-0.0005578151904046535,0.0013815299607813358,0.0036896001547574997
1690841491343549700,0.7505498046875,0.0008561797440052032,-0.0009037535637617111,0.0069443052634596825
1690841491353589500,0.760589599609375,-0.0006746053695678711,0.0024153441190719604,0.005137883126735687
1690841491363630600,0.770630615234375,0.0009970346000045538,0.00029176450334489346,0.0032557714730501175
1690841491373670700,0.780670654296875,0.0002268482930958271,0.00027285609394311905,0.0024578887969255447
1690841491383741700,0.79074169921875,-0.0011454438790678978,0.0007358550792559981,0.0004923287779092789
1690841491393781800,0.80078173828125,-0.0005957675166428089,0.000568874878808856,-0.0015388652682304382
1690841491403821800,0.81082177734375,0.0005552186630666256,-0.000006495974957942963,-0.0022788401693105698
1690841491413862700,0.820862548828125,-0.001933771651238203,-0.0007455232553184032,-0.003575267270207405
1690841491423902500,0.83090234375,0.0002239295281469822,-0.0011338975746184587,-0.004026750102639198
1690841491433942500,0.840942626953125,-0.0009222952648997307,-0.0028921165503561497,-0.002632051706314087
1690841491443983600,0.850983642578125,-0.0004271012730896473,-0.0005698793102055788,-0.002784188836812973
1690841491454023000,0.86102294921875,0.0004445509985089302,0.0007310749497264624,-0.001270713284611702
1690841491464062700,0.871062744140625,-0.00024367030709981918,-0.0027799871750175953,0.0005823597311973572
1690841491474102800,0.881102783203125,0.0011041555553674698,0.002272029174491763,0.0013160593807697296
1690841491484143600,0.8911435546875,-0.00039964495226740837,0.000810860306955874,0.002020241692662239
1690841491494183700,0.90118359375,0.0016850775573402643,0.0033768159337341785,0.003199489787220955
1690841491504223700,0.9112236328125,0.0004682405851781368,0.0011018502991646528,0.0019322875887155533
1690841491514294800,0.921294677734375,0.00009672949090600014,-0.0008063046261668205,0.002459326758980751
1690841491524334800,0.9313349609375,0.00031016673892736435,-0.0018771137110888958,0.00016943365335464478
1690841491534376000,0.9413759765625,0.0016867546364665031,-0.0012195794843137264,-0.002095850184559822
1690841491544415700,0.951415771484375,0.0010919056367129087,-0.00022288295440375805,-0.0010046344250440598
1690841491554455800,0.961455810546875,0.00012757489457726479,0.0018892701482400298,-0.0014235489070415497
1690841491564496000,0.971495849609375,0.0008108140900731087,0.00024655903689563274,-0.00319865345954895
1690841491574536700,0.98153662109375,0.0010233342181891203,-0.0015521401073783636,-0.0018718671053647995
1690841491584576800,0.99157666015625,-0.0008681276813149452,0.0010463162325322628,-0.001989070326089859
1690841491594616800,1.001616943359375,-0.001213806215673685,0.0012290091253817081,-0.0004159398376941681
1690841491604658000,1.011657958984375,0.002089463407173753,0.0005516889505088329,0.0009310971945524216
1690841491614697700,1.02169775390625,-0.00045891525223851204,0.0006984291831031442,-0.0018649548292160034
1690841491624737800,1.03173779296875,0.0005301130004227161,0.00047174631617963314,0.0008984487503767014
1690841491634777900,1.04177783203125,0.00058364262804389,0.00026907981373369694,0.0015325471758842468
1690841491644849000,1.051848876953125,0.0007823235355317593,-0.00009038555435836315,0.00144931860268116
1690841491654889700,1.0618896484375,-0.00107869366183877,0.0009104303317144513,-0.00038266927003860474
1690841491664929800,1.0719296875,0.00038286391645669937,-0.00023076054640114307,0.0013905223459005356
1690841491674969900,1.081969970703125,0.000415886752307415,0.00006698095239698887,0.0003787875175476074
1690841491685009700,1.092009765625,0.0002546156756579876,-0.0018828462343662977,0.00038300827145576477
1690841491695050800,1.10205078125,-0.000039929989725351334,0.0007209265604615211,-0.0013573672622442245
1690841491705090800,1.1120908203125,-0.00003595510497689247,-0.00019227107986807823,-0.001470101997256279
1690841491715131000,1.122130859375,0.0017307857051491737,0.0008599439170211554,-0.0010815467685461044
1690841491725171700,1.132171630859375,-0.0001148562878370285,-0.0014761306811124086,-0.001756429672241211
1690841491735211800,1.142211669921875,-0.00013988977298140526,-0.0014926423318684101,-0.00009781122207641602
1690841491745251800,1.152251953125,-0.0008328314870595932,-0.0019213149789720774,-0.000646812841296196
1690841491755291600,1.162291748046875,-0.00031697750091552734,-0.0006089091766625643,-0.00014693662524223328
1690841491765332700,1.172332763671875,-0.00020084436982870102,-0.0004337802529335022,-0.0009858161211013794
1690841491775372800,1.182372802734375,0.0003554900176823139,0.00036463537253439426,0.001086922362446785
1690841491785443800,1.19244384765625,0.00008872756734490395,-0.0007714885286986828,-0.00030905380845069885
1690841491795484000,1.20248388671875,-0.0003466992639005184,0.0007521058432757854,0.0008393004536628723
1690841491805524000,1.21252392578125,-0.000597415491938591,-0.001805619802325964,0.0005651414394378662
1690841491815564800,1.222564697265625,0.0006641237996518612,-0.0014423646498471498,-0.0006005242466926575
1690841491825604600,1.2326044921875,-0.00016002636402845383,0.0010181186953559518,-0.0007289443165063858
1690841491835644700,1.242644775390625,0.0009816710371524096,-0.0010540869552642107,-0.0005582347512245178
1690841491845684700,1.252684814453125,0.0016596526838839054,0.0004974066978320479,-0.003145366907119751
1690841491855725800,1.262725830078125,0.0009222235530614853,0.0025493723805993795,-0.0010641049593687057
1690841491865766000,1.272765869140625,0.0015657893382012844,-0.0016686287708580494,-0.0022997595369815826
1690841491875806000,1.282805908203125,-0.0003740573301911354,0.0008099752012640238,0.0002065412700176239
1690841491885846800,1.2928466796875,0.00020956294611096382,0.0020820852369070053,-0.0023820847272872925
1690841491895886800,1.302886962890625,0.0009014522656798363,-0.00015417090617120266,0.0013023987412452698
1690841491905926700,1.3129267578125,0.00007893610745668411,0.0010467595420777798,-0.00042952224612236023
1690841491915997700,1.322997802734375,-0.00024170847609639168,-0.00012769456952810287,0.00022295117378234863
1690841491926037800,1.333037841796875,0.0005334350280463696,0.0025404561311006546,-0.00014393776655197144
1690841491936077800,1.343077880859375,0.0010213260538876057,-0.001397293759509921,0.0007668621838092804
1690841491946119000,1.353118896484375,-0.0005665994249284267,0.0014587701298296452,0.0001957956701517105
1690841491956159000,1.363158935546875,-0.0007367753423750401,-0.003114409977570176,-0.0016566980630159378
1690841491966198800,1.37319873046875,0.0010652607306838036,-0.00016340380534529686,0.0008554663509130478
1690841491976239600,1.383239501953125,-0.000607736874371767,0.0005396705819293857,0.000525500625371933
1690841491986279700,1.39327978515625,-0.0004931958392262459,-0.0014708798844367266,-0.00001662410795688629
1690841491996319700,1.40331982421875,0.0010389205999672413,0.00033740652725100517,-0.000680016353726387
1690841492006359800,1.41335986328125,0.0004850011318922043,-0.00008254381828010082,-0.0007144957780838013
1690841492016401000,1.42340087890625,-0.00027399975806474686,0.0007310518994927406,-0.0002148859202861786
1690841492026441000,1.43344091796875,0.0013117329217493534,0.0014809954445809126,-0.0010877344757318497
1690841492036481000,1.44348095703125,0.0005167792551219463,-0.0008074590004980564,0.0005897898226976395
1690841492046551800,1.4535517578125,0.00003658561035990715,-0.001540378201752901,-0.0019327811896800995
1690841492056592000,1.463591796875,0.0015548535156995058,0.00041997479274868965,0.000013988465070724487
1690841492066632700,1.4736328125,-0.0009196414612233639,0.0018894280074164271,0.0011073946952819824
1690841492076672800,1.4836728515625,-0.0005763601511716843,-0.0012336608488112688,0.0008115172386169434
1690841492086712800,1.493712890625,0.0010147674474865198,0.0005364815006032586,0.00010329857468605042
1690841492096754000,1.50375390625,-0.0006798021495342255,-0.0007831146940588951,0.00014351122081279755
1690841492106794000,1.5137939453125,-0.0006762812845408916,0.0016350497025996447,-0.0009590461850166321
1690841492116833800,1.523833740234375,-0.00009171711280941963,0.0008432918693870306,0.0002995636314153671
1690841492126873900,1.533873779296875,0.0006969436071813107,-0.0014491768088191748,0.000022746622562408447
1690841492136914700,1.543914794921875,0.00047270534560084343,-0.001762098167091608,-0.0004196036607027054
1690841492146954800,1.553954833984375,-0.0007202415727078915,0.00011840532533824444,0.0002435687929391861
1690841492156994800,1.563994873046875,-0.00025179143995046616,-0.002784173935651779,-0.00026882439851760864
1690841492167036000,1.574035888671875,-0.0009350231848657131,0.0002772500738501549,0.0006887577474117279
1690841492177106000,1.58410595703125,0.0014873880427330732,0.0026679697912186384,0.0029247477650642395
1690841492187147000,1.59414697265625,-0.0006501772440969944,-0.002225141739472747,-0.0006321165710687637
1690841492197186800,1.604186767578125,-0.0012360727414488792,0.0005386867560446262,0.0013631228357553482
1690841492207227000,1.614226806640625,0.0007596076466143131,-0.001870110398158431,-0.00007796287536621094
1690841492217266700,1.6242666015625,-0.0008782367222011089,-0.0002077652607113123,-0.00009713880717754364
1690841492227307800,1.634307861328125,-0.00055745430290699,-0.0011849112343043089,-0.00020351819694042206
1690841492237347800,1.644347900390625,-0.0003968654200434685,0.000027359696105122566,0.000019121915102005005
1690841492247388000,1.654387939453125,-0.0015877573750913143,-0.0009294508490711451,0.0012320280075073242
1690841492257429000,1.664428955078125,0.00009642541408538818,0.0013592697214335203,-0.00046280771493911743
1690841492267468800,1.67446875,-0.0008053225465118885,0.001842285506427288,-0.0001763720065355301
1690841492277508600,1.684508544921875,0.0007560886442661285,-0.0010573642794042826,-0.00017078034579753876
1690841492287548700,1.694548583984375,-0.0009054155088961124,-0.0003944581840187311,-0.0003629736602306366
1690841492297589800,1.70458984375,0.000623505562543869,0.0014023766852915287,-0.0004945341497659683
1690841492307660800,1.714660888671875,-0.000128990039229393,0.001426411559805274,-0.0012017954140901566
1690841492317700900,1.724700927734375,-0.0001881122589111328,0.0006847211625427008,-0.0011477340012788773
1690841492327741000,1.734740966796875,-0.00027601001784205437,-0.0004888502880930901,0.0007233433425426483
1690841492337780700,1.74478076171875,-0.0003375289961695671,-0.0011027087457478046,-0.0004899930208921432
1690841492347821800,1.75482177734375,-0.000614839605987072,0.0008948266040533781,-0.0002216082066297531
1690841492357861600,1.764861572265625,0.0011534993536770344,-0.00029320945031940937,-0.0012836754322052002
1690841492367901700,1.774901611328125,0.0000510350801050663,0.0013720825081691146,-0.0000020954757928848267
1690841492377942800,1.78494287109375,-0.0006051678210496902,0.000364075880497694,0.0008245501667261124
1690841492387982800,1.79498291015625,-0.00005715014412999153,-0.0007287338376045227,-0.0004577562212944031
1690841492398023000,1.80502294921875,-0.0005085556767880917,0.00020044296979904175,-0.000469207763671875
1690841492408062700,1.815062744140625,0.0004174686037003994,0.001180441933684051,-0.00029963254928588867
1690841492418103800,1.825103759765625,-0.0003785500302910805,0.00020812195725739002,-0.0000719316303730011
1690841492428143600,1.8351435546875,-0.0005082692950963974,-0.000044666463509202003,-0.0007518958300352097
1690841492438214700,1.845214599609375,0.001212132629007101,-0.00016157934442162514,-0.000916212797164917
1690841492448254700,1.855254638671875,-0.000982705969363451,-0.0013260566629469395,0.0016988664865493774
1690841492458277400,1.86527734375,0.0007544741965830326,0.00006118393503129482,0.0003033708781003952
1690841492468318500,1.875318359375,-0.001975990366190672,-0.0015083823818713427,0.00033499114215373993
1690841492478358300,1.885358154296875,0.0009646723046898842,0.0017561204731464386,-0.0006000455468893051
1690841492488398300,1.8953984375,-0.0005574105307459831,0.00048534071538597345,-0.00016161799430847168
1690841492498438400,1.9054384765625,-0.0015752706676721573,-0.0008267988450825214,-0.0002178102731704712
1690841492508479200,1.915479248046875,0.0006843158043920994,-0.00043699960224330425,-0.0007565617561340332
1690841492518519300,1.925519287109375,-0.001361791044473648,-0.00024178996682167053,0.0004320070147514343
1690841492528559400,1.935559326171875,0.000523740891367197,0.0005611378001049161,-0.001248631626367569
1690841492538600400,1.945600341796875,0.0005256049335002899,0.0022168250288814306,0.0015261173248291016
1690841492548640500,1.955640625,-0.001016060821712017,0.00008130818605422974,-0.0006839316338300705
1690841492558680300,1.965680419921875,0.0013967629056423903,-0.00009019952267408371,0.0016007926315069199
1690841492568751400,1.97575146484375,0.0004049106501042843,-0.000937772449105978,-0.0011222884058952332
1690841492578791400,1.98579150390625,0.001977773616090417,-0.00011432310566306114,0.0004076976329088211
1690841492588831500,1.99583154296875,0.001523028826341033,-0.0021101704332977533,-0.0005285665392875671
1690841492598872300,2.005872314453125,0.0006905249319970608,0.0016552729066461325,0.0012243259698152542
1690841492608912400,2.015912353515625,0.0019504562951624393,0.0005721630295738578,0.0013104062527418137
1690841492618952200,2.0259521484375,-0.0001425221562385559,-0.000744770048186183,-0.0011804476380348206
1690841492628993300,2.0359931640625,0.0010978409554809332,0.0008684885688126087,0.0009740404784679413
1690841492639033300,2.046033447265625,-0.000029208604246377945,0.0005965798627585173,0.0006182417273521423
1690841492649073400,2.056073486328125,0.0019930885173380375,0.0012290595332160592,0.00002547353506088257
1690841492659113500,2.066113525390625,-0.0007262653671205044,-0.00014566420577466488,-0.000263480469584465
1690841492669154300,2.076154296875,-0.0002799057401716709,0.001328656799159944,-0.0002860184758901596
1690841492679194400,2.0861943359375,0.0019235934596508741,0.0010775206610560417,0.0010069459676742554
1690841492689234400,2.096234375,0.00012503191828727722,-0.0014902192633599043,-0.0003126971423625946
1690841492699305200,2.10630517578125,0.0007950831204652786,-0.0014529349282383919,0.0006063599139451981
1690841492709345300,2.11634521484375,-0.0008797976188361645,0.001174217090010643,-0.00046153366565704346
1690841492719386400,2.126386474609375,-0.00045475689694285393,0.0023329583927989006,0.0006231721490621567
1690841492729426400,2.136426513671875,-0.0005107712931931019,0.002470881212502718,-0.0007660873234272003
1690841492739466500,2.146466552734375,0.0002415715716779232,-0.001438905717805028,0.00044538453221321106
1690841492749507300,2.15650732421875,0.00021526217460632324,-0.004070348106324673,-0.000053223222494125366
1690841492759547400,2.16654736328125,-0.0009405496530234814,0.002708196174353361,-0.0006465744227170944
1690841492769587200,2.176587158203125,-0.0002516801469027996,0.0006600233027711511,-0.002251436933875084
1690841492779627300,2.186627197265625,0.0011004067491739988,0.0031982820946723223,-0.00009134598076343536
1690841492789668400,2.19666845703125,-0.0003244164399802685,0.0009610113920643926,-0.0001474916934967041
1690841492799708400,2.20670849609375,0.0007182112894952297,0.0014744688523933291,-0.0012332629412412643
1690841492809748500,2.21674853515625,-0.0012828772887587547,0.0002977673429995775,-0.000949343666434288
1690841492819789300,2.226789306640625,0.0009453895036131144,0.00005408795550465584,-0.0009581316262483597
1690841492829859600,2.236859619140625,-0.0003991955891251564,0.0004069680580869317,-0.00003121420741081238
1690841492839900400,2.246900390625,0.0014389180578291416,-0.0024729743599891663,-0.0018791817128658295
1690841492849940200,2.256940185546875,-0.00020842719823122025,0.0002483960706740618,0.000028934329748153687
1690841492859980300,2.266980224609375,0.0007186192087829113,0.0006185754900798202,0.0014031268656253815
1690841492870020400,2.277020263671875,-0.00028132228180766106,0.00216483511030674,0.0006474889814853668
1690841492880061400,2.2870615234375,-0.0020480630919337273,0.0009062251774594188,-0.000768778845667839
1690841492890101500,2.2971015625,-0.0006594755686819553,0.0007336609996855259,-0.00004226714372634888
1690841492900141600,2.3071416015625,-0.000534573569893837,0.001483607105910778,-0.000797271728515625
1690841492910182400,2.317182373046875,-0.000235650222748518,0.0025224850978702307,0.0005791466683149338
1690841492920222200,2.32722216796875,0.0010096440091729164,0.0016196734504774213,0.0008068457245826721
1690841492930262300,2.33726220703125,0.000980030745267868,-0.000127389095723629,-0.0008492805063724518
1690841492940302300,2.34730224609375,-0.000374719500541687,0.0010619786335155368,-0.00041438639163970947
1690841492950343400,2.357343505859375,-0.00133062107488513,0.000744923367165029,-0.0008515529334545135
1690841492960414500,2.36741455078125,0.0001317206770181656,-0.0005565634928643703,-0.0011341143399477005
1690841492970454500,2.37745458984375,0.0007844208739697933,-0.001304669538512826,0.0006650332361459732
1690841492980494300,2.387494384765625,-0.0006662029772996902,-0.0005874803755432367,-0.00026520900428295135
1690841492990534400,2.397534423828125,-0.000009616371244192123,-0.0013864818029105663,-0.00020836293697357178
1690841493000575200,2.4075751953125,0.0006615002639591694,0.0004479035269469023,0.0011778119951486588
1690841493010615300,2.417615234375,-0.0014810515567660332,-0.0023703929036855698,0.0004768557846546173
1690841493020655400,2.4276552734375,0.000014846213161945343,-0.000963178463280201,0.00010428018867969513
1690841493030696400,2.437696533203125,0.0002096211537718773,0.00024043326266109943,-0.0012731514871120453
1690841493040736500,2.447736572265625,-0.0005368632264435291,0.00039223337080329657,-0.000011611729860305786
1690841493050776600,2.457776611328125,0.00031905993819236755,0.000622768304310739,0.001569526270031929
1690841493060816400,2.46781640625,0.00043197767809033394,-0.0000014766119420528412,-0.0003703199326992035
1690841493070857200,2.477857177734375,-0.0007753744721412659,-0.00003411201760172844,-0.00016911514103412628
1690841493080897300,2.487897216796875,0.00041319429874420166,0.001181088387966156,0.0008199829608201981
1690841493090968300,2.49796826171875,-0.0004545808769762516,0.0011845390545204282,0.0009534731507301331
1690841493101008400,2.50800830078125,0.0006594196893274784,0.002160054864361882,-0.0008846409618854523
1690841493111048400,2.51804833984375,-0.0011649099178612232,0.0008590224897488952,0.000394357368350029
1690841493121089500,2.528089599609375,0.0005610845983028412,0.0010795322014018893,-0.0015042107552289963
1690841493131129300,2.53812939453125,-0.00015511130914092064,-0.001964365364983678,-0.00026853568851947784
1690841493141169400,2.54816943359375,-0.000032339710742235184,-0.0008977691177278757,0.0008044503629207611
1690841493151209500,2.55820947265625,-0.0001742364838719368,-0.0006120272446423769,0.0004313550889492035
1690841493161250300,2.568250244140625,0.0007754466496407986,0.0004194149514660239,0.0015634652227163315
1690841493171290400,2.578290283203125,-0.0008788183331489563,0.00005126255564391613,-0.0006349608302116394
1690841493181330400,2.588330322265625,-0.0008109076879918575,-0.0018196082673966885,0.0004627928137779236
1690841493191371500,2.59837158203125,0.0010506040416657925,-0.0002070984337478876,0.0008986815810203552
1690841493201411600,2.60841162109375,0.0010181134566664696,0.0005937141831964254,-0.0007263794541358948
1690841493211451400,2.618451416015625,0.00020749540999531746,-0.0012549767270684242,-0.0010534338653087616
1690841493221522400,2.6285224609375,0.00008179387077689171,-0.00023179035633802414,-0.000688580796122551
1690841493231562500,2.6385625,0.0007697939872741699,-0.0012704944238066673,0.0007437858730554581
1690841493241602300,2.648602294921875,0.0007167970761656761,-0.0009045761544257402,0.0005240757018327713
1690841493251643400,2.658643310546875,0.00002456270158290863,-0.0019989146385341883,0.00022980011999607086
1690841493261683500,2.668683349609375,0.0006528026424348354,0.00005890987813472748,0.0001448448747396469
1690841493271723300,2.67872314453125,0.0010353585239499807,0.002443080535158515,0.0010642427951097488
1690841493281764400,2.688764404296875,0.0005924748256802559,-0.0008547119796276093,0.0009302850812673569
1690841493291804400,2.698804443359375,-0.0008818544447422028,0.0004880274645984173,-0.0011773724108934402
1690841493301844500,2.708844482421875,0.0009282962419092655,-0.0007873603608459234,-0.0006876159459352493
1690841493311884300,2.71888427734375,0.0007260814309120178,0.0005177905550226569,-0.0016330685466527939
1690841493321925400,2.72892529296875,-0.0004787323996424675,-0.001160267274826765,0.0008197017014026642
1690841493331965400,2.73896533203125,-0.0008203987963497639,-0.0009864268358796835,-0.0005378667265176773
1690841493342005500,2.749005615234375,0.001018780516460538,0.00006605428643524647,-0.002366393804550171
1690841493352046600,2.759046630859375,0.0005293041467666626,-0.00011473172344267368,0.0003907419741153717
1690841493362116400,2.769116455078125,-0.0010877670720219612,-0.0018838695250451565,-0.002364031970500946
1690841493372157400,2.779157470703125,0.0004976149648427963,-0.00033254362642765045,-0.0021898560225963593
1690841493382197500,2.789197509765625,-0.00009067729115486145,0.0006568208336830139,0.0015236567705869675
1690841493392237300,2.7992373046875,-0.0015148674137890339,0.0015064692124724388,-0.0007758587598800659
1690841493402278400,2.8092783203125,-0.0010930229909718037,-0.001304230885580182,-0.0010765306651592255
1690841493412318500,2.819318359375,-0.0007656058296561241,-0.00036366446875035763,0.001337442547082901
1690841493422358300,2.829358154296875,-0.0019938554614782333,-0.0006952281109988689,-0.003270624205470085
1690841493432398300,2.8393984375,0.000773996114730835,0.0004494906170293689,0.0011246353387832642
1690841493442439400,2.849439453125,0.00031353579834103584,-0.0006264264229685068,0.00005244649946689606
1690841493452484400,2.859484375,-0.0013202880509197712,-0.0005947344470769167,-0.0011324621737003326
1690841493462524200,2.869524169921875,-0.0006350567564368248,-0.00002215476706624031,-0.00022538937628269196
1690841493472565500,2.8795654296875,-0.0003286362625658512,0.0019760546274483204,0.0008240118622779846
1690841493482605300,2.889605224609375,-0.00013981806114315987,0.002563814166933298,0.000879138708114624
1690841493492676400,2.89967626953125,-0.0001615532673895359,0.0005152738885954022,0.0026427041739225388
1690841493502716400,2.90971630859375,0.00009464286267757416,0.0003392389044165611,-0.00036613643169403076
1690841493512756200,2.919756103515625,0.0009452842641621828,-0.0002741992939263582,-0.0016797594726085663
1690841493522796300,2.92979638671875,-0.00016765063628554344,0.0019628561567515135,0.00045716017484664917
1690841493532837400,2.93983740234375,0.0001393575221300125,0.0026299282908439636,0.0006353650242090225
1690841493542877200,2.949877197265625,0.0010275216773152351,-0.0013765310868620872,-0.0010248497128486633
1690841493552917200,2.959917236328125,0.0007803281769156456,0.0012757133226841688,0.0005016420036554337
1690841493562958300,2.969958251953125,-0.001474570482969284,-0.001457488862797618,-0.0010411273688077927
1690841493572998400,2.979998291015625,0.00018267938867211342,-0.0013474163133651018,0.001626303419470787
1690841493583038200,2.9900380859375,0.0007067895494401455,0.0007005544612184167,-0.00021474063396453857
1690841493593078300,3.000078369140625,0.0008867068681865931,-0.0004186101723462343,-0.00039581768214702606
1690841493603119400,3.010119384765625,0.0007447605021297932,-0.0001128793228417635,0.00026624463498592377
1690841493613159200,3.0201591796875,0.0007949597202241421,0.0007458118489012122,0.0003507900983095169
1690841493623230200,3.030230224609375,-0.0008402210660278797,-0.00036073150113224983,0.000497797504067421
1690841493633270300,3.040270263671875,0.0011100831907242537,-0.0014086586888879538,0.0005393177270889282
1690841493643310300,3.050310302734375,0.00044136354699730873,0.00009948946535587311,0.0005033649504184723
1690841493653351400,3.060351318359375,0.00011010561138391495,0.001849481021054089,0.0004326961934566498
1690841493663391200,3.07039111328125,-0.00046806689351797104,-0.00023657293058931828,-0.0004232432693243027
1690841493673431300,3.080431396484375,-0.000017481856048107147,0.0011072648921981454,0.0010129734873771667
1690841493683472400,3.090472412109375,-0.00014877552166581154,0.002435649512335658,0.0003711506724357605
1690841493693512200,3.10051220703125,0.0003407537005841732,-0.0022455849684774876,-0.0009155403822660446
1690841493703552300,3.11055224609375,-0.0004241061396896839,-0.00022051739506423473,0.0010405518114566803
1690841493713592300,3.12059228515625,-0.00010681338608264923,0.0009395531378686428,0.0011820774525403976
1690841493723633400,3.13063330078125,-0.00029536522924900055,-0.0015129519160836935,-0.001621432602405548
1690841493733673200,3.140673095703125,-0.0001156507059931755,-0.0013374369591474533,-0.0010465066879987717
1690841493743713300,3.15071337890625,-0.0007683918811380863,-0.00027776509523391724,-0.00020441412925720215
1690841493753784000,3.1607841796875,-0.00014909496530890465,-0.0023679197765886784,-0.0003632251173257828
1690841493763824000,3.17082421875,0.0009859444107860327,0.0012145646614953876,-0.001977100968360901
1690841493773865200,3.180865234375,-0.001347317360341549,0.0037952004931867123,0.0017451383173465729
1690841493783905300,3.1909052734375,0.0009504577610641718,0.00030033430084586143,0.00035363808274269104
1690841493793945300,3.2009453125,0.001044662669301033,-0.00039813900366425514,0.0005524363368749619
1690841493803985400,3.2109853515625,-0.00032872939482331276,-0.0007328982464969158,0.0006027687340974808
1690841493814026200,3.221026123046875,0.0007903394289314747,-0.0015292533207684755,-0.0013491082936525345
1690841493824066300,3.23106640625,0.00010643946006894112,-0.00009407592006027699,0.0008842181414365768
1690841493834106000,3.241106201171875,-0.0006199153140187263,-0.0015743761323392391,-0.0013305321335792542
1690841493844147200,3.251147216796875,-0.0010183239355683327,-0.00017408630810678005,-0.0012839268893003464
1690841493854187300,3.261187255859375,-0.0008579534478485584,0.00039759837090969086,-0.0007608644664287567
1690841493864227300,3.271227294921875,0.0020158635452389717,0.0009089253144338727,-0.0011603385210037231
1690841493874267400,3.281267333984375,0.000038539059460163116,-0.0018565468490123749,0.00035883672535419464
1690841493884338400,3.29133837890625,0.0007077911868691444,-0.0011031385511159897,-0.0011951178312301636
1690841493894378200,3.301378173828125,0.0017101727426052094,-0.0009940967429429293,-0.0011968687176704407
1690841493904419000,3.311419189453125,-0.0010177032090723515,-0.0003125937655568123,0.0011752080172300339
1690841493914459100,3.321459228515625,-0.0002507772296667099,0.0011148175690323114,0.00033203139901161194
1690841493924499200,3.331499267578125,-0.0004025772213935852,0.002044793451204896,-0.0011849049478769302
1690841493934540300,3.341540283203125,-0.0018928688950836658,-0.0017776661552488804,-0.00006412528455257416
1690841493944580400,3.351580322265625,0.0017034639604389668,-0.0007523491512984037,-0.0013853181153535843
1690841493954620400,3.361620361328125,-0.0009350446052849293,-0.0013217488303780556,-0.0009327586740255356
1690841493964660500,3.371660400390625,-0.0014309254474937916,-0.0014674237463623285,-0.0017343703657388687
1690841493974701300,3.381701416015625,0.0007806685753166676,0.0025884509086608887,0.000504571944475174
1690841493984741000,3.3917412109375,-0.0006502480246126652,-0.00021798815578222275,0.0013613104820251465
1690841493994781200,3.40178125,0.0009225723333656788,-0.00006910879164934158,-0.00131906196475029
1690841494004822300,3.411822265625,0.0010474745649844408,0.0014243918703868985,-0.00008735060691833496
1690841494014892300,3.421892333984375,-0.0021369289606809616,-0.00024230149574577808,-0.0010702703148126602
1690841494024933400,3.431933349609375,-0.0010370435193181038,0.00046476779971271753,-0.0012002326548099518
1690841494034973400,3.441973388671875,-0.00032017752528190613,0.0010037596803158522,0.00028888508677482605
1690841494045013200,3.45201318359375,0.0001168474555015564,0.0016106941038742661,-0.0008229855448007584
1690841494055054000,3.46205419921875,0.0005186377093195915,0.0003507512155920267,0.0026067569851875305
1690841494065094100,3.47209423828125,-0.00012877676635980606,-0.0010918830521404743,-0.000563204288482666
1690841494075134200,3.48213427734375,-0.0008951984345912933,0.00013285386376082897,-0.0005171727389097214
1690841494085174300,3.49217431640625,0.0002547544427216053,0.0014172964729368687,-0.0004223659634590149
1690841494095215400,3.50221533203125,-0.0007035993039608002,-0.0003138680476695299,0.0003513246774673462
1690841494105255400,3.51225537109375,-0.0005629840306937695,-0.0009066876955330372,0.0011521372944116592
1690841494115295500,3.52229541015625,0.0009997801389545202,0.00039601430762559175,-0.0008590966463088989
1690841494125336300,3.53233642578125,0.00040775956586003304,0.0003667195560410619,-0.0004127509891986847
1690841494135376100,3.542376220703125,-0.0005133035592734814,0.00043180445209145546,-0.0002429187297821045
1690841494145447200,3.552447265625,0.0007985697593539953,0.0014328868128359318,0.0017986614257097244
1690841494155487200,3.5624873046875,-0.0010660318657755852,0.00044868059922009706,0.001544935628771782
1690841494165527300,3.57252734375,0.001043724361807108,0.0026252821553498507,0.001461312174797058
1690841494175567400,3.5825673828125,-0.000979369506239891,-0.0006994986906647682,0.0013589169830083847
1690841494185608400,3.5926083984375,-0.0004536611959338188,-0.000028648413717746735,-0.0009684208780527115
1690841494195648300,3.602648193359375,0.0019556821789592505,-0.000993800349533558,0.0005683600902557373
1690841494205688300,3.612688232421875,-0.0003213202580809593,0.00008824188262224197,0.0010924693197011948
1690841494215729200,3.622729248046875,0.0001350841484963894,0.0004117239732295275,-0.00020881742238998413
1690841494225769200,3.632769287109375,-0.0007536127232015133,0.002456765389069915,-0.0006410479545593262
1690841494235809300,3.642809326171875,-0.0008266754448413849,-0.0017154726665467024,0.0007190760225057602
1690841494245849300,3.652849365234375,0.0005224817432463169,-0.0008174546528607607,0.0007121525704860687
1690841494255890400,3.662890380859375,-0.000590725801885128,0.0004257856635376811,0.0005210060626268387
1690841494265930200,3.67293017578125,-0.0005459845997393131,0.001601038733497262,0.0003295261412858963
1690841494276001300,3.683001220703125,-0.000929651316255331,0.0008719153702259064,0.0016862638294696808
1690841494286041300,3.693041259765625,0.000049326568841934204,0.002453566761687398,-0.000356113538146019
1690841494296081400,3.703081298828125,-0.0006239120848476887,-0.00021821982227265835,-0.0013440456241369247
1690841494306122200,3.713122314453125,-0.00008621998131275177,0.000571407494135201,0.0009750351309776306
1690841494316162300,3.723162353515625,0.0012724616099148989,0.0009805933805182576,-0.0011886991560459137
1690841494326202400,3.733202392578125,0.016755813732743263,0.43778347969055176,0.37373483180999756
1690841494336243500,3.743243408203125,0.04461835324764252,-0.013060441240668297,-0.12942509353160858
1690841494346283300,3.753283203125,-0.011434796266257763,-0.030263395980000496,-0.08228528499603271
1690841494356323300,3.7633232421875,0.0010943319648504257,0.014977428130805492,-0.0355401448905468
1690841494366363400,3.77336328125,0.010253209620714188,0.05230855569243431,-0.0024916473776102066
1690841494376404200,3.783404296875,-0.0010651913471519947,-0.010939331725239754,0.02844632789492607
1690841494386444300,3.7934443359375,-0.002299034036695957,-0.02355552464723587,0.05183340609073639
1690841494396484400,3.803484375,-0.005308092106133699,-0.0019999071955680847,0.06050361692905426
1690841494406555100,3.81355517578125,-0.0015857918187975883,0.016835300251841545,0.058969639241695404
1690841494416595200,3.82359521484375,0.0002510370686650276,0.025478847324848175,0.05128724128007889
1690841494426636300,3.83363623046875,0.0032327119261026382,0.025241825729608536,0.03222965821623802
1690841494436676400,3.84367626953125,0.003388366661965847,0.010749731212854385,0.011876911856234074
1690841494446716400,3.85371630859375,0.002044535707682371,-0.003313091117888689,-0.0095953568816185
1690841494456734700,3.863734619140625,0.0003927643410861492,-0.012943916022777557,-0.02801475301384926
1690841494466775600,3.873775634765625,-0.001218182034790516,-0.018002590164542198,-0.04073267802596092
1690841494476815600,3.883815673828125,-0.00035321060568094254,-0.01587298884987831,-0.04549029469490051
1690841494486855700,3.893855712890625,-0.0004557422362267971,-0.003004062222316861,-0.042435914278030396
1690841494496896800,3.903896728515625,0.000882911030203104,0.007322496734559536,-0.03497631847858429
1690841494506936600,3.9139365234375,0.0017396498005837202,0.01366295013576746,-0.022431502118706703
1690841494516976600,3.9239765625,0.00041729770600795746,0.012426733039319515,-0.006128476932644844
1690841494527016700,3.9340166015625,-0.0006580865010619164,0.007089758291840553,0.007686937227845192
1690841494537087700,3.944087646484375,-0.0016442323103547096,-0.0017395594622939825,0.022943800315260887
1690841494547127800,3.9541279296875,0.0004146574065089226,-0.00790078192949295,0.03175007551908493
1690841494557168600,3.964168701171875,-0.0002076057717204094,-0.01208423264324665,0.03217104822397232
1690841494567208400,3.97420849609375,0.000864050118252635,-0.009659158065915108,0.03130658343434334
1690841494577248500,3.98424853515625,0.0004943790845572948,-0.0036397429648786783,0.02211267501115799
1690841494587289600,3.99428955078125,0.00110450922511518,0.0029483847320079803,0.012113836593925953
1690841494597329700,4.00432958984375,0.000042339786887168884,0.006991168484091759,0.0006800331175327301
1690841494607369700,4.01436962890625,-0.0022844644263386726,0.008854050189256668,-0.011344937607645988
1690841494617409800,4.024409912109375,-0.0007096705958247185,0.0038809634279459715,-0.0192547719925642
1690841494627450600,4.03445068359375,-0.0008223224431276321,-0.00036890897899866104,-0.02561093680560589
1690841494637490400,4.044490478515625,0.000059532467275857925,-0.006610773503780365,-0.026592254638671875
1690841494647530500,4.054530517578125,-0.0009551318362355232,-0.003401930443942547,-0.023585814982652664
1690841494657571600,4.064571533203125,0.000361765269190073,-0.004049679264426231,-0.01731089875102043
1690841494667641600,4.0746416015625,0.0007636360824108124,-0.0011471000034362078,-0.0059336107224226
1690841494677682700,4.0846826171875,-0.0002068779431283474,0.0034490684047341347,0.0038377735763788223
1690841494687722800,4.09472265625,-0.00035894429311156273,0.00323228701017797,0.012509291991591454
1690841494697762800,4.1047626953125,0.000055130571126937866,0.004935121163725853,0.016379375010728836
1690841494707803600,4.1148037109375,-0.0017158715054392815,0.0034679858945310116,0.02079969085752964
1690841494717843500,4.124843505859375,0.0006862771697342396,-0.0022265117149800062,0.016964059323072433
1690841494727883500,4.134883544921875,0.0007009245455265045,-0.001670975936576724,0.014560822397470474
1690841494737923600,4.144923583984375,0.0005751438438892365,-0.005662826821208,0.008371730335056782
1690841494747964700,4.154964599609375,-0.0007292726077139378,-0.002642269479110837,0.0007644109427928925
1690841494758004700,4.165004638671875,-0.000687671359628439,-0.00008918833918869495,-0.004681458696722984
1690841494768044800,4.175044921875,-0.0011744974181056023,0.001172084710560739,-0.010084213688969612
1690841494778085600,4.185085693359375,-0.0014421306550502777,0.004062891472131014,-0.012229518964886665
1690841494788125400,4.19512548828125,-0.0005888538435101509,0.005470904987305403,-0.013197047635912895
1690841494798196500,4.205196533203125,0.000521740410476923,0.00009921728633344173,-0.013610336929559708
1690841494808236500,4.215236572265625,0.0008631574455648661,-0.0024108118377625942,-0.007824620231986046
1690841494818276600,4.225276611328125,-0.0010959897190332413,-0.003482763422653079,-0.003918491303920746
1690841494828316700,4.235316650390625,-0.0004435153678059578,-0.0028284245636314154,0.0014445818960666656
1690841494838357800,4.245357666015625,0.0014747362583875656,-0.002336133737117052,0.003737419843673706
1690841494848397800,4.255397705078125,0.0005900338292121887,-0.0013041587080806494,0.007862390018999577
1690841494858437600,4.265437744140625,-0.00008551636710762978,0.00003113201819360256,0.010657953098416328
1690841494868478500,4.275478515625,-0.0011113658547401428,0.0012742956168949604,0.009505070745944977
1690841494878518500,4.2855185546875,-0.00034955237060785294,0.004743482917547226,0.009218326769769192
1690841494888558600,4.29555859375,-0.0001546088606119156,0.0011197195854038,0.004797479137778282
1690841494898598700,4.3055986328125,0.001130561577156186,0.0016029649414122105,0.002367442473769188
1690841494908639700,4.3156396484375,-0.0015829331241548061,0.00013476423919200897,-0.002430509775876999
1690841494918679800,4.3256796875,-0.0004661194980144501,-0.002668053610250354,-0.005303453654050827
1690841494928750600,4.33575048828125,-0.00010978849604725838,-0.0014411353040486574,-0.008047841489315033
1690841494938790700,4.345790771484375,-0.00019114185124635696,0.0012504892656579614,-0.008138582110404968
1690841494948830700,4.355830810546875,-0.0008034026250243187,0.0011586101027205586,-0.0073801130056381226
1690841494958871600,4.36587158203125,-0.0009409235790371895,-0.0008762069046497345,-0.003824051469564438
1690841494968911600,4.37591162109375,-0.0008884593844413757,0.0005531116621568799,-0.001895388588309288
1690841494978951700,4.38595166015625,-0.0005412767641246319,0.002382794627919793,-0.00017760135233402252
1690841494988991700,4.39599169921875,0.0015778006054461002,-0.0026108985766768456,0.003338569775223732
1690841494999032800,4.40603271484375,-0.0002522566355764866,0.0006937617436051369,0.005980552174150944
1690841495009072600,4.41607275390625,-0.00032203132286667824,-0.0020351794082671404,0.0052697546780109406
1690841495019112700,4.42611279296875,-0.0016007418744266033,-0.0011394398752599955,0.005911213345825672
1690841495029153500,4.436153564453125,0.00019396236166357994,0.0002597849816083908,0.00436418317258358
1690841495039193600,4.446193603515625,-0.0008948845788836479,0.0007885703817009926,0.002889420837163925
1690841495049233700,4.456233642578125,0.001702762907370925,0.0016399829182773829,-0.0007071774452924728
1690841495059304700,4.4663046875,-0.00191587395966053,-0.0012524763587862253,-0.0018225088715553284
1690841495069344500,4.476344482421875,-0.00009347312152385712,-0.00041517848148941994,-0.003663552924990654
1690841495079385600,4.486385498046875,0.0009580736514180899,0.00011409446597099304,-0.005059368908405304
1690841495089425700,4.49642578125,-0.0015682009980082512,-0.0016084378585219383,-0.006229028105735779
1690841495099465700,4.5064658203125,-0.0005884384736418724,-0.00023449771106243134,-0.0026708226650953293
1690841495109505500,4.516505615234375,-0.0016720783896744251,-0.0006187919061630964,-0.0032268911600112915
1690841495119546600,4.526546630859375,-0.00047616753727197647,0.0012637965846806765,-0.0015008971095085144
1690841495129586700,4.536586669921875,0.0009257204364985228,-0.0014100170228630304,0.0006394851952791214
1690841495139626800,4.546626708984375,0.0006103250198066235,0.0005345803219825029,0.0003442689776420593
1690841495149667800,4.556667724609375,-0.0004581352695822716,0.0003034179098904133,0.0026124827563762665
1690841495159707600,4.566707763671875,-0.0010389834642410278,0.00023393682204186916,0.0021103937178850174
1690841495169747700,4.576747802734375,0.0011559941340237856,0.00007681036368012428,0.003100557252764702
1690841495179787500,4.58678759765625,0.0006200438365340233,-0.00045981653966009617,0.0018025320023298264
1690841495189858600,4.596858642578125,0.0004674447700381279,-0.00256664352491498,0.001207049936056137
1690841495199898600,4.606898681640625,-0.0008265883661806583,-0.001096462830901146,0.00025275908410549164
1690841495209939700,4.616939697265625,-0.0006068777292966843,-0.00040377466939389706,-0.001612519845366478
1690841495219979500,4.6269794921875,0.0009805080480873585,0.0009398128604516387,-0.003314608708024025
1690841495230019600,4.63701953125,-0.0008083372376859188,-0.00007884623482823372,-0.0016325563192367554
1690841495240060700,4.647060791015625,0.001856536604464054,0.0005064019933342934,-0.0014689601957798004
1690841495250100700,4.657100830078125,-0.000302222091704607,0.00030666496604681015,-0.0024905502796173096
1690841495260140500,4.667140625,-0.0006161872297525406,0.0004187013255432248,-0.0013730674982070923
1690841495270180600,4.6771806640625,-0.00023934990167617798,-0.0012628184631466866,0.0005377493798732758
1690841495280221700,4.6872216796875,-0.0007248986512422562,0.001167641137726605,0.00018040090799331665
1690841495290261800,4.69726171875,0.0001952238380908966,-0.0003495616838335991,0.0035381149500608444
1690841495300301600,4.707301513671875,0.00010368507355451584,-0.000010377960279583931,0.002949075773358345
1690841495310342700,4.7173427734375,-0.0010523931123316288,-0.0036567782517522573,0.002603664994239807
1690841495320412700,4.72741259765625,-0.00021511130034923553,-0.0004481684882193804,0.0016312692314386368
1690841495330453800,4.737453857421875,-0.0005626538768410683,-0.0019528544507920742,0.0008488334715366364
1690841495340493600,4.74749365234375,-0.0003564921207726002,-0.0003476820420473814,-0.0006580054759979248
1690841495350533600,4.75753369140625,-0.00014556990936398506,0.0007063969969749451,0.0005923472344875336
1690841495360574700,4.76757470703125,-0.0006535304710268974,0.000595069257542491,-0.0010954178869724274
1690841495370614500,4.777614501953125,-0.000512382946908474,-0.00019322638399899006,-0.000955602154135704
1690841495380654600,4.787654541015625,0.0002867169678211212,0.001099353889003396,-0.003246476873755455
1690841495390694700,4.797694580078125,0.00002732500433921814,-0.0006830997299402952,-0.0019974559545516968
1690841495400735700,4.80773583984375,0.0009135091677308083,0.0011486923322081566,-0.0008892249315977097
1690841495410775600,4.817775634765625,-0.0010055648162961006,0.0006187232211232185,-0.0010695215314626694
1690841495420815600,4.827815673828125,-0.0008526192978024483,-0.0003044833429157734,-0.00023499876260757446
1690841495430856700,4.837856689453125,-0.0006835088133811951,0.0004507891135290265,-0.0001963842660188675
1690841495440896500,4.847896484375,-0.0005835634656250477,0.0013572894968092442,0.002811634913086891
1690841495450967600,4.857967529296875,0.0007309727370738983,0.0018486427143216133,-0.0007878933101892471
1690841495461015600,4.868015625,-0.00045342231169342995,-0.001267697662115097,0.00043360888957977295
1690841495471055400,4.878055419921875,0.00023393984884023666,-0.0026552046183496714,-0.0009262021631002426
1690841495481095400,4.888095458984375,-0.0017579933628439903,0.00021601933985948563,0.00037899240851402283
1690841495491136300,4.89813623046875,0.0010353964753448963,0.0022828986402601004,0.00036354735493659973
1690841495501176300,4.90817626953125,0.0005860002711415291,0.00006719166412949562,-0.000043351203203201294
1690841495511216400,4.91821630859375,0.0008227555081248283,0.0000623979140073061,-0.0002020765095949173
1690841495521257500,4.928257568359375,-0.00009623216465115547,-0.0009058648720383644,-0.0013156849890947342
1690841495531297500,4.938297607421875,-0.0018608425743877888,-0.00077403848990798,-0.0005215313285589218
1690841495541337600,4.948337646484375,-0.00048558879643678665,-0.00038167554885149,0.000008402392268180847
1690841495551377400,4.95837744140625,0.00035943230614066124,-0.0011356163304299116,-0.001133561134338379
1690841495561418200,4.968418212890625,0.0005907141603529453,0.0004678933182731271,-0.002669980749487877
1690841495571458300,4.978458251953125,0.0001057526096701622,0.000836474820971489,-0.0018204320222139359
1690841495581529300,4.988529296875,-0.00025822781026363373,-0.0008301706984639168,-0.0017573945224285126
1690841495591569400,4.9985693359375,-0.0010763509199023247,-0.004585494287312031,0.0005281306803226471
1690841495601609500,5.008609375,0.0012239255011081696,-0.001175534212961793,0.0009963717311620712
1690841495611650600,5.018650634765625,-0.0009643938392400742,0.00157577742356807,0.002963649109005928
1690841495621690400,5.0286904296875,-0.0016308734193444252,0.0010710775386542082,0.0030579883605241776
1690841495631730400,5.03873046875,0.0006123068742454052,-0.0014647843781858683,0.0011458378285169601
1690841495641770200,5.048770263671875,0.0023620789870619774,0.0006601747591048479,0.001198025420308113
1690841495651811300,5.058811279296875,-0.0007247910834848881,0.0022096019238233566,0.0008936263620853424
1690841495661851400,5.068851318359375,0.0009534424170851707,0.00043099443428218365,-0.0011930838227272034
1690841495671891500,5.078891357421875,0.0006130905821919441,-0.0013152402825653553,-0.0021419674158096313
1690841495681932500,5.0889326171875,0.000986010069027543,-0.0012380911502987146,-0.002612149342894554
1690841495691972600,5.09897265625,0.000997461611405015,-0.0007565917912870646,-0.003141852095723152
1690841495702012400,5.109012451171875,-0.0005057808011770248,-0.0004610999021679163,-0.0003085993230342865
1690841495712083500,5.11908349609375,-0.0003284141421318054,-0.0004893294535577297,-0.0004484150558710098
1690841495722123300,5.129123291015625,-0.0008534803055226803,-0.0015563969500362873,0.00011152215301990509
1690841495732164400,5.139164306640625,-0.0006904946640133858,-0.00007408135570585728,0.00008702091872692108
1690841495742204400,5.149204345703125,0.00003896700218319893,0.0007310908986255527,0.0017507877200841904
1690841495752244500,5.159244384765625,-0.0019509471021592617,-0.0014588264748454094,0.00041041895747184753
1690841495762284300,5.1692841796875,-0.00045115919783711433,0.0004090443253517151,0.00015920773148536682
1690841495772325400,5.179325439453125,0.0005704294890165329,0.00186339661013335,-0.000258374959230423
1690841495782365400,5.189365478515625,0.00032558850944042206,-0.00150066870264709,-0.003395307809114456
1690841495792405200,5.1994052734375,0.0004046843387186527,-0.0015030656941235065,-0.0031534936279058456
1690841495802446300,5.2094462890625,-0.0004380629397928715,0.0012676813639700413,-0.000980861485004425
1690841495812486400,5.219486328125,-0.00044578593224287033,0.00009881984442472458,-0.0016269441694021225
1690841495822526500,5.2295263671875,-0.0006101713515818119,0.0015139858005568385,-0.0012766532599925995
1690841495832566300,5.239566162109375,-0.0010852795094251633,0.0015483405441045761,-0.000042811036109924316
1690841495842637300,5.24963720703125,-0.0007422100752592087,-0.0014181933365762234,0.00030269473791122437
1690841495852677400,5.259677490234375,-0.0008018650114536285,-0.0015127353835850954,-0.0009926669299602509
1690841495862718500,5.269718505859375,-0.001328198704868555,0.0002261472400277853,-0.0019335169345140457
1690841495872758300,5.27975830078125,0.0021235242020338774,-0.0004036901518702507,-0.0003856867551803589
1690841495882798300,5.28979833984375,0.0006829854100942612,-0.00019380194135010242,-0.00007394514977931976
1690841495892839400,5.29983935546875,0.0002595428377389908,0.000992103829048574,0.00047493353486061096
1690841495902879500,5.30987939453125,0.000016129575669765472,0.0002482486888766289,-0.00009992346167564392
1690841495912919300,5.319919189453125,0.00003077695146203041,0.0002759457565844059,-0.0004927404224872589
1690841495922959400,5.32995947265625,-0.00006601307541131973,-0.00046403100714087486,-0.00002800486981868744
1690841495933000400,5.34000048828125,-0.000856439583003521,-0.0012752299662679434,-0.00035797059535980225
1690841495943040300,5.350040283203125,0.0003459216095507145,0.0002457194495946169,0.0006912518292665482
1690841495953080300,5.360080322265625,0.0011153090745210648,0.002293423982337117,0.0009351968765258789
1690841495963121400,5.370121337890625,-0.0008241659961640835,0.0018613648135215044,-0.00064799003303051
1690841495973191200,5.380191162109375,-0.001793024130165577,-0.000013766810297966003,0.0004388466477394104
1690841495983232300,5.390232177734375,-0.0018382049165666103,-0.0020931002218276262,-0.0013987571001052856
1690841495993272300,5.400272216796875,-0.001613167580217123,0.0013706071767956018,0.0006058048456907272
1690841496003312400,5.4103125,0.0006648460403084755,0.0010256662499159575,-0.0014472920447587967
1690841496013353500,5.420353515625,-0.0007037525065243244,-0.00002015708014369011,-0.0012688599526882172
1690841496023393300,5.430393310546875,0.0011179521679878235,0.0014107292518019676,0.0011682957410812378
1690841496033433300,5.440433349609375,0.000151757150888443,0.00004186434671282768,-0.0007294733077287674
1690841496043473400,5.450473388671875,0.0002148924395442009,0.0013054535957053304,0.0002527032047510147
1690841496053514500,5.460514404296875,-0.0006687445566058159,0.002616527723148465,-0.00015635788440704346
1690841496063554300,5.47055419921875,-0.0002622161991894245,-0.0008085323497653008,0.0015680324286222458
1690841496073594400,5.480594482421875,0.0007109032012522221,-0.00018375483341515064,0.0006564315408468246
1690841496083635500,5.490635498046875,0.001453273929655552,0.0010734164388850331,-0.001364016905426979
1690841496093675300,5.50067529296875,0.0004095812328159809,-0.0006573719438165426,-0.00006945431232452393
1690841496103746300,5.510746337890625,0.0005359305068850517,0.0007146393181756139,-0.00016165710985660553
1690841496113786400,5.520786376953125,-0.0017336155287921429,-0.0018907312769442797,-0.00035446882247924805
1690841496123826200,5.530826171875,-0.0009872750379145145,0.0016086639370769262,0.0009767469018697739
1690841496133866200,5.5408662109375,-0.00033852923661470413,0.00029625813476741314,0.0010920614004135132
1690841496143907300,5.5509072265625,-0.001246737316250801,-0.00026158569380640984,0.0004979483783245087
1690841496153947400,5.560947509765625,-0.0004690941423177719,0.0002497411333024502,0.0004939530044794083
1690841496163987500,5.570987548828125,-0.0015758993104100227,0.0013870876282453537,0.0022598709911108017
1690841496174028300,5.5810283203125,0.00008191866800189018,0.0019237145315855742,0.0008779559284448624
1690841496184068400,5.591068359375,-0.0005894815549254417,-0.00030069961212575436,-0.0011799857020378113
1690841496194108400,5.6011083984375,0.00003343168646097183,-0.0015031166840344667,-0.001596502959728241
1690841496204148200,5.611148193359375,-0.00016272114589810371,0.00010243360884487629,-0.002460535615682602
1690841496214189300,5.621189208984375,0.0005797683261334896,0.0005881941178813577,0.000025259330868721008
1690841496224229400,5.6312294921875,-0.0010926076211035252,-0.00021809549070894718,0.0007087774574756622
1690841496234300400,5.641300537109375,0.0003945012576878071,0.0016881951596587896,0.0003263484686613083
1690841496244340500,5.651340576171875,0.00003426847979426384,-0.00131960678845644,0.0003812480717897415
1690841496254380500,5.661380615234375,-0.00022592255845665932,0.0014050733298063278,0.00012318603694438934
1690841496264421400,5.67142138671875,0.0008256919682025909,0.0006627915427088737,0.0013136956840753555
1690841496274461200,5.681461181640625,-0.0009445110335946083,0.00038928480353206396,-0.0013401433825492859
1690841496284501200,5.691501220703125,0.00046939542517066,-0.0007956272456794977,-0.0006127189844846725
1690841496294541300,5.701541259765625,0.0006052167154848576,-0.0001585991121828556,-0.00023774616420269012
1690841496304582400,5.71158251953125,-0.001691094134002924,0.001150130177848041,-0.0012615565210580826
1690841496314622500,5.72162255859375,-0.000312908086925745,-0.0010523039381951094,-0.0008959043771028519
1690841496324662500,5.73166259765625,0.0005134562961757183,-0.001121340086683631,0.0007858127355575562
1690841496334703400,5.741703369140625,-0.0008719200268387794,0.000767373712733388,-0.00046960078179836273
1690841496344743400,5.751743408203125,0.00001661805436015129,0.0002172414679080248,0.00012323632836341858
1690841496354783200,5.761783203125,-0.00021401187404990196,0.0013131322339177132,0.0002649165689945221
1690841496364854300,5.771854248046875,-0.0007147085852921009,0.0006754262140020728,0.000982159748673439
1690841496374894300,5.781894287109375,0.00018703797832131386,0.0005366754485294223,-0.0012884512543678284
1690841496384935400,5.791935302734375,-0.0014835987240076065,0.0008478291565552354,0.0004012119024991989
1690841496394975500,5.8019755859375,0.0010517307091504335,-0.0013053365983068943,-0.0006217081099748611
1690841496405015600,5.812015625,0.00030938489362597466,0.0004376339493319392,0.0007893983274698257
1690841496415055400,5.822055419921875,-0.00024162326008081436,-0.0015216537285596132,0.0007073730230331421
1690841496425096200,5.83209619140625,-0.00084731075912714,0.0003082877956330776,0.0013691633939743042
1690841496435136300,5.84213623046875,-0.00030589010566473007,0.0001120127271860838,-0.0011837426573038101
1690841496445176300,5.85217626953125,0.0010606220457702875,-0.0005861481186002493,0.0007795151323080063
1690841496455215400,5.86221533203125,0.001728542847558856,0.000461539370007813,0.00047351792454719543
1690841496465255400,5.87225537109375,0.0020115734077990055,-0.0003326751757413149,0.0010849889367818832
1690841496475295500,5.88229541015625,-0.0007551847957074642,-0.00030977209098637104,0.0006101466715335846
1690841496485335600,5.89233544921875,-0.0016058655455708504,0.0024067272897809744,-0.001942802220582962
1690841496495406300,5.90240625,-0.0004481892101466656,-0.00030357157811522484,0.00027561187744140625
1690841496505446400,5.9124462890625,0.000891522504389286,-0.0016961253713816404,0.00003482215106487274
1690841496515487500,5.922487548828125,-0.0006768130697309971,-0.0010561677627265453,0.0007565375417470932
1690841496525527600,5.932527587890625,0.0004967506974935532,-0.0016751724760979414,-0.0003035459667444229
1690841496535567600,5.942567626953125,-0.00023881439119577408,-0.0010991308372467756,-0.0019009094685316086
1690841496545608400,5.9526083984375,-0.00102631701156497,0.000006417045369744301,-0.00023871660232543945
1690841496555648500,5.9626484375,-0.00038635917007923126,-0.00005350424908101559,-0.0008914563804864883
1690841496565688600,5.9726884765625,0.001002445351332426,0.002401463920250535,-0.0009523089975118637
1690841496575728400,5.982728271484375,-0.0008377991616725922,0.0004640142433345318,-0.0005752053111791611
1690841496585769500,5.99276953125,-0.00022967159748077393,0.0012957247672602534,0.0009573418647050858
1690841496595809500,6.0028095703125,-0.00031649088487029076,0.0013375363778322935,0.0002697128802537918
1690841496605849600,6.012849609375,-0.0007113656029105186,-0.001072016777470708,0.0003331191837787628
1690841496615890400,6.022890380859375,-0.0004953835159540176,0.00026941741816699505,-0.001710057258605957
1690841496625960700,6.032960693359375,0.00007236562669277191,-0.0010781660676002502,-0.0012308917939662933
1690841496636001500,6.04300146484375,0.0010121953673660755,-0.0003750915639102459,0.00039496831595897675
1690841496646041300,6.053041259765625,-0.0005210959352552891,0.0017875978955999017,-0.0005020741373300552
1690841496656081400,6.063081298828125,-0.0008491971530020237,0.002549794502556324,0.0005275048315525055
1690841496666122500,6.07312255859375,-0.0004928573034703732,-0.0005127217154949903,-0.0008955057710409164
1690841496676162600,6.08316259765625,0.0010272751096636057,0.00224897637963295,-0.00008217617869377136
1690841496686202600,6.09320263671875,-0.00008052028715610504,-0.00021755904890596867,-0.0024723634123802185
1690841496696242700,6.10324267578125,-0.0007684146985411644,0.0004389100940898061,-0.0005088150501251221
1690841496706283500,6.113283447265625,-0.000755765475332737,0.00045129237696528435,-0.0007264968007802963
1690841496716323600,6.123323486328125,-0.0003682756796479225,0.0013679524417966604,-0.000024221837520599365
1690841496726363400,6.13336328125,-0.00043825944885611534,-0.0011574099771678448,-0.00027611106634140015
1690841496736404500,6.143404541015625,-0.0017282948829233646,-0.0008849685546010733,-0.00003962218761444092
1690841496746444500,6.153444580078125,-0.000090770423412323,0.0009144751820713282,0.001627391204237938
1690841496756515600,6.163515625,-0.001904915552586317,-0.0015255131293088198,0.0012409668415784836
1690841496766555600,6.1735556640625,-0.000467703677713871,0.0003444866742938757,0.0005402229726314545
1690841496776595700,6.183595703125,0.0011341879144310951,-0.0007687145844101906,-0.001125851646065712
1690841496786635500,6.193635498046875,-0.0002746894024312496,-0.00036673108115792274,0.0003848206251859665
1690841496796676400,6.20367626953125,-0.00012022582814097404,0.00031051086261868477,0.0007528699934482574
1690841496806716400,6.21371630859375,0.00041028251871466637,-0.002413721289485693,0.001506393775343895
1690841496816756500,6.223756591796875,-0.0016600587405264378,0.0010513177840039134,-0.0009556971490383148
1690841496826797600,6.233797607421875,-0.0014727390371263027,-0.0029208099003881216,-0.0017619915306568146
1690841496836837600,6.243837646484375,-0.0004998864606022835,0.00002944003790616989,-0.003218740224838257
1690841496846877700,6.253877685546875,-0.00038176262751221657,-0.0023491212632507086,0.00007052160799503326
1690841496856917500,6.26391748046875,0.0010065431706607342,0.000029081478714942932,0.0007586833089590073
1690841496866958600,6.27395849609375,0.0003771600313484669,0.00041589280590415,0.00041056983172893524
1690841496876998400,6.283998291015625,-0.0006380369886755943,-0.002348468406125903,-0.0004807915538549423
1690841496887069400,6.2940693359375,-0.000013678334653377533,0.0006880940636619925,-0.00045613013207912445
1690841496897109500,6.304109619140625,0.0001658187247812748,0.00021458393894135952,-0.0012143328785896301
1690841496907149600,6.314149658203125,-0.0009020287543535233,-0.0012567504309117794,0.0002888292074203491
1690841496917190700,6.324190673828125,0.00010437937453389168,-0.0013875116128474474,-0.0005348864942789078
1690841496927230700,6.334230712890625,0.00038724206387996674,-0.00013968604616820812,0.0008048787713050842
1690841496937270500,6.3442705078125,0.0005180034786462784,-0.001486979192122817,0.00023709237575531006
1690841496947310300,6.354310302734375,0.0007770764641463757,0.0017893270123749971,0.00016365572810173035
1690841496957351400,6.364351318359375,-0.0005036378279328346,0.0005522886058315635,0.00023476220667362213
1690841496967391500,6.3743916015625,-0.0007310174405574799,0.0009293693583458662,0.0007397327572107315
1690841496977431600,6.384431640625,0.0008032298646867275,-0.002168153179809451,0.0003983154892921448
1690841496987472600,6.39447265625,0.0005776844918727875,-0.00010548648424446583,-0.0011054445058107376
1690841496997512700,6.4045126953125,-0.0006907791830599308,-0.00015874975360929966,0.0018730349838733673
1690841497007552500,6.414552490234375,-0.000354791060090065,-0.0010874231811612844,0.001224348321557045
1690841497017623600,6.42462353515625,-0.0016461578197777271,0.0005978252738714218,0.0013511162251234055
1690841497027663400,6.434663330078125,-0.001428509596735239,-0.0010928213596343994,-0.0008701980113983154
1690841497037704400,6.444704345703125,-0.0008601914159953594,0.00044036051258444786,-0.0008792523294687271
1690841497047744500,6.45474462890625,0.0006609223783016205,-0.0015068314969539642,-0.0011392664164304733
1690841497057784600,6.46478466796875,-0.00023682927712798119,0.0008466038852930069,0.0008285436779260635
1690841497067824600,6.47482470703125,-0.0005703577771782875,0.0001621609553694725,0.0022768154740333557
1690841497077865700,6.48486572265625,0.0002461671829223633,0.0036956430412828922,0.0014115534722805023
1690841497087905300,6.4949052734375,-0.0005883071571588516,0.0005937028909102082,0.0011061299592256546
1690841497097945300,6.5049453125,0.00017016101628541946,0.00041979853995144367,0.001049138605594635
1690841497107986400,6.514986328125,0.0005327458493411541,0.0010978622594848275,-0.00027123838663101196
1690841497118026500,6.525026611328125,-0.0009317263029515743,0.0021546045318245888,-0.0006667189300060272
1690841497128066600,6.535066650390625,0.000017052050679922104,-0.0006049403455108404,-0.0009288322180509567
1690841497138106600,6.545106689453125,-0.0008910857141017914,-0.00007923250086605549,-0.00011044181883335114
1690841497148177400,6.555177490234375,-0.00029922928661108017,-0.0007691767532378435,0.0018377695232629776
1690841497158217500,6.565217529296875,0.0004906640388071537,0.00045747519470751286,0.002202089875936508
1690841497168258300,6.57525830078125,0.00017978763207793236,0.0013182804686948657,-0.00012099742889404297
1690841497178298400,6.58529833984375,0.001070348545908928,0.0013228078605607152,0.001528564840555191
1690841497188338400,6.59533837890625,0.00025742780417203903,0.0006121658952906728,-0.0010521039366722107
1690841497198379500,6.605379638671875,0.0010390656534582376,0.002234030980616808,-0.00048245303332805634
1690841497208419600,6.615419677734375,-0.0010696183890104294,-0.001264664577320218,-0.0001317579299211502
1690841497218459600,6.625459716796875,0.0010651715565472841,0.0014980987180024385,-0.000991160050034523
1690841497228499500,6.63549951171875,0.001040698029100895,0.0005851382156834006,-0.000023420900106430054
1690841497238540300,6.645540283203125,-0.00004667090252041817,0.002046681009232998,-0.0012732427567243576
1690841497248580400,6.655580322265625,0.000998710747808218,0.0016648373566567898,-0.0004591848701238632
1690841497258620400,6.665620361328125,0.0007110894657671452,0.0010563051328063011,-0.0011675860732793808
1690841497268661500,6.67566162109375,-0.0008892924524843693,-0.0015155731234699488,0.0015343055129051208
1690841497278731500,6.6857314453125,-0.0015534847043454647,-0.0005030392203480005,-0.0007240548729896545
1690841497288772600,6.695772705078125,-0.0005064173601567745,-0.0019711439963430166,0.0012146774679422379
1690841497298812400,6.7058125,0.000207576435059309,0.0022981695365160704,-0.0010892227292060852
1690841497308852500,6.7158525390625,-0.0009335405193269253,-0.0028861919417977333,0.0004924144595861435
1690841497318893300,6.725893310546875,-0.0003271386958658695,0.00047445076052099466,-0.0013132095336914062
1690841497328933400,6.735933349609375,0.0008347136899828911,0.0003035329282283783,-0.002158232033252716
1690841497338973400,6.745973388671875,-0.0007615853101015091,-0.0007500136271119118,0.00005538761615753174
1690841497349013500,6.756013427734375,0.0010593000333756208,-0.00011044926941394806,-0.0011117123067378998
1690841497359054600,6.7660546875,0.002047865418717265,-0.0020889118313789368,0.0015471875667572021
1690841497369094700,6.7760947265625,-0.00022099725902080536,0.0007356095593422651,0.001159433275461197
1690841497379134500,6.786134521484375,0.0010408086236566305,-0.0012761421967297792,0.0008587632328271866
1690841497389174500,6.796174560546875,-7.092021405696869e-7,0.0001271064393222332,0.00019696727395057678
1690841497399215400,6.80621533203125,-0.0016753049567341805,0.0001595970243215561,0.0006899181753396988
1690841497409286400,6.816286376953125,0.0004534744657576084,0.000278175575658679,0.0006867647171020508
1690841497419326500,6.826326416015625,0.0004361639730632305,0.0014228023355826735,-0.0024669505655765533
1690841497429366500,6.836366455078125,-0.0006664549000561237,-0.0010340323206037283,-0.00020980648696422577
1690841497439406300,6.84640625,-0.0003881542943418026,-0.0002587861381471157,-0.0002140682190656662
1690841497449447400,6.856447509765625,0.0005302783101797104,-0.0015260560903698206,-0.0019030384719371796
1690841497459473200,6.86647314453125,-0.0011975807137787342,-0.0023849254939705133,-0.0011613480746746063
1690841497469513200,6.87651318359375,0.0006017833948135376,-0.0016056369058787823,0.0018312707543373108
1690841497479554300,6.88655419921875,-0.0007899845950305462,-0.000028512906283140182,-0.0006028581410646439
1690841497489594000,6.896593994140625,0.0006337622180581093,0.0037524658255279064,0.0017293132841587067
1690841497499634200,6.90663427734375,0.0005778358317911625,-0.0008787713013589382,-0.000607077032327652
1690841497509674000,6.916674072265625,-0.001228252425789833,0.0002572976518422365,-0.0002455320209264755
1690841497519715000,6.926715087890625,0.00015685753896832466,-0.0010873323772102594,-0.0009438116103410721
1690841497529755100,6.936755126953125,0.0005256421864032745,-0.0017980339471250772,0.0002634786069393158
1690841497539826200,6.946826171875,0.00007663341239094734,0.00154396693687886,0.000041637569665908813
1690841497549866200,6.9568662109375,0.000654289498925209,0.0018080975860357285,-0.002057807520031929
1690841497559906300,6.96690625,0.00045987870544195175,-0.0013741136062890291,-0.000998668372631073
1690841497569947100,6.976947021484375,0.0005830423906445503,-0.0010164037812501192,-0.00023030675947666168
1690841497579987200,6.9869873046875,-0.00019673118367791176,0.0011580673744902015,-0.0022500474005937576
1690841497590027000,6.997027099609375,0.0010059315245598555,0.0024718674831092358,-0.0019153878092765808
1690841497600067000,7.007067138671875,0.0010690484195947647,-0.00004854821600019932,-0.0009497255086898804
1690841497610108200,7.017108154296875,-0.0001817694865167141,0.000855690916068852,-0.000059721991419792175
1690841497620148200,7.027148193359375,-0.0004310416989028454,-0.0021893675439059734,-0.0022906512022018433
1690841497630188300,7.037188232421875,-0.0004478730261325836,-0.001081401715055108,-0.00030047260224819183
1690841497640229000,7.04722900390625,0.0002466789446771145,0.0022574032191187143,-0.0005412232130765915
1690841497650269200,7.057269287109375,-0.0008836477063596249,-0.001502741826698184,-0.0004358738660812378
1690841497660309000,7.06730908203125,-0.0004913639277219772,0.001591585110872984,0.00018118135631084442
1690841497670380000,7.077380126953125,-0.00009368639439344406,-0.00021695182658731937,-0.0005938764661550522
1690841497680420000,7.087420166015625,0.0009979435708373785,0.00015402655117213726,0.001622673124074936
1690841497690461200,7.097461181640625,-0.0003896881826221943,-0.0015392552595585585,-0.0012168306857347488
1690841497700501200,7.107501220703125,-0.0010821097530424595,-0.00043031503446400166,-0.00021921098232269287
1690841497710541300,7.117541259765625,-0.000902857631444931,-0.00014939089305698872,-0.0012688953429460526
1690841497720581000,7.1275810546875,-0.0018956838175654411,0.0000034745316952466965,0.0007063709199428558
1690841497730622000,7.1376220703125,0.0007886867970228195,-0.0008979279082268476,0.0016823168843984604
1690841497740662000,7.147662109375,-0.0002419562079012394,0.0013527094852179289,-0.00032890215516090393
1690841497750702000,7.1577021484375,0.00023251911625266075,0.0004989175358787179,-0.0005558785051107407
1690841497760743200,7.1677431640625,-0.000391992274671793,0.0006909314543008804,0.0006942097097635269
1690841497770783200,7.177783203125,-0.0009164032526314259,0.00037101109046489,-0.0002889558672904968
1690841497780823300,7.1878232421875,0.0010215789079666138,-0.00043912255205214024,0.0004282332956790924
1690841497790863400,7.19786328125,0.00003270106390118599,-0.0001917704939842224,0.00044714659452438354
1690841497800934100,7.20793408203125,-0.0014512124471366405,0.00028759846463799477,0.0009515509009361267
1690841497810974200,7.21797412109375,-0.0004184688441455364,-0.0003927680663764477,0.00043770112097263336
1690841497821015000,7.22801513671875,0.0005775531753897667,0.0012717077042907476,0.0003250502049922943
1690841497831055000,7.23805517578125,0.00009518163278698921,-0.00020308024249970913,0.00026391632854938507
1690841497841095200,7.24809521484375,-0.0009868605993688107,-0.0002805781550705433,0.000631432980298996
1690841497851136300,7.25813623046875,-0.0002995803952217102,0.0007213951321318746,0.0007718242704868317
1690841497861176300,7.26817626953125,-0.00029691727831959724,-0.00027223024517297745,-0.0011059697717428207
1690841497871216000,7.278216064453125,-0.00204324908554554,-0.0014470783062279224,-0.00037772394716739655
1690841497881256200,7.288256103515625,0.0004223054274916649,0.0014808010309934616,-0.00008823908865451813
1690841497891297000,7.298297119140625,0.00023323949426412582,-0.00009513227269053459,-0.0008033048361539841
1690841497901337000,7.308337158203125,0.0010119478683918715,0.0004481526557356119,0.0000782012939453125
1690841497911377200,7.318377197265625,0.0010759776923805475,0.0022732962388545275,-0.0006833095103502274
1690841497921418200,7.328418212890625,0.00042590033262968063,-0.0007893391884863377,-0.0010191332548856735
1690841497931488300,7.33848828125,0.0007683923467993736,-0.0011398815549910069,0.000060277059674263
1690841497941529300,7.348529296875,0.0006458871066570282,0.0019318084232509136,0.00036414340138435364
1690841497951569200,7.358569091796875,-0.0009128395467996597,-0.00042491964995861053,-0.0004973243921995163
1690841497961609200,7.368609130859375,0.001036061905324459,-0.00004062545485794544,0.00011546909809112549
1690841497971650000,7.378650146484375,-0.0005944338627159595,-0.0001569674350321293,0.00031239353120326996
1690841497981690000,7.388690185546875,-0.00001546274870634079,0.0008547673933207989,-0.0006162505596876144
1690841497991730200,7.398730224609375,-0.00041396450251340866,-0.0006318665109574795,-0.00001084059476852417
1690841498001770200,7.408770263671875,-0.0004949243739247322,-0.0025842299219220877,-0.0009259022772312164
1690841498011811300,7.418811279296875,0.0009137915913015604,0.0002016313374042511,-0.0005811229348182678
1690841498021851100,7.42885107421875,0.0008197822608053684,-0.00009184889495372772,0.001179225742816925
1690841498031891200,7.43889111328125,-0.000622166320681572,0.0010299161076545715,0.0006370227783918381
1690841498041931300,7.44893115234375,-0.0003902050666511059,0.0012381753185763955,0.00000398978590965271
1690841498051972000,7.45897216796875,0.00013994425535202026,0.000024107517674565315,-0.0006321240216493607
1690841498062043100,7.469043212890625,-0.0004901597276329994,0.0012467647902667522,-0.000032646581530570984
1690841498072083200,7.479083251953125,-0.000804864801466465,0.000927447690628469,0.000192202627658844
1690841498082123300,7.489123291015625,0.00000793207436800003,-0.0020065566059201956,0.0004569217562675476
1690841498092163000,7.4991630859375,0.0003054658882319927,-0.0003731073811650276,0.0001400727778673172
1690841498102204200,7.5092041015625,-0.0008538081310689449,0.0010881691705435514,0.0016173291951417923
1690841498112244200,7.519244140625,0.001932973274961114,0.0019372807582840323,0.00047350116074085236
1690841498122284300,7.5292841796875,-0.0002609388902783394,0.00013352185487747192,0.001539032906293869
1690841498132325000,7.5393251953125,0.0003362875431776047,0.0008756143506616354,0.0001643747091293335
1690841498142365200,7.549365234375,-0.0006810398772358894,0.00038106529973447323,-0.000777319073677063
1690841498152405200,7.5594052734375,0.00019387667998671532,-0.0023755370639264584,-0.0005378704518079758
1690841498162445000,7.569445068359375,-0.00025673024356365204,-0.0002780312206596136,-0.00035411305725574493
1690841498172486100,7.579486083984375,-0.0004058210179209709,0.00023624906316399574,-0.0009033624082803726
1690841498182526200,7.589526123046875,0.000689270906150341,-0.0012894757091999054,-0.0004154704511165619
1690841498192597200,7.59959716796875,0.0030430094338953495,0.0003817254910245538,-0.0002819802612066269
1690841498202637300,7.60963720703125,0.0008922405540943146,0.0012219527270644903,-0.0008295252919197083
1690841498212677000,7.619677001953125,-0.0009969626553356647,-0.000050398288294672966,0.000902244821190834
1690841498222718200,7.62971826171875,-0.00034848274663090706,0.002272943500429392,-0.001237872987985611
1690841498232758300,7.63975830078125,0.001970036653801799,-0.00005153892561793327,0.00191473588347435
1690841498242798000,7.649798095703125,0.0010469849221408367,-0.00034821522422134876,-0.0007678661495447159
1690841498252838100,7.659838134765625,0.0006398353725671768,-0.00009414204396307468,-0.000711122527718544
1690841498262879200,7.669879150390625,-0.0006525968201458454,-0.0005982783623039722,0.0001189839094877243
1690841498272919300,7.679919189453125,0.002075327094644308,-0.0001624315045773983,0.0006512831896543503
1690841498282959000,7.689958984375,0.0006625200621783733,-0.0007323480676859617,0.000758875161409378
1690841498293000200,7.700000244140625,0.000267059076577425,-0.0014549118932336569,0.0017892662435770035
1690841498303040300,7.710040283203125,-0.00020325509831309319,0.0007382011972367764,0.0008073598146438599
1690841498313080000,7.720080078125,-0.0013642390258610249,0.0009717491921037436,0.0003361497074365616
1690841498323151000,7.730151123046875,0.00017719855532050133,0.0035680648870766163,-0.001011144369840622
1690841498333191200,7.740191162109375,0.000875245314091444,0.0014457495417445898,0.00045786425471305847
1690841498343232300,7.750232177734375,0.00041105644777417183,-0.00046533485874533653,-0.0020428448915481567
1690841498353272300,7.760272216796875,-0.00028756028041243553,-0.0005514123477041721,0.000027591362595558167
1690841498363312000,7.77031201171875,0.0007670512422919273,-0.0013389091473072767,0.001379411667585373
1690841498373352000,7.78035205078125,-0.00033677928149700165,-0.00010418891906738281,0.0002851877361536026
1690841498383393300,7.790393310546875,0.0005439277738332748,-0.00014253845438361168,-0.00003465823829174042
1690841498393433000,7.80043310546875,0.000542737077921629,-0.00016567204147577286,-0.0012165829539299011
1690841498403473200,7.81047314453125,0.0012969444505870342,-0.00030868384055793285,0.0005208626389503479
1690841498413514200,7.82051416015625,0.000745273195207119,-0.0007430678233504295,-0.0011006668210029602
1690841498423554300,7.83055419921875,-0.0015924498438835144,0.0012250082800164819,-0.0010095871984958649
1690841498433594000,7.840593994140625,0.007903414778411388,0.023846248164772987,-0.21559861302375793
1690841498443634200,7.85063427734375,0.002553656930103898,-0.024620620533823967,-0.23396563529968262
1690841498453705000,7.860705078125,-0.007378562353551388,-0.03599311038851738,-0.12135948985815048
1690841498463739400,7.870739501953125,-0.006244322285056114,-0.07289599627256393,-0.029624778777360916
1690841498473780500,7.880780517578125,-0.0075253332033753395,0.0112984674051404,0.028436770662665367
1690841498483820500,7.890820556640625,-0.01005933154374361,0.04195145145058632,0.11508218944072723
1690841498493860600,7.900860595703125,0.003751586191356182,-0.023221388459205627,0.14146041870117188
1690841498503901400,7.9109013671875,0.007878687232732773,0.019101567566394806,0.14225777983665466
1690841498513941500,7.92094140625,0.0019417901057749987,0.0349850095808506,0.10066001862287521
1690841498523981300,7.930981201171875,-0.002285977825522423,0.011698593385517597,0.10646171122789383
1690841498534021400,7.941021484375,-0.0009262086823582649,0.02139587327837944,0.1013399213552475
1690841498544062500,7.9510625,-0.004849044606089592,-0.005670364946126938,0.03524239361286163
1690841498554102500,7.9611025390625,-0.001206467393785715,-0.013686462305486202,-0.008873183280229568
1690841498564142600,7.971142578125,-0.0008498700335621834,-0.004720131866633892,-0.04114750027656555
1690841498574183400,7.981183349609375,0.0015807971358299255,-0.00889170728623867,-0.07397469133138657
1690841498584253200,7.991253173828125,0.003370441496372223,0.0029263359028846025,-0.09318726509809494
1690841498594294300,8.001294189453125,0.0031977195758372545,0.009979029186069965,-0.10021542012691498
1690841498604334300,8.011334228515626,0.0015652019064873457,0.004148837178945541,-0.11083663254976273
1690841498614374400,8.02137451171875,-0.0010225120931863785,0.004721455741673708,-0.0934835746884346
1690841498624415500,8.03141552734375,-0.0028651533648371696,0.007158514112234116,-0.06415445357561111
1690841498634455600,8.04145556640625,-0.0016690809279680252,0.0009538718732073903,-0.034427158534526825
1690841498644495400,8.051495361328126,-0.0008946340531110764,-0.005848906468600035,0.004673905670642853
1690841498654535400,8.061535400390625,0.001575227826833725,-0.00629047118127346,0.03979090601205826
1690841498664576500,8.071576416015626,0.0015675046015530825,-0.007303271442651749,0.06276466697454453
1690841498674616300,8.0816162109375,0.002400878584012389,-0.0031390301883220673,0.07954807579517365
1690841498684656400,8.091656494140626,0.000677014235407114,-0.0014449937734752893,0.084043487906456
1690841498694696400,8.101696533203125,0.0006159571930766106,0.0031831914093345404,0.07728634774684906
1690841498704737500,8.111737548828126,0.00010170089080929756,0.004676958546042442,0.060401372611522675
1690841498714808600,8.12180859375,-0.0002756216563284397,0.0028851754032075405,0.03629313409328461
1690841498724848400,8.131848388671875,0.0005092117935419083,0.0012811534106731415,0.01380193792283535
1690841498734888200,8.14188818359375,0.00029492098838090897,-0.0035532983019948006,-0.014414742588996887
1690841498744928300,8.15192822265625,-0.0004012291319668293,-0.0033013634383678436,-0.03604333847761154
1690841498754969300,8.16196923828125,0.0003081359900534153,-0.0029694235417991877,-0.05363597720861435
1690841498765009400,8.172009521484375,-0.00039094407111406326,-0.0016769913490861654,-0.060150064527988434
1690841498775049500,8.182049560546876,-0.0008126874454319477,0.0003034914843738079,-0.06020140275359154
1690841498785090600,8.192090576171875,-0.00002332683652639389,0.003507007844746113,-0.05130884423851967
1690841498795130400,8.20213037109375,-0.0014201072044670582,0.004031111486256123,-0.03838902711868286
1690841498805170400,8.21217041015625,-0.0012960038147866726,0.0043229940347373486,-0.01743767224252224
1690841498815210200,8.222210205078126,0.0013222983106970787,0.000350775895640254,-0.001108422875404358
1690841498825251300,8.232251220703125,0.00190952536650002,-0.0006873244419693947,0.018059145659208298
1690841498835291400,8.24229150390625,0.0008726315572857857,-0.0042919376865029335,0.034688256680965424
1690841498845362400,8.252362548828126,-0.0006725345738232136,-0.0016780453734099865,0.04332888126373291
1690841498855402500,8.262402587890625,-0.00006162887439131737,-0.0003692295867949724,0.048066236078739166
1690841498865442600,8.272442626953126,0.0004662098363041878,0.00029789237305521965,0.042397696524858475
1690841498875483400,8.2824833984375,0.00011363066732883453,-0.0013834997080266476,0.03285040706396103
1690841498885523200,8.292523193359376,0.0006209625862538815,0.0028181695379316807,0.018341505900025368
1690841498895563300,8.302563232421875,-0.0006974199786782265,0.0017855481710284948,0.002085914835333824
1690841498905603300,8.312603271484376,0.0008362946100533009,0.0016979301581159234,-0.0117164496332407
1690841498915644400,8.32264453125,0.00019781757146120071,0.0009041978046298027,-0.023301124572753906
1690841498925684500,8.3326845703125,0.0005014180205762386,0.0005486657610163093,-0.032015785574913025
1690841498935724500,8.342724609375,0.0008536523673683405,-0.00043819891288876534,-0.03363131359219551
1690841498945765400,8.352765380859376,-0.0018244222737848759,-0.0022590020671486855,-0.034379661083221436
1690841498955805200,8.36280517578125,0.0021878727711737156,-0.0012239592615514994,-0.028966130688786507
1690841498965845200,8.37284521484375,-0.0004593092016875744,-0.0030548826325684786,-0.016248738393187523
1690841498975916300,8.382916259765626,0.000014467164874076843,-0.00011714943684637547,-0.005314597859978676
1690841498985956400,8.392956298828125,0.001016614492982626,0.0018988634692505002,0.005005417391657829
1690841498995997400,8.40299755859375,-0.00030446192249655724,0.0004464902449399233,0.015902990475296974
1690841499006037500,8.41303759765625,0.00029102107509970665,0.0021988502703607082,0.021947035565972328
1690841499016077600,8.42307763671875,-0.00036900490522384644,-0.0008957299869507551,0.02696518786251545
1690841499026117400,8.433117431640625,0.0007567130960524082,-0.0021961512975394726,0.025061028078198433
1690841499036158200,8.443158203125,0.0002745874226093292,-0.001418759347870946,0.018953023478388786
1690841499046198300,8.4531982421875,-0.0002569793723523617,-0.0007793342228978872,0.012290594168007374
1690841499056238300,8.46323828125,0.0009024434257298708,-0.0002721112687140703,0.004414370283484459
1690841499066279400,8.473279541015625,-0.000574545469135046,0.00010552490130066872,-0.0046270620077848434
1690841499076319500,8.483319580078126,0.00042522046715021133,-0.0005230323877185583,-0.011088553816080093
1690841499086359600,8.493359619140625,-0.0008088885806500912,0.0016554335597902536,-0.01907164603471756
1690841499096399400,8.5033994140625,-0.000342764426022768,0.001095759798772633,-0.018463483080267906
1690841499106470400,8.513470458984376,0.0011041308753192425,0.0007849688408896327,-0.01926855556666851
1690841499116510500,8.523510498046875,0.0005837674252688885,0.0013225632719695568,-0.014336079359054565
1690841499126551300,8.53355126953125,0.000737698283046484,0.0010863409843295813,-0.009941063821315765
1690841499136591400,8.54359130859375,0.0007211975753307343,0.0006736863870173693,-0.005796797573566437
1690841499146631400,8.55363134765625,0.0008855147752910852,-0.0009511082898825407,0.0001910533756017685
1690841499156672500,8.563672607421875,-0.0010323291644454002,-0.002307583810761571,0.0074914321303367615
1690841499166712600,8.573712646484376,-0.001081597525626421,-0.001051104161888361,0.010717585682868958
1690841499176752400,8.58375244140625,-0.0003314921632409096,-0.000929664121940732,0.014698745682835579
1690841499186792400,8.59379248046875,-0.0003336230292916298,0.0002770142164081335,0.012900312431156635
1690841499196833300,8.603833251953125,-0.0007641338743269444,-0.0002891998738050461,0.010311787016689777
1690841499206873300,8.613873291015626,0.0006603910587728024,0.00316119147464633,0.009294992312788963
1690841499216913400,8.623913330078125,-0.0011879606172442436,0.001023482414893806,0.0058935824781656265
1690841499226954500,8.63395458984375,-0.0005037947557866573,0.002258123829960823,-0.0022951047867536545
1690841499237024300,8.644024169921876,-0.0005270000547170639,-0.00031140842474997044,-0.006213070824742317
1690841499247065300,8.6540654296875,-0.0003395136445760727,-0.00015028729103505611,-0.010653095319867134
1690841499257105400,8.66410546875,-0.00009920122101902962,0.0012603331124410033,-0.01038580946624279
1690841499267145500,8.6741455078125,-0.0004494069144129753,0.001792432740330696,-0.011271577328443527
1690841499277186300,8.684186279296876,-0.0008724285289645195,0.000008982373401522636,-0.00960969366133213
1690841499287226400,8.694226318359375,0.00017792219296097755,0.001491830451413989,-0.005669811740517616
1690841499297266400,8.704266357421876,-0.000712936744093895,-0.0019337839912623167,-0.0024820324033498764
1690841499307306500,8.714306396484375,-0.0011800550855696201,0.0003131250850856304,0.0026315022259950638
1690841499317347600,8.72434765625,-0.0005146623589098454,0.00014765653759241104,0.007133297622203827
1690841499327387400,8.734387451171875,0.00018601538613438606,-0.0009951060637831688,0.006935957819223404
1690841499337427500,8.744427490234376,0.0015104478225111961,0.0019347931956872344,0.009823139756917953
1690841499347467500,8.754467529296875,-0.0005742749199271202,-0.000295071629807353,0.00970595981925726
1690841499357508400,8.76450830078125,-0.0004733768291771412,-0.000059635378420352936,0.007822530344128609
1690841499367579400,8.774579345703126,-0.0005743107758462429,0.001409896882250905,0.005560440942645073
1690841499377619500,8.784619384765625,-0.00045812781900167465,0.002974247792735696,-0.002066340297460556
1690841499387659300,8.7946591796875,0.0007701218128204346,0.0001004307996481657,-0.005583576858043671
1690841499397699300,8.80469921875,0.0021731574088335037,-0.0002221008762717247,-0.008075166493654251
1690841499407740400,8.814740478515626,-0.0009957379661500454,-0.0037337453104555607,-0.007987549528479576
1690841499417780500,8.824780517578125,0.0011162306182086468,0.0008470502216368914,-0.006925689056515694
1690841499427820500,8.834820556640626,-0.0003517037257552147,-0.0015705674886703491,-0.002864900976419449
1690841499437861400,8.844861328125,-0.0019727712497115135,0.0010802156757563353,-0.00025674328207969666
1690841499447901400,8.8549013671875,-0.0014225621707737446,0.002972391666844487,0.002647167071700096
1690841499457918700,8.864918701171876,-0.0005058269016444683,0.003909788094460964,0.0028872229158878326
1690841499467958500,8.87495849609375,0.0011597143020480871,0.003924701362848282,0.004284050315618515
1690841499477999400,8.884999267578126,-0.0004898067563772202,0.001151952426880598,0.0028250273317098618
1690841499488039400,8.895039306640625,-0.0001715589314699173,-0.0016845804639160633,0.0020828042179346085
1690841499498110500,8.9051103515625,-0.0008321930654346943,-0.0032538375817239285,0.0019841045141220093
1690841499508150500,8.915150634765626,-0.000006879214197397232,-0.00426956731826067,0.0002469252794981003
1690841499518190600,8.925190673828125,-0.00031505944207310677,-0.0034723225980997086,0.0010493919253349304
1690841499528231700,8.935231689453126,0.00042423419654369354,-0.002510122489184141,9.052455425262451e-7
1690841499538271500,8.945271484375,0.0008884395938366652,0.0002619537990540266,0.00010745413601398468
1690841499548311600,8.9553115234375,-0.0014295759610831738,0.004060686565935612,0.0015514194965362549
1690841499558351600,8.9653515625,0.0005991160869598389,0.007711845450103283,-0.0002634190022945404
1690841499568392400,8.975392333984376,0.00006967969238758087,0.002437721472233534,-0.0008993819355964661
1690841499578432500,8.9854326171875,0.0009136218577623367,0.003292098408564925,-0.003668643534183502
1690841499588472600,8.99547265625,-0.000264560803771019,-0.003286175662651658,-0.00636003352701664
1690841499598513700,9.005513671875,-0.0008918070234358311,-0.005440643988549709,-0.0035004019737243652
1690841499608553700,9.0155537109375,-0.002039629500359297,-0.008614866062998772,-0.00635344535112381
1690841499618593500,9.025593505859375,-0.0007608886808156967,-0.004607794340699911,-0.0031757503747940063
1690841499628664600,9.03566455078125,0.0008391386363655329,-0.0026775356382131577,0.0007689241319894791
1690841499638704600,9.04570458984375,0.0005275257863104343,0.0017546415328979492,0.0037301965057849884
1690841499648745500,9.055745361328125,-0.001240813173353672,0.00521808210760355,0.0035498999059200287
1690841499658785500,9.06578564453125,-0.0010059038177132607,0.0066118426620960236,0.005200137384235859
1690841499668825600,9.07582568359375,0.00021835137158632278,0.0068579185754060745,0.004915179684758186
1690841499678865400,9.085865478515625,-0.0013649375177919865,0.004626831039786339,0.0033499933779239655
1690841499688906500,9.095906494140625,0.00011391611769795418,-0.001043571624904871,0.0000812280923128128
1690841499698946600,9.105946533203126,-0.0004813694395124912,-0.005083838943392038,-0.0015316363424062729
1690841499708986600,9.115986572265625,-0.000850217416882515,-0.0031660967506468296,-0.0032752081751823425
1690841499719027500,9.12602734375,0.0000614440068602562,-0.0017664453480392694,-0.0050653256475925446
1690841499729067500,9.136067626953125,-0.0009460295550525188,-0.003688714699819684,-0.0050898268818855286
1690841499739107600,9.146107666015626,0.0009601041674613953,0.0018303972901776433,-0.0021038278937339783
1690841499749147600,9.156147705078125,0.0014908721204847097,0.004760406911373138,-0.0006324313580989838
1690841499759218400,9.166218505859375,-0.0008847792632877827,0.0031502656638622284,0.001710064709186554
1690841499769258500,9.176258544921875,0.0009884883183985949,0.003985432907938957,0.0015398897230625153
1690841499779299600,9.186299560546875,-0.00007377751171588898,0.0038137766532599926,0.0007211510092020035
1690841499789339600,9.196339599609376,-0.0006101378239691257,0.0019098829943686724,0.0013414006680250168
1690841499799379700,9.206379638671875,0.00018820352852344513,-0.000571761280298233,0.000993652269244194
1690841499809420500,9.216420654296876,-0.00005760602653026581,-0.001011981861665845,-0.000914769247174263
1690841499819460600,9.226460693359375,-0.0013409308157861233,-0.005230856128036976,0.0007728356868028641
1690841499829500400,9.23650048828125,0.0006151609122753143,-0.0027799487579613924,0.0005126446485519409
1690841499839540500,9.24654052734375,0.0006560632027685642,-0.0007065583486109972,0.0015384219586849213
1690841499849581600,9.25658154296875,0.001094685634598136,0.0008561844006180763,0.002739507704973221
1690841499859621600,9.26662158203125,-0.00007901154458522797,0.004809266421943903,0.001096390187740326
1690841499869661700,9.27666162109375,0.00019369600340723991,0.005005008541047573,0.0006886608898639679
1690841499879702500,9.28670263671875,0.0007250928319990635,0.0040370868518948555,-0.0006771516054868698
1690841499889772500,9.2967724609375,-0.0009907814674079418,0.0005624607438221574,-0.0007424000650644302
1690841499899813600,9.306813720703126,0.0008624554611742496,0.0010833864798769355,-0.00029769167304039
1690841499909853400,9.316853515625,-0.0008190646767616272,-0.0016357009299099445,-0.0029978714883327484
1690841499919893500,9.3268935546875,-0.00024735182523727417,-0.0028876280412077904,-0.0027244295924901962
1690841499929934600,9.3369345703125,-0.00008969241753220558,-0.0026117246598005295,-0.003365451470017433
1690841499939974700,9.346974609375,0.0009017866104841232,-0.0014240003656595945,-0.0013652760535478592
1690841499950014500,9.357014404296875,-0.0007610912434756756,-0.0015062922611832619,0.001332240179181099
1690841499960054500,9.367054443359375,-0.0017615500837564468,0.0018935201223939657,0.0005622431635856628
1690841499970095600,9.377095703125,0.0005857604555785656,0.0020969854667782784,0.0033561643213033676
1690841499980135400,9.387135498046876,0.0010499167256057262,0.003029769519343972,0.003651609644293785
1690841499990175500,9.397175537109375,0.0002248692326247692,0.002383686602115631,0.0019815415143966675
1690841500000215600,9.407215576171875,-0.0006881393492221832,-0.0014917585067451,-0.000020582228899002075
1690841500010256600,9.417256591796875,-0.00026150094345211983,-0.001493888907134533,-0.0031657759100198746
1690841500020327700,9.42732763671875,0.001357261324301362,0.0018702070228755474,-0.003326607868075371
1690841500030367500,9.437367431640626,0.0016326322220265865,0.00021718302741646767,-0.0018869023770093918
1690841500040407600,9.447407470703125,0.00040454650297760963,-0.0015296901110559702,0.00044129230082035065
1690841500050447400,9.457447265625,0.00031399913132190704,-0.0014324847143143415,-0.001142755150794983
1690841500060488400,9.467488525390625,-0.0006901300512254238,0.0001414264552295208,0.0008290912955999374
1690841500070528500,9.477528564453126,0.00039803748950362206,0.0011225349735468626,0.0007947366684675217
1690841500080568600,9.487568603515625,-0.0005373340100049973,0.0019575406331568956,0.001506570726633072
1690841500090609700,9.497609619140626,0.0005108863115310669,-0.00021932716481387615,0.0014027077704668045
1690841500100649500,9.5076494140625,0.0005541299469769001,0.0007238314719870687,0.001203363761305809
1690841500110689500,9.517689453125,0.0006915493868291378,0.0024895071983337402,-0.0008928105235099792
1690841500120729300,9.527729248046874,-0.00054180808365345,-0.00031263567507267,-0.0006939917802810669
1690841500130770400,9.5377705078125,-0.0009151832200586796,-0.0010330209042876959,-0.0030903052538633347
1690841500140810500,9.547810546875,0.0006441283039748669,-0.0012859192211180925,-0.00018641911447048187
1690841500150881500,9.557881591796875,0.001041472190991044,-0.001143972622230649,0.00047670863568782806
1690841500160921600,9.567921630859376,-0.0002988949418067932,0.0009005722822621465,0.0002089422196149826
1690841500170961700,9.577961669921875,0.0006145695224404335,0.0015613024588674307,0.0015027057379484177
1690841500181002500,9.58800244140625,-0.000765657052397728,-0.00022064591757953167,-0.0003233402967453003
1690841500191042600,9.59804248046875,0.00013582315295934677,0.0013330422807484865,0.0017448700964450836
1690841500201082400,9.608082275390625,0.00007614819332957268,0.0029485158156603575,-0.0008714199066162109
1690841500211122400,9.618122314453124,-0.0008202716708183289,-0.0002123899757862091,-0.00086209736764431
1690841500221163500,9.62816357421875,-0.0004962170496582985,0.0009529165690764785,-0.003376370295882225
1690841500231203600,9.63820361328125,-0.0015114140696823597,-0.0025997404009103775,-0.002291666343808174
1690841500241243600,9.64824365234375,0.0005814842879772186,-0.0008443375118076801,-0.0022515300661325455
1690841500251284500,9.658284423828125,0.001550076063722372,-0.0015972130931913853,-0.0009990464895963669
1690841500261324500,9.668324462890626,-0.0011352943256497383,0.000578972278162837,-0.00013892725110054016
1690841500271395300,9.678395263671876,-0.0007605873979628086,-0.0009150609839707613,0.0014299415051937103
1690841500281435400,9.688435302734375,-0.0009484365582466125,-0.00040664547123014927,-0.00042874179780483246
1690841500291475500,9.698475341796875,-0.0007486995309591293,0.002387543208897114,0.0016522519290447235
1690841500301516500,9.7085166015625,-0.0002401028759777546,-0.000003957189619541168,-0.0011656805872917175
1690841500311556600,9.718556640625,-0.0004883091896772385,-0.00024044583551585674,0.000026615336537361145
1690841500321596700,9.7285966796875,-0.0001991339959204197,-0.0008066128939390182,-0.0016980934888124466
1690841500331636500,9.738636474609375,0.0009092735126614571,-0.001140040811151266,-0.002172403037548065
1690841500341677300,9.74867724609375,0.0008718790486454964,0.0001747750211507082,-0.00036157481372356415
1690841500351717400,9.75871728515625,0.0005946438759565353,-0.00012536323629319668,0.000701291486620903
1690841500361757400,9.76875732421875,-0.0009511187672615051,0.00047923275269567966,0.00005031004548072815
1690841500371798500,9.778798583984376,-0.0003918549045920372,-0.001575129572302103,0.00042421743273735046
1690841500381838600,9.788838623046875,-0.002061266452074051,-0.0005868030712008476,-0.00011885538697242737
1690841500391878700,9.798878662109376,-0.0007347459904849529,0.0018747567664831877,0.001820191740989685
1690841500401949700,9.80894970703125,0.0008886319119483232,0.0015833558281883597,0.001132747158408165
1690841500411989500,9.818989501953125,0.001083308830857277,0.0014030598104000092,0.00013060122728347778
1690841500422029600,9.829029541015625,0.0004752366803586483,0.0012021182337775826,-0.00033481791615486145
1690841500432070400,9.8390703125,-0.0005362317897379398,-0.0004836625885218382,-0.0009279046207666397
1690841500442110500,9.8491103515625,-0.00008366256952285767,0.0007990930462256074,-0.00037059374153614044
1690841500452150500,9.859150634765625,0.00029850099235773087,-0.0008126520551741123,0.0003681667149066925
1690841500462199600,9.869199462890625,0.0003405534662306309,0.0011030887253582478,0.0018026363104581833
1690841500472239600,9.879239501953125,-0.00020113354548811913,0.0010034865699708462,0.001934729516506195
1690841500482279400,9.889279541015625,0.0013214091304689646,-0.0005458863452076912,-0.0004615727812051773
1690841500492319200,9.8993193359375,0.0006779893301427364,0.0035316795110702515,-0.0009979326277971268
1690841500502360300,9.9093603515625,-0.0003546830266714096,-0.0014748398680239916,-0.0009657014161348343
1690841500512400400,9.919400390625,-0.0005208645015954971,-0.0003725574351847172,-0.000320950523018837
1690841500522440400,9.9294404296875,0.0001868666149675846,-0.001980043016374111,-0.0011840853840112686
1690841500532511500,9.939511474609375,-0.0001441645435988903,-0.0007581848185509443,-0.0010855495929718018
1690841500542551600,9.949551513671874,-0.0003771623596549034,-0.0007656281813979149,-0.0022781267762184143
1690841500552592600,9.959592529296875,-0.0006400165148079395,-0.00003245985135436058,-0.00044054538011550903
1690841500562632400,9.969632568359375,0.000027838628739118576,-0.0001666636671870947,0.0002518948167562485
1690841500572672300,9.97967236328125,-0.0007085250690579414,0.001025367178954184,0.0017307475209236145
1690841500582712300,9.98971240234375,-0.000908674206584692,0.002480441937223077,0.0013209320604801178
1690841500592753400,9.99975341796875,0.0009392932988703251,0.0006436597323045135,0.002801116555929184
1690841500602793500,10.00979345703125,0.000775220338255167,0.0015035170363262296,0.0019738133996725082
1690841500612833500,10.01983349609375,-0.0002136114053428173,0.0009533079573884606,0.0006238576024770737
1690841500622874600,10.02987451171875,0.000027074012905359268,-0.00028415024280548096,-0.000529654324054718
1690841500632914400,10.03991455078125,-0.0007819943130016327,-0.001953419763594866,-0.00034163519740104675
1690841500642954200,10.049954345703124,-0.0006868406198918819,-0.001134985126554966,-0.001840353012084961
1690841500652994300,10.059994384765625,0.00009426474571228027,-0.0002177925780415535,-0.0005809441208839417
1690841500663065300,10.0700654296875,0.000017659738659858704,-0.0012319968082010746,0.0002787541598081589
1690841500673106400,10.0801064453125,-0.0004561166279017925,-0.0008298594038933516,0.0007570572197437286
1690841500683146500,10.090146484375,0.0008050855249166489,0.00005013030022382736,0.001152949407696724
1690841500693186600,10.1001865234375,-0.0007861531339585781,0.0004067276604473591,0.0014786534011363983
1690841500703226400,10.110226318359375,-0.0006545782089233398,0.0010587427532300353,0.0003317687660455704
1690841500713267200,10.12026708984375,0.0010455837473273277,0.004706208128482103,0.0010939650237560272
1690841500723307300,10.130307373046875,-0.0003127036616206169,-0.00006575952284038067,0.000950617715716362
1690841500733347300,10.140347412109374,-0.00018886709585785866,-0.00003326893784105778,-0.00016524642705917358
1690841500743388400,10.150388427734375,-0.0010048579424619675,-0.0002735815942287445,0.00032608769834041595
1690841500753428500,10.160428466796875,-0.0009894114919006824,-0.00040807132609188557,-0.0007647424936294556
1690841500763468500,10.170468505859375,0.0009621817152947187,0.0014711703406646848,-0.0003512278199195862
1690841500773508400,10.18050830078125,0.00028280913829803467,0.0015481356531381607,0.0002695545554161072
1690841500783549200,10.190549072265625,-0.0018004984594881535,-0.0025979485362768173,0.0004472993314266205
1690841500793619500,10.200619384765625,0.0010171260219067335,0.0024881563149392605,-0.00024778395891189575
1690841500803660300,10.210660400390625,-0.00032793078571558,0.0009321540128439665,-0.0011308863759040833
1690841500813700400,10.220700439453125,0.0007168273441493511,-0.0000329755712300539,-0.001188943162560463
1690841500823740400,10.230740478515624,0.00047890515998005867,0.00012809433974325657,-0.0003511197865009308
1690841500833781500,10.240781494140625,-0.000696081668138504,0.0014588759513571858,-0.0004613734781742096
1690841500843821600,10.250821533203125,-0.0006223786622285843,-0.0009741093963384628,-0.0002852305769920349
1690841500853861400,10.260861328125,-0.0002079908736050129,-0.0005586561746895313,-0.00037125125527381897
1690841500863901400,10.2709013671875,0.0009600580669939518,-0.0019398313015699387,-0.0010479073971509933
1690841500873942300,10.2809423828125,-0.0003166613169014454,-0.00028387783095240593,0.0008714329451322556
1690841500883982300,10.290982421875,0.0010924017988145351,-0.000209474703297019,-0.0009018387645483017
1690841500894022400,10.3010224609375,0.00003885524347424507,0.0013298324774950743,0.0016164463013410568
1690841500904063500,10.3110634765625,0.0005928878672420979,0.002584821078926325,0.0008077956736087799
1690841500914103600,10.321103515625,-0.001865476369857788,-0.00032814452424645424,-0.0010500270873308182
1690841500924174300,10.33117431640625,-0.0014891913160681725,-0.0024216645397245884,-0.0009735114872455597
1690841500934214400,10.34121435546875,-0.00004842085763812065,-0.0015028738416731358,-0.0015532821416854858
1690841500944254500,10.35125439453125,0.0009320916142314672,-0.0004437968600541353,0.000015284866094589233
1690841500954295300,10.36129541015625,-0.0013342583552002907,-0.0003290148451924324,0.0002949163317680359
1690841500964335400,10.37133544921875,0.000035072211176157,0.002546144649386406,-0.00211196206510067
1690841500974375400,10.38137548828125,0.001642822753638029,-0.0005053053610026836,-0.0003129970282316208
1690841500984415500,10.39141552734375,-0.0001552286557853222,0.0007545900298282504,0.0016998033970594406
1690841500994456600,10.40145654296875,0.0004383898340165615,-0.0004816493019461632,0.0004422590136528015
1690841501004496400,10.411496337890625,0.002150974003598094,-0.00005096639506518841,-0.00046865642070770264
1690841501014536400,10.421536376953124,0.0008433619514107704,-0.0001124856062233448,-0.001249229535460472
1690841501024577300,10.431577392578125,0.0009345537982881069,0.0013557050842791796,-0.0015230104327201843
1690841501034617300,10.441617431640625,-0.00001779245212674141,-0.00009598396718502045,0.0014546699821949005
1690841501044657400,10.451657470703125,0.00017879391089081764,-0.00046171480789780617,-0.00047137588262557983
1690841501054728400,10.461728515625,0.0008006421849131584,-0.0006097867153584957,-0.0010796412825584412
1690841501064768300,10.471768310546874,0.0005698986351490021,-0.0023639569990336895,-0.0016236882656812668
1690841501074808300,10.481808349609375,-0.00035395193845033646,0.000690156128257513,0.00004744529724121094
1690841501084849400,10.491849365234375,0.001774864736944437,0.0006056225392967463,-0.0017224829643964767
1690841501094889500,10.501889404296875,0.0008464865386486053,0.0019294798839837313,0.000026147812604904175
1690841501104929500,10.511929443359374,0.000193142332136631,-0.0002587605267763138,0.0002552550286054611
1690841501114970400,10.521970458984375,-0.0000675814226269722,0.000006756745278835297,0.0019823145121335983
1690841501125010400,10.532010498046875,-0.0004454115405678749,0.0021684044040739536,0.0004086308181285858
1690841501135050500,10.542050537109375,-0.0005900212563574314,0.001978254644200206,0.00038572773337364197
1690841501145090300,10.55209033203125,-0.0004826318472623825,-0.0006712321192026138,0.00015917234122753143
1690841501155131400,10.56213134765625,-0.000059987884014844894,-0.0017026746645569801,-0.0008618831634521484
1690841501165171500,10.57217138671875,-0.00021928129717707634,-0.0002778172492980957,-0.00028706714510917664
1690841501175211500,10.58221142578125,-0.000033925287425518036,0.0021382025443017483,0.0000636707991361618
1690841501185282600,10.592282470703125,-0.0001244531013071537,0.00009845406748354435,-0.00021243467926979065
1690841501195322600,10.602322509765624,-0.0002687964588403702,0.0006007262272760272,0.000669337809085846
1690841501205363500,10.612363525390625,-0.0009362879209220409,0.0005798129132017493,0.0008240751922130585
1690841501215403300,10.6224033203125,0.0007742606103420258,0.0000543713103979826,-0.001002587378025055
1690841501225443300,10.632443359375,0.0007414552383124828,0.00031230226159095764,0.0013751182705163956
1690841501235483400,10.6424833984375,-0.0007184897549450397,0.0013847572263330221,-0.0006424933671951294
1690841501245524500,10.6525244140625,0.0004822174087166786,0.00005353684537112713,0.0006527099758386612
1690841501255564500,10.662564453125,0.000942145474255085,-0.0020402404479682446,-0.0011640992015600204
1690841501265604600,10.6726044921875,0.0004939134232699871,-0.0002119226846843958,-0.00024736300110816956
1690841501275645400,10.6826455078125,-0.0003857286646962166,-0.0015821191482245922,-0.0005640126764774323
1690841501285685200,10.692685302734375,-0.001080865040421486,0.0007583644473925233,-0.0009287893772125244
1690841501295725300,10.702725341796874,-0.0006544929929077625,0.00025848904624581337,0.0018006842583417892
1690841501305765400,10.712765380859375,-0.00007342873141169548,-0.0005260596517473459,-0.000331362709403038
1690841501315836400,10.72283642578125,0.0008088764734566212,-0.001055229688063264,0.0003195125609636307
1690841501325877500,10.73287744140625,-0.002012786455452442,0.001156158046796918,0.0017567146569490433
1690841501335917600,10.74291748046875,0.0005912524648010731,0.0010863832430914044,0.0012999828904867172
1690841501345957600,10.75295751953125,0.0009743415284901857,0.0012759583769366145,-0.00007431209087371826
1690841501355997400,10.76299755859375,-0.0001476481556892395,0.001024822355248034,-0.001068204641342163
1690841501366038300,10.773038330078125,-0.00018689874559640884,0.0015284129185602069,-0.000612972304224968
1690841501376078300,10.783078369140625,-0.000056137796491384506,-0.0008812153246253729,0.00020355172455310822
1690841501386118400,10.793118408203124,0.0006101294420659542,0.002513390500098467,0.00013994798064231873
1690841501396159500,10.803159423828125,0.0005422187969088554,-0.001246460247784853,-0.0004890915006399155
1690841501406199600,10.813199462890625,-0.0019328673370182514,-0.002068384550511837,0.0006821248680353165
1690841501416239600,10.823239501953125,-0.0015917164273560047,0.0008009052835404873,0.0002711992710828781
1690841501426279400,10.833279541015624,0.00039207935333251953,-0.0010707273613661528,0.00026219896972179413
1690841501436320300,10.8433203125,-0.0010875728912651539,0.00004247413016855717,0.0016068294644355774
1690841501446390300,10.853390380859375,-0.0010266639292240143,-0.000351219205185771,-0.000024022534489631653
1690841501456431400,10.863431396484375,-0.0018541081808507442,-0.000007138820365071297,0.00003270246088504791
1690841501466471700,10.8734716796875,0.0006846822798252106,0.0025172210298478603,-0.0002744663506746292
1690841501476511700,10.88351171875,-0.00014649052172899246,-0.0010322399903088808,0.00040437281131744385
1690841501486552800,10.893552734375,-0.0008318820036947727,0.0018135334830731153,0.00028250738978385925
1690841501496592600,10.903592529296875,-0.0008835471235215664,0.001093148486688733,0.0012212730944156647
1690841501506632400,10.913632568359375,0.000013090204447507858,-0.0016098483465611935,0.0014441441744565964
1690841501516672500,10.923672607421874,-0.0004710722714662552,-0.001317166956141591,0.0007794201374053955
1690841501526713600,10.933713623046875,0.0007131225429475307,-0.0012667612172663212,0.0008945390582084656
1690841501536753700,10.943753662109375,0.0017685333732515574,0.000007295049726963043,-0.0005984287708997726
1690841501546793700,10.953793701171875,-0.0007727881893515587,0.002360209124162793,0.0002645570784807205
1690841501556834800,10.963834716796875,-0.00023589516058564186,-0.00131415412761271,0.0008158311247825623
1690841501566874600,10.97387451171875,0.0001696525141596794,-0.0013646997977048159,0.00014913827180862427
1690841501576945700,10.983945556640625,-0.00030865147709846497,-0.0023982725106179714,-0.0005816332995891571
1690841501586985500,10.9939853515625,-0.0004166858270764351,-0.0010572609025985003,-0.003311512991786003
1690841501597025500,11.004025634765625,0.00047360872849822044,-0.001241285353899002,-0.000231301411986351
1690841501607066600,11.014066650390625,0.0007798075675964355,0.00018558278679847717,-0.00007632747292518616
1690841501617106700,11.024106689453125,-0.0003083599731326103,-0.0024765129201114178,0.00017880462110042572
1690841501627146800,11.034146728515625,-0.0013090106658637524,0.00101931719109416,0.0013217683881521225
1690841501637186800,11.044186767578125,0.0005860948003828526,0.0037964615039527416,0.00018566474318504333
1690841501647227600,11.0542275390625,0.00006474927067756653,-0.00039697042666375637,0.0003268495202064514
1690841501657267500,11.064267333984375,0.00030922750011086464,0.0021018735133111477,-0.0008145812898874283
1690841501667307500,11.0743076171875,0.000004061032086610794,0.0004452732391655445,0.000149652361869812
1690841501677348600,11.0843486328125,-0.0006505437195301056,-0.00008975574746727943,0.001331031322479248
1690841501687388700,11.094388671875,-0.0005186661146581173,-0.000538284657523036,-0.0007365159690380096
1690841501697428700,11.1044287109375,-0.0000049425289034843445,0.0006028799107298255,-0.0009389165788888931
1690841501707499800,11.114499755859375,0.0011714112479239702,0.0006528921658173203,-0.0010756179690361023
1690841501717539800,11.124539794921875,-0.00007521454244852066,-0.0000499160960316658,-0.0009035766124725342
1690841501727579600,11.13457958984375,-0.0008494141511619091,0.0005308239487931132,-0.0006676129996776581
1690841501737620500,11.144620361328125,-0.00012050662189722061,0.0005302912322804332,0.0018075276166200638
1690841501747660500,11.15466064453125,-0.0013699447736144066,0.00026107928715646267,0.001162683591246605
1690841501757700600,11.16470068359375,0.0000010505318641662598,0.0005614839028567076,-0.00018620677292346954
1690841501767741700,11.17474169921875,0.0009431717917323112,0.0005528462352231145,0.000498821958899498
1690841501777781800,11.18478173828125,0.00032798154279589653,0.0005954568041488528,0.0007014889270067215
1690841501787821800,11.19482177734375,0.0005138330161571503,0.0009468347998335958,0.0008255410939455032
1690841501797861600,11.204861572265624,0.00007680803537368774,-0.001140817068517208,-0.0007523819804191589
1690841501807902500,11.21490234375,-0.0017787371762096882,0.002395333256572485,0.001205379143357277
1690841501817942500,11.224942626953125,-0.001542248297482729,-0.0010041918139904737,0.00005116499960422516
1690841501827982600,11.234982666015625,-0.0007676063105463982,-0.0014431416057050228,-0.000511709600687027
1690841501838053600,11.2450537109375,-0.00011965911835432053,0.0010879265610128641,0.0009391810745000839
1690841501848093700,11.25509375,0.0008424120023846626,0.0025717434473335743,0.0006074476987123489
1690841501858134800,11.265134765625,0.0005116472020745277,0.0012896978296339512,-0.0007518287748098373
1690841501868174600,11.275174560546875,0.00009359652176499367,0.003578213043510914,-0.0002379491925239563
1690841501878214700,11.285214599609375,0.0006451373919844627,0.00046444509644061327,0.0006305072456598282
1690841501888254700,11.295254638671874,6.05359673500061e-9,-0.0007344901096075773,0.0006453804671764374
1690841501898295600,11.305295654296875,0.0009986916556954384,0.0009552857372909784,0.0001782625913619995
1690841501908335600,11.315335693359375,-0.00021250778809189796,0.001476213103160262,0.0022766850888729095
1690841501918375700,11.325375732421875,0.0006761890836060047,0.0008378534112125635,0.0005397722125053406
1690841501928416800,11.335416748046875,0.0006509753875434399,-0.0009579509496688843,0.0008373111486434937
1690841501938456800,11.345456787109375,-0.0007951208390295506,0.0013835004065185785,-0.0006391461938619614
1690841501948496600,11.35549658203125,-0.0002479664981365204,-0.0017988141626119614,0.0005297642201185226
1690841501958536700,11.36553662109375,-0.0010202829726040363,-0.0009157101158052683,-0.0015754662454128265
1690841501968607700,11.375607666015625,-0.00016355188563466072,0.0013995368499308825,0.0005364641547203064
1690841501978648600,11.385648681640625,-0.0020983382128179073,-0.0009895849507302046,0.0010584443807601929
1690841501988688600,11.395688720703125,0.000016448087990283966,0.001261195749975741,-0.0010703597217798233
1690841501998728700,11.405728759765625,0.0002883570268750191,0.0004220337141305208,-0.0005132276564836502
1690841502008768500,11.4157685546875,-0.0018392535857856274,-0.00003357697278261185,0.0013622678816318512
1690841502018809600,11.4258095703125,0.0008891548495739698,0.0006543176714330912,-0.00007024779915809631
1690841502028849700,11.435849609375,0.0005782768130302429,-0.0015543715562671423,-0.00011434219777584076
1690841502038889700,11.4458896484375,0.0003673546016216278,0.0024193311110138893,0.0005160290747880936
1690841502048930600,11.4559306640625,-0.0002978760749101639,-0.0010203919373452663,-0.0006624050438404083
1690841502058970600,11.465970703125,-0.0010278485715389252,0.0005372909363359213,-0.000917535275220871
1690841502069010700,11.4760107421875,-0.0019459500908851624,0.00048493139911442995,0.00019966810941696167
1690841502079050800,11.48605078125,-0.0005030492320656776,0.0001837278250604868,0.00013575144112110138
1690841502089091800,11.496091796875,-0.0006733359768986702,-0.0004608526360243559,0.0005871988832950592
1690841502099161600,11.50616162109375,-0.0013284734450280666,-0.0012984166387468576,-0.0006290674209594727
1690841502109202700,11.51620263671875,-0.0010962700471282005,-0.0018959669396281242,-0.00014916621148586273
1690841502119242800,11.52624267578125,-0.0008853478357195854,0.002466823672875762,0.0008271485567092896
1690841502129282800,11.53628271484375,-0.0007827128283679485,0.00036014197394251823,-0.0007083751261234283
1690841502139323600,11.54632373046875,0.00007881969213485718,0.001492784358561039,0.0006389189511537552
1690841502149363700,11.55636376953125,0.0020118695683777332,0.0021706209518015385,-0.0006547179073095322
1690841502159403500,11.566403564453125,0.0005913395434617996,-0.0007708405610173941,-0.0006986614316701889
