time,seconds_elapsed,z,y,x
1690842039831742000,0.037741943359375,-0.9873046875,-0.0232696533203125,-0.0055694580078125
1690842039841749000,0.0477490234375,-0.986175537109375,-0.0247039794921875,-0.0034637451171875
1690842039851789000,0.0577890625,-0.9850616455078125,-0.02593994140625,-0.0015106201171875
1690842039861830000,0.067829833984375,-0.9833221435546875,-0.0220794677734375,0.0006256103515625
1690842039871870000,0.077869873046875,-0.982666015625,-0.0184783935546875,0.0015869140625
1690842039881909800,0.08790966796875,-0.98138427734375,-0.0146484375,0.001007080078125
1690842039891950800,0.097950927734375,-0.97772216796875,-0.007720947265625,-0.00152587890625
1690842039901991000,0.107990966796875,-0.97296142578125,0.000762939453125,-0.00286865234375
1690842039912031000,0.118031005859375,-0.970306396484375,0.0076446533203125,-0.0031890869140625
1690842039922071000,0.128071044921875,-0.9693450927734375,0.0135498046875,-0.0018768310546875
1690842039932112000,0.13811181640625,-0.9695281982421875,0.016326904296875,-0.0002593994140625
1690842039942152000,0.14815185546875,-0.970458984375,0.0158538818359375,0.0012054443359375
1690842039952191700,0.158191650390625,-0.9717864990234375,0.0121917724609375,0.0027923583984375
1690842039962232800,0.16823291015625,-0.9733734130859375,0.007476806640625,0.0026092529296875
1690842039972273000,0.17827294921875,-0.97418212890625,0.0009613037109375,0.001617431640625
1690842039982329900,0.188329833984375,-0.9758758544921875,-0.0044097900390625,-0.0003814697265625
1690842039992370000,0.198369873046875,-0.9777069091796875,-0.009674072265625,-0.002777099609375
1690842040002410000,0.208409912109375,-0.9776153564453125,-0.0140533447265625,-0.0032958984375
1690842040012450000,0.218449951171875,-0.978271484375,-0.01556396484375,-0.004669189453125
1690842040022491000,0.228490966796875,-0.978759765625,-0.0162353515625,-0.003936767578125
1690842040032531000,0.238531005859375,-0.978546142578125,-0.0149993896484375,-0.0029296875
1690842040042570800,0.24857080078125,-0.97894287109375,-0.0137481689453125,-0.001953125
1690842040052612000,0.258612060546875,-0.9788360595703125,-0.010894775390625,-0.0006256103515625
1690842040062652000,0.26865185546875,-0.97711181640625,-0.007049560546875,-0.0001983642578125
1690842040072692000,0.27869189453125,-0.9761505126953125,-0.00323486328125,-0.00054931640625
1690842040082732000,0.28873193359375,-0.975494384765625,0.00146484375,-0.0002593994140625
1690842040092772900,0.29877294921875,-0.9731903076171875,0.005706787109375,-0.001129150390625
1690842040102813000,0.30881298828125,-0.9720306396484375,0.0072174072265625,-0.001617431640625
1690842040112853000,0.31885302734375,-0.972900390625,0.006927490234375,-0.0006866455078125
1690842040122894000,0.32889404296875,-0.9740753173828125,0.00531005859375,-0.0005645751953125
1690842040132934000,0.338933837890625,-0.974365234375,0.002899169921875,0.00054931640625
1690842040143005000,0.3490048828125,-0.975799560546875,-0.0002288818359375,0.0010223388671875
1690842040153045000,0.359044921875,-0.976898193359375,-0.0037689208984375,0.000335693359375
1690842040163085000,0.3690849609375,-0.97796630859375,-0.006744384765625,-0.0006103515625
1690842040173126000,0.3791259765625,-0.9793243408203125,-0.008880615234375,-0.00189208984375
1690842040183166000,0.389166015625,-0.97918701171875,-0.0108795166015625,-0.0033721923828125
1690842040193205800,0.399205810546875,-0.9786529541015625,-0.0111541748046875,-0.003387451171875
1690842040203245800,0.409245849609375,-0.9783935546875,-0.0103912353515625,-0.004364013671875
1690842040213287000,0.419286865234375,-0.9783782958984375,-0.0100555419921875,-0.003753662109375
1690842040223327000,0.429326904296875,-0.978485107421875,-0.007171630859375,-0.001373291015625
1690842040233367000,0.439366943359375,-0.977386474609375,-0.005462646484375,-0.0010528564453125
1690842040243407000,0.449406982421875,-0.975982666015625,-0.0026397705078125,-0.0001068115234375
1690842040253448000,0.459447998046875,-0.975555419921875,-0.000091552734375,0.0013427734375
1690842040263488000,0.469488037109375,-0.976409912109375,0.0021820068359375,0.001312255859375
1690842040273527800,0.47952783203125,-0.9759674072265625,0.0025482177734375,0.0003814697265625
1690842040283569000,0.48956884765625,-0.9754791259765625,0.00323486328125,-0.000640869140625
1690842040293639000,0.499638916015625,-0.9765472412109375,0.0017547607421875,-0.00079345703125
1690842040303680000,0.509679931640625,-0.9761505126953125,0.00018310546875,-0.001708984375
1690842040313720000,0.519719970703125,-0.976593017578125,-0.0021820068359375,-0.0021514892578125
1690842040323760000,0.529760009765625,-0.977813720703125,-0.0038604736328125,-0.0006103515625
1690842040333801000,0.539801025390625,-0.977752685546875,-0.0054168701171875,-0.0015716552734375
1690842040343840800,0.5498408203125,-0.9778289794921875,-0.0070648193359375,-0.001373291015625
1690842040353880800,0.559880859375,-0.979644775390625,-0.008392333984375,-0.000579833984375
1690842040363921000,0.5699208984375,-0.9796600341796875,-0.00787353515625,-0.0011749267578125
1690842040373962000,0.5799619140625,-0.97930908203125,-0.007659912109375,-0.0015869140625
1690842040384002000,0.590001953125,-0.9791717529296875,-0.006317138671875,-0.001434326171875
1690842040394042000,0.6000419921875,-0.9781646728515625,-0.00421142578125,-0.0014801025390625
1690842040404083000,0.6100830078125,-0.9783477783203125,-0.003021240234375,-0.0014190673828125
1690842040414123000,0.620123046875,-0.9776153564453125,-0.0019683837890625,-0.001617431640625
1690842040424162800,0.630162841796875,-0.9764862060546875,-0.0012664794921875,-0.000823974609375
1690842040434203000,0.640202880859375,-0.9773101806640625,-0.000152587890625,-0.0003662109375
1690842040444244000,0.650243896484375,-0.976654052734375,0.000152587890625,-0.0005340576171875
1690842040454314000,0.66031396484375,-0.9774169921875,-0.0010833740234375,-0.0007476806640625
1690842040464355000,0.67035498046875,-0.9779052734375,-0.00103759765625,-0.000152587890625
1690842040474395100,0.68039501953125,-0.9779815673828125,-0.0021209716796875,-0.0001678466796875
1690842040484435000,0.69043505859375,-0.9785003662109375,-0.0036773681640625,-0.0009765625
1690842040494475800,0.700475830078125,-0.9787445068359375,-0.004119873046875,-0.0009307861328125
1690842040504515800,0.710515869140625,-0.9795684814453125,-0.0050811767578125,-0.00140380859375
1690842040514556000,0.720555908203125,-0.9793701171875,-0.004669189453125,-0.001678466796875
1690842040524596000,0.730595947265625,-0.97930908203125,-0.0062408447265625,-0.00146484375
1690842040534637000,0.740636962890625,-0.978790283203125,-0.006561279296875,-0.0002593994140625
1690842040544677000,0.750677001953125,-0.9793548583984375,-0.005859375,-0.0009307861328125
1690842040554717200,0.76071728515625,-0.979156494140625,-0.00408935546875,-0.0011749267578125
1690842040564758000,0.770758056640625,-0.9776763916015625,-0.0028839111328125,-0.00091552734375
1690842040574797800,0.7807978515625,-0.9774627685546875,-0.0028228759765625,-0.00067138671875
1690842040584838000,0.790837890625,-0.978363037109375,-0.00244140625,-0.0014190673828125
1690842040594878000,0.8008779296875,-0.9784088134765625,-0.0024566650390625,-0.00164794921875
1690842040604949000,0.810948974609375,-0.9782867431640625,-0.0013275146484375,-0.001617431640625
1690842040614990000,0.820989990234375,-0.9784088134765625,-0.0020751953125,-0.000091552734375
1690842040625030100,0.831030029296875,-0.97784423828125,-0.002471923828125,-0.0000762939453125
1690842040635070000,0.841070068359375,-0.97869873046875,-0.0027923583984375,-0.001251220703125
1690842040645110000,0.851110107421875,-0.97930908203125,-0.0041656494140625,-0.0011138916015625
1690842040655150800,0.86115087890625,-0.978546142578125,-0.0034637451171875,-0.001495361328125
1690842040665191000,0.87119091796875,-0.978515625,-0.0049896240234375,-0.0013580322265625
1690842040675231000,0.88123095703125,-0.9799652099609375,-0.0048065185546875,-0.0013580322265625
1690842040685272000,0.89127197265625,-0.9796295166015625,-0.00543212890625,-0.0014801025390625
1690842040695312100,0.90131201171875,-0.9803466796875,-0.004791259765625,-0.001617431640625
1690842040705352000,0.91135205078125,-0.9795989990234375,-0.0041351318359375,-0.0015716552734375
1690842040715392000,0.92139208984375,-0.978424072265625,-0.00433349609375,-0.0014495849609375
1690842040725432800,0.931432861328125,-0.979156494140625,-0.0038604736328125,-0.0013427734375
1690842040735473000,0.941472900390625,-0.9794921875,-0.0032806396484375,-0.00054931640625
1690842040745513000,0.951512939453125,-0.9783782958984375,-0.0019989013671875,-0.0010833740234375
1690842040755584000,0.961583984375,-0.9775238037109375,-0.0025634765625,-0.001434326171875
1690842040765624000,0.9716240234375,-0.9788055419921875,-0.001953125,-0.0011444091796875
1690842040775665200,0.9816650390625,-0.9787139892578125,-0.0030670166015625,-0.000396728515625
1690842040785705000,0.991705078125,-0.9791259765625,-0.00299072265625,-0.000885009765625
1690842040795744800,1.001744873046875,-0.9790191650390625,-0.0034942626953125,-0.0011444091796875
1690842040805784800,1.011784912109375,-0.9792938232421875,-0.00390625,-0.001556396484375
1690842040815826000,1.021825927734375,-0.9789581298828125,-0.003662109375,-0.001434326171875
1690842040825866000,1.031865966796875,-0.9793853759765625,-0.003204345703125,-0.0016326904296875
1690842040835906000,1.041906005859375,-0.980316162109375,-0.0045318603515625,-0.001007080078125
1690842040845947100,1.051947021484375,-0.9803466796875,-0.0038909912109375,-0.001312255859375
1690842040855987000,1.061987060546875,-0.979339599609375,-0.0036163330078125,-0.0013275146484375
1690842040866026800,1.07202685546875,-0.97955322265625,-0.0037384033203125,-0.0011138916015625
1690842040876066800,1.08206689453125,-0.9803466796875,-0.0038299560546875,-0.000885009765625
1690842040886108000,1.09210791015625,-0.980194091796875,-0.0035858154296875,-0.0004425048828125
1690842040896148000,1.10214794921875,-0.9794464111328125,-0.0036773681640625,-0.00079345703125
1690842040906188000,1.11218798828125,-0.9798431396484375,-0.0032501220703125,-0.00189208984375
1690842040916259000,1.122259033203125,-0.97930908203125,-0.0027618408203125,-0.00115966796875
1690842040926299000,1.132298828125,-0.979705810546875,-0.0027008056640625,-0.00067138671875
1690842040936340000,1.142340087890625,-0.9792022705078125,-0.0032196044921875,-0.0011749267578125
1690842040946379800,1.1523798828125,-0.97882080078125,-0.0037841796875,-0.0013885498046875
1690842040956419800,1.162419921875,-0.97930908203125,-0.004547119140625,-0.0017852783203125
1690842040966460000,1.1724599609375,-0.979400634765625,-0.0045013427734375,-0.0013427734375
1690842040976501000,1.1825009765625,-0.9803314208984375,-0.0044403076171875,-0.0009002685546875
1690842040986536700,1.19253662109375,-0.9800567626953125,-0.0035247802734375,-0.001220703125
1690842040996576800,1.20257666015625,-0.980255126953125,-0.003204345703125,-0.00140380859375
1690842041006617900,1.212617919921875,-0.980133056640625,-0.0039215087890625,-0.0001678466796875
1690842041016657700,1.22265771484375,-0.97991943359375,-0.0041656494140625,-0.0011444091796875
1690842041026697700,1.23269775390625,-0.980072021484375,-0.002960205078125,-0.0009002685546875
1690842041036737800,1.24273779296875,-0.9806365966796875,-0.003387451171875,-0.001068115234375
1690842041046778600,1.252778564453125,-0.9806365966796875,-0.0037078857421875,-0.0009613037109375
1690842041056818700,1.262818603515625,-0.9795379638671875,-0.00238037109375,-0.0007476806640625
1690842041066889700,1.2728896484375,-0.9800262451171875,-0.0023651123046875,-0.000640869140625
1690842041076929800,1.2829296875,-0.979583740234375,-0.0028228759765625,-0.0011138916015625
1690842041086969600,1.292969482421875,-0.9798431396484375,-0.0031280517578125,-0.0013427734375
1690842041097010700,1.3030107421875,-0.98046875,-0.0033111572265625,-0.001129150390625
1690842041107050800,1.31305078125,-0.97991943359375,-0.0034027099609375,-0.0012054443359375
1690842041117090800,1.3230908203125,-0.9803314208984375,-0.00341796875,-0.00177001953125
1690842041127131600,1.333131591796875,-0.97991943359375,-0.00347900390625,-0.001678466796875
1690842041137171700,1.343171630859375,-0.9802093505859375,-0.00372314453125,-0.001190185546875
1690842041147211800,1.353211669921875,-0.9810333251953125,-0.00347900390625,-0.001251220703125
1690842041157251600,1.36325146484375,-0.9808502197265625,-0.003173828125,-0.0011749267578125
1690842041167292700,1.373292724609375,-0.9803009033203125,-0.0038909912109375,-0.0012359619140625
1690842041177332700,1.383332763671875,-0.9813690185546875,-0.004791259765625,-0.0012969970703125
1690842041187372800,1.393372802734375,-0.9798736572265625,-0.0044708251953125,-0.0006561279296875
1690842041197413600,1.40341357421875,-0.9802093505859375,-0.00341796875,-0.00103759765625
1690842041207453700,1.41345361328125,-0.9810638427734375,-0.0032958984375,-0.0007171630859375
1690842041217524700,1.423524658203125,-0.980682373046875,-0.00238037109375,0.0000457763671875
1690842041227564800,1.433564697265625,-0.9796905517578125,-0.00286865234375,-0.0015106201171875
1690842041237604600,1.4436044921875,-0.9801177978515625,-0.0030670166015625,-0.0015106201171875
1690842041247644700,1.453644775390625,-0.980712890625,-0.002532958984375,-0.00054931640625
1690842041257685800,1.463685791015625,-0.98101806640625,-0.0025787353515625,-0.0010833740234375
1690842041267725800,1.473725830078125,-0.9805755615234375,-0.00347900390625,-0.000518798828125
1690842041277765600,1.483765625,-0.9803009033203125,-0.004669189453125,-0.000579833984375
1690842041287806700,1.493806640625,-0.9810333251953125,-0.003204345703125,-0.00128173828125
1690842041297846800,1.5038466796875,-0.980743408203125,-0.0030517578125,-0.0015716552734375
1690842041307886600,1.513886474609375,-0.9806060791015625,-0.00323486328125,-0.0021514892578125
1690842041317926700,1.5239267578125,-0.9805908203125,-0.00323486328125,-0.001556396484375
1690842041327967700,1.5339677734375,-0.9796600341796875,-0.0036773681640625,-0.002197265625
1690842041338007800,1.5440078125,-0.980377197265625,-0.0033416748046875,-0.0012664794921875
1690842041348047600,1.554047607421875,-0.9799957275390625,-0.0034942626953125,-0.0005645751953125
1690842041358088700,1.564088623046875,-0.9799957275390625,-0.0034332275390625,0.000091552734375
1690842041368128800,1.574128662109375,-0.98114013671875,-0.00372314453125,-0.0011749267578125
1690842041378199800,1.58419970703125,-0.980804443359375,-0.0029296875,-0.0003509521484375
1690842041388239600,1.594239501953125,-0.980865478515625,-0.00347900390625,-0.0005035400390625
1690842041398279700,1.60427978515625,-0.9803466796875,-0.0034942626953125,-0.00189208984375
1690842041408319700,1.61431982421875,-0.979522705078125,-0.003387451171875,-0.0011444091796875
1690842041418360800,1.62436083984375,-0.979949951171875,-0.003143310546875,-0.001708984375
1690842041428400600,1.634400634765625,-0.979248046875,-0.003326416015625,-0.0010833740234375
1690842041438440700,1.644440673828125,-0.9795989990234375,-0.003875732421875,-0.000762939453125
1690842041448481800,1.654481689453125,-0.98089599609375,-0.00360107421875,-0.0020599365234375
1690842041458521600,1.664521484375,-0.9817352294921875,-0.00341796875,-0.0020904541015625
1690842041468561700,1.674561767578125,-0.9807281494140625,-0.0041351318359375,-0.0015106201171875
1690842041478601700,1.684601806640625,-0.98046875,-0.0045318603515625,-0.001068115234375
1690842041488642800,1.694642822265625,-0.98150634765625,-0.003570556640625,-0.0005035400390625
1690842041498682600,1.7046826171875,-0.980499267578125,-0.0028839111328125,-0.0008544921875
1690842041508722700,1.71472265625,-0.9811859130859375,-0.0033111572265625,-0.0010223388671875
1690842041518763800,1.724763671875,-0.980926513671875,-0.0041961669921875,-0.0001373291015625
1690842041528833500,1.73483349609375,-0.9820709228515625,-0.003448486328125,-0.0002593994140625
1690842041538874600,1.74487451171875,-0.980133056640625,-0.0032196044921875,-0.0016326904296875
1690842041548914700,1.754914794921875,-0.9803924560546875,-0.0035552978515625,-0.001739501953125
1690842041558954800,1.764954833984375,-0.9818572998046875,-0.0034332275390625,-0.0018157958984375
1690842041568995800,1.774995849609375,-0.981689453125,-0.0027313232421875,-0.0013580322265625
1690842041579035600,1.78503564453125,-0.979949951171875,-0.003021240234375,-0.0016632080078125
1690842041589075700,1.79507568359375,-0.9800567626953125,-0.0033111572265625,-0.0015869140625
1690842041599115500,1.805115478515625,-0.9807281494140625,-0.003265380859375,-0.0012359619140625
1690842041609156600,1.815156494140625,-0.9807891845703125,-0.0041351318359375,-0.001007080078125
1690842041619196700,1.82519677734375,-0.9818572998046875,-0.0038909912109375,-0.001129150390625
1690842041629236700,1.83523681640625,-0.9824066162109375,-0.0035247802734375,-0.00164794921875
1690842041639277800,1.84527783203125,-0.98089599609375,-0.003448486328125,-0.0007781982421875
1690842041649317600,1.855317626953125,-0.980926513671875,-0.0030517578125,-0.0013580322265625
1690842041659357700,1.865357666015625,-0.98162841796875,-0.0027313232421875,-0.0016021728515625
1690842041669397500,1.8753974609375,-0.9801483154296875,-0.0025787353515625,-0.002532958984375
1690842041679468500,1.885468505859375,-0.98095703125,-0.0027923583984375,-0.001983642578125
1690842041689508600,1.895508544921875,-0.9808349609375,-0.003448486328125,-0.000701904296875
1690842041699549700,1.9055498046875,-0.9811248779296875,-0.0037689208984375,-0.0011444091796875
1690842041709589800,1.91558984375,-0.9801483154296875,-0.00372314453125,-0.001556396484375
1690842041719629800,1.9256298828125,-0.98052978515625,-0.0033111572265625,-0.0013275146484375
1690842041729670700,1.935670654296875,-0.98187255859375,-0.003173828125,-0.0007171630859375
1690842041739710700,1.945710693359375,-0.9817657470703125,-0.00421142578125,-0.0002288818359375
1690842041749750500,1.95575048828125,-0.9813690185546875,-0.003753662109375,-0.001373291015625
1690842041759790600,1.96579052734375,-0.9819488525390625,-0.003814697265625,-0.0013275146484375
1690842041769831700,1.975831787109375,-0.9807281494140625,-0.0034637451171875,-0.0015869140625
1690842041779871700,1.985871826171875,-0.9815216064453125,-0.0042877197265625,-0.00177001953125
1690842041789911800,1.995911865234375,-0.9817047119140625,-0.00390625,-0.001678466796875
1690842041799952600,2.00595263671875,-0.9802703857421875,-0.0029144287109375,-0.001708984375
1690842041809992700,2.01599267578125,-0.9815826416015625,-0.0036773681640625,-0.001678466796875
1690842041820032500,2.026032470703125,-0.9813385009765625,-0.0032806396484375,-0.001220703125
1690842041830072600,2.036072509765625,-0.9816131591796875,-0.0033416748046875,-0.001007080078125
1690842041840143600,2.0461435546875,-0.98138427734375,-0.003509521484375,-0.0008544921875
1690842041850184700,2.056184814453125,-0.9805450439453125,-0.003875732421875,-0.0006256103515625
1690842041860224800,2.066224853515625,-0.9809722900390625,-0.0037841796875,-0.0007171630859375
1690842041870264800,2.076264892578125,-0.9815216064453125,-0.003387451171875,-0.000457763671875
1690842041880305000,2.086304931640625,-0.981170654296875,-0.0036163330078125,-0.0010986328125
1690842041890345700,2.096345703125,-0.9820404052734375,-0.00335693359375,-0.00152587890625
1690842041900385500,2.106385498046875,-0.9808502197265625,-0.0034942626953125,-0.0015411376953125
1690842041910425600,2.116425537109375,-0.9814453125,-0.0035247802734375,-0.0012664794921875
1690842041920465700,2.126465576171875,-0.981353759765625,-0.00299072265625,-0.001708984375
1690842041930506800,2.1365068359375,-0.9813079833984375,-0.003173828125,-0.0023193359375
1690842041940546800,2.146546875,-0.9813079833984375,-0.00360107421875,-0.001251220703125
1690842041950587000,2.1565869140625,-0.9822235107421875,-0.003570556640625,-0.001617431640625
1690842041960627700,2.166627685546875,-0.981781005859375,-0.0035552978515625,-0.0009765625
1690842041970667500,2.17666748046875,-0.98101806640625,-0.0029754638671875,-0.001220703125
1690842041980707600,2.18670751953125,-0.98138427734375,-0.0034332275390625,-0.0013275146484375
1690842041990778600,2.196778564453125,-0.98297119140625,-0.00390625,-0.001251220703125
1690842042000818400,2.206818359375,-0.98150634765625,-0.003021240234375,-0.0014190673828125
1690842042010859500,2.216859619140625,-0.98126220703125,-0.0025177001953125,-0.002349853515625
1690842042020899600,2.226899658203125,-0.981903076171875,-0.00396728515625,-0.0018310546875
1690842042030939600,2.236939697265625,-0.9814300537109375,-0.003814697265625,-0.001068115234375
1690842042040979700,2.246979736328125,-0.9820404052734375,-0.003265380859375,-0.0006256103515625
1690842042051020500,2.2570205078125,-0.9821624755859375,-0.0030364990234375,-0.0013580322265625
1690842042061060600,2.267060546875,-0.9814605712890625,-0.0030059814453125,-0.001434326171875
1690842042071100400,2.277100341796875,-0.9803619384765625,-0.0029144287109375,-0.000732421875
1690842042081141500,2.2871416015625,-0.9810791015625,-0.002960205078125,-0.0009765625
1690842042091181600,2.297181640625,-0.98223876953125,-0.00360107421875,-0.0003814697265625
1690842042101221600,2.3072216796875,-0.9817047119140625,-0.003082275390625,-0.0006561279296875
1690842042111261700,2.31726171875,-0.9812469482421875,-0.003082275390625,-0.0004425048828125
1690842042121302500,2.327302490234375,-0.981353759765625,-0.0035858154296875,-0.0005340576171875
1690842042131342600,2.337342529296875,-0.9812164306640625,-0.0032958984375,-0.0015106201171875
1690842042141413600,2.34741357421875,-0.98126220703125,-0.002838134765625,-0.0008392333984375
1690842042151453400,2.357453369140625,-0.9810943603515625,-0.0028228759765625,-0.0014801025390625
1690842042161493500,2.367493408203125,-0.9819793701171875,-0.0041656494140625,-0.0007476806640625
1690842042171534600,2.37753466796875,-0.9826202392578125,-0.0036163330078125,-0.0008697509765625
1690842042181574700,2.38757470703125,-0.98193359375,-0.003387451171875,-0.0006866455078125
1690842042191614700,2.39761474609375,-0.9824371337890625,-0.00396728515625,-0.0013580322265625
1690842042201654800,2.40765478515625,-0.981292724609375,-0.003814697265625,-0.0010833740234375
1690842042211695600,2.417695556640625,-0.9819183349609375,-0.0025634765625,-0.001007080078125
1690842042221735400,2.4277353515625,-0.98138427734375,-0.0040283203125,-0.0010223388671875
1690842042231775500,2.437775390625,-0.98211669921875,-0.0043487548828125,-0.001373291015625
1690842042241816600,2.447816650390625,-0.98150634765625,-0.0031280517578125,-0.000701904296875
1690842042251856600,2.457856689453125,-0.9813232421875,-0.00262451171875,-0.00018310546875
1690842042261896700,2.467896728515625,-0.981414794921875,-0.00335693359375,-0.0007781982421875
1690842042271936800,2.477936767578125,-0.9829254150390625,-0.0045623779296875,-0.000946044921875
1690842042281977600,2.4879775390625,-0.9816131591796875,-0.0040283203125,-0.00048828125
1690842042292017400,2.498017333984375,-0.9817657470703125,-0.003509521484375,-0.000946044921875
1690842042302088400,2.50808837890625,-0.981903076171875,-0.00396728515625,-0.0010833740234375
1690842042312128500,2.51812841796875,-0.9817352294921875,-0.003509521484375,-0.000701904296875
1690842042322168600,2.52816845703125,-0.9817047119140625,-0.0036773681640625,-0.000213623046875
1690842042332209700,2.538209716796875,-0.9815216064453125,-0.003082275390625,-0.0011444091796875
1690842042342249700,2.548249755859375,-0.98248291015625,-0.0032196044921875,-0.0002593994140625
1690842042352289800,2.558289794921875,-0.9819793701171875,-0.00384521484375,-0.0008544921875
1690842042362330600,2.56833056640625,-0.9806671142578125,-0.003509521484375,-0.0011138916015625
1690842042372370400,2.578370361328125,-0.980621337890625,-0.0035247802734375,-0.0015869140625
1690842042382410500,2.588410400390625,-0.9818572998046875,-0.0032501220703125,-0.001068115234375
1690842042392450600,2.598450439453125,-0.9819793701171875,-0.0039825439453125,-0.000457763671875
1690842042402491600,2.60849169921875,-0.981689453125,-0.0037994384765625,-0.002227783203125
1690842042412531700,2.61853173828125,-0.9820098876953125,-0.003662109375,-0.0015869140625
1690842042422571800,2.62857177734375,-0.982177734375,-0.0033721923828125,-0.0015411376953125
1690842042432611600,2.638611572265625,-0.9817352294921875,-0.0029144287109375,-0.0011138916015625
1690842042442652400,2.64865234375,-0.9825897216796875,-0.003143310546875,-0.001708984375
1690842042452723500,2.658723388671875,-0.9828338623046875,-0.0025177001953125,-0.000946044921875
1690842042462763500,2.668763427734375,-0.9815521240234375,-0.0036163330078125,-0.000946044921875
1690842042472803600,2.678803466796875,-0.981536865234375,-0.0034637451171875,-0.001068115234375
1690842042482843600,2.68884375,-0.981353759765625,-0.002044677734375,-0.0009307861328125
1690842042492884700,2.698884765625,-0.981109619140625,-0.0032501220703125,-0.00115966796875
1690842042502924800,2.7089248046875,-0.9824371337890625,-0.0036773681640625,-0.0010833740234375
1690842042512964600,2.718964599609375,-0.98309326171875,-0.002655029296875,-0.0015106201171875
1690842042523005400,2.72900537109375,-0.9817352294921875,-0.003173828125,-0.0012664794921875
1690842042533045500,2.73904541015625,-0.981597900390625,-0.0029449462890625,-0.000457763671875
1690842042543085600,2.74908544921875,-0.981109619140625,-0.003631591796875,-0.001068115234375
1690842042553125600,2.759125732421875,-0.981536865234375,-0.0039215087890625,-0.001922607421875
1690842042563166700,2.769166748046875,-0.9817657470703125,-0.004638671875,-0.00164794921875
1690842042573206800,2.779206787109375,-0.9824371337890625,-0.003326416015625,-0.0007781982421875
1690842042583246600,2.78924658203125,-0.98138427734375,-0.0026397705078125,-0.00103759765625
1690842042593287400,2.799287353515625,-0.9817047119140625,-0.0027008056640625,-0.001434326171875
1690842042603357400,2.809357421875,-0.981842041015625,-0.00323486328125,-0.001739501953125
1690842042613398500,2.8193984375,-0.9811248779296875,-0.0031280517578125,-0.0017852783203125
1690842042623438600,2.8294384765625,-0.980621337890625,-0.0036468505859375,-0.001983642578125
1690842042633478700,2.839478759765625,-0.981689453125,-0.0033416748046875,-0.00128173828125
1690842042643518700,2.849518798828125,-0.9807281494140625,-0.002838134765625,-0.0015106201171875
1690842042653559800,2.859559814453125,-0.981475830078125,-0.002777099609375,-0.0019378662109375
1690842042663599600,2.869599609375,-0.98193359375,-0.003204345703125,-0.0007476806640625
1690842042673639400,2.879639404296875,-0.9823760986328125,-0.0034637451171875,-0.0013885498046875
1690842042683680500,2.889680419921875,-0.980804443359375,-0.00299072265625,-0.0018463134765625
1690842042693720600,2.899720458984375,-0.9817962646484375,-0.00384521484375,-0.0007476806640625
1690842042703760600,2.9097607421875,-0.9813079833984375,-0.0027008056640625,-0.001800537109375
1690842042713800700,2.91980078125,-0.9812164306640625,-0.00335693359375,-0.0020751953125
1690842042723841800,2.929841796875,-0.9816436767578125,-0.003631591796875,-0.0009918212890625
1690842042733881600,2.939881591796875,-0.981658935546875,-0.0033416748046875,-0.0015869140625
1690842042743921400,2.94992138671875,-0.9820556640625,-0.00335693359375,-0.001068115234375
1690842042753962500,2.95996240234375,-0.98199462890625,-0.00360107421875,-0.0020751953125
1690842042764032500,2.970032470703125,-0.9823455810546875,-0.002532958984375,-0.0013275146484375
1690842042774073600,2.980073486328125,-0.982208251953125,-0.0030670166015625,-0.0010986328125
1690842042784113700,2.99011376953125,-0.9820709228515625,-0.00384521484375,-0.0012664794921875
1690842042794153700,3.00015380859375,-0.9813385009765625,-0.0035400390625,-0.0011749267578125
1690842042804194800,3.01019482421875,-0.9816741943359375,-0.004241943359375,-0.001373291015625
1690842042814234400,3.020234375,-0.982177734375,-0.0027618408203125,-0.001678466796875
1690842042824274400,3.0302744140625,-0.98175048828125,-0.00311279296875,-0.00140380859375
1690842042834314500,3.040314453125,-0.9823455810546875,-0.003021240234375,-0.0012969970703125
1690842042844355600,3.05035546875,-0.982025146484375,-0.0036468505859375,-0.0011444091796875
1690842042854395600,3.060395751953125,-0.98211669921875,-0.0031585693359375,-0.00115966796875
1690842042864435700,3.070435791015625,-0.9810943603515625,-0.002960205078125,-0.001434326171875
1690842042874475500,3.0804755859375,-0.981109619140625,-0.0034332275390625,-0.0026092529296875
1690842042884516400,3.090516357421875,-0.9815521240234375,-0.003692626953125,-0.001373291015625
1690842042894556400,3.100556396484375,-0.981658935546875,-0.0029296875,-0.0002899169921875
1690842042904596500,3.110596435546875,-0.9821929931640625,-0.003326416015625,-0.0013427734375
1690842042914667500,3.12066748046875,-0.981781005859375,-0.00360107421875,-0.0013885498046875
1690842042924707600,3.13070751953125,-0.9821929931640625,-0.0037994384765625,-0.0010833740234375
1690842042934748700,3.140748779296875,-0.981719970703125,-0.0034332275390625,-0.00140380859375
1690842042944788500,3.15078857421875,-0.9825897216796875,-0.003204345703125,-0.001617431640625
1690842042954828500,3.16082861328125,-0.9829864501953125,-0.0035552978515625,-0.0005950927734375
1690842042964869400,3.170869384765625,-0.9816741943359375,-0.003662109375,-0.0010528564453125
1690842042974909400,3.180909423828125,-0.9810028076171875,-0.0032958984375,-0.001220703125
1690842042984944000,3.190944091796875,-0.9813385009765625,-0.0035858154296875,-0.00091552734375
1690842042994984000,3.20098388671875,-0.98211669921875,-0.0032806396484375,-0.000885009765625
1690842043005025000,3.21102490234375,-0.9816741943359375,-0.0035552978515625,-0.0005035400390625
1690842043015064800,3.22106494140625,-0.98150634765625,-0.003021240234375,-0.0008392333984375
1690842043025105000,3.23110498046875,-0.9817047119140625,-0.003082275390625,-0.0017547607421875
1690842043035146000,3.24114599609375,-0.9818267822265625,-0.0032196044921875,-0.00177001953125
1690842043045186000,3.25118603515625,-0.98248291015625,-0.00225830078125,-0.0013275146484375
1690842043055226000,3.26122607421875,-0.980865478515625,-0.0033416748046875,-0.000732421875
1690842043065297000,3.271296875,-0.9813232421875,-0.00384521484375,-0.0001373291015625
1690842043075337000,3.2813369140625,-0.982330322265625,-0.00323486328125,-0.0001068115234375
1690842043085377000,3.291376953125,-0.982147216796875,-0.003326416015625,-0.0017547607421875
1690842043095417900,3.30141796875,-0.981414794921875,-0.0041351318359375,-0.0009613037109375
1690842043105458000,3.3114580078125,-0.982757568359375,-0.0040740966796875,-0.0009918212890625
1690842043115498000,3.321498046875,-0.981658935546875,-0.0036468505859375,-0.0012969970703125
1690842043125539000,3.3315390625,-0.9818267822265625,-0.00341796875,-0.0008392333984375
1690842043135579000,3.341578857421875,-0.9820709228515625,-0.0036163330078125,-0.000823974609375
1690842043145619000,3.351618896484375,-0.9813232421875,-0.00439453125,-0.002288818359375
1690842043155659000,3.361658935546875,-0.98199462890625,-0.0035247802734375,-0.0019073486328125
1690842043165699800,3.371699951171875,-0.98223876953125,-0.00396728515625,-0.0010528564453125
1690842043175740000,3.381739990234375,-0.9818878173828125,-0.00384521484375,-0.000701904296875
1690842043185780000,3.391780029296875,-0.981781005859375,-0.0041046142578125,-0.00164794921875
1690842043195821000,3.401821044921875,-0.9820098876953125,-0.00372314453125,-0.001922607421875
1690842043205861000,3.411861083984375,-0.9813690185546875,-0.003448486328125,-0.00177001953125
1690842043215932000,3.421931884765625,-0.9818572998046875,-0.003143310546875,-0.000762939453125
1690842043225972000,3.431971923828125,-0.982147216796875,-0.0031280517578125,-0.00091552734375
1690842043236012000,3.442011962890625,-0.9813690185546875,-0.0044403076171875,-0.001983642578125
1690842043246052900,3.452052978515625,-0.9820709228515625,-0.0034332275390625,-0.00164794921875
1690842043256093000,3.462093017578125,-0.9817657470703125,-0.0033416748046875,-0.001861572265625
1690842043266133000,3.472133056640625,-0.9822845458984375,-0.003570556640625,-0.0019989013671875
1690842043276172800,3.4821728515625,-0.9816741943359375,-0.0041656494140625,-0.0017852783203125
1690842043286214000,3.4922138671875,-0.98095703125,-0.0034332275390625,-0.001495361328125
1690842043296254000,3.50225390625,-0.9825439453125,-0.003204345703125,-0.00140380859375
1690842043306294000,3.5122939453125,-0.98193359375,-0.0035552978515625,-0.0013427734375
1690842043316334800,3.5223349609375,-0.98162841796875,-0.0042877197265625,-0.00177001953125
1690842043326375000,3.532375,-0.9816131591796875,-0.0033416748046875,-0.0015716552734375
1690842043336415000,3.5424150390625,-0.98150634765625,-0.0036468505859375,-0.001434326171875
1690842043346455000,3.552455078125,-0.9813232421875,-0.003814697265625,-0.0013580322265625
1690842043356496100,3.56249609375,-0.98211669921875,-0.00347900390625,-0.001251220703125
1690842043366536000,3.572535888671875,-0.9825897216796875,-0.00323486328125,-0.0008392333984375
1690842043376607000,3.58260693359375,-0.9827423095703125,-0.0032958984375,-0.0013275146484375
1690842043386647000,3.59264697265625,-0.9820404052734375,-0.003631591796875,-0.0015716552734375
1690842043396687000,3.60268701171875,-0.982208251953125,-0.0032806396484375,-0.000579833984375
1690842043406728000,3.61272802734375,-0.9823760986328125,-0.0037994384765625,-0.0013427734375
1690842043416768000,3.62276806640625,-0.982391357421875,-0.0031280517578125,-0.001190185546875
1690842043426807800,3.632807861328125,-0.981964111328125,-0.003631591796875,-0.000457763671875
1690842043436847900,3.642847900390625,-0.982177734375,-0.00384521484375,-0.0004425048828125
1690842043446889000,3.652888916015625,-0.9814605712890625,-0.0040435791015625,-0.001373291015625
1690842043456929000,3.662928955078125,-0.980743408203125,-0.0034637451171875,-0.0016632080078125
1690842043466969000,3.672968994140625,-0.9818572998046875,-0.0029449462890625,-0.001129150390625
1690842043477010000,3.683010009765625,-0.9820098876953125,-0.00286865234375,-0.0009765625
1690842043487050000,3.693050048828125,-0.9819183349609375,-0.00347900390625,-0.0012969970703125
1690842043497090000,3.703090087890625,-0.9829254150390625,-0.0036773681640625,-0.000885009765625
1690842043507129900,3.7131298828125,-0.982452392578125,-0.0028533935546875,-0.0009918212890625
1690842043517171000,3.7231708984375,-0.9824981689453125,-0.0035400390625,-0.000244140625
1690842043527241000,3.733240966796875,-0.9827423095703125,-0.00421142578125,-0.0008392333984375
1690842043537282000,3.743281982421875,-0.9822998046875,-0.003753662109375,-0.0011749267578125
1690842043547322000,3.753322021484375,-0.98291015625,-0.00360107421875,-0.001190185546875
1690842043557362200,3.763362060546875,-0.9814453125,-0.0040740966796875,-0.00079345703125
1690842043567403000,3.773403076171875,-0.9810028076171875,-0.0032806396484375,-0.0012664794921875
1690842043577442800,3.78344287109375,-0.9819488525390625,-0.003814697265625,-0.0013275146484375
1690842043587483000,3.79348291015625,-0.9817657470703125,-0.003753662109375,-0.000885009765625
1690842043597523000,3.80352294921875,-0.9823150634765625,-0.00335693359375,-0.000946044921875
1690842043607564000,3.81356396484375,-0.98187255859375,-0.003875732421875,-0.000885009765625
1690842043617604000,3.82360400390625,-0.98150634765625,-0.003509521484375,-0.0007781982421875
1690842043627644200,3.83364404296875,-0.9816741943359375,-0.0034637451171875,-0.0009307861328125
1690842043637685000,3.84368505859375,-0.9818115234375,-0.0028839111328125,-0.0018768310546875
1690842043647725000,3.85372509765625,-0.9819488525390625,-0.0036773681640625,-0.0014190673828125
1690842043657764900,3.863764892578125,-0.981964111328125,-0.003265380859375,-0.0013885498046875
1690842043667805000,3.873804931640625,-0.98193359375,-0.0035858154296875,-0.0005340576171875
1690842043677876000,3.8838759765625,-0.9818878173828125,-0.0029754638671875,-0.00067138671875
1690842043687917000,3.8939169921875,-0.9820709228515625,-0.0035552978515625,-0.00048828125
1690842043697957000,3.90395703125,-0.98236083984375,-0.003631591796875,-0.001739501953125
1690842043707997200,3.9139970703125,-0.9718475341796875,-0.0143280029296875,-0.0171356201171875
1690842043718037000,3.924037109375,-0.9772796630859375,-0.0353546142578125,-0.01165771484375
1690842043728077800,3.934077880859375,-1.03009033203125,-0.02337646484375,0.079620361328125
1690842043738118000,3.944117919921875,-0.94268798828125,0.0229339599609375,-0.034759521484375
1690842043748158000,3.954157958984375,-0.990447998046875,0.0081939697265625,-0.0051727294921875
1690842043758199000,3.964198974609375,-0.96734619140625,0.0203094482421875,-0.017578125
1690842043768239000,3.974239013671875,-0.9704742431640625,0.019256591796875,-0.0245361328125
1690842043778279200,3.984279052734375,-0.9715118408203125,0.0172119140625,-0.0185546875
1690842043788319000,3.994319091796875,-0.97540283203125,0.0128021240234375,-0.01019287109375
1690842043798359800,4.00435986328125,-0.9818572998046875,0.0054779052734375,0.002197265625
1690842043808400000,4.01439990234375,-0.987213134765625,-0.001190185546875,0.0142669677734375
1690842043818440000,4.02443994140625,-0.984100341796875,-0.00677490234375,0.0196075439453125
1690842043828511000,4.034510986328125,-0.9918670654296875,-0.0125732421875,0.0172271728515625
1690842043838551000,4.044551025390625,-0.9868927001953125,-0.0146026611328125,0.008087158203125
1690842043848592100,4.054592041015625,-0.986541748046875,-0.0159759521484375,-0.0022735595703125
1690842043858632200,4.064632080078125,-0.9817352294921875,-0.01373291015625,-0.011688232421875
1690842043868672000,4.074672119140625,-0.98748779296875,-0.01171875,-0.0157470703125
1690842043878712000,4.084712158203125,-0.9755401611328125,-0.0094757080078125,-0.016510009765625
1690842043888753000,4.0947529296875,-0.9845428466796875,-0.0052337646484375,-0.012939453125
1690842043898793000,4.10479296875,-0.9805755615234375,-0.000885009765625,-0.00665283203125
1690842043908833000,4.1148330078125,-0.9821319580078125,0.0027008056640625,0.0013885498046875
1690842043918874000,4.1248740234375,-0.9826202392578125,0.005462646484375,0.008636474609375
1690842043928914200,4.1349140625,-0.9815521240234375,0.0070648193359375,0.0123748779296875
1690842043938954000,4.1449541015625,-0.980804443359375,0.00836181640625,0.0103607177734375
1690842043948994000,4.154994140625,-0.9799957275390625,0.0078125,0.0047454833984375
1690842043959035000,4.165034912109375,-0.9778900146484375,0.005706787109375,-0.0022430419921875
1690842043969075000,4.175074951171875,-0.981475830078125,0.0030975341796875,-0.006683349609375
1690842043979115000,4.185114990234375,-0.9780120849609375,0.0002288818359375,-0.0094146728515625
1690842043989153500,4.195153564453125,-0.9808807373046875,-0.003265380859375,-0.0084075927734375
1690842043999193600,4.205193603515625,-0.9839324951171875,-0.007232666015625,-0.0065155029296875
1690842044009234700,4.215234619140625,-0.98358154296875,-0.0096588134765625,-0.0025634765625
1690842044019274800,4.225274658203125,-0.9849090576171875,-0.010101318359375,0.0005645751953125
1690842044029314800,4.235314697265625,-0.9871673583984375,-0.010589599609375,0.00274658203125
1690842044039355000,4.24535498046875,-0.9848480224609375,-0.00836181640625,0.00299072265625
1690842044049395700,4.255395751953125,-0.98455810546875,-0.006500244140625,0.0011749267578125
1690842044059435500,4.265435546875,-0.9805450439453125,-0.00274658203125,-0.0007781982421875
1690842044069475600,4.2754755859375,-0.9806671142578125,0.000335693359375,-0.002593994140625
1690842044079516700,4.2855166015625,-0.979644775390625,0.00189208984375,-0.0040130615234375
1690842044089556700,4.295556640625,-0.9775848388671875,0.003143310546875,-0.0047607421875
1690842044099596800,4.3055966796875,-0.9800872802734375,0.00482177734375,-0.00323486328125
1690842044109636900,4.315636962890625,-0.98065185546875,0.0048675537109375,-0.0011444091796875
1690842044119677700,4.325677734375,-0.979949951171875,0.0036773681640625,0.0010223388671875
1690842044129717500,4.335717529296875,-0.98223876953125,0.0017852783203125,0.0014801025390625
1690842044139788500,4.34578857421875,-0.9819488525390625,-0.000457763671875,0.001129150390625
1690842044149828600,4.35582861328125,-0.9824676513671875,-0.0017547607421875,0.00079345703125
1690842044159868700,4.36586865234375,-0.982696533203125,-0.003875732421875,-0.0012054443359375
1690842044169909800,4.37590966796875,-0.982208251953125,-0.0056610107421875,-0.00238037109375
1690842044179949800,4.38594970703125,-0.983428955078125,-0.005889892578125,-0.0030670166015625
1690842044189990000,4.395989990234375,-0.9821014404296875,-0.005462646484375,-0.003570556640625
1690842044200030700,4.40603076171875,-0.98284912109375,-0.004547119140625,-0.00225830078125
1690842044210070500,4.416070556640625,-0.98394775390625,-0.0046539306640625,-0.0018768310546875
1690842044220110600,4.426110595703125,-0.9821929931640625,-0.0035400390625,-0.0001220703125
1690842044230150700,4.436150634765625,-0.9829559326171875,-0.000823974609375,-0.000335693359375
1690842044240191700,4.446191650390625,-0.9824066162109375,0.0005340576171875,-0.0008087158203125
1690842044250231800,4.456231689453125,-0.9800567626953125,0.0008544921875,-0.0003509521484375
1690842044260271900,4.46627197265625,-0.9805755615234375,0.001983642578125,-0.001129150390625
1690842044270312700,4.476312744140625,-0.9802398681640625,0.0019073486328125,-0.00250244140625
1690842044280352500,4.4863525390625,-0.981201171875,0.001129150390625,-0.0022735595703125
1690842044290423600,4.496423583984375,-0.982086181640625,0.001007080078125,-0.0022430419921875
1690842044300463600,4.506463623046875,-0.98162841796875,-0.000396728515625,-0.001739501953125
1690842044310503700,4.516503662109375,-0.9817962646484375,-0.00201416015625,-0.000579833984375
1690842044320543700,4.526543701171875,-0.982452392578125,-0.0029754638671875,-0.0014190673828125
1690842044330584800,4.536584716796875,-0.9825897216796875,-0.003936767578125,-0.0002593994140625
1690842044340625000,4.546625,-0.98333740234375,-0.003448486328125,-0.0011138916015625
1690842044350664700,4.556664794921875,-0.9829864501953125,-0.0039520263671875,-0.000946044921875
1690842044360705500,4.56670556640625,-0.981292724609375,-0.0032806396484375,-0.0012969970703125
1690842044370745600,4.57674560546875,-0.9816436767578125,-0.0024261474609375,-0.0027618408203125
1690842044380785700,4.58678564453125,-0.9818267822265625,-0.00189208984375,-0.0029754638671875
1690842044390825700,4.59682568359375,-0.9815216064453125,-0.0008544921875,-0.002960205078125
1690842044400866800,4.60686669921875,-0.982269287109375,-0.0002593994140625,-0.0017852783203125
1690842044410907000,4.616906982421875,-0.9822235107421875,0.00067138671875,-0.000335693359375
1690842044420946700,4.62694677734375,-0.9818572998046875,0.00042724609375,-0.00042724609375
1690842044430987500,4.636987548828125,-0.9810638427734375,0.000244140625,0.00006103515625
1690842044441057800,4.647057861328125,-0.9812469482421875,0.0000457763671875,-0.0004119873046875
1690842044451098600,4.6570986328125,-0.98260498046875,-0.0010528564453125,-0.000762939453125
1690842044461138700,4.667138671875,-0.981353759765625,-0.0006561279296875,-0.0023345947265625
1690842044471178800,4.6771787109375,-0.98187255859375,-0.001617431640625,-0.0022125244140625
1690842044481219800,4.6872197265625,-0.9822540283203125,-0.002532958984375,-0.0024871826171875
1690842044491260000,4.697260009765625,-0.9815673828125,-0.0025634765625,-0.0018157958984375
1690842044501299700,4.7072998046875,-0.9824981689453125,-0.0029144287109375,-0.0023193359375
1690842044511339800,4.71733984375,-0.9826812744140625,-0.0032501220703125,-0.0019073486328125
1690842044521380600,4.727380615234375,-0.98284912109375,-0.0025787353515625,-0.0006103515625
1690842044531420700,4.737420654296875,-0.982391357421875,-0.0024261474609375,-0.0009002685546875
1690842044541460700,4.747460693359375,-0.9821624755859375,-0.001617431640625,-0.0010986328125
1690842044551500800,4.757500732421875,-0.98126220703125,-0.0006866455078125,-0.001312255859375
1690842044561542000,4.7675419921875,-0.9815216064453125,-0.000457763671875,-0.0012054443359375
1690842044571581700,4.777581787109375,-0.9816436767578125,-0.0001373291015625,-0.0012359619140625
1690842044581621800,4.787621826171875,-0.9821624755859375,0.0002593994140625,-0.0008697509765625
1690842044591662600,4.79766259765625,-0.98138427734375,-0.00042724609375,-0.0010986328125
1690842044601732600,4.807732666015625,-0.9816741943359375,-0.00018310546875,-0.0015106201171875
1690842044611773700,4.817773681640625,-0.98162841796875,-0.0003814697265625,-0.001739501953125
1690842044621813800,4.827813720703125,-0.981842041015625,-0.0009613037109375,-0.0012054443359375
1690842044631853600,4.837853515625,-0.98236083984375,-0.001068115234375,-0.0011749267578125
1690842044641894700,4.847894775390625,-0.982086181640625,-0.0018768310546875,-0.0017547607421875
1690842044651934700,4.857934814453125,-0.98291015625,-0.0020904541015625,-0.001434326171875
1690842044661974800,4.867974853515625,-0.98199462890625,-0.001922607421875,-0.0014190673828125
1690842044672014600,4.8780146484375,-0.982147216796875,-0.0032958984375,-0.001739501953125
1690842044682055700,4.8880556640625,-0.981842041015625,-0.002471923828125,-0.001861572265625
1690842044692095700,4.898095703125,-0.981536865234375,-0.0017242431640625,-0.001617431640625
1690842044702135800,4.9081357421875,-0.9816131591796875,-0.0017547607421875,-0.0015106201171875
1690842044712177000,4.918177001953125,-0.9818878173828125,-0.001312255859375,-0.0007171630859375
1690842044722216700,4.928216796875,-0.9822235107421875,-0.000518798828125,-0.00128173828125
1690842044732256800,4.9382568359375,-0.9820556640625,-0.000579833984375,-0.001556396484375
1690842044742296600,4.948296630859375,-0.9816436767578125,-0.000213623046875,-0.0009918212890625
1690842044752367600,4.95836767578125,-0.9821929931640625,-0.0006866455078125,-0.0012054443359375
1690842044762407700,4.96840771484375,-0.9818572998046875,-0.0005340576171875,-0.0005950927734375
1690842044772448800,4.97844873046875,-0.9820556640625,-0.0012969970703125,-0.00146484375
1690842044782488600,4.988488525390625,-0.981842041015625,-0.001434326171875,-0.0013275146484375
1690842044792528600,4.998528564453125,-0.9824981689453125,-0.0017852783203125,-0.0010833740234375
1690842044802569700,5.00856982421875,-0.9811859130859375,-0.0021209716796875,-0.0016021728515625
1690842044812609800,5.01860986328125,-0.98248291015625,-0.0012969970703125,-0.001678466796875
1690842044822649600,5.028649658203125,-0.9818115234375,-0.001861572265625,-0.001220703125
1690842044832689700,5.038689697265625,-0.9812164306640625,-0.002197265625,-0.0012359619140625
1690842044842730800,5.048730712890625,-0.98272705078125,-0.001190185546875,-0.0012664794921875
1690842044852770800,5.058770751953125,-0.9820404052734375,-0.00140380859375,-0.0015869140625
1690842044862810600,5.068810546875,-0.9821929931640625,-0.00128173828125,-0.0018157958984375
1690842044872851700,5.078851806640625,-0.9799041748046875,-0.001495361328125,-0.00146484375
1690842044882891800,5.088891845703125,-0.982940673828125,-0.0018157958984375,-0.0008544921875
1690842044892931600,5.098931640625,-0.980255126953125,-0.001617431640625,-0.0016326904296875
1690842044903002600,5.109002685546875,-0.9832916259765625,-0.0010528564453125,-0.0017547607421875
1690842044913042700,5.119042724609375,-0.981903076171875,-0.0013427734375,-0.00164794921875
1690842044923083800,5.129083740234375,-0.9827728271484375,-0.0011138916015625,-0.0010833740234375
1690842044933123600,5.13912353515625,-0.9825286865234375,-0.001251220703125,-0.001617431640625
1690842044943163600,5.14916357421875,-0.981842041015625,-0.000946044921875,-0.00079345703125
1690842044953203700,5.15920361328125,-0.9820098876953125,-0.0012359619140625,-0.001129150390625
1690842044963244800,5.169244873046875,-0.982818603515625,-0.0015869140625,-0.000762939453125
1690842044973284600,5.17928466796875,-0.9814453125,-0.0008697509765625,-0.0010528564453125
1690842044983324700,5.18932470703125,-0.982208251953125,-0.001129150390625,-0.001983642578125
1690842044993366300,5.1993662109375,-0.9823150634765625,-0.00115966796875,-0.0015106201171875
1690842045003407400,5.209407470703125,-0.982513427734375,-0.0016632080078125,-0.001312255859375
1690842045013447200,5.219447265625,-0.982330322265625,-0.0015869140625,-0.001312255859375
1690842045023487000,5.229487060546875,-0.9818572998046875,-0.00146484375,-0.001129150390625
1690842045033528000,5.239528076171875,-0.9815673828125,-0.00079345703125,-0.0010833740234375
1690842045043568000,5.249568115234375,-0.98101806640625,-0.0014495849609375,-0.0014495849609375
1690842045053639200,5.25963916015625,-0.9820404052734375,-0.0011749267578125,-0.0015411376953125
1690842045063679200,5.26967919921875,-0.9829864501953125,-0.001068115234375,-0.00103759765625
1690842045073719300,5.27971923828125,-0.9818572998046875,-0.000823974609375,-0.001312255859375
1690842045083760400,5.289760498046875,-0.9827880859375,-0.000885009765625,-0.0012359619140625
1690842045093800200,5.29980029296875,-0.9826507568359375,-0.001251220703125,-0.0019683837890625
1690842045103840000,5.309840087890625,-0.98187255859375,-0.00115966796875,-0.0016021728515625
1690842045113880000,5.319880126953125,-0.981292724609375,-0.000885009765625,-0.00091552734375
1690842045123921200,5.329921142578125,-0.9817657470703125,-0.0015106201171875,-0.00213623046875
1690842045133961200,5.339961181640625,-0.9820709228515625,-0.0009307861328125,-0.0018157958984375
1690842045144001300,5.350001220703125,-0.9818267822265625,-0.00177001953125,-0.000640869140625
1690842045154042400,5.36004248046875,-0.9815673828125,-0.001068115234375,-0.0011138916015625
1690842045164082200,5.370082275390625,-0.9826507568359375,-0.000732421875,-0.0006561279296875
1690842045174122000,5.3801220703125,-0.9820098876953125,-0.0019378662109375,-0.000762939453125
1690842045184162000,5.390162109375,-0.980987548828125,-0.0014190673828125,-0.0009613037109375
1690842045194203100,5.400203125,-0.9811553955078125,-0.0011749267578125,-0.001678466796875
1690842045204273200,5.410273193359375,-0.9810333251953125,-0.0010223388671875,-0.0010223388671875
1690842045214314200,5.420314208984375,-0.9821014404296875,-0.00152587890625,-0.0007171630859375
1690842045224354300,5.430354248046875,-0.9824066162109375,-0.0010833740234375,-0.00079345703125
1690842045234394400,5.440394287109375,-0.982147216796875,-0.001220703125,-0.0013275146484375
1690842045244435200,5.450435302734375,-0.9817962646484375,-0.00189208984375,-0.0009002685546875
1690842045254475000,5.46047509765625,-0.9825897216796875,-0.0016021728515625,-0.0013580322265625
1690842045264515000,5.47051513671875,-0.982421875,-0.00091552734375,-0.001678466796875
1690842045274555100,5.48055517578125,-0.98175048828125,-0.0005035400390625,-0.001739501953125
1690842045284596200,5.49059619140625,-0.982147216796875,-0.0015869140625,-0.0016632080078125
1690842045294636300,5.50063623046875,-0.9822540283203125,-0.001434326171875,-0.00189208984375
1690842045304676400,5.51067626953125,-0.982269287109375,-0.0009002685546875,-0.0018157958984375
1690842045314717200,5.52071728515625,-0.9829559326171875,-0.000946044921875,-0.0015106201171875
1690842045324757000,5.530757080078125,-0.982147216796875,-0.0012664794921875,-0.0016021728515625
1690842045334797000,5.540797119140625,-0.982818603515625,-0.0019989013671875,-0.002044677734375
1690842045344837000,5.550837158203125,-0.9819793701171875,-0.0002593994140625,-0.0022430419921875
1690842045354878200,5.560878173828125,-0.98309326171875,-0.0009613037109375,-0.0015869140625
1690842045364949200,5.57094921875,-0.9824066162109375,-0.0016021728515625,-0.0008697509765625
1690842045374989300,5.5809892578125,-0.9815826416015625,-0.001129150390625,-0.0004730224609375
1690842045385029400,5.591029296875,-0.9828643798828125,-0.001251220703125,-0.0010833740234375
1690842045395069200,5.601069091796875,-0.9825286865234375,-0.0012054443359375,-0.0013885498046875
1690842045405110000,5.611110107421875,-0.9817047119140625,-0.001495361328125,-0.0020294189453125
1690842045415150000,5.621150146484375,-0.9816131591796875,-0.000762939453125,-0.0016021728515625
1690842045425190100,5.631190185546875,-0.9825897216796875,-0.0011444091796875,-0.001556396484375
1690842045435231200,5.641231201171875,-0.982757568359375,-0.001190185546875,-0.0019683837890625
1690842045445271300,5.651271240234375,-0.9827117919921875,-0.0008697509765625,-0.0023040771484375
1690842045455311400,5.661311279296875,-0.981719970703125,-0.0009613037109375,-0.001922607421875
1690842045465351200,5.67135107421875,-0.9825286865234375,-0.00115966796875,-0.001678466796875
1690842045475392000,5.68139208984375,-0.9815673828125,-0.001251220703125,-0.0016021728515625
1690842045485432000,5.69143212890625,-0.9823760986328125,-0.001434326171875,-0.0013275146484375
1690842045495472000,5.70147216796875,-0.981964111328125,-0.001495361328125,-0.001312255859375
1690842045505512200,5.71151220703125,-0.9817047119140625,-0.0014495849609375,-0.0016937255859375
1690842045515583200,5.721583251953125,-0.9819488525390625,-0.0008087158203125,-0.0021209716796875
1690842045525624300,5.731624267578125,-0.9826507568359375,-0.0014190673828125,-0.00177001953125
1690842045535664000,5.7416640625,-0.9822845458984375,-0.0010528564453125,-0.0016937255859375
1690842045545704200,5.7517041015625,-0.9817352294921875,-0.0006256103515625,-0.0018768310546875
1690842045555744300,5.761744140625,-0.9821624755859375,-0.00048828125,-0.0025634765625
1690842045565785000,5.77178515625,-0.9819183349609375,-0.000885009765625,-0.002197265625
1690842045575825200,5.7818251953125,-0.9823455810546875,-0.0013885498046875,-0.001495361328125
1690842045585865200,5.791865234375,-0.9825897216796875,-0.001190185546875,-0.002105712890625
1690842045595906300,5.80190625,-0.9822235107421875,-0.0001983642578125,-0.0013275146484375
1690842045605946400,5.8119462890625,-0.9823455810546875,-0.000457763671875,-0.00091552734375
1690842045615986200,5.821986083984375,-0.9821624755859375,-0.000457763671875,-0.0010833740234375
1690842045626026200,5.832026123046875,-0.982147216796875,-0.0010223388671875,-0.001251220703125
1690842045636067000,5.842067138671875,-0.9815673828125,-0.0019073486328125,-0.000701904296875
1690842045646107100,5.852107177734375,-0.981903076171875,-0.001190185546875,-0.001983642578125
1690842045656147200,5.862147216796875,-0.9818878173828125,-0.000457763671875,-0.0016326904296875
1690842045666218200,5.87221826171875,-0.9818572998046875,-0.000885009765625,-0.0015869140625
1690842045676258000,5.882258056640625,-0.9813232421875,-0.0009307861328125,-0.0018310546875
1690842045686299100,5.892299072265625,-0.982269287109375,-0.001556396484375,-0.0016021728515625
1690842045696339200,5.902339111328125,-0.9815673828125,-0.0007171630859375,-0.001251220703125
1690842045706379300,5.912379150390625,-0.981964111328125,-0.0008392333984375,-0.0002593994140625
1690842045716419300,5.92241943359375,-0.9821624755859375,-0.001220703125,-0.0009307861328125
1690842045726460200,5.932460205078125,-0.9814910888671875,-0.0009918212890625,-0.000946044921875
1690842045736500200,5.942500244140625,-0.982696533203125,-0.0008697509765625,-0.0012359619140625
1690842045746540300,5.952540283203125,-0.9817657470703125,-0.0011444091796875,-0.0021209716796875
1690842045756581400,5.962581298828125,-0.9809722900390625,-0.0010833740234375,-0.0020294189453125
1690842045766621200,5.97262109375,-0.982147216796875,-0.0018463134765625,-0.0016021728515625
1690842045776661200,5.9826611328125,-0.98162841796875,-0.0016632080078125,-0.001678466796875
1690842045786701300,5.992701416015625,-0.981414794921875,-0.0009918212890625,-0.0022125244140625
1690842045796742100,6.0027421875,-0.9813232421875,-0.0005950927734375,-0.0015869140625
1690842045806782200,6.0127822265625,-0.982513427734375,-0.0009613037109375,-0.001922607421875
1690842045816853200,6.022853271484375,-0.98211669921875,-0.0008087158203125,-0.00213623046875
1690842045826893000,6.03289306640625,-0.9811859130859375,-0.0009002685546875,-0.0015716552734375
1690842045836933000,6.04293310546875,-0.98260498046875,-0.0008544921875,-0.000946044921875
1690842045846974200,6.05297412109375,-0.981689453125,-0.000518798828125,-0.0010528564453125
1690842045857014300,6.06301416015625,-0.9818572998046875,-0.0007476806640625,-0.0004730224609375
1690842045867054300,6.073054443359375,-0.9819183349609375,-0.000396728515625,-0.0010223388671875
1690842045877095200,6.08309521484375,-0.98162841796875,-0.0012054443359375,-0.00115966796875
1690842045887135200,6.09313525390625,-0.9819488525390625,-0.001190185546875,-0.0012054443359375
1690842045897175300,6.10317529296875,-0.982635498046875,-0.0013275146484375,-0.00146484375
1690842045907215000,6.113215087890625,-0.9816131591796875,-0.0009918212890625,-0.001953125
1690842045917256200,6.123256103515625,-0.98199462890625,-0.0009765625,-0.001617431640625
1690842045927296300,6.133296142578125,-0.981719970703125,-0.0006866455078125,-0.0012664794921875
1690842045937336300,6.14333642578125,-0.981689453125,-0.00177001953125,-0.00189208984375
1690842045947377200,6.153377197265625,-0.9813690185546875,-0.0021514892578125,-0.000885009765625
1690842045957417200,6.163417236328125,-0.9817962646484375,-0.001312255859375,-0.0009765625
1690842045967457300,6.173457275390625,-0.9824066162109375,-0.0009765625,-0.001739501953125
1690842045977528000,6.183528076171875,-0.9826507568359375,-0.001129150390625,-0.0027618408203125
1690842045987562000,6.19356201171875,-0.9824371337890625,-0.0010528564453125,-0.0011749267578125
1690842045997601800,6.203601806640625,-0.9818267822265625,-0.0010223388671875,-0.00152587890625
1690842046007642600,6.213642578125,-0.982696533203125,-0.00177001953125,-0.001190185546875
1690842046017682700,6.2236826171875,-0.982513427734375,-0.0012054443359375,-0.0016326904296875
1690842046027722800,6.23372265625,-0.9831085205078125,-0.001434326171875,-0.0020599365234375
1690842046037763800,6.243763916015625,-0.9813690185546875,-0.0018463134765625,-0.001251220703125
1690842046047804000,6.253803955078125,-0.9809112548828125,-0.0005340576171875,-0.001129150390625
1690842046057844000,6.263843994140625,-0.9815216064453125,-0.0009307861328125,-0.0009765625
1690842046067884000,6.273884033203125,-0.981048583984375,-0.0015411376953125,-0.001251220703125
1690842046077924900,6.2839248046875,-0.98236083984375,-0.0018768310546875,-0.001220703125
1690842046087964700,6.293964599609375,-0.9820556640625,-0.001922607421875,-0.0012664794921875
1690842046098004700,6.304004638671875,-0.9816436767578125,-0.0018310546875,-0.00140380859375
1690842046108045800,6.3140458984375,-0.9821014404296875,-0.0011749267578125,-0.0015411376953125
1690842046118086000,6.3240859375,-0.981903076171875,-0.0009002685546875,-0.001861572265625
1690842046128157000,6.334156982421875,-0.9824371337890625,-0.001373291015625,-0.00115966796875
1690842046138197000,6.344197021484375,-0.98193359375,-0.001373291015625,-0.0013427734375
1690842046148236800,6.35423681640625,-0.981689453125,-0.001373291015625,-0.0020751953125
1690842046158276900,6.36427685546875,-0.98211669921875,-0.0017547607421875,-0.0020904541015625
1690842046168317700,6.374317626953125,-0.9817047119140625,-0.0008392333984375,-0.0013580322265625
1690842046178357800,6.384357666015625,-0.981689453125,-0.000518798828125,-0.0017852783203125
1690842046188397800,6.394397705078125,-0.981964111328125,-0.0011444091796875,-0.001983642578125
1690842046198439000,6.40443896484375,-0.9823760986328125,-0.0013427734375,-0.0014801025390625
1690842046208479000,6.41447900390625,-0.98193359375,-0.0005950927734375,-0.0023345947265625
1690842046218519000,6.42451904296875,-0.9825439453125,-0.001312255859375,-0.001708984375
1690842046228558800,6.434558837890625,-0.9828643798828125,-0.000732421875,-0.001708984375
1690842046238599700,6.444599609375,-0.9820709228515625,-0.000946044921875,-0.0017242431640625
1690842046248639700,6.4546396484375,-0.981689453125,-0.0011138916015625,-0.0016937255859375
1690842046258679800,6.4646796875,-0.98150634765625,-0.0009918212890625,-0.001953125
1690842046268721000,6.474720947265625,-0.9819488525390625,-0.001129150390625,-0.0015106201171875
1690842046278791000,6.484791015625,-0.9824981689453125,-0.0009307861328125,-0.0019378662109375
1690842046288832000,6.49483203125,-0.98193359375,-0.00115966796875,-0.0018157958984375
1690842046298871800,6.504871826171875,-0.980926513671875,-0.0004425048828125,-0.0013275146484375
1690842046308911900,6.514911865234375,-0.9812469482421875,-0.00079345703125,-0.001434326171875
1690842046318952700,6.52495263671875,-0.983306884765625,-0.000518798828125,-0.0015869140625
1690842046328992800,6.53499267578125,-0.9819488525390625,-0.000701904296875,-0.0014190673828125
1690842046339032800,6.54503271484375,-0.981719970703125,-0.0010528564453125,-0.002105712890625
1690842046349073000,6.555072998046875,-0.981231689453125,-0.0020599365234375,-0.0016021728515625
1690842046359114000,6.565114013671875,-0.9814910888671875,-0.001983642578125,-0.000701904296875
1690842046369154000,6.575154052734375,-0.9815673828125,-0.0012359619140625,-0.0018768310546875
1690842046379193900,6.58519384765625,-0.98187255859375,-0.0015869140625,-0.0019378662109375
1690842046389234700,6.595234619140625,-0.9821319580078125,-0.000701904296875,-0.0017547607421875
1690842046399274800,6.605274658203125,-0.982086181640625,-0.000457763671875,-0.00177001953125
1690842046409314800,6.615314697265625,-0.98248291015625,-0.001129150390625,-0.0010528564453125
1690842046419355000,6.62535498046875,-0.9824676513671875,-0.000732421875,-0.0006561279296875
1690842046429396000,6.63539599609375,-0.9825286865234375,-0.001556396484375,-0.0009002685546875
1690842046439465700,6.6454658203125,-0.9817047119140625,-0.001861572265625,-0.0006256103515625
1690842046449506800,6.6555068359375,-0.9818115234375,-0.0014495849609375,-0.00115966796875
1690842046459547000,6.665546875,-0.98150634765625,-0.001007080078125,-0.001556396484375
1690842046469587000,6.6755869140625,-0.982086181640625,-0.00140380859375,-0.0018768310546875
1690842046479627800,6.685627685546875,-0.9825439453125,-0.0010528564453125,-0.001495361328125
1690842046489667800,6.695667724609375,-0.9821319580078125,-0.000244140625,-0.0015411376953125
1690842046499708000,6.7057080078125,-0.9819793701171875,-0.0012054443359375,-0.0011749267578125
1690842046509748000,6.715748046875,-0.981536865234375,-0.0012359619140625,-0.0016021728515625
1690842046519789000,6.7257890625,-0.9822235107421875,-0.00018310546875,-0.00189208984375
1690842046529828900,6.735828857421875,-0.982513427734375,-0.000762939453125,-0.001190185546875
1690842046539869000,6.745868896484375,-0.9822540283203125,-0.0003509521484375,-0.00115966796875
1690842046549909800,6.75590966796875,-0.981903076171875,-0.001495361328125,-0.00115966796875
1690842046559949800,6.76594970703125,-0.981903076171875,-0.0017547607421875,-0.002655029296875
1690842046569990000,6.775989990234375,-0.9816131591796875,-0.001220703125,-0.0019683837890625
1690842046580030000,6.786030029296875,-0.981597900390625,-0.0004730224609375,-0.0010528564453125
1690842046590100700,6.796100830078125,-0.98162841796875,-0.0013275146484375,-0.001007080078125
1690842046600141800,6.806141845703125,-0.9817047119140625,-0.0014190673828125,-0.001190185546875
1690842046610182000,6.816181884765625,-0.98199462890625,-0.00048828125,-0.0020599365234375
1690842046620222000,6.826221923828125,-0.98175048828125,-0.00140380859375,-0.001251220703125
1690842046630262000,6.836261962890625,-0.9811859130859375,-0.0015411376953125,-0.0008392333984375
1690842046640302800,6.846302734375,-0.98162841796875,-0.0005950927734375,-0.0014495849609375
1690842046650343000,6.856343017578125,-0.9806671142578125,-0.000274658203125,-0.00189208984375
1690842046660382700,6.8663828125,-0.981414794921875,-0.000885009765625,-0.0010833740234375
1690842046670422800,6.8764228515625,-0.9819183349609375,-0.000457763671875,-0.0012664794921875
1690842046680464000,6.8864638671875,-0.9807586669921875,-0.0006561279296875,-0.0017547607421875
1690842046690504000,6.89650390625,-0.983001708984375,-0.0018310546875,-0.0012664794921875
1690842046700544000,6.9065439453125,-0.9825286865234375,-0.001312255859375,-0.001251220703125
1690842046710584800,6.916584716796875,-0.981048583984375,-0.001129150390625,-0.0014801025390625
1690842046720625000,6.926625,-0.9819183349609375,-0.0022125244140625,-0.001739501953125
1690842046730665000,6.9366650390625,-0.9819488525390625,-0.00164794921875,-0.0011444091796875
1690842046740735700,6.94673583984375,-0.982452392578125,-0.001007080078125,-0.0017547607421875
1690842046750775800,6.95677587890625,-0.9819488525390625,-0.0015869140625,-0.00146484375
1690842046760817000,6.96681689453125,-0.9819793701171875,-0.0013580322265625,-0.0018157958984375
1690842046770857000,6.97685693359375,-0.9823150634765625,-0.0013275146484375,-0.0011749267578125
1690842046780897000,6.98689697265625,-0.9824981689453125,-0.0018157958984375,-0.001007080078125
1690842046790936800,6.996936767578125,-0.9814453125,-0.0006866455078125,-0.001312255859375
1690842046800978000,7.00697802734375,-0.9823455810546875,-0.0017242431640625,-0.0011749267578125
1690842046811017700,7.017017822265625,-0.9824981689453125,-0.00152587890625,-0.001190185546875
1690842046821057800,7.027057861328125,-0.9822998046875,-0.00103759765625,-0.001129150390625
1690842046831099000,7.037098876953125,-0.98272705078125,-0.0011749267578125,-0.001708984375
1690842046841139000,7.047138916015625,-0.9815673828125,-0.001190185546875,-0.001678466796875
1690842046851179000,7.057178955078125,-0.9824981689453125,-0.0010223388671875,-0.001953125
1690842046861218800,7.06721875,-0.98150634765625,-0.0005035400390625,-0.002410888671875
1690842046871260000,7.077260009765625,-0.981201171875,-0.0008544921875,-0.0021514892578125
1690842046881300000,7.087300048828125,-0.9821014404296875,-0.0013427734375,-0.001678466796875
1690842046891370800,7.097370849609375,-0.9822998046875,-0.0004425048828125,-0.001190185546875
1690842046901410800,7.107410888671875,-0.982421875,-0.0008392333984375,-0.001251220703125
1690842046911451000,7.117450927734375,-0.981903076171875,-0.000640869140625,-0.0009613037109375
1690842046921492000,7.127491943359375,-0.9822235107421875,-0.001312255859375,-0.0023345947265625
1690842046931532000,7.137531982421875,-0.981170654296875,-0.0015716552734375,-0.00177001953125
1690842046941571800,7.14757177734375,-0.982330322265625,-0.001312255859375,-0.001495361328125
1690842046951611600,7.157611572265625,-0.9822998046875,-0.0010986328125,-0.0020904541015625
1690842046961652700,7.16765283203125,-0.9814605712890625,-0.00054931640625,-0.0016326904296875
1690842046971692800,7.17769287109375,-0.9808197021484375,-0.00079345703125,-0.0015869140625
1690842046981732900,7.18773291015625,-0.9814300537109375,-0.00146484375,-0.00115966796875
1690842046991770600,7.1977705078125,-0.9813385009765625,-0.000885009765625,-0.00152587890625
1690842047001810700,7.207810791015625,-0.9815521240234375,-0.0003204345703125,-0.0010986328125
1690842047011850800,7.217850830078125,-0.9822845458984375,-0.0012359619140625,-0.0023956298828125
1690842047021890800,7.227890869140625,-0.981964111328125,-0.0009918212890625,-0.0021209716796875
1690842047031932000,7.237931884765625,-0.9812164306640625,-0.0011749267578125,-0.0013580322265625
1690842047041972000,7.247971923828125,-0.981719970703125,-0.001495361328125,-0.00103759765625
1690842047052042800,7.258042724609375,-0.981414794921875,-0.00189208984375,-0.000946044921875
1690842047062082800,7.268082763671875,-0.9821929931640625,-0.000823974609375,-0.0009307861328125
1690842047072123000,7.278122802734375,-0.9822998046875,-0.001251220703125,-0.001190185546875
1690842047082163700,7.288163818359375,-0.9820404052734375,-0.0007781982421875,-0.0010833740234375
1690842047092203800,7.298203857421875,-0.98175048828125,-0.00128173828125,-0.0013427734375
1690842047102243800,7.308243896484375,-0.9823455810546875,-0.0012054443359375,-0.001678466796875
1690842047112285000,7.318284912109375,-0.98223876953125,-0.000244140625,-0.001861572265625
1690842047122324700,7.32832470703125,-0.981414794921875,-0.0015716552734375,-0.00177001953125
1690842047132364800,7.33836474609375,-0.9816741943359375,-0.0020599365234375,-0.0009918212890625
1690842047142404900,7.34840478515625,-0.98187255859375,-0.0013885498046875,-0.00103759765625
1690842047152445700,7.35844580078125,-0.981689453125,-0.000640869140625,-0.00128173828125
1690842047162485800,7.36848583984375,-0.982025146484375,-0.00189208984375,-0.0018157958984375
1690842047172525800,7.37852587890625,-0.9819183349609375,-0.0012969970703125,-0.0008697509765625
1690842047182566000,7.38856591796875,-0.9813690185546875,-0.001068115234375,-0.002044677734375
1690842047192607000,7.39860693359375,-0.9822235107421875,-0.0011138916015625,-0.001617431640625
1690842047202677800,7.408677734375,-0.983062744140625,-0.001983642578125,-0.00201416015625
1690842047212717800,7.4187177734375,-0.9820404052734375,-0.0013580322265625,-0.0020904541015625
1690842047222758000,7.4287578125,-0.98260498046875,-0.00152587890625,-0.00164794921875
1690842047232798000,7.4387978515625,-0.9821014404296875,-0.00140380859375,-0.0018768310546875
1690842047242838800,7.4488388671875,-0.9830322265625,-0.001068115234375,-0.0019989013671875
1690842047252878800,7.45887890625,-0.982818603515625,-0.0011749267578125,-0.0014190673828125
1690842047262918700,7.468918701171875,-0.9813995361328125,-0.0017852783203125,-0.0010528564453125
1690842047272959700,7.478959716796875,-0.9818115234375,-0.0019378662109375,-0.0006103515625
1690842047282999800,7.488999755859375,-0.9821319580078125,-0.0009918212890625,-0.0013580322265625
1690842047293039900,7.499039794921875,-0.982025146484375,-0.000823974609375,-0.0007781982421875
1690842047303080000,7.509079833984375,-0.9818572998046875,-0.0016632080078125,-0.001129150390625
1690842047313120800,7.519120849609375,-0.9826507568359375,-0.0015716552734375,-0.0016326904296875
1690842047323160800,7.529160888671875,-0.9826812744140625,-0.00091552734375,-0.0017852783203125
1690842047333201000,7.539200927734375,-0.9817962646484375,-0.000946044921875,-0.001373291015625
1690842047343242000,7.549241943359375,-0.981597900390625,-0.0013427734375,-0.0014801025390625
1690842047353311700,7.559311767578125,-0.981292724609375,-0.0012664794921875,-0.0016937255859375
1690842047363352800,7.569352783203125,-0.9824371337890625,-0.0015411376953125,-0.0014495849609375
1690842047373393000,7.579392822265625,-0.982666015625,-0.0016021728515625,-0.0016632080078125
1690842047383433000,7.589432861328125,-0.9817352294921875,-0.001373291015625,-0.0010986328125
1690842047393473000,7.59947314453125,-0.9825897216796875,-0.000640869140625,-0.0009307861328125
1690842047403513900,7.609513916015625,-0.982086181640625,-0.0006256103515625,-0.001007080078125
1690842047413553700,7.6195537109375,-0.980926513671875,-0.0007781982421875,-0.0014801025390625
1690842047423593700,7.62959375,-0.98175048828125,-0.0011444091796875,-0.001190185546875
1690842047433634800,7.639634765625,-0.9818878173828125,-0.001312255859375,-0.0014495849609375
1690842047443675000,7.6496748046875,-0.9823150634765625,-0.001495361328125,-0.00115966796875
1690842047453715000,7.65971484375,-0.9821929931640625,-0.001678466796875,-0.002197265625
1690842047463755000,7.669755126953125,-0.9818267822265625,-0.001495361328125,-0.001007080078125
1690842047473795800,7.6797958984375,-0.982421875,-0.0009765625,-0.00128173828125
1690842047483836000,7.6898359375,-0.9821319580078125,-0.00091552734375,-0.00152587890625
1690842047493875700,7.699875732421875,-0.9822845458984375,-0.0015716552734375,-0.0018157958984375
1690842047503916800,7.709916748046875,-0.98211669921875,-0.0013427734375,-0.001953125
1690842047513986800,7.71998681640625,-0.9828338623046875,-0.000946044921875,-0.0016021728515625
1690842047524028000,7.73002783203125,-0.9814300537109375,-0.001251220703125,-0.0014801025390625
1690842047534068000,7.74006787109375,-0.982421875,-0.0009307861328125,-0.0005035400390625
1690842047544108000,7.75010791015625,-0.9818115234375,-0.0005340576171875,-0.00152587890625
1690842047554148900,7.76014892578125,-0.9813385009765625,-0.00103759765625,-0.0016937255859375
1690842047564188700,7.770188720703125,-0.98126220703125,-0.00115966796875,-0.001373291015625
1690842047574228700,7.780228759765625,-0.9826202392578125,-0.00140380859375,-0.001251220703125
1690842047584268800,7.790268798828125,-0.982177734375,-0.001220703125,-0.001312255859375
1690842047594310000,7.800309814453125,-0.9819183349609375,-0.0009765625,-0.0012359619140625
1690842047604350000,7.810349853515625,-0.98248291015625,-0.0007171630859375,-0.0008697509765625
1690842047614390000,7.82039013671875,-0.9818267822265625,-0.0011749267578125,-0.0014190673828125
1690842047624429800,7.830429931640625,-0.9822235107421875,-0.0015106201171875,-0.0015716552734375
1690842047634471000,7.840470947265625,-0.982208251953125,-0.0014190673828125,-0.000823974609375
1690842047644510700,7.8505107421875,-0.9814300537109375,-0.00091552734375,-0.001190185546875
1690842047654550800,7.86055078125,-0.98114013671875,-0.00091552734375,-0.0016021728515625
1690842047664621800,7.870621826171875,-0.9819488525390625,-0.0012054443359375,-0.001861572265625
1690842047674662000,7.880661865234375,-0.9818115234375,-0.000457763671875,-0.0016632080078125
1690842047684703000,7.890702880859375,-0.9814910888671875,-0.0003509521484375,-0.0016326904296875
1690842047694743000,7.900742919921875,-0.9805755615234375,-0.000396728515625,-0.00146484375
1690842047704782800,7.910782958984375,-0.9820098876953125,-0.0012664794921875,-0.0015869140625
1690842047714823700,7.92082373046875,-0.9825286865234375,-0.0013580322265625,-0.001617431640625
1690842047724863700,7.93086376953125,-0.981353759765625,-0.00152587890625,-0.0019683837890625
1690842047734903800,7.94090380859375,-0.98138427734375,-0.000885009765625,-0.0015106201171875
1690842047744943900,7.95094384765625,-0.98162841796875,-0.000732421875,-0.0014190673828125
1690842047754985000,7.96098486328125,-0.982635498046875,-0.0009613037109375,-0.0011444091796875
1690842047765025000,7.97102490234375,-0.98187255859375,-0.001190185546875,-0.0015716552734375
1690842047775064800,7.98106494140625,-0.981719970703125,-0.0003204345703125,-0.0021820068359375
1690842047785105700,7.991105712890625,-0.982025146484375,-0.00079345703125,-0.0020599365234375
1690842047795145700,8.001145751953125,-0.981292724609375,-0.001312255859375,-0.0012359619140625
1690842047805185800,8.011185791015626,-0.9818878173828125,-0.000885009765625,-0.00164794921875
1690842047815256800,8.0212568359375,-0.9825286865234375,-0.001007080078125,-0.001800537109375
1690842047825297000,8.031296875,-0.98272705078125,-0.001312255859375,-0.0012359619140625
1690842047835337000,8.0413369140625,-0.9819793701171875,-0.0014801025390625,-0.0005950927734375
1690842047845378000,8.0513779296875,-0.981658935546875,-0.001251220703125,-0.0004730224609375
1690842047855417900,8.06141796875,-0.981781005859375,-0.000640869140625,-0.00103759765625
1690842047865457700,8.071457763671875,-0.9822540283203125,-0.00201416015625,-0.0019073486328125
1690842047875498800,8.081498779296876,-0.98187255859375,-0.0012359619140625,-0.0012054443359375
1690842047885538800,8.091538818359375,-0.9819793701171875,-0.0010986328125,-0.001434326171875
1690842047895579000,8.101578857421876,-0.982025146484375,-0.0013580322265625,-0.001220703125
1690842047905619000,8.111618896484375,-0.9819183349609375,-0.00115966796875,-0.001739501953125
1690842047915660000,8.121659912109376,-0.9824066162109375,-0.0012969970703125,-0.0020599365234375
1690842047925699600,8.131699462890625,-0.9826507568359375,-0.001190185546875,-0.0016326904296875
1690842047935739600,8.14173974609375,-0.9827117919921875,-0.0007171630859375,-0.0012664794921875
1690842047945780700,8.15178076171875,-0.9822540283203125,-0.0010223388671875,-0.001983642578125
1690842047955820800,8.16182080078125,-0.9813385009765625,-0.001220703125,-0.00189208984375
1690842047965860900,8.17186083984375,-0.975341796875,-0.001373291015625,-0.000885009765625
1690842047975932000,8.181931884765625,-0.9955291748046875,-0.0781707763671875,-0.0043487548828125
1690842047985972000,8.191971923828126,-1.0413665771484375,-0.003509521484375,0.0606689453125
1690842047995995600,8.20199560546875,-0.9342803955078125,0.02740478515625,-0.0466766357421875
1690842048006035700,8.21203564453125,-0.9681243896484375,0.01678466796875,-0.0377655029296875
1690842048016075500,8.222075439453125,-0.977874755859375,0.0447235107421875,-0.0159454345703125
1690842048026115600,8.232115478515626,-0.963775634765625,0.0360260009765625,-0.00042724609375
1690842048036156700,8.24215673828125,-0.9803924560546875,0.0226898193359375,0.00885009765625
1690842048046196700,8.25219677734375,-0.980255126953125,0.0114593505859375,0.0119476318359375
1690842048056236800,8.26223681640625,-0.987060546875,-0.0012664794921875,0.0083465576171875
1690842048066277600,8.272277587890626,-0.988739013671875,-0.009124755859375,0.0104522705078125
1690842048076317700,8.282317626953125,-0.9842071533203125,-0.0162353515625,0.0050201416015625
1690842048086357500,8.292357421875,-0.9912872314453125,-0.02215576171875,-0.0006103515625
1690842048096397600,8.3023974609375,-0.9873046875,-0.0231475830078125,-0.0066070556640625
1690842048106438700,8.312438720703126,-0.98455810546875,-0.022003173828125,-0.0102081298828125
1690842048116478700,8.322478759765625,-0.981964111328125,-0.0198211669921875,-0.01251220703125
1690842048126549800,8.3325498046875,-0.9881591796875,-0.0141448974609375,-0.01104736328125
1690842048136589800,8.34258984375,-0.9767608642578125,-0.006927490234375,-0.0090789794921875
1690842048146630000,8.3526298828125,-0.9835662841796875,0.0008392333984375,-0.0042266845703125
1690842048156670700,8.362670654296876,-0.982421875,0.0067291259765625,0.0005035400390625
1690842048166710500,8.37271044921875,-0.9782562255859375,0.012054443359375,0.005615234375
1690842048176750600,8.38275048828125,-0.9794464111328125,0.0161590576171875,0.0074310302734375
1690842048186790700,8.392790771484375,-0.9782867431640625,0.0168914794921875,0.0061798095703125
1690842048196831700,8.402831787109376,-0.9789276123046875,0.0164642333984375,0.004119873046875
1690842048206871800,8.412871826171875,-0.9789276123046875,0.013885498046875,0.0012969970703125
1690842048216912000,8.422911865234376,-0.976165771484375,0.01043701171875,-0.002777099609375
1690842048226952700,8.43295263671875,-0.98284912109375,0.0057830810546875,-0.00555419921875
1690842048236992500,8.442992431640626,-0.9800872802734375,0.0001983642578125,-0.006622314453125
1690842048247032600,8.453032470703125,-0.981231689453125,-0.004974365234375,-0.00537109375
1690842048257072600,8.46307275390625,-0.98681640625,-0.0093994140625,-0.004913330078125
1690842048267113700,8.47311376953125,-0.9849090576171875,-0.0122222900390625,-0.004913330078125
1690842048277183700,8.483183837890625,-0.9851531982421875,-0.013946533203125,-0.0024261474609375
1690842048287224800,8.493224853515626,-0.9881134033203125,-0.0136260986328125,0.0006103515625
1690842048297265000,8.503264892578125,-0.985382080078125,-0.01153564453125,0.001678466796875
1690842048307304700,8.5133046875,-0.98486328125,-0.0076446533203125,0.00079345703125
1690842048317345500,8.523345458984375,-0.9828643798828125,-0.0035247802734375,0.00018310546875
1690842048327385600,8.533385498046876,-0.9822235107421875,0.0015106201171875,-0.0006561279296875
1690842048337425700,8.54342578125,-0.9807586669921875,0.005279541015625,-0.0022430419921875
1690842048347465700,8.5534658203125,-0.978302001953125,0.009124755859375,-0.0031890869140625
1690842048357506800,8.5635068359375,-0.97930908203125,0.0098876953125,-0.003570556640625
1690842048367547000,8.573546875,-0.9792938232421875,0.0104827880859375,-0.0023040771484375
1690842048377586700,8.583586669921875,-0.9770050048828125,0.0090179443359375,-0.001251220703125
1690842048387627500,8.59362744140625,-0.980987548828125,0.0055694580078125,-0.0016326904296875
1690842048397667600,8.60366748046875,-0.9815826416015625,0.0037384033203125,0.000244140625
1690842048407707600,8.613707763671876,-0.9813079833984375,0.000244140625,-0.0009002685546875
1690842048417747700,8.623747802734375,-0.9837188720703125,-0.003387451171875,-0.000885009765625
1690842048427818800,8.63381884765625,-0.9826812744140625,-0.005279541015625,-0.0019989013671875
1690842048437859800,8.64385986328125,-0.9849395751953125,-0.0070037841796875,-0.0019378662109375
1690842048447899600,8.653899658203125,-0.984130859375,-0.0074310302734375,-0.001983642578125
1690842048457939700,8.663939697265626,-0.9832000732421875,-0.0075225830078125,-0.002044677734375
1690842048467979800,8.673979736328125,-0.9843902587890625,-0.00616455078125,-0.002838134765625
1690842048478020600,8.6840205078125,-0.982666015625,-0.0040283203125,-0.0027923583984375
1690842048488060700,8.694060791015625,-0.9828643798828125,-0.0014801025390625,-0.0022735595703125
1690842048498100700,8.704100830078126,-0.9821624755859375,0.0010223388671875,-0.0016326904296875
1690842048508141800,8.714141845703125,-0.9805908203125,0.0030059814453125,-0.00128173828125
1690842048518182000,8.724181884765626,-0.980224609375,0.0043487548828125,-0.0005950927734375
1690842048528221700,8.7342216796875,-0.98101806640625,0.0052490234375,-0.0007781982421875
1690842048538261800,8.74426171875,-0.9798431396484375,0.00518798828125,-0.000732421875
1690842048548302600,8.754302490234375,-0.9804840087890625,0.00445556640625,-0.000885009765625
1690842048558342700,8.7643427734375,-0.9803924560546875,0.004119873046875,-0.0008087158203125
1690842048568382700,8.7743828125,-0.9821929931640625,0.0020294189453125,-0.0008087158203125
1690842048578423800,8.784423828125,-0.9826202392578125,-0.000091552734375,-0.0013580322265625
1690842048588493600,8.79449365234375,-0.981414794921875,-0.0008544921875,-0.0019378662109375
1690842048598534700,8.80453466796875,-0.98345947265625,-0.002532958984375,-0.0014495849609375
1690842048608574700,8.81457470703125,-0.9836578369140625,-0.0037689208984375,-0.0025177001953125
1690842048618614800,8.82461474609375,-0.982391357421875,-0.0044097900390625,-0.0032958984375
1690842048628654600,8.834654541015626,-0.983551025390625,-0.0048828125,-0.0019989013671875
1690842048638695700,8.84469580078125,-0.9828033447265625,-0.00335693359375,-0.0014801025390625
1690842048648735700,8.85473583984375,-0.982177734375,-0.0015869140625,-0.002044677734375
1690842048658775800,8.86477587890625,-0.9812774658203125,-0.001190185546875,-0.0016632080078125
1690842048668817000,8.87481689453125,-0.980621337890625,0.000732421875,-0.0013275146484375
1690842048678856700,8.884856689453125,-0.9814300537109375,0.00225830078125,-0.00079345703125
1690842048688896800,8.894896728515626,-0.980560302734375,0.0027313232421875,-0.001434326171875
1690842048698936600,8.9049365234375,-0.980804443359375,0.0030517578125,-0.0010528564453125
1690842048708977700,8.914977783203126,-0.98150634765625,0.0044708251953125,-0.001739501953125
1690842048719017700,8.925017822265625,-0.9803314208984375,0.0028533935546875,-0.002166748046875
1690842048729057800,8.935057861328126,-0.9812469482421875,0.0018768310546875,-0.0025177001953125
1690842048739128600,8.945128662109376,-0.9809417724609375,0.000885009765625,-0.001983642578125
1690842048749168600,8.955168701171875,-0.9814300537109375,-0.0002288818359375,-0.0026397705078125
1690842048759209700,8.965209716796876,-0.98272705078125,-0.00146484375,-0.0025482177734375
1690842048769249800,8.975249755859375,-0.9825897216796875,-0.0023193359375,-0.0024871826171875
1690842048779289600,8.98528955078125,-0.98248291015625,-0.0020904541015625,-0.0007171630859375
1690842048789329700,8.99532958984375,-0.9830169677734375,-0.001953125,-0.0005340576171875
1690842048799370800,9.005370849609376,-0.982452392578125,-0.0028076171875,-0.001373291015625
1690842048809410800,9.015410888671875,-0.9817047119140625,-0.00128173828125,-0.0009918212890625
1690842048819450600,9.02545068359375,-0.98138427734375,-0.0003204345703125,-0.0016326904296875
1690842048829491700,9.03549169921875,-0.9814910888671875,0.0001983642578125,-0.0013580322265625
1690842048839531800,9.04553173828125,-0.982208251953125,0.0012664794921875,-0.0021514892578125
1690842048849571600,9.055571533203125,-0.9809722900390625,0.0012969970703125,-0.001922607421875
1690842048859611600,9.065611572265626,-0.9808502197265625,0.00128173828125,-0.001739501953125
1690842048869652700,9.07565283203125,-0.981201171875,0.002044677734375,-0.0022735595703125
1690842048879692800,9.08569287109375,-0.9804229736328125,0.0018157958984375,-0.0014190673828125
1690842048889763600,9.095763671875,-0.9813690185546875,0.0011444091796875,-0.00128173828125
1690842048899803600,9.1058037109375,-0.98175048828125,0.0007781982421875,-0.001251220703125
1690842048909843700,9.11584375,-0.9814453125,0.0001068115234375,-0.0018157958984375
1690842048919884800,9.125884765625,-0.98236083984375,-0.000640869140625,-0.0017242431640625
1690842048929924600,9.135924560546876,-0.98260498046875,-0.00152587890625,-0.0010528564453125
1690842048939964700,9.145964599609375,-0.9831390380859375,-0.0020294189453125,-0.000823974609375
1690842048950005800,9.156005859375,-0.9830322265625,-0.0014801025390625,-0.0018310546875
1690842048960045800,9.1660458984375,-0.9811248779296875,-0.0010528564453125,-0.002655029296875
1690842048970085600,9.176085693359376,-0.981719970703125,-0.0001220703125,-0.0023193359375
1690842048980125700,9.186125732421875,-0.9820404052734375,-0.0003204345703125,-0.002105712890625
1690842048990171600,9.196171630859375,-0.9815521240234375,0.000030517578125,-0.0021514892578125
1690842049000211700,9.206211669921874,-0.981170654296875,0.000946044921875,-0.001800537109375
1690842049010251800,9.216251708984375,-0.9814910888671875,0.0008087158203125,-0.0010223388671875
1690842049020292900,9.22629296875,-0.98223876953125,0.0005035400390625,-0.0003509521484375
1690842049030333000,9.2363330078125,-0.9809417724609375,0.0012359619140625,-0.0011749267578125
1690842049040372700,9.246372802734374,-0.979766845703125,0.00128173828125,-0.0011749267578125
1690842049050443800,9.25644384765625,-0.985382080078125,0.00152587890625,-0.00115966796875
1690842049060483600,9.266483642578125,-0.97857666015625,0.000457763671875,-0.0020599365234375
1690842049070523600,9.276523681640626,-0.98388671875,0.000152587890625,-0.002349853515625
1690842049080564700,9.286564697265625,-0.98046875,-0.00079345703125,-0.00201416015625
1690842049090604800,9.296604736328124,-0.9833984375,-0.000732421875,-0.00250244140625
1690842049100644600,9.30664453125,-0.9793701171875,-0.00048828125,-0.0017852783203125
1690842049110685700,9.316685791015624,-0.9816741943359375,-0.000732421875,-0.001861572265625
1690842049120725500,9.3267255859375,-0.9833526611328125,-0.0013275146484375,-0.001708984375
1690842049130765600,9.336765625,-0.9817047119140625,-0.0005950927734375,-0.00177001953125
1690842049140805600,9.3468056640625,-0.9800872802734375,-0.0005340576171875,-0.0019683837890625
1690842049150846700,9.3568466796875,-0.981048583984375,0.0004730224609375,-0.0008697509765625
1690842049160886800,9.36688671875,-0.9837493896484375,0.000335693359375,-0.001251220703125
1690842049170926800,9.3769267578125,-0.9805908203125,0.0009002685546875,-0.0015411376953125
1690842049180967700,9.3869677734375,-0.9833221435546875,0.0009307861328125,-0.0011138916015625
1690842049191007500,9.397007568359374,-0.981201171875,0.0004119873046875,-0.0012054443359375
1690842049201078500,9.40707861328125,-0.98284912109375,0.001068115234375,-0.0009765625
1690842049211118600,9.41711865234375,-0.9822540283203125,0.001251220703125,-0.002166748046875
1690842049221158700,9.42715869140625,-0.9815521240234375,0,-0.0020751953125
1690842049231199700,9.43719970703125,-0.98193359375,0.00067138671875,-0.001007080078125
1690842049241239800,9.44723974609375,-0.9816741943359375,0.00048828125,-0.001220703125
1690842049251279600,9.457279541015625,-0.980072021484375,0,-0.001678466796875
1690842049261319700,9.467319580078126,-0.9840240478515625,0.00006103515625,-0.0013427734375
1690842049271360500,9.477360595703125,-0.982330322265625,-0.000244140625,-0.0016021728515625
1690842049281400600,9.487400634765624,-0.983856201171875,0.0000152587890625,-0.0011749267578125
1690842049291440600,9.497440673828125,-0.9824981689453125,-0.000244140625,-0.001312255859375
1690842049301480700,9.507480712890626,-0.9819183349609375,0.0007171630859375,-0.001739501953125
1690842049311521800,9.517521728515625,-0.9817047119140625,0.0009765625,-0.0020294189453125
1690842049321561900,9.527561767578124,-0.98193359375,0.00042724609375,-0.00213623046875
1690842049331601700,9.5376015625,-0.9813995361328125,0.00030517578125,-0.00177001953125
1690842049341642500,9.547642578125,-0.98211669921875,-0.000152587890625,-0.001495361328125
1690842049351712800,9.557712646484376,-0.9808502197265625,0.0005645751953125,-0.0016326904296875
1690842049361753600,9.567753662109375,-0.9822235107421875,0.00054931640625,-0.000823974609375
1690842049371793700,9.577793701171874,-0.9822998046875,-0.000274658203125,-0.0008087158203125
1690842049381833700,9.587833740234375,-0.981353759765625,0.0003814697265625,-0.0009765625
1690842049391874800,9.597874755859374,-0.98236083984375,0.00054931640625,-0.0012359619140625
1690842049401914600,9.60791455078125,-0.9824676513671875,0.0001678466796875,-0.00054931640625
1690842049411954700,9.61795458984375,-0.9825592041015625,0.0002593994140625,-0.000823974609375
1690842049421994800,9.627994873046875,-0.9834136962890625,0.000030517578125,-0.0011444091796875
1690842049432035600,9.63803564453125,-0.9811553955078125,-0.00030517578125,-0.00152587890625
1690842049442075600,9.64807568359375,-0.9816741943359375,0.000030517578125,-0.001007080078125
1690842049452115700,9.65811572265625,-0.981658935546875,-0.0001678466796875,-0.0014801025390625
1690842049462156800,9.66815673828125,-0.981597900390625,0.0000762939453125,-0.002288818359375
1690842049472196600,9.678196533203124,-0.9831695556640625,-0.0002899169921875,-0.001800537109375
1690842049482236700,9.688236572265625,-0.9813995361328125,0.0005645751953125,-0.00128173828125
1690842049492276700,9.69827685546875,-0.9825592041015625,0.0002593994140625,-0.0011444091796875
1690842049502317600,9.708317626953125,-0.9834136962890625,0.000457763671875,-0.0008697509765625
1690842049512387800,9.718387939453125,-0.98284912109375,0.0003662109375,-0.0016021728515625
1690842049522428700,9.7284287109375,-0.9817657470703125,0.0003662109375,-0.0018310546875
1690842049532468700,9.73846875,-0.9819793701171875,0.00018310546875,-0.0018157958984375
1690842049542508500,9.748508544921876,-0.9817352294921875,0.0005340576171875,-0.001739501953125
1690842049552549600,9.758549560546875,-0.9819488525390625,0.000152587890625,-0.001708984375
1690842049562589700,9.768589599609374,-0.9806671142578125,-0.0003509521484375,-0.001220703125
1690842049572629800,9.778629638671875,-0.9817657470703125,-0.000335693359375,-0.0017242431640625
1690842049582669800,9.788669921875,-0.982421875,-0.000335693359375,-0.00177001953125
1690842049592710700,9.798710693359375,-0.980987548828125,0.000579833984375,-0.001983642578125
1690842049602750700,9.808750732421874,-0.9825439453125,-0.0008544921875,-0.00225830078125
1690842049612790500,9.81879052734375,-0.981597900390625,-0.0008544921875,-0.00189208984375
1690842049622831600,9.82883154296875,-0.9806976318359375,0.0003509521484375,-0.0018463134765625
1690842049632871700,9.83887158203125,-0.980865478515625,0.000640869140625,-0.0012969970703125
1690842049642911700,9.848911865234374,-0.9819488525390625,0.0003814697265625,-0.00103759765625
1690842049652951800,9.858951904296875,-0.981903076171875,0.000457763671875,-0.0006866455078125
1690842049663022800,9.86902294921875,-0.981964111328125,0.0003814697265625,-0.001708984375
1690842049673063700,9.879063720703124,-0.9821929931640625,0.0000762939453125,-0.0016326904296875
1690842049683103700,9.889103759765625,-0.9817962646484375,0.0001373291015625,-0.001220703125
1690842049693143600,9.8991435546875,-0.9817962646484375,-0.0000152587890625,-0.00140380859375
1690842049703183600,9.90918359375,-0.9822998046875,0.000396728515625,-0.0016021728515625
1690842049713224700,9.919224609375,-0.9822235107421875,-0.0004730224609375,-0.0013580322265625
1690842049723264800,9.9292646484375,-0.9824371337890625,-0.0002593994140625,-0.0006256103515625
1690842049733304800,9.939304931640624,-0.98236083984375,0.000579833984375,-0.0016326904296875
1690842049743345000,9.949344970703125,-0.98345947265625,0.0010986328125,-0.0017547607421875
1690842049753385700,9.9593857421875,-0.98175048828125,0.00067138671875,-0.001861572265625
1690842049763425500,9.969425537109375,-0.98114013671875,0.000579833984375,-0.001617431640625
1690842049773465600,9.979465576171876,-0.9801025390625,0.000274658203125,-0.0021209716796875
1690842049783506700,9.989506591796875,-0.9828338623046875,0.000732421875,-0.002532958984375
1690842049793546800,9.999546630859374,-0.9814605712890625,0.00054931640625,-0.0027313232421875
1690842049803586800,10.0095869140625,-0.981201171875,0.000244140625,-0.0014190673828125
1690842049813657900,10.019657958984375,-0.982421875,0.000518798828125,-0.0015869140625
1690842049823698000,10.029697998046874,-0.9811859130859375,0.000030517578125,-0.001220703125
1690842049833738800,10.03973876953125,-0.980865478515625,0.001251220703125,-0.0008087158203125
1690842049843778600,10.049778564453124,-0.9826507568359375,0.0006561279296875,-0.0001373291015625
1690842049853818600,10.059818603515625,-0.981597900390625,0.00054931640625,-0.000518798828125
1690842049863858700,10.069858642578126,-0.981475830078125,0.0005950927734375,-0.001434326171875
1690842049873899800,10.079899658203125,-0.9809417724609375,0.000457763671875,-0.0018157958984375
1690842049883939800,10.08993994140625,-0.9820709228515625,0.0002899169921875,-0.0022125244140625
1690842049893980000,10.09997998046875,-0.982818603515625,0.0006256103515625,-0.002349853515625
1690842049904020700,10.110020751953124,-0.9822845458984375,0.000762939453125,-0.00274658203125
1690842049914060500,10.120060546875,-0.9817962646484375,0.000274658203125,-0.0036163330078125
1690842049924100600,10.1301005859375,-0.9813232421875,-0.000518798828125,-0.002410888671875
1690842049934140700,10.140140625,-0.98150634765625,-0.0003662109375,-0.00164794921875
1690842049944181800,10.150181640625,-0.9814300537109375,-0.000518798828125,-0.0006256103515625
1690842049954221800,10.160221923828125,-0.981842041015625,-0.0000457763671875,-0.0001678466796875
1690842049964292900,10.17029296875,-0.9826812744140625,0.000213623046875,-0.000030517578125
1690842049974333000,10.1803330078125,-0.982757568359375,0.000030517578125,-0.0001678466796875
1690842049984372700,10.190372802734375,-0.9824981689453125,0.0003204345703125,-0.0009307861328125
1690842049994410000,10.200409912109375,-0.981719970703125,0.000274658203125,-0.002044677734375
1690842050004449800,10.21044970703125,-0.9809112548828125,0.0008087158203125,-0.0031585693359375
1690842050014489900,10.22048974609375,-0.98101806640625,0.0010223388671875,-0.0020599365234375
1690842050024530000,10.230530029296874,-0.9812774658203125,0.00006103515625,-0.0020599365234375
1690842050034571000,10.240571044921875,-0.980682373046875,-0.0000762939453125,-0.0023345947265625
1690842050044611000,10.250611083984374,-0.9813079833984375,0.00067138671875,-0.0016021728515625
1690842050054651100,10.260651123046875,-0.9827728271484375,0.0010986328125,-0.0012054443359375
1690842050064692000,10.27069189453125,-0.982391357421875,-0.0000457763671875,-0.0003509521484375
1690842050074732000,10.28073193359375,-0.9821014404296875,0.000701904296875,-0.000213623046875
1690842050084771800,10.290771728515624,-0.982452392578125,-0.0002288818359375,-0.0001983642578125
1690842050094812000,10.30081201171875,-0.9818115234375,-0.0001983642578125,0.0001373291015625
1690842050104853000,10.31085302734375,-0.9824371337890625,0.0004119873046875,-0.000213623046875
1690842050114893000,10.32089306640625,-0.9818267822265625,0.0009613037109375,-0.0016326904296875
1690842050124964000,10.330964111328125,-0.9817047119140625,0.0005340576171875,-0.0019989013671875
1690842050135004200,10.341004150390624,-0.9814605712890625,0.00048828125,-0.0032501220703125
1690842050145044000,10.3510439453125,-0.9818267822265625,0.0001373291015625,-0.0030975341796875
1690842050155084800,10.361084716796874,-0.9812164306640625,0.000701904296875,-0.00225830078125
1690842050165124900,10.371124755859375,-0.98162841796875,0.0007171630859375,-0.0017242431640625
1690842050175165000,10.3811650390625,-0.9822235107421875,0.0001678466796875,-0.0007476806640625
1690842050185206000,10.3912060546875,-0.9821624755859375,-0.0001983642578125,0.000213623046875
1690842050195246000,10.40124609375,-0.982208251953125,0.00042724609375,-0.000335693359375
1690842050205286100,10.4112861328125,-0.9818267822265625,0.0007476806640625,-0.00030517578125
1690842050215326000,10.421325927734374,-0.9814910888671875,0.0000762939453125,-0.0005950927734375
1690842050225366800,10.43136669921875,-0.982147216796875,0.000457763671875,-0.0016632080078125
1690842050235406800,10.44140673828125,-0.981719970703125,0.0002288818359375,-0.002685546875
1690842050245447000,10.451447021484375,-0.980804443359375,-0.0000762939453125,-0.00262451171875
1690842050255487000,10.461487060546874,-0.9816741943359375,-0.0001220703125,-0.00262451171875
1690842050265528000,10.471528076171875,-0.9815673828125,0.0006103515625,-0.0018463134765625
1690842050275599000,10.48159912109375,-0.981903076171875,0.0004119873046875,-0.0020294189453125
1690842050285639200,10.49163916015625,-0.9818115234375,0.0007171630859375,-0.0011444091796875
1690842050295679000,10.501678955078125,-0.982025146484375,-0.0002899169921875,-0.000640869140625
1690842050305718800,10.51171875,-0.9810333251953125,-0.000457763671875,-0.000579833984375
1690842050315759900,10.521759765625,-0.98175048828125,-0.0001983642578125,0.000152587890625
1690842050325800000,10.531800048828124,-0.981903076171875,-0.0006561279296875,-0.0009918212890625
1690842050335840000,10.541840087890625,-0.9810943603515625,-0.000030517578125,-0.001495361328125
1690842050345881000,10.551881103515624,-0.9814910888671875,0.0000762939453125,-0.002044677734375
1690842050355921200,10.561921142578125,-0.9817352294921875,-0.0000152587890625,-0.0020294189453125
1690842050365961000,10.5719609375,-0.9817657470703125,0.0005950927734375,-0.0028533935546875
1690842050376000800,10.582000732421875,-0.9816741943359375,0.0002593994140625,-0.0027313232421875
1690842050386041900,10.592041748046874,-0.9816131591796875,0.0000457763671875,-0.0019989013671875
1690842050396082000,10.60208203125,-0.9807281494140625,0.00030517578125,-0.0013580322265625
1690842050406122000,10.6121220703125,-0.9816436767578125,0.000335693359375,-0.0012054443359375
1690842050416163000,10.6221630859375,-0.9824371337890625,-0.0001373291015625,-0.00091552734375
1690842050426233000,10.632233154296875,-0.982635498046875,0.0002288818359375,-0.001068115234375
1690842050436274200,10.642274169921874,-0.9825439453125,-0.000091552734375,-0.0006561279296875
1690842050446314000,10.65231396484375,-0.982330322265625,-0.000732421875,-0.0016326904296875
1690842050456353800,10.662353759765624,-0.9810791015625,0.0003509521484375,-0.002288818359375
1690842050466393900,10.672393798828125,-0.98223876953125,0.0004425048828125,-0.00189208984375
1690842050476435000,10.68243505859375,-0.981903076171875,0.0006561279296875,-0.0016937255859375
1690842050486475000,10.69247509765625,-0.9811553955078125,0.0006103515625,-0.0030059814453125
1690842050496515000,10.70251513671875,-0.9817962646484375,0.0005645751953125,-0.0023345947265625
1690842050506556200,10.71255615234375,-0.9827423095703125,0.000152587890625,-0.0018310546875
1690842050516596000,10.722595947265624,-0.982330322265625,0.0006561279296875,-0.0016021728515625
1690842050526635800,10.7326357421875,-0.9823150634765625,0.000396728515625,-0.0015716552734375
1690842050536675800,10.74267578125,-0.981719970703125,0.00030517578125,-0.0005340576171875
1690842050546717000,10.752717041015625,-0.981781005859375,0.0003814697265625,-0.0016937255859375
1690842050556757000,10.762757080078124,-0.982025146484375,0.000091552734375,-0.0014801025390625
1690842050566797000,10.772797119140625,-0.9818572998046875,0.000091552734375,-0.0008544921875
1690842050576838100,10.782838134765624,-0.9821319580078125,0.000274658203125,-0.0015411376953125
1690842050586908000,10.792907958984374,-0.9820709228515625,0.001007080078125,-0.0019073486328125
1690842050596948700,10.80294873046875,-0.982147216796875,0.0007781982421875,-0.001617431640625
1690842050606988800,10.81298876953125,-0.9824676513671875,0.00067138671875,-0.001922607421875
1690842050617028900,10.82302880859375,-0.9818115234375,0.000823974609375,-0.00189208984375
1690842050627070000,10.833070068359374,-0.9820556640625,0.000091552734375,-0.0012664794921875
1690842050637110000,10.843110107421875,-0.981353759765625,0.0010833740234375,-0.00164794921875
1690842050647150000,10.853150146484374,-0.9810028076171875,0.0010223388671875,-0.0009307861328125
1690842050657190000,10.86318994140625,-0.9818115234375,0.00042724609375,-0.00042724609375
1690842050667230700,10.873230712890624,-0.9815673828125,0.00103759765625,-0.000457763671875
1690842050677270800,10.883270751953125,-0.98199462890625,0.00067138671875,-0.0011444091796875
1690842050687310800,10.893310791015624,-0.9824371337890625,0.000579833984375,-0.0016021728515625
1690842050697352000,10.90335205078125,-0.9825286865234375,0.000701904296875,-0.0011749267578125
1690842050707392000,10.91339208984375,-0.9823455810546875,-0.000274658203125,-0.0012054443359375
1690842050717432000,10.92343212890625,-0.9812774658203125,-0.000030517578125,-0.001312255859375
1690842050727471900,10.933471923828124,-0.983001708984375,0.0000457763671875,-0.001495361328125
1690842050737543000,10.94354296875,-0.982940673828125,0.001068115234375,-0.002471923828125
1690842050747583000,10.9535830078125,-0.98187255859375,0.000457763671875,-0.0015411376953125
1690842050757623800,10.963623779296874,-0.9821319580078125,-0.0003204345703125,-0.0010223388671875
1690842050767663900,10.973663818359375,-0.982879638671875,0.0002899169921875,-0.001129150390625
1690842050777704000,10.983703857421874,-0.98211669921875,0.00006103515625,-0.00115966796875
1690842050787745000,10.9937451171875,-0.9812774658203125,0.000396728515625,-0.0012359619140625
1690842050797785000,11.00378515625,-0.980712890625,0.00018310546875,-0.000885009765625
1690842050807825000,11.013824951171875,-0.9807281494140625,-0.000213623046875,-0.00238037109375
1690842050817865000,11.023864990234374,-0.9807891845703125,-0.0001373291015625,-0.0023956298828125
1690842050827905800,11.03390576171875,-0.9817352294921875,0.0002899169921875,-0.0018157958984375
1690842050837945900,11.04394580078125,-0.9825286865234375,0.000335693359375,-0.002685546875
1690842050847986000,11.05398583984375,-0.981964111328125,0.00006103515625,-0.0018463134765625
1690842050858027000,11.064027099609374,-0.98175048828125,0.0005035400390625,-0.001708984375
1690842050868067000,11.074067138671875,-0.98126220703125,0.000762939453125,-0.00177001953125
1690842050878107000,11.08410693359375,-0.981536865234375,0.0004119873046875,-0.00164794921875
1690842050888178000,11.094177978515624,-0.982208251953125,0.0000762939453125,-0.0018768310546875
1690842050898218000,11.104218017578125,-0.9807586669921875,-0.0001678466796875,-0.00177001953125
1690842050908258000,11.114258056640624,-0.981719970703125,0.000335693359375,-0.0018768310546875
1690842050918299000,11.124298828125,-0.9824676513671875,0.0002899169921875,-0.001922607421875
1690842050928339000,11.1343388671875,-0.982208251953125,0.0004119873046875,-0.0015869140625
1690842050938379000,11.14437890625,-0.9810028076171875,0.000335693359375,-0.00164794921875
1690842050948420000,11.154420166015624,-0.9813232421875,0.00006103515625,-0.0018310546875
1690842050958460000,11.1644599609375,-0.982177734375,0.0002899169921875,-0.00189208984375
1690842050968500000,11.1745,-0.9813690185546875,0.0006103515625,-0.00140380859375
1690842050978540000,11.1845400390625,-0.9822998046875,0,-0.0017242431640625
1690842050988580900,11.194580810546874,-0.9819793701171875,0.0001068115234375,-0.001373291015625
1690842050998592800,11.2045927734375,-0.981414794921875,0.001129150390625,-0.0017852783203125
1690842051008632800,11.2146328125,-0.9805450439453125,0.0007476806640625,-0.0012054443359375
1690842051018674000,11.224673828125,-0.9821929931640625,0.00030517578125,-0.0004425048828125
1690842051028714000,11.2347138671875,-0.98211669921875,-0.0004119873046875,-0.0009765625
1690842051038785000,11.244784912109376,-0.98199462890625,-0.0003509521484375,-0.0012054443359375
1690842051048825000,11.2548251953125,-0.98175048828125,0.0001983642578125,-0.0017242431640625
1690842051058865000,11.264864990234376,-0.981201171875,-0.000030517578125,-0.00164794921875
1690842051068905700,11.27490576171875,-0.9814910888671875,0.000396728515625,-0.0026397705078125
1690842051078945800,11.28494580078125,-0.9824066162109375,0.0012969970703125,-0.0025634765625
1690842051088985900,11.29498583984375,-0.9813995361328125,0.000152587890625,-0.002166748046875
1690842051099026000,11.30502587890625,-0.9823760986328125,0.000701904296875,-0.00274658203125
1690842051109067000,11.31506689453125,-0.9824066162109375,0.0005950927734375,-0.0023193359375
1690842051119107000,11.325107177734376,-0.981109619140625,-0.000152587890625,-0.0021820068359375
1690842051129147100,11.335147216796875,-0.9824981689453125,0.000244140625,-0.0023193359375
1690842051139188000,11.34518798828125,-0.9824676513671875,-0.0004730224609375,-0.0016632080078125
1690842051149227800,11.355227783203125,-0.98162841796875,0.0002288818359375,-0.00274658203125
1690842051159267800,11.365267822265626,-0.9824981689453125,0.0011444091796875,-0.002288818359375
1690842051169308000,11.375307861328125,-0.9834136962890625,0.000640869140625,-0.0016937255859375
1690842051179349000,11.385348876953126,-0.9819488525390625,0.0005340576171875,-0.001800537109375
1690842051189389000,11.39538916015625,-0.9811248779296875,-0.0001678466796875,-0.002044677734375
1690842051199460000,11.405460205078125,-0.981414794921875,0.0004425048828125,-0.00189208984375
1690842051209500000,11.4155,-0.981903076171875,0.000579833984375,-0.001983642578125
1690842051219540000,11.4255400390625,-0.981658935546875,0.0009613037109375,-0.00201416015625
1690842051229580800,11.435580810546876,-0.9813079833984375,0.0001068115234375,-0.0019073486328125
1690842051239620900,11.445620849609375,-0.98089599609375,0.00048828125,-0.001251220703125
1690842051249661000,11.455660888671876,-0.9819488525390625,-0.0005340576171875,-0.0017852783203125
1690842051259701000,11.465700927734375,-0.9819488525390625,-0.0004119873046875,-0.001129150390625
1690842051269742000,11.4757421875,-0.9824066162109375,0.00018310546875,-0.0016937255859375
1690842051279782100,11.4857822265625,-0.9815826416015625,0.00042724609375,-0.0016632080078125
1690842051289822000,11.495822021484376,-0.9812469482421875,0.0007171630859375,-0.001434326171875
1690842051299862800,11.50586279296875,-0.9816741943359375,0.0006561279296875,-0.00177001953125
1690842051309902800,11.51590283203125,-0.9819488525390625,-0.0001373291015625,-0.0012664794921875
1690842051319943000,11.52594287109375,-0.982025146484375,0.0000762939453125,-0.0008087158203125
1690842051329983000,11.53598291015625,-0.9812774658203125,0.0003814697265625,-0.0021514892578125
1690842051340024000,11.546024169921875,-0.981842041015625,0.0006256103515625,-0.001129150390625
1690842051350095000,11.55609521484375,-0.9823455810546875,0.000335693359375,-0.0005340576171875
1690842051360135000,11.566135009765626,-0.9825592041015625,0.0003204345703125,-0.0012054443359375
1690842051370175000,11.576175048828125,-0.9815216064453125,0.0001678466796875,-0.000762939453125
1690842051380215000,11.586215087890626,-0.982025146484375,-0.0002288818359375,-0.0009918212890625
1690842051390255900,11.596255859375,-0.98175048828125,0.0003509521484375,-0.001708984375
1690842051400296000,11.6062958984375,-0.9812774658203125,0.00048828125,-0.00177001953125
1690842051410336000,11.6163359375,-0.981231689453125,0.0006866455078125,-0.0024871826171875
1690842051420376000,11.6263759765625,-0.9821929931640625,0.0004425048828125,-0.002044677734375
1690842051430417200,11.636417236328125,-0.9817962646484375,0.000274658203125,-0.0023345947265625
1690842051440457000,11.64645703125,-0.9812469482421875,0.00140380859375,-0.0018157958984375
1690842051450497000,11.6564970703125,-0.9819793701171875,0.000213623046875,-0.001861572265625
1690842051460537900,11.666537841796876,-0.9815673828125,0.0000152587890625,-0.00146484375
1690842051470578000,11.676577880859375,-0.98175048828125,-0.000030517578125,-0.0015411376953125
1690842051480618000,11.686617919921876,-0.981719970703125,-0.0001068115234375,-0.001220703125
1690842051490658000,11.696657958984375,-0.9818878173828125,0.000091552734375,-0.0019683837890625
1690842051500728800,11.706728759765625,-0.982421875,0.0005340576171875,-0.0019989013671875
1690842051510770000,11.71677001953125,-0.9820709228515625,0.0005035400390625,-0.000701904296875
1690842051520810000,11.72681005859375,-0.981475830078125,0.00048828125,-0.0008697509765625
1690842051530850000,11.73685009765625,-0.9824676513671875,0,-0.00201416015625
1690842051540889900,11.746889892578125,-0.9821319580078125,0.000244140625,-0.001922607421875
1690842051550931000,11.756930908203126,-0.9813995361328125,-0.000213623046875,-0.0019073486328125
1690842051560971000,11.766970947265625,-0.9815521240234375,0.0003509521484375,-0.0015869140625
1690842051571010800,11.7770107421875,-0.9811859130859375,0.0007476806640625,-0.00128173828125
1690842051581052200,11.78705224609375,-0.98175048828125,0.0005645751953125,-0.00189208984375
1690842051591092000,11.797092041015626,-0.98193359375,0.0006866455078125,-0.0019989013671875
1690842051601132000,11.807132080078125,-0.9816131591796875,0.0005035400390625,-0.0016021728515625
1690842051611171800,11.817171875,-0.9821014404296875,0.0002899169921875,-0.002105712890625
1690842051621213000,11.827212890625,-0.98150634765625,-0.0002288818359375,-0.001800537109375
1690842051631253000,11.8372529296875,-0.9813079833984375,0.0005340576171875,-0.001678466796875
1690842051641293000,11.84729296875,-0.981689453125,0.0004425048828125,-0.0016937255859375
1690842051651334100,11.857334228515626,-0.9817047119140625,0.00054931640625,-0.0022125244140625
1690842051661404000,11.86740380859375,-0.9820556640625,0.00079345703125,-0.0032196044921875
1690842051671445000,11.877445068359375,-0.9810333251953125,0.00054931640625,-0.0020599365234375
1690842051681485000,11.887485107421876,-0.98211669921875,0.00018310546875,-0.0016021728515625
1690842051691524900,11.89752490234375,-0.9821014404296875,0.000396728515625,-0.001861572265625
1690842051701565000,11.90756494140625,-0.9815826416015625,0.0001068115234375,-0.0012969970703125
1690842051711606000,11.91760595703125,-0.9817352294921875,0.0008697509765625,-0.001800537109375
1690842051721645800,11.927645751953126,-0.981475830078125,0.0008392333984375,-0.0019073486328125
1690842051731686000,11.937685791015625,-0.9821014404296875,0.0004730224609375,-0.0012664794921875
1690842051741727000,11.94772705078125,-0.9828948974609375,0.000396728515625,-0.0014190673828125
1690842051751767000,11.95776708984375,-0.98193359375,0.0003509521484375,-0.0019989013671875
1690842051761806800,11.967806884765626,-0.981597900390625,0.0004119873046875,-0.001495361328125
1690842051771847000,11.977846923828125,-0.982086181640625,0.000640869140625,-0.0014190673828125
1690842051781888000,11.987887939453126,-0.982025146484375,0.0005645751953125,-0.0018157958984375
1690842051791928000,11.997927978515625,-0.98162841796875,0.0004425048828125,-0.0014190673828125
1690842051801967900,12.0079677734375,-0.982147216796875,0.0002288818359375,-0.001983642578125
1690842051812039000,12.018038818359376,-0.982177734375,-0.0000152587890625,-0.0016326904296875
1690842051822079000,12.028078857421875,-0.9822235107421875,-0.0000152587890625,-0.0018157958984375
1690842051832120000,12.0381201171875,-0.9813079833984375,0.000640869140625,-0.001617431640625
1690842051842159900,12.048159912109375,-0.982269287109375,0.0001220703125,-0.001220703125
1690842051852200000,12.058199951171876,-0.9823455810546875,0.000579833984375,-0.0013275146484375
1690842051862241000,12.068240966796875,-0.9809722900390625,0.000518798828125,-0.00244140625
1690842051872280800,12.07828076171875,-0.9814453125,0.000885009765625,-0.0017547607421875
1690842051882321000,12.08832080078125,-0.9815826416015625,0.000335693359375,-0.0024566650390625
1690842051892361000,12.09836083984375,-0.9620819091796875,-0.00140380859375,0.0062713623046875
1690842051902402000,12.108402099609375,-1.0298004150390625,-0.05255126953125,-0.0266265869140625
1690842051912441900,12.11844189453125,-0.990325927734375,-0.0264892578125,0.0550079345703125
1690842051922482000,12.12848193359375,-0.9554901123046875,0.054473876953125,-0.0347137451171875
1690842051932522000,12.13852197265625,-0.9774322509765625,0.0064849853515625,-0.0183868408203125
1690842051942563000,12.14856298828125,-0.9674072265625,0.037017822265625,-0.0008087158203125
1690842051952603000,12.158602783203126,-0.9924468994140625,0.01104736328125,0.0003204345703125
1690842051962674000,12.168673828125,-0.963348388671875,0.0376739501953125,0.02520751953125
1690842051972714000,12.1787138671875,-0.9838714599609375,0.017730712890625,0.0144195556640625
1690842051982754000,12.188754150390626,-0.98480224609375,0.0005340576171875,-0.004638671875
1690842051992795000,12.198794921875,-0.97772216796875,0.00018310546875,-0.013763427734375
1690842052002849300,12.208849365234375,-0.9812469482421875,0.0008697509765625,-0.0079345703125
1690842052012889300,12.218889404296876,-0.9825897216796875,-0.0046539306640625,-0.0072021484375
1690842052022930400,12.228930419921875,-0.984100341796875,-0.01318359375,-0.0143890380859375
1690842052032970500,12.238970458984374,-0.9828948974609375,-0.0192413330078125,-0.01690673828125
1690842052043010600,12.249010498046875,-0.9861907958984375,-0.017730712890625,-0.008148193359375
1690842052053050600,12.259050537109376,-0.9891510009765625,-0.0163421630859375,-0.0005035400390625
1690842052063091500,12.269091552734375,-0.9843597412109375,-0.015167236328125,0.0005950927734375
1690842052073131500,12.279131591796874,-0.990234375,-0.011138916015625,0.00341796875
1690842052083171300,12.28917138671875,-0.9838714599609375,-0.003753662109375,0.0081939697265625
1690842052093212400,12.29921240234375,-0.986083984375,0.0022125244140625,0.00897216796875
1690842052103252500,12.30925244140625,-0.9810333251953125,0.0059967041015625,0.00439453125
1690842052113323500,12.319323486328125,-0.9799652099609375,0.0109100341796875,0.0002593994140625
1690842052123363600,12.329363525390624,-0.97918701171875,0.0150146484375,-0.00213623046875
1690842052133403600,12.339403564453125,-0.9754180908203125,0.0164642333984375,-0.00494384765625
1690842052143443500,12.349443359375,-0.9762115478515625,0.0167388916015625,-0.007476806640625
1690842052153484300,12.359484375,-0.9775238037109375,0.0158538818359375,-0.0076141357421875
1690842052163524400,12.3695244140625,-0.9756011962890625,0.01275634765625,-0.007080078125
1690842052173564400,12.379564453125,-0.9801788330078125,0.00927734375,-0.0059967041015625
1690842052183605500,12.38960546875,-0.982879638671875,0.0050048828125,-0.003814697265625
1690842052193645600,12.3996455078125,-0.9831390380859375,0.0004425048828125,-0.000274658203125
1690842052203685600,12.409685546875,-0.9843292236328125,-0.00372314453125,0.0024261474609375
1690842052213725400,12.419725341796875,-0.98626708984375,-0.00750732421875,0.003387451171875
1690842052223766500,12.4297666015625,-0.986724853515625,-0.01007080078125,0.0023040771484375
1690842052233806300,12.439806396484375,-0.9862823486328125,-0.0111236572265625,0.0015716552734375
1690842052243846400,12.449846435546876,-0.9842987060546875,-0.0096588134765625,-0.0004119873046875
1690842052253887500,12.459887451171875,-0.98626708984375,-0.0081329345703125,-0.0016632080078125
1690842052263927600,12.469927490234374,-0.982513427734375,-0.0050201416015625,-0.0032958984375
1690842052273998600,12.47999853515625,-0.982086181640625,-0.0016021728515625,-0.004913330078125
1690842052284038700,12.49003857421875,-0.9827728271484375,0.001312255859375,-0.006591796875
1690842052294078500,12.500078369140626,-0.98028564453125,0.0041046142578125,-0.0066375732421875
1690842052304119300,12.510119384765625,-0.9788665771484375,0.00701904296875,-0.00396728515625
1690842052314159400,12.520159423828124,-0.9809722900390625,0.00933837890625,-0.002655029296875
1690842052324199400,12.530199462890625,-0.978729248046875,0.0104522705078125,-0.0018310546875
1690842052334239500,12.540239501953126,-0.9795074462890625,0.00982666015625,0.0008544921875
1690842052344280600,12.550280517578125,-0.9789276123046875,0.0084991455078125,0.0020294189453125
1690842052354320600,12.560320556640624,-0.980316162109375,0.0076141357421875,0.001556396484375
1690842052364360400,12.5703603515625,-0.9819183349609375,0.0052490234375,0.001556396484375
1690842052374400300,12.580400146484376,-0.981719970703125,0.0024566650390625,0.0001220703125
1690842052384441300,12.59044140625,-0.98284912109375,-0.0000762939453125,-0.0011138916015625
1690842052394481400,12.6004814453125,-0.9826507568359375,-0.00140380859375,-0.002899169921875
1690842052404521500,12.610521484375,-0.9820556640625,-0.00238037109375,-0.0041351318359375
1690842052414562600,12.6205625,-0.9830474853515625,-0.0032806396484375,-0.0045623779296875
1690842052424632600,12.630632568359376,-0.9830474853515625,-0.0038299560546875,-0.0045623779296875
1690842052434673700,12.640673583984375,-0.98193359375,-0.003570556640625,-0.0049285888671875
1690842052444713500,12.65071337890625,-0.9832305908203125,-0.0024261474609375,-0.00433349609375
1690842052454753300,12.660753173828125,-0.9822845458984375,-0.0018768310546875,-0.0023956298828125
1690842052464794400,12.67079443359375,-0.983001708984375,-0.0001678466796875,-0.0013275146484375
1690842052474834400,12.68083447265625,-0.9821624755859375,0.001312255859375,-0.001068115234375
1690842052484874500,12.69087451171875,-0.9812164306640625,0.0032501220703125,0.0007781982421875
1690842052494914600,12.70091455078125,-0.98138427734375,0.0049285888671875,0.0003509521484375
1690842052504955600,12.71095556640625,-0.980865478515625,0.0063323974609375,0.0000762939453125
1690842052514995500,12.720995361328125,-0.9805908203125,0.0060882568359375,-0.0009613037109375
1690842052525035300,12.73103515625,-0.9805755615234375,0.0062255859375,-0.000885009765625
1690842052535076400,12.741076416015625,-0.980194091796875,0.0063629150390625,-0.0023651123046875
1690842052545116400,12.751116455078124,-0.9812469482421875,0.0044708251953125,-0.003326416015625
1690842052555156500,12.761156494140625,-0.9810333251953125,0.0022125244140625,-0.003448486328125
1690842052565196500,12.771196533203126,-0.981658935546875,0.0021820068359375,-0.0030975341796875
1690842052575267600,12.781267578125,-0.9824676513671875,0.0009765625,-0.002349853515625
1690842052585307400,12.791307373046875,-0.9826202392578125,-0.0006561279296875,-0.0028228759765625
1690842052595348500,12.801348388671874,-0.98248291015625,-0.0013580322265625,-0.001220703125
1690842052605388300,12.81138818359375,-0.98358154296875,-0.001678466796875,-0.0004730224609375
1690842052615428400,12.821428466796876,-0.983795166015625,-0.00164794921875,-0.000762939453125
1690842052625469400,12.831469482421875,-0.9831390380859375,-0.00115966796875,-0.0010223388671875
1690842052635509500,12.841509521484374,-0.9835662841796875,-0.0003509521484375,-0.001556396484375
1690842052645549600,12.851549560546875,-0.982208251953125,0.0003204345703125,-0.001922607421875
