time,seconds_elapsed,z,y,x
1690842039914045000,0.120044921875,-0.004629106726497412,0.009093363769352436,-0.06942275166511536
1690842039924085800,0.130085693359375,-0.007455519400537014,0.00845313910394907,-0.03640327975153923
1690842039934125800,0.140125732421875,-0.007404120173305273,0.006761233322322369,-0.004686897154897451
1690842039944166000,0.150165771484375,-0.007345530670136213,-0.0034197650384157896,0.02527073584496975
1690842039954206000,0.1602060546875,-0.005530586466193199,-0.009839847683906555,0.043533895164728165
1690842039964247000,0.1702470703125,-0.005531918257474899,-0.015337144955992699,0.05345257371664047
1690842039974287000,0.180287109375,-0.004500475712120533,-0.018371284008026123,0.05136784911155701
1690842039984313000,0.19031298828125,-0.004007791168987751,-0.016587233170866966,0.0422196239233017
1690842039994354000,0.20035400390625,-0.0029739518649876118,-0.01206811424344778,0.02448856458067894
1690842040004394000,0.21039404296875,-0.005560946650803089,-0.0029614351224154234,0.006737531162798405
1690842040014464800,0.22046484375,-0.0038509308360517025,0.00044075315236113966,-0.01715608313679695
1690842040024504800,0.2305048828125,-0.0046786414459347725,0.005289304070174694,-0.037690918892621994
1690842040034545000,0.240544921875,-0.004284493625164032,0.006061621010303497,-0.05789605528116226
1690842040044585000,0.2505849609375,-0.0030956584960222244,0.001731587341055274,-0.07017242908477783
1690842040054626000,0.2606259765625,-0.005489041097462177,0.0024746092967689037,-0.07680237293243408
1690842040064666000,0.270666015625,-0.004174238536506891,-0.000041545314161339775,-0.07593417912721634
1690842040074706000,0.280705810546875,-0.004979312419891357,0.0001371527905575931,-0.06918653100728989
1690842040084746800,0.290746826171875,-0.0037446708884090185,-0.0010743191232904792,-0.055333562195301056
1690842040094786800,0.300786865234375,-0.005518868565559387,-0.0017835189355537295,-0.03764990717172623
1690842040104827000,0.310826904296875,-0.005466138012707233,0.003174487967044115,-0.01683810167014599
1690842040114867000,0.320866943359375,-0.0057401773519814014,-0.00040266994619742036,-0.0018303906545042992
1690842040124908000,0.330907958984375,-0.005894640926271677,-0.0031411985401064157,0.012870258651673794
1690842040134948000,0.340947998046875,-0.005572131834924221,-0.006989200133830309,0.01799551211297512
1690842040144988200,0.35098828125,-0.0054581486620008945,-0.007246194873005152,0.02076892741024494
1690842040155029000,0.361029052734375,-0.005035771057009697,-0.008896822109818459,0.01618828997015953
1690842040165068800,0.37106884765625,-0.006902647204697132,-0.01125025749206543,0.005780124571174383
1690842040175139800,0.381139892578125,-0.006338057108223438,-0.009155148640275002,-0.004506867378950119
1690842040185180000,0.391179931640625,-0.005465871654450893,-0.004378236830234528,-0.01865624263882637
1690842040195220000,0.401219970703125,-0.0064373929053545,-0.0007131945458240807,-0.030608775094151497
1690842040205261000,0.411260986328125,-0.005206213798373938,0.0002383529208600521,-0.04163719341158867
1690842040215301000,0.421301025390625,-0.004766792058944702,0.005312473513185978,-0.046244725584983826
1690842040225341000,0.4313408203125,-0.0036940707359462976,0.004222708288580179,-0.052490103989839554
1690842040235381000,0.441381103515625,-0.004326038993895054,0.004746285732835531,-0.04971828684210777
1690842040245421800,0.451421875,-0.005511145573109388,-0.0006109291571192443,-0.04469237104058266
1690842040255462000,0.4614619140625,-0.004965197294950485,-0.0007145261042751372,-0.03876257687807083
1690842040265502000,0.471501953125,-0.006332730874419212,-0.0035459990613162518,-0.029220202937722206
1690842040275543000,0.48154296875,-0.00472418125718832,-0.004825381562113762,-0.01774783805012703
1690842040285583000,0.4915830078125,-0.005395031534135342,-0.004988899454474449,-0.008609467186033726
1690842040295623200,0.501623046875,-0.005584116093814373,-0.005387841258198023,-0.0033840788528323174
1690842040305663000,0.5116630859375,-0.005709284916520119,-0.0029976540245115757,0.0031902005430310965
1690842040315703800,0.521703857421875,-0.005114334635436535,-0.004403803031891584,0.0016876452136784792
1690842040325774000,0.531774169921875,-0.00580915343016386,-0.0017355820164084435,0.00045327001134864986
1690842040335815000,0.54181494140625,-0.005107942968606949,-0.0029819414485245943,-0.006640325766056776
1690842040345855000,0.55185498046875,-0.004185423720628023,-0.0029984530992805958,-0.012941631488502026
1690842040355895000,0.56189501953125,-0.00549170421436429,-0.002846386516466737,-0.02087332308292389
1690842040365936000,0.57193603515625,-0.005626726895570755,-0.0038892803713679314,-0.03009158931672573
1690842040375976000,0.581975830078125,-0.003965446725487709,-0.002856240142136812,-0.036199018359184265
1690842040386016000,0.59201611328125,-0.0041398839093744755,-0.0016306535108014941,-0.038547392934560776
1690842040396056000,0.60205615234375,-0.004299407359212637,0.0012181298807263374,-0.039194539189338684
1690842040406097000,0.612096923828125,-0.005014466121792793,0.0007187871960923076,-0.03663311153650284
1690842040416137000,0.622136962890625,-0.005037102848291397,0.0005376922199502587,-0.03208896145224571
1690842040426177000,0.632177001953125,-0.006186789367347956,-0.0018764632986858487,-0.027896612882614136
1690842040436218000,0.642218017578125,-0.003991545643657446,-0.0013936321483924985,-0.02064322680234909
1690842040446258000,0.6522578125,-0.004448544234037399,-0.00449941074475646,-0.014935540035367012
1690842040456298000,0.662298095703125,-0.004765460267663002,-0.0041071269661188126,-0.012988503091037273
1690842040466337800,0.672337890625,-0.004686897154897451,-0.00421365350484848,-0.008958341553807259
1690842040476379000,0.68237890625,-0.004039749037474394,-0.003581685246899724,-0.008599347434937954
1690842040486449000,0.692448974609375,-0.0038125813007354736,-0.00321896281093359,-0.010978881269693375
1690842040496490000,0.702489990234375,-0.004761998075991869,-0.0036887445021420717,-0.012996491976082325
1690842040506530000,0.712530029296875,-0.006068279035389423,-0.0023276028223335743,-0.01762985996901989
1690842040516569900,0.72256982421875,-0.0051905009895563126,-0.004802212119102478,-0.019517775624990463
1690842040526611000,0.73261083984375,-0.003985154442489147,-0.0019656792283058167,-0.02648327313363552
1690842040536651000,0.742651123046875,-0.004061054438352585,-0.00216594897210598,-0.02834295853972435
1690842040546690800,0.75269091796875,-0.004110322799533606,-0.001306280493736267,-0.027847344055771828
1690842040556731000,0.76273095703125,-0.005697034299373627,-0.0005118595436215401,-0.028797026723623276
1690842040566772000,0.77277197265625,-0.0054301852360367775,-0.00353428116068244,-0.030119819566607475
1690842040576812000,0.78281201171875,-0.0054573495872318745,-0.0028602350503206253,-0.029170401394367218
1690842040586851800,0.792851806640625,-0.005409678909927607,-0.0021899172570556402,-0.025247300043702126
1690842040596893000,0.802892822265625,-0.005336175672709942,-0.003472229465842247,-0.021150026470422745
1690842040606933000,0.81293310546875,-0.004244545940309763,-0.0007068029372021556,-0.02039901539683342
1690842040616972800,0.822972900390625,-0.00333161442540586,-0.0018932411912828684,-0.01571664586663246
1690842040627012900,0.833012939453125,-0.004039216320961714,-0.002326537622138858,-0.014604508876800537
1690842040637084000,0.843083984375,-0.005476790945976973,-0.0036693033762276173,-0.015224759466946125
1690842040647125000,0.853125,-0.005927930120378733,-0.0019624833948910236,-0.014434865675866604
1690842040657165000,0.8631650390625,-0.005169728305190802,-0.0025097629986703396,-0.014798120595514774
1690842040667204900,0.873204833984375,-0.00564004248008132,-0.0030189594253897667,-0.017675133422017097
1690842040677245000,0.883244873046875,-0.004944158717989922,-0.002302302746102214,-0.018940934911370277
1690842040687286000,0.8932861328125,-0.006677343975752592,-0.0009882990270853043,-0.022185197100043297
1690842040697325800,0.903325927734375,-0.0049428269267082214,-0.0028479844331741333,-0.02484303154051304
1690842040707366000,0.913365966796875,-0.0054999603889882565,-0.0028573055751621723,-0.026565564796328545
1690842040717407000,0.923406982421875,-0.004677309654653072,-0.0025212145410478115,-0.025590049102902412
1690842040727447000,0.933447021484375,-0.00433109886944294,0.00017310546536464244,-0.02623266912996769
1690842040737486800,0.94348681640625,-0.005546299275010824,-0.0012548814993351698,-0.025017734616994858
1690842040747527000,0.95352685546875,-0.005023787263780832,-0.004822984803467989,-0.024694427847862244
1690842040757568000,0.963568115234375,-0.004219512455165386,-0.003948136232793331,-0.022897858172655106
1690842040767607800,0.97360791015625,-0.005045358557254076,-0.0026019082870334387,-0.01834198832511902
1690842040777647900,0.98364794921875,-0.005152151454240084,-0.0016021577175706625,-0.01486523263156414
1690842040787719000,0.993718994140625,-0.004733502399176359,-0.003456783015280962,-0.020227773115038872
1690842040797759000,1.003759033203125,-0.002682602033019066,-0.0018314558546990156,-0.01763971336185932
1690842040807800000,1.013800048828125,-0.003890878288075328,-0.002055161399766803,-0.017012005671858788
1690842040817839900,1.02383984375,-0.00395665830001235,0.00003941478280466981,-0.019942814484238625
1690842040827880000,1.0338798828125,-0.005861351266503334,-0.0036698358599096537,-0.018808841705322266
1690842040837920000,1.043919921875,-0.005314870737493038,-0.0026615632232278585,-0.020837370306253433
1690842040847960800,1.0539609375,-0.004775846842676401,-0.003847468877211213,-0.02195936068892479
1690842040858001000,1.0640009765625,-0.005319930613040924,-0.002548911375924945,-0.02327629365026951
1690842040868041000,1.074041015625,-0.00464694993570447,-0.0024679512716829777,-0.025237979367375374
1690842040878082000,1.08408203125,-0.005644037388265133,-0.0035601137205958366,-0.026252109557390213
1690842040888121900,1.094121826171875,-0.0041284323669970036,-0.001005343277938664,-0.022052038460969925
1690842040898162000,1.104161865234375,-0.003790477057918906,0.0000958738019107841,-0.0221503097563982
1690842040908202000,1.114201904296875,-0.0036786242853850126,-0.0009962886106222868,-0.02124137245118618
1690842040918242800,1.124242919921875,-0.005096491426229477,-0.0020029633305966854,-0.022543391212821007
1690842040928283000,1.134282958984375,-0.006624612957239151,-0.002688993699848652,-0.01804904080927372
1690842040938323000,1.144322998046875,-0.0054142065346241,-0.0014085458824411035,-0.019292471930384636
1690842040948394000,1.15439404296875,-0.004133225884288549,-0.0030623688362538815,-0.0167922955006361
1690842040958433800,1.164433837890625,-0.005632319487631321,-0.0017185378819704056,-0.018485799431800842
1690842040968475000,1.174474853515625,-0.004490888677537441,-0.0010037453612312675,-0.02045787125825882
1690842040978515000,1.184514892578125,-0.005386243108659983,-0.0012026835465803742,-0.01937689445912838
1690842040988550700,1.194550537109375,-0.005256547126919031,-0.0020178770646452904,-0.02184963785111904
1690842040998590700,1.2045908203125,-0.006364688742905855,-0.0017965685110539198,-0.021215539425611496
1690842041008631800,1.2146318359375,-0.006644587032496929,-0.0007142598042264581,-0.02401345781981945
1690842041018671900,1.224671875,-0.004965996369719505,-0.002217081608250737,-0.023252857849001884
1690842041028711700,1.234711669921875,-0.003713778220117092,-0.001371794263832271,-0.02232448011636734
1690842041038752800,1.244752685546875,-0.00529729388654232,0.00017443705291952938,-0.02262035757303238
1690842041048792600,1.25479248046875,-0.004489290527999401,-0.0021811288315802813,-0.021558554843068123
1690842041058832600,1.26483251953125,-0.006057626102119684,-0.001981125446036458,-0.02226162888109684
1690842041068872700,1.274872802734375,-0.004566255956888199,-0.0006431533838622272,-0.02117772400379181
1690842041078913800,1.284913818359375,-0.0054245926439762115,-0.0019273296929895878,-0.02268161065876484
1690842041088953900,1.294953857421875,-0.004942560568451881,-0.0009616674506105483,-0.02028849348425865
1690842041099025000,1.30502490234375,-0.0062126219272613525,-0.0019244002178311348,-0.019207783043384552
1690842041109064700,1.315064697265625,-0.00612287363037467,-0.0011821772204712033,-0.01967330276966095
1690842041119104500,1.3251044921875,-0.0046421559527516365,-0.0041188448667526245,-0.018973691388964653
1690842041129145600,1.3351455078125,-0.005534315016120672,0.00020639497961383313,-0.019880764186382294
1690842041139185700,1.345185546875,-0.003948402591049671,-0.0024618261959403753,-0.020679445937275887
1690842041149225700,1.355225830078125,-0.00515801040455699,-0.0016586167039349675,-0.020488496869802475
1690842041159266800,1.365266845703125,-0.004181961994618177,-0.0021859225817024708,-0.022430207580327988
1690842041169307000,1.375306884765625,-0.005508216097950935,-0.003245860803872347,-0.02148238942027092
1690842041179346700,1.3853466796875,-0.0038330876268446445,-0.0011289139511063695,-0.021271999925374985
1690842041189386500,1.395386474609375,-0.004209392238408327,-0.001568069215863943,-0.02131061442196369
1690842041199427600,1.405427490234375,-0.0043742419220507145,-0.001933987601660192,-0.02292848564684391
1690842041209467600,1.415467529296875,-0.005269863177090883,-0.004057059530168772,-0.021562816575169563
1690842041219507700,1.4255078125,-0.004856540355831385,-0.0032344090286642313,-0.021106883883476257
1690842041229548800,1.435548828125,-0.003500991500914097,0.0009859022684395313,-0.02106027863919735
1690842041239588900,1.4455888671875,-0.005154015496373177,-0.002216282533481717,-0.021200360730290413
1690842041249660000,1.455659912109375,-0.005676794331520796,-0.0029148298781365156,-0.020330306142568588
1690842041259699500,1.465699462890625,-0.005045092198997736,-0.0032927324064075947,-0.01991591788828373
1690842041269739500,1.475739501953125,-0.0038866172544658184,-0.0018381137633696198,-0.02002617157995701
1690842041279779600,1.485779541015625,-0.0056741307489573956,-0.0033369408920407295,-0.020002203062176704
1690842041289820700,1.495820556640625,-0.006761233322322369,-0.0028522454667836428,-0.021930865943431854
1690842041299860700,1.50586083984375,-0.0038088529836386442,-0.003300189273431897,-0.021887721493840218
1690842041309900800,1.51590087890625,-0.003739610780030489,0.000051399008953012526,-0.021313011646270752
1690842041319941600,1.525941650390625,-0.005255748517811298,-0.00025513084256090224,-0.018372083082795143
1690842041329981700,1.535981689453125,-0.006327936891466379,-0.0011403656098991632,-0.020979316905140877
1690842041340021500,1.546021484375,-0.003835218260064721,-0.001812014845199883,-0.019887421280145645
1690842041350061600,1.5560615234375,-0.005575061310082674,-0.0018540926976129413,-0.021096762269735336
1690842041360102700,1.5661025390625,-0.00570023013278842,-0.002442651428282261,-0.019846143200993538
1690842041370142700,1.576142822265625,-0.005376921966671944,-0.002909769769757986,-0.02214524894952774
1690842041380182800,1.586182861328125,-0.005479986313730478,-0.0011014834744855762,-0.021826468408107758
1690842041390223600,1.5962236328125,-0.005113801918923855,-0.0021931130904704332,-0.022241389378905296
1690842041400263700,1.606263671875,-0.004543885588645935,-0.000013315805517777335,-0.021586785092949867
1690842041410334500,1.61633447265625,-0.00490154791623354,-0.0025545042008161545,-0.022766299545764923
1690842041420374500,1.62637451171875,-0.004041080828756094,-0.0014612764352932572,-0.02165362983942032
1690842041430414600,1.63641455078125,-0.005490106530487537,-0.0024684839881956577,-0.01900937780737877
1690842041440455700,1.64645556640625,-0.0037470676470547915,-0.004262655507773161,-0.020006997510790825
1690842041450495700,1.656495849609375,-0.005132976453751326,-0.0035931370221078396,-0.021797707304358482
1690842041460535800,1.666535888671875,-0.004034156445413828,-0.0012415656819939613,-0.0199220422655344
1690842041470575900,1.676575927734375,-0.00567013630643487,-0.0021608888637274504,-0.020318854600191116
1690842041480616700,1.68661669921875,-0.002709500025957823,-0.0007874967413954437,-0.019883427768945694
1690842041490656500,1.696656494140625,-0.004495948553085327,-0.00138058268930763,-0.023519441485404968
1690842041500696600,1.706696533203125,-0.004809136036783457,-0.002132659312337637,-0.02364540845155716
1690842041510736600,1.716736572265625,-0.004540423396974802,-0.0015305186389014125,-0.023031815886497498
1690842041520777700,1.72677783203125,-0.005593969952315092,-0.006031793542206287,-0.022131135687232018
1690842041530817800,1.73681787109375,-0.005191832315176725,-0.0009558085002936423,-0.02257242053747177
1690842041540857900,1.74685791015625,-0.0036157737486064434,-0.0018458369886502624,-0.019901270046830177
1690842041550898700,1.756898681640625,-0.005071723833680153,-0.0019835224375128746,-0.021316207945346832
1690842041560968700,1.76696875,-0.004722849931567907,-0.0011861718958243728,-0.01858380436897278
1690842041571009500,1.777009521484375,-0.005554022267460823,-0.0012855078093707561,-0.018202971667051315
1690842041581049600,1.787049560546875,-0.006140450481325388,-0.0005113269435241818,-0.02046186476945877
1690842041591089700,1.797089599609375,-0.004743089899420738,-0.00341603672131896,-0.021199561655521393
1690842041601130800,1.807130859375,-0.004831506870687008,-0.0022306637838482857,-0.023792680352926254
1690842041611170800,1.8171708984375,-0.004607002250850201,-0.002737196860834956,-0.021619275212287903
1690842041621211000,1.8272109375,-0.002888997085392475,-0.0009779128013178706,-0.021195033565163612
1690842041631250700,1.837250732421875,-0.0033483924344182014,-0.001568069215863943,-0.020078903064131737
1690842041641291500,1.84729150390625,-0.004968659486621618,-0.0009912285022437572,-0.019699402153491974
1690842041651331600,1.85733154296875,-0.00484402384608984,0.0003680488734971732,-0.02051965519785881
1690842041661371600,1.86737158203125,-0.005868541542440653,-0.004749747924506664,-0.020601946860551834
1690842041671412700,1.877412841796875,-0.005375057924538851,-0.0009930927772074938,-0.0206938274204731
1690842041681452800,1.887452880859375,-0.005288239102810621,-0.001285241567529738,-0.021700501441955566
1690842041691492900,1.897492919921875,-0.0036879454273730516,0.001204547705128789,-0.02142672799527645
1690842041701532700,1.90753271484375,-0.004670652095228434,-0.0016197345685213804,-0.021697305142879486
1690842041711603700,1.917603759765625,-0.004240817856043577,-0.0009691243176348507,-0.020915135741233826
1690842041721643800,1.927643798828125,-0.005530852824449539,-0.0016476977616548538,-0.022179869934916496
1690842041731684600,1.9376845703125,-0.003841077210381627,-0.0012751214671880007,-0.020542293787002563
1690842041741724700,1.947724609375,-0.004738562274724245,-0.0021321268286556005,-0.020117253065109253
1690842041751764700,1.9577646484375,-0.004081028047949076,-0.0019912454299628735,-0.022911174222826958
1690842041761805800,1.967805908203125,-0.004393949639052153,-0.004306064918637276,-0.019031748175621033
1690842041771845600,1.977845703125,-0.004355067387223244,-0.002829608740285039,-0.020804613828659058
1690842041781885700,1.9878857421875,-0.005315136630088091,-0.0014833806781098247,-0.02070554532110691
1690842041791925800,1.99792578125,-0.004848817363381386,-0.00035926041891798377,-0.020112991333007812
1690842041801966600,2.007966552734375,-0.005066131241619587,-0.002725212834775448,-0.01985013671219349
1690842041812006700,2.018006591796875,-0.0036884781438857317,-0.0003656520275399089,-0.02063523791730404
1690842041822046700,2.028046630859375,-0.0051652006804943085,-0.0013824469642713666,-0.022541794925928116
1690842041832087800,2.038087890625,-0.004861334338784218,-0.0014346449170261621,-0.023434219881892204
1690842041842128000,2.0481279296875,-0.005090366117656231,-0.0009760485263541341,-0.02287335693836212
1690842041852167700,2.058167724609375,-0.004883704707026482,-0.004490089602768421,-0.022399315610527992
1690842041862207700,2.068207763671875,-0.004072772338986397,-0.0013875069562345743,-0.02070474624633789
1690842041872278800,2.07827880859375,-0.003796336008235812,-0.0016937704058364034,-0.020861338824033737
1690842041882319600,2.088319580078125,-0.005401423200964928,-0.003549194661900401,-0.0211271233856678
1690842041892359700,2.098359619140625,-0.004995024763047695,0.00020959076937288046,-0.019951337948441505
1690842041902399700,2.108399658203125,-0.003704989794641733,-0.0029819414485245943,-0.021337779238820076
1690842041912439600,2.118439453125,-0.005149488337337971,-0.0034314829390496016,-0.02045946940779686
1690842041922480600,2.128480712890625,-0.004358795937150717,-0.003865045728161931,-0.021196631714701653
1690842041932520700,2.138520751953125,-0.0057444386184215546,0.000010918960470007733,-0.02021791972219944
1690842041942560800,2.148560791015625,-0.0057739997282624245,-0.00096113485051319,-0.019536683335900307
1690842041952600800,2.158600830078125,-0.004987568128854036,0.00015233281010296196,-0.020683707669377327
1690842041962641700,2.1686416015625,-0.005302886478602886,-0.0016703346045687795,-0.019532687962055206
1690842041972681700,2.178681640625,-0.003736414946615696,-0.0033907366450875998,-0.021199028939008713
1690842041982721500,2.188721435546875,-0.005495965480804443,-0.0023438481148332357,-0.02136600948870182
1690842041992762600,2.1987626953125,-0.005169461946934462,-0.0014436995843425393,-0.021164674311876297
1690842042002802700,2.208802734375,-0.005649097263813019,-0.0041132522746920586,-0.02196814864873886
1690842042012842800,2.2188427734375,-0.0043862261809408665,-0.001558748190291226,-0.02256842516362667
1690842042022913500,2.22891357421875,-0.004932706709951162,-0.000025300030756625347,-0.021390775218605995
1690842042032953600,2.23895361328125,-0.0067993164993822575,-0.0036549223586916924,-0.0210669357329607
1690842042042994400,2.248994384765625,-0.005626726895570755,-0.0017872473690658808,-0.0211244598031044
1690842042053034500,2.259034423828125,-0.005482915788888931,-0.0005310343112796545,-0.017949439585208893
1690842042063074600,2.269074462890625,-0.004652276169508696,-0.002216282533481717,-0.020146280527114868
1690842042073114600,2.279114501953125,-0.004854409955441952,-0.004346012603491545,-0.020537232980132103
1690842042083155700,2.28915576171875,-0.0028786107432097197,-0.0019805929623544216,-0.0224981177598238
1690842042093195800,2.29919580078125,-0.003910585772246122,-0.003166498616337776,-0.02040567249059677
1690842042103235600,2.309235595703125,-0.00444055488333106,-0.0017627463676035404,-0.02058463729918003
1690842042113276400,2.3192763671875,-0.005682386923581362,0.00019813918333966285,-0.0222065020352602
1690842042123316500,2.32931640625,-0.004878644831478596,-0.002028263406828046,-0.019890351220965385
1690842042133356500,2.3393564453125,-0.005650429055094719,-0.0034173682797700167,-0.019217103719711304
1690842042143396600,2.349396728515625,-0.005950034596025944,-0.0010426276130601764,-0.02117452770471573
1690842042153437700,2.359437744140625,-0.004294081125408411,-0.0018791264155879617,-0.020474381744861603
1690842042163477800,2.369477783203125,-0.005113801918923855,0.00032384038786403835,-0.020976921543478966
1690842042173548500,2.379548583984375,-0.005532717332243919,-0.00256355875171721,-0.020485300570726395
1690842042183588600,2.389588623046875,-0.003947603516280651,-0.0008839031797833741,-0.019869312644004822
1690842042193628700,2.399628662109375,-0.0054938350804150105,-0.0012064119800925255,-0.02034362033009529
1690842042203669500,2.40966943359375,-0.00663420045748353,-0.006380933802574873,-0.021099159494042397
1690842042213709600,2.41970947265625,-0.005647233221679926,-0.0008306399104185402,-0.02238067239522934
1690842042223749600,2.42974951171875,-0.004005128052085638,-0.0015779229579493403,-0.022772956639528275
1690842042233789700,2.439789794921875,-0.004878112114965916,-0.0023672839161008596,-0.019906597211956978
1690842042243830800,2.449830810546875,-0.0036693033762276173,-0.0022120214998722076,-0.021568674594163895
1690842042253870600,2.45987060546875,-0.0064863949082791805,-0.0008727178792469203,-0.02328614704310894
1690842042263910700,2.46991064453125,-0.004282096866518259,-0.0025182850658893585,-0.02069622278213501
1690842042273951500,2.479951416015625,-0.0030362699180841446,-0.0023228090722113848,-0.021200893446803093
1690842042283991600,2.489991455078125,-0.005638711154460907,-0.0025654230266809464,-0.02051006816327572
1690842042294031600,2.500031494140625,-0.005046956706792116,-0.001686846255324781,-0.020784374326467514
1690842042304071700,2.51007177734375,-0.0043593281880021095,-0.002377936616539955,-0.020168384537100792
1690842042314112800,2.52011279296875,-0.00506932707503438,-0.0020940436515957117,-0.022537266835570335
1690842042324152600,2.530152587890625,-0.004497013986110687,-0.0006737797521054745,-0.02051406353712082
1690842042334223600,2.5402236328125,-0.004200870171189308,-0.0031073763966560364,-0.022348714992403984
1690842042344263700,2.550263671875,-0.006494651082903147,-0.0029430591966956854,-0.022296782582998276
1690842042354303500,2.560303466796875,-0.005013933405280113,-0.00301762786693871,-0.019538281485438347
1690842042364344600,2.570344482421875,-0.0037800907157361507,-0.002796052722260356,-0.022758841514587402
1690842042374384600,2.580384521484375,-0.005555620416998863,-0.000990962260402739,-0.02058836631476879
1690842042384424700,2.5904248046875,-0.003960120491683483,-0.0025598304346203804,-0.01907622255384922
1690842042394465800,2.6004658203125,-0.004185690078884363,-0.003817907767370343,-0.02094096876680851
1690842042404505600,2.610505615234375,-0.0036767602432519197,-0.0035606464371085167,-0.021678663790225983
1690842042414545700,2.620545654296875,-0.0054733287543058395,-0.0013672668719664216,-0.01906530372798443
1690842042424585500,2.63058544921875,-0.005923402961343527,-0.001258343574590981,-0.01961897499859333
1690842042434626600,2.64062646484375,-0.0048799761570990086,-0.0019342538435012102,-0.02082325704395771
1690842042444666600,2.65066650390625,-0.005686647724360228,0.00037736992817372084,-0.021211013197898865
1690842042454706700,2.660706787109375,-0.003893807763233781,-0.0013851100811734796,-0.021137509495019913
1690842042464746500,2.67074658203125,-0.0038043255917727947,-0.0022237394005060196,-0.022158564999699593
1690842042474787600,2.68078759765625,-0.004200870171189308,-0.0036043222062289715,-0.021737253293395042
1690842042484858600,2.690858642578125,-0.0038535939529538155,-0.00020879182557109743,-0.020909808576107025
1690842042494898400,2.7008984375,-0.005516471806913614,-0.0019273296929895878,-0.02010686695575714
1690842042504938500,2.7109384765625,-0.005268531385809183,-0.004461593925952911,-0.02008982188999653
1690842042514978600,2.720978515625,-0.0043625240214169025,-0.0028016455471515656,-0.018977684900164604
1690842042525019600,2.73101953125,-0.0057039582170546055,-0.002540922025218606,-0.02261822670698166
1690842042535059700,2.741059814453125,-0.0049279131926596165,-0.0026847326662391424,-0.021564947441220284
1690842042545099500,2.751099609375,-0.005604356061667204,0.0005376922199502587,-0.020124709233641624
1690842042555140600,2.761140625,-0.0038314899429678917,-0.0021869877818971872,-0.020671190693974495
1690842042565180400,2.771180419921875,-0.003997404593974352,-0.001035436987876892,-0.01943708024919033
1690842042575220500,2.781220458984375,-0.0028519791085273027,-0.0029963224660605192,-0.021262677386403084
1690842042585260500,2.791260498046875,-0.0048767803236842155,-0.00010093380114994943,-0.021093035116791725
1690842042595301600,2.801301513671875,-0.0027241474017500877,-0.002889263443648815,-0.020184364169836044
1690842042605341700,2.811341796875,-0.004018976353108883,-0.004034689161926508,-0.021458953619003296
1690842042615381500,2.821381591796875,-0.004024568945169449,0.00022077605535741895,-0.0204504132270813
1690842042625422600,2.831422607421875,-0.0052118063904345036,-0.0026636936236172915,-0.020424049347639084
1690842042635492600,2.84149267578125,-0.004019509069621563,-0.004427505191415548,-0.01882508583366871
1690842042645533400,2.851533447265625,-0.005757487844675779,-0.0010404969798400998,-0.02160356193780899
1690842042655573500,2.861573486328125,-0.0046967510133981705,0.00014460964302998036,-0.022337263450026512
1690842042665613600,2.871613525390625,-0.005958023946732283,-0.001353152096271515,-0.021504227072000504
1690842042675653400,2.8816533203125,-0.005425125360488892,-0.001877262257039547,-0.02070607803761959
1690842042685694500,2.891694580078125,-0.004501807503402233,-0.0023513049818575382,-0.02173112891614437
1690842042695734500,2.901734619140625,-0.004960936494171619,-0.002802178030833602,-0.019539613276720047
1690842042705774600,2.911774658203125,-0.005613943561911583,-0.0012860405258834362,-0.021138042211532593
1690842042715815400,2.9218154296875,-0.005587578285485506,-0.002767557045444846,-0.02406831830739975
1690842042725855500,2.93185546875,-0.004269579891115427,-0.001883387565612793,-0.02009701170027256
1690842042735895600,2.9418955078125,-0.004800880327820778,-0.0025036376900970936,-0.020264524966478348
1690842042745935600,2.951935546875,-0.006712763570249081,-0.0018335863715037704,-0.020557738840579987
1690842042755976700,2.961976806640625,-0.005091963801532984,-0.0027228158432990313,-0.02082219161093235
1690842042766016500,2.9720166015625,-0.0036578518338501453,-0.0010245180455967784,-0.021676000207662582
1690842042776056600,2.982056640625,-0.004081827122718096,-0.0032410670537501574,-0.02184005081653595
1690842042786127600,2.992127685546875,-0.004422445315867662,-0.0020479708909988403,-0.020082099363207817
1690842042796167700,3.002167724609375,-0.005023254547268152,-0.001989913871511817,-0.01996758207678795
1690842042806208500,3.01220849609375,-0.004935902543365955,-0.0023070964962244034,-0.0215324554592371
1690842042816248600,3.02224853515625,-0.006555637344717979,-0.0018668759148567915,-0.021685587242245674
1690842042826288400,3.032288330078125,-0.005774798337370157,-0.0026351979468017817,-0.019208582118153572
1690842042836329500,3.04232958984375,-0.005041630007326603,-0.0032463932875543833,-0.022968964651226997
1690842042846369500,3.05236962890625,-0.0046549392864108086,-0.002823483431711793,-0.021041369065642357
1690842042856409600,3.06240966796875,-0.00529622845351696,-0.0004495415778364986,-0.02273673750460148
1690842042866449700,3.07244970703125,-0.004850947763770819,-0.0005185174522921443,-0.019525231793522835
1690842042876490500,3.082490478515625,-0.005641906522214413,-0.0010831075487658381,-0.021223796531558037
1690842042886530600,3.092530517578125,-0.003998470026999712,-0.003870105603709817,-0.021018465980887413
1690842042896570600,3.102570556640625,-0.004797152243554592,-0.00021411814668681473,-0.019932961091399193
1690842042906611700,3.11261181640625,-0.004823251161724329,-0.00021012341312598437,-0.020861072465777397
1690842042916651500,3.122651611328125,-0.004320978652685881,0.00036671728594228625,-0.018799521028995514
1690842042926691600,3.132691650390625,-0.004277036525309086,-0.002150236163288355,-0.018852783367037773
1690842042936731600,3.142731689453125,-0.005538043566048145,-0.004344680812209845,-0.022459236904978752
1690842042946802700,3.152802734375,-0.005565740168094635,-0.0012333098566159606,-0.019843213260173798
1690842042956842800,3.1628427734375,-0.005276521202176809,-0.0024730113800615072,-0.019595805555582047
1690842042966883600,3.172883544921875,-0.005109274294227362,-0.004455202259123325,-0.021281853318214417
1690842042976923400,3.18292333984375,-0.004420847166329622,0.0012423646403476596,-0.019403258338570595
1690842042986958000,3.1929580078125,-0.0037143107037991285,-0.0016253271605819464,-0.0189055148512125
1690842042996999000,3.2029990234375,-0.004935370292514563,-0.0032320122700184584,-0.02009221911430359
1690842043007039000,3.2130390625,-0.006424609571695328,-0.0038482677191495895,-0.02070794068276882
1690842043017078800,3.223078857421875,-0.006164951715618372,-0.0012397015234455466,-0.021517809480428696
1690842043027118800,3.233118896484375,-0.0052267201244831085,-0.0017526262672618032,-0.023003319278359413
1690842043037160000,3.243159912109375,-0.004071440547704697,-0.002784867538139224,-0.02087492123246193
1690842043047200000,3.253199951171875,-0.00401498144492507,-0.0026788737159222364,-0.020324712619185448
1690842043057240000,3.263239990234375,-0.005510080140084028,-0.0006788397440686822,-0.020843230187892914
1690842043067281000,3.273281005859375,-0.004049070179462433,-0.0018575548892840743,-0.021250426769256592
1690842043077321000,3.283321044921875,-0.0030418625101447105,-0.0018141453620046377,-0.02111540548503399
1690842043087361000,3.293361083984375,-0.0046568033285439014,-0.0016724651213735342,-0.02063816599547863
1690842043097431800,3.303431884765625,-0.00378994457423687,-0.0030248183757066727,-0.021674934774637222
1690842043107472000,3.313471923828125,-0.0038253646343946457,-0.0008769789128564298,-0.020368121564388275
1690842043117512000,3.323511962890625,-0.006179332733154297,-0.002674346324056387,-0.02190636470913887
1690842043127553000,3.333552978515625,-0.005591839086264372,-0.0015933692920953035,-0.01986824721097946
1690842043137593000,3.343593017578125,-0.005507949739694595,-0.0011488876771181822,-0.020183831453323364
1690842043147633200,3.353633056640625,-0.004001665860414505,-0.0021281319204717875,-0.020076505839824677
1690842043157674000,3.363674072265625,-0.0037055222783237696,-0.002953711897134781,-0.020358001813292503
1690842043167713800,3.3737138671875,-0.004429635591804981,-0.003300189273431897,-0.020648818463087082
1690842043177753900,3.38375390625,-0.003885552054271102,-0.003194994293153286,-0.02105468511581421
1690842043187794000,3.3937939453125,-0.00646748673170805,-0.003052781568840146,-0.02004081942141056
1690842043197835000,3.4038349609375,-0.005210474599152803,-0.0022330605424940586,-0.02063949778676033
1690842043207875000,3.413875,-0.005657885689288378,-0.002680205274373293,-0.018976621329784393
1690842043217915100,3.4239150390625,-0.005681055132299662,-0.004552141297608614,-0.021331652998924255
1690842043227956000,3.4339560546875,-0.004905276466161013,-0.0020756677258759737,-0.020830979570746422
1690842043237996000,3.44399609375,-0.005623797420412302,-0.0016538230702280998,-0.021852567791938782
1690842043248066800,3.45406689453125,-0.006560164503753185,-0.0018820558907464147,-0.02052018791437149
1690842043258107000,3.46410693359375,-0.0054885088466107845,-0.0034756914246827364,-0.020804613828659058
1690842043268147000,3.47414697265625,-0.005570001434534788,-0.0035981968976557255,-0.02117772400379181
1690842043278188000,3.48418798828125,-0.005732986610382795,-0.002561161993071437,-0.022408103570342064
1690842043288228000,3.49422802734375,-0.005901032127439976,-0.0012258529895916581,-0.02094016969203949
1690842043298268200,3.50426806640625,-0.0054331147111952305,-0.002853044541552663,-0.021702898666262627
1690842043308308000,3.514307861328125,-0.00455640209838748,-0.00022184131375979632,-0.019699668511748314
1690842043318348800,3.524348876953125,-0.0044381581246852875,-0.0018112158868461847,-0.02046186476945877
1690842043328388900,3.534388916015625,-0.0027302727103233337,-0.0008279767935164273,-0.019811788573861122
1690842043338429000,3.544428955078125,-0.004736964590847492,-0.0037063213530927896,-0.020264258608222008
1690842043348470000,3.554469970703125,-0.005142031237483025,-0.003690076060593128,-0.02094496227800846
1690842043358510000,3.564510009765625,-0.004776911810040474,-0.0003022687742486596,-0.021828332915902138
1690842043368550100,3.574550048828125,-0.0067963870242238045,-0.0027864654548466206,-0.020988905802369118
1690842043378590200,3.584590087890625,-0.004569718148559332,-0.002171008847653866,-0.022592660039663315
1690842043388631000,3.594631103515625,-0.005935387220233679,-0.00264798104763031,-0.020686103031039238
1690842043398701000,3.604701171875,-0.004478904418647289,-0.001725728390738368,-0.019459983333945274
1690842043408742000,3.614741943359375,-0.005456018261611462,-0.003686347510665655,-0.019863186404109
1690842043418782000,3.624781982421875,-0.003808586625382304,-0.003064765827730298,-0.023154055699706078
1690842043428822000,3.634822021484375,-0.004175836686044931,-0.0010852381819859147,-0.018751051276922226
1690842043438863000,3.644863037109375,-0.003808586625382304,-0.0029225528705865145,-0.01943068951368332
1690842043448903200,3.654903076171875,-0.005600095260888338,-0.0009275790071114898,-0.020783841609954834
1690842043458943000,3.66494287109375,-0.00381471193395555,-0.004869856406003237,-0.021577730774879456
1690842043468983000,3.674983154296875,-0.004859469830989838,-0.0016924388473853469,-0.019901003688573837
1690842043479023900,3.68502392578125,-0.0054581486620008945,-0.0019140138756483793,-0.021453360095620155
1690842043489064000,3.69506396484375,-0.004292216617614031,0.00011451592581579462,-0.020171314477920532
1690842043499104000,3.70510400390625,-0.005104214418679476,-0.001427720650099218,-0.02141501009464264
1690842043509145000,3.71514501953125,-0.003923901356756687,-0.003308178624138236,-0.01883547380566597
1690842043519185200,3.72518505859375,-0.0027363980188965797,-0.0007131945458240807,-0.020062657073140144
1690842043529225000,3.735224853515625,-0.004493818152695894,-0.001118527608923614,-0.021278124302625656
1690842043539265000,3.74526513671875,-0.005592638161033392,-0.0025867284275591373,-0.020295418798923492
1690842043549305900,3.755305908203125,-0.004376638680696487,-0.001639441936276853,-0.01894386298954487
1690842043559377000,3.765376953125,-0.0041127195581793785,-0.0024945829063653946,-0.021566279232501984
1690842043569417000,3.7754169921875,-0.004747883416712284,-0.0003299656673334539,-0.020845893770456314
1690842043579457000,3.78545703125,-0.005484247580170631,-0.002627208363264799,-0.020141221582889557
1690842043589497000,3.7954970703125,-0.005245628301054239,-0.0023379891645163298,-0.021313810721039772
1690842043599538200,3.8055380859375,-0.006653641816228628,-0.002350772265344858,-0.019182216376066208
1690842043609578000,3.815577880859375,-0.003471430391073227,-0.0002868224401026964,-0.022581208497285843
1690842043619618000,3.8256181640625,-0.005173456855118275,-0.0017976337112486362,-0.020425379276275635
1690842043629657900,3.835657958984375,-0.005181978922337294,-0.004718322306871414,-0.02243846282362938
1690842043639699000,3.845698974609375,-0.004159058444201946,-0.0008729841792955995,-0.020494356751441956
1690842043649739000,3.855739013671875,-0.005087436642497778,-0.0016088156262412667,-0.0215377826243639
1690842043659779000,3.865779052734375,-0.005848834291100502,0.0010226538870483637,-0.020787570625543594
1690842043669820200,3.875820068359375,-0.003203782718628645,-0.0015281217638403177,-0.020129503682255745
1690842043679860000,3.88585986328125,-0.006484797224402428,-0.0010753844399005175,-0.022429142147302628
1690842043689900000,3.895900146484375,-0.004338023252785206,-0.00284958234988153,-0.022340726107358932
1690842043699939800,3.90593994140625,-0.007547132205218077,0.20901073515415192,-0.11491753160953522
1690842043710011000,3.916010986328125,-0.004785700235515833,0.1358768790960312,-0.11965475976467133
1690842043720052000,3.926052001953125,0.04771452397108078,-0.10247417539358139,-0.1416117250919342
1690842043730092000,3.936092041015625,-0.021133780479431152,-0.0829705148935318,-0.10922821611166
1690842043740132000,3.946132080078125,-0.0030836742371320724,-0.035296469926834106,-0.10101237148046494
1690842043750172000,3.956171875,-0.011322695761919022,-0.025308819487690926,-0.059599678963422775
1690842043760213000,3.966212890625,-0.013858024962246418,0.014582404866814613,-0.021625135093927383
1690842043770253000,3.976253173828125,-0.008974053896963596,0.04969698190689087,0.012016182765364647
1690842043780292900,3.98629296875,-0.005587578285485506,0.06616836786270142,0.03939187899231911
1690842043790334000,3.996333984375,-0.0018271948210895061,0.05688272416591644,0.055743955075740814
1690842043800374000,4.0063740234375,0.0005006743012927473,0.03443280979990959,0.06005747616291046
1690842043810414000,4.0164140625,-0.0016945693641901016,0.0018045579781755805,0.05494900420308113
1690842043820454000,4.026453857421875,-0.0020210728980600834,-0.03945073485374451,0.03628024458885193
1690842043830495000,4.036494873046875,-0.006382798310369253,-0.05643637850880623,0.012219115160405636
1690842043840535000,4.04653515625,-0.010001767426729202,-0.05596047267317772,-0.011019094847142696
1690842043850574800,4.056574951171875,-0.0064922538585960865,-0.04156475514173508,-0.03434385731816292
1690842043860646000,4.06664599609375,-0.006612895056605339,-0.014214089140295982,-0.05389438942074776
1690842043870686000,4.07668603515625,-0.0047055394388735294,0.013859623111784458,-0.064975805580616
1690842043880727000,4.08672705078125,-0.001984054921194911,0.03563682362437248,-0.07449234277009964
1690842043890767000,4.09676708984375,-0.0020642161834985018,0.046897999942302704,-0.07326915115118027
1690842043900807000,4.106806884765625,-0.001788046327419579,0.042993806302547455,-0.0667010024189949
1690842043910847000,4.116846923828125,-0.005898635368794203,0.026696858927607536,-0.05831843242049217
1690842043920888000,4.12688818359375,-0.006104764062911272,0.0018548916559666395,-0.04192774370312691
1690842043930927900,4.136927978515625,-0.007721036672592163,-0.022603312507271767,-0.025734124705195427
1690842043940968000,4.146968017578125,-0.006639526691287756,-0.03459792584180832,-0.008627576753497124
1690842043951009000,4.157009033203125,-0.006878945045173168,-0.03557077795267105,0.007436610758304596
1690842043961049000,4.167049072265625,-0.004991562571376562,-0.025169268250465393,0.016563797369599342
1690842043971089000,4.1770888671875,-0.004530036821961403,-0.009387376718223095,0.022227274253964424
1690842043981129000,4.18712890625,-0.004716724622994661,0.002959304489195347,0.02171781286597252
1690842043991137800,4.1971376953125,-0.0041044638492167,0.013351225294172764,0.010332265868782997
1690842044001177900,4.207177734375,-0.0051811798475682735,0.013671071268618107,-0.0027451864443719387
1690842044011217700,4.2172177734375,-0.004662129562348127,0.012775716371834278,-0.0164780430495739
1690842044021288700,4.227288818359375,-0.006226470693945885,0.002909503411501646,-0.031250596046447754
1690842044031328800,4.237328857421875,-0.004938832018524408,-0.0032469260040670633,-0.042152781039476395
1690842044041369600,4.24736962890625,-0.005197425372898579,-0.01200073678046465,-0.05272393301129341
1690842044051409700,4.25740966796875,-0.0038037928752601147,-0.013482785783708096,-0.054018229246139526
1690842044061449700,4.26744970703125,-0.00433136522769928,-0.009081379510462284,-0.04981149733066559
1690842044071489800,4.27748974609375,-0.004012318328022957,-0.003742540255188942,-0.04495042935013771
1690842044081531000,4.28753076171875,-0.00666296249255538,0.00032916670897975564,-0.035518843680620193
1690842044091570700,4.29757080078125,-0.003965180367231369,0.008738364093005657,-0.025115473195910454
1690842044101610800,4.30761083984375,-0.004739894066005945,0.006806773599237204,-0.01630786620080471
1690842044111651600,4.317651611328125,-0.00509808911010623,0.004667189903557301,-0.0046509443782269955
1690842044121691600,4.327691650390625,-0.00379021093249321,-0.0007246461464092135,-0.000027164242055732757
1690842044131731700,4.337731689453125,-0.0046781087294220924,-0.006375873927026987,0.0028786107432097197
1690842044141771800,4.347771728515625,-0.004682902246713638,-0.008130630478262901,0.0010253170039504766
1690842044151812900,4.357812744140625,-0.0046152579598128796,-0.01095438003540039,-0.0020482372492551804
1690842044161852700,4.367852783203125,-0.006758037488907576,-0.009229983203113079,-0.009461145848035812
1690842044171923700,4.377923828125,-0.004363056737929583,-0.003778493031859398,-0.016623716801404953
1690842044181963800,4.3879638671875,-0.006594253238290548,-0.0005747101386077702,-0.0232270248234272
1690842044192003800,4.39800390625,-0.0038663772866129875,0.003433347214013338,-0.032410938292741776
1690842044202044700,4.408044677734375,-0.005085306242108345,0.005862150341272354,-0.038363102823495865
1690842044212084700,4.418084716796875,-0.003935619257390499,0.003976631909608841,-0.04007604718208313
1690842044222124800,4.428124755859375,-0.00449861166998744,0.0010689928894862533,-0.039631832391023636
1690842044232166000,4.438165771484375,-0.005945240613073111,-0.002397910226136446,-0.037331659346818924
1690842044242205700,4.448205810546875,-0.005405684467405081,-0.006615558639168739,-0.03259735926985741
1690842044252245800,4.458245849609375,-0.0037673076149076223,-0.0060328589752316475,-0.025900838896632195
1690842044262285800,4.468285888671875,-0.004343615844845772,-0.004495682194828987,-0.016686301678419113
1690842044272326700,4.47832666015625,-0.005790511146187782,-0.003181145992130041,-0.010614827275276184
1690842044282366700,4.48836669921875,-0.004437625408172607,0.0011329087428748608,-0.00726297264918685
1690842044292406800,4.49840673828125,-0.004631769843399525,0.001279382617212832,-0.005365736782550812
1690842044302447900,4.50844775390625,-0.004277302883565426,-0.00045060686534270644,-0.006946589332073927
1690842044312487700,4.51848779296875,-0.005348159931600094,-0.0010660634143278003,-0.010397247038781643
1690842044322558700,4.528558837890625,-0.004796885885298252,0.0013454289874061942,-0.014095046557486057
1690842044332598800,4.538598876953125,-0.005137237720191479,-0.004643487744033337,-0.019242137670516968
1690842044342638800,4.548638916015625,-0.005314870737493038,-0.00475320965051651,-0.023441409692168236
1690842044352678700,4.5586787109375,-0.004324707202613354,-0.0062975771725177765,-0.028932582587003708
1690842044362719700,4.5687197265625,-0.005215800832957029,-0.002031459240242839,-0.03148229047656059
1690842044372759600,4.578759521484375,-0.004851480480283499,-0.002413356676697731,-0.031155256554484367
1690842044382799600,4.588799560546875,-0.003968908917158842,0.0013409015955403447,-0.02809208817780018
1690842044392840700,4.5988408203125,-0.003629089565947652,0.0005747101386077702,-0.028714735060930252
1690842044402880800,4.608880859375,-0.00478463526815176,0.0017486315919086337,-0.02474156580865383
1690842044412920800,4.6189208984375,-0.0046546729281544685,-0.001261273049749434,-0.02346750907599926
1690842044422960600,4.628960693359375,-0.004833903629332781,-0.0008609999786131084,-0.018939070403575897
1690842044433001700,4.639001708984375,-0.005261873826384544,-0.004099403973668814,-0.01739044114947319
1690842044443041800,4.649041748046875,-0.004353735595941544,-0.0065319351851940155,-0.01420556753873825
1690842044453081600,4.65908154296875,-0.003757187630981207,-0.005026716738939285,-0.012842029333114624
1690842044463122700,4.669122802734375,-0.005714611150324345,-0.0044349622912704945,-0.013889716938138008
1690842044473192700,4.679192626953125,-0.004496481269598007,-0.001178448786959052,-0.015448198653757572
1690842044483233800,4.68923388671875,-0.005046423990279436,-0.0007709851488471031,-0.016514528542757034
1690842044493273900,4.69927392578125,-0.004253334365785122,0.00044821001938544214,-0.020379306748509407
1690842044503313700,4.709313720703125,-0.005747634451836348,0.0010839065071195364,-0.02263047732412815
1690842044513354800,4.719354736328125,-0.003910852130502462,0.0007022755453363061,-0.02677781879901886
1690842044523394600,4.72939453125,-0.004299141000956297,0.0012897689593955874,-0.027214577421545982
1690842044533434600,4.7394345703125,-0.00418489146977663,-0.0033814155030995607,-0.028870796784758568
1690842044543474700,4.749474609375,-0.0046813045628368855,-0.0031521173659712076,-0.0259889904409647
1690842044553515800,4.759515869140625,-0.005062402691692114,-0.005359877832233906,-0.027208983898162842
1690842044563555800,4.769555908203125,-0.004706338047981262,-0.0033899378031492233,-0.022580675780773163
1690842044573595600,4.779595703125,-0.004066380672156811,-0.0021702100057154894,-0.021375330165028572
1690842044583635700,4.7896357421875,-0.005658418405801058,-0.002972087822854519,-0.019781693816184998
1690842044593676800,4.7996767578125,-0.004825647920370102,-0.0016309198690578341,-0.017167001962661743
1690842044603716600,4.809716552734375,-0.004530835896730423,0.0007041397620923817,-0.01631212793290615
1690842044613756700,4.819756591796875,-0.00529622845351696,-0.0006351639167405665,-0.015459117479622364
1690842044623797800,4.8297978515625,-0.004340686369687319,-0.0021015002857893705,-0.01684609241783619
1690842044633867800,4.83986767578125,-0.0044410875998437405,-0.0023307986557483673,-0.017681526020169258
1690842044643908900,4.849908935546875,-0.0040796962566673756,-0.0035446672700345516,-0.020593425258994102
1690842044653948700,4.85994873046875,-0.0057593523524701595,-0.0007249124464578927,-0.022243253886699677
1690842044663988500,4.869988525390625,-0.005679457448422909,-0.0016929714474827051,-0.022249378263950348
1690842044674029600,4.880029541015625,-0.003555319970473647,-0.004403803031891584,-0.02522040158510208
1690842044684069600,4.890069580078125,-0.005062935408204794,0.00007243797881528735,-0.02514876239001751
1690842044694109700,4.900109619140625,-0.005724464543163776,-0.0010721886064857244,-0.025127191096544266
1690842044704149800,4.910149658203125,-0.00515907583758235,-0.00046924897469580173,-0.02346005290746689
1690842044714190800,4.92019091796875,-0.004394748248159885,-0.0021555626299232244,-0.024053404107689857
1690842044724230700,4.930230712890625,-0.0046152579598128796,-0.002145442645996809,-0.020661069080233574
1690842044734270700,4.940270751953125,-0.0046730488538742065,-0.002531068166717887,-0.01961418054997921
1690842044744311800,4.950311767578125,-0.005758286919444799,-0.003600327530875802,-0.019721239805221558
1690842044754351600,4.9603515625,-0.004346012603491545,-0.001558748190291226,-0.018150508403778076
1690842044764391700,4.9703916015625,-0.004160390235483646,-0.002326271263882518,-0.01961950771510601
1690842044774431700,4.980431640625,-0.007121026515960693,-0.0014476943761110306,-0.016769925132393837
1690842044784502800,4.990502685546875,-0.005169994663447142,-0.002100967802107334,-0.017764350399374962
1690842044794542800,5.00054296875,-0.0041193775832653046,-0.0011241203173995018,-0.020548418164253235
1690842044804583700,5.010583740234375,-0.003138535423204303,0.0009273127070628107,-0.01955505833029747
1690842044814623500,5.02062353515625,-0.0038400120101869106,-0.000731836655177176,-0.021092768758535385
1690842044824663600,5.03066357421875,-0.006168413441628218,-0.0010247844038531184,-0.022848058491945267
1690842044834704600,5.04070458984375,-0.0056922403164207935,-0.005697567015886307,-0.024026239290833473
1690842044844744700,5.05074462890625,-0.004504204262048006,-0.005299957003444433,-0.02581402100622654
1690842044854784800,5.06078466796875,-0.003955060616135597,-0.0013781858142465353,-0.020851485431194305
1690842044864824800,5.070824951171875,-0.006465089973062277,-0.0006804376607760787,-0.02165176533162594
1690842044874865700,5.08086572265625,-0.0044259075075387955,-0.0008175904513336718,-0.01907782070338726
1690842044884905700,5.09090576171875,-0.005481318105012178,0.000020506340661086142,-0.018515095114707947
1690842044894945500,5.100945556640625,-0.00606348505243659,0.00015100123709999025,-0.018332934007048607
1690842044904986600,5.110986572265625,-0.005782255437225103,-0.0014226606581360102,-0.019154252484440804
1690842044915026700,5.121026611328125,-0.004258926957845688,-0.0027108315844088793,-0.01865704171359539
1690842044925066800,5.131066650390625,-0.004977447912096977,-0.0018125474452972412,-0.0208128709346056
1690842044935137800,5.1411376953125,-0.00436012726277113,-0.002150236163288355,-0.02143045701086521
1690842044945177900,5.151177734375,-0.0038927425630390644,-0.002796851797029376,-0.02214737981557846
1690842044955218700,5.16121875,-0.005632585845887661,-0.002067678142338991,-0.021314077079296112
1690842044965258500,5.171258544921875,-0.005140167195349932,-0.002989398315548897,-0.02064269408583641
1690842044975298600,5.181298583984375,-0.003798999357968569,-0.0020210728980600834,-0.02178172767162323
1690842044985338600,5.191338623046875,-0.005123123060911894,-0.0016698020044714212,-0.018818162381649017
1690842044995381000,5.201381103515625,-0.005219263024628162,-0.0011584750609472394,-0.019300460815429688
1690842045005421000,5.211421142578125,-0.005544168874621391,-0.0013880395563319325,-0.021828332915902138
1690842045015461000,5.221461181640625,-0.004492752719670534,-0.0013582120882347226,-0.020412331447005272
1690842045025502200,5.231502197265625,-0.006172674708068371,-0.0020514330826699734,-0.020172646269202232
1690842045035542300,5.241542236328125,-0.004613660275936127,-0.001472461735829711,-0.0225649643689394
1690842045045582300,5.251582275390625,-0.0052472264505922794,-0.0017560884589329362,-0.0228738896548748
1690842045055622100,5.2616220703125,-0.005600627511739731,-0.003326021833345294,-0.020188359543681145
1690842045065663000,5.2716630859375,-0.00504003232344985,-0.004722317215055227,-0.021256286650896072
1690842045075703000,5.281703125,-0.006473345682024956,-0.002267681760713458,-0.019950006157159805
1690842045085774000,5.291774169921875,-0.005197691265493631,-0.004698881413787603,-0.02046293020248413
1690842045095814100,5.301814208984375,-0.004049070179462433,-0.0013347762869670987,-0.019391540437936783
1690842045105854200,5.311854248046875,-0.004922853317111731,-0.001058872789144516,-0.01961764320731163
1690842045115895300,5.321895263671875,-0.00487172044813633,0.0011880361707881093,-0.019409384578466415
1690842045125935400,5.331935302734375,-0.004588892683386803,-0.001725728390738368,-0.021765749901533127
1690842045135975200,5.34197509765625,-0.0034999263007193804,-0.0012474246323108673,-0.02262461930513382
1690842045146015200,5.35201513671875,-0.00603392394259572,-0.0002492718631401658,-0.0202818363904953
1690842045156056000,5.36205615234375,-0.004631769843399525,-0.002998719457536936,-0.02371544949710369
1690842045166096100,5.37209619140625,-0.0052080778405070305,-0.0017259946325793862,-0.021770808845758438
1690842045176136200,5.38213623046875,-0.005658684764057398,-0.0034013893455266953,-0.01985146850347519
1690842045186177300,5.39217724609375,-0.004245611373335123,-0.0012602078495547175,-0.019062906503677368
1690842045196217300,5.40221728515625,-0.003999002743512392,-0.0017875137273222208,-0.022166555747389793
1690842045206257200,5.412257080078125,-0.005105279851704836,-0.001341700553894043,-0.020426711067557335
1690842045216297200,5.422297119140625,-0.006485063582658768,-0.001241033081896603,-0.019537216052412987
1690842045226338000,5.432338134765625,-0.0036876790691167116,-0.0029739518649876118,-0.02160675823688507
1690842045236408300,5.442408203125,-0.005087969359010458,-0.0008186557097360492,-0.020372383296489716
1690842045246449200,5.45244921875,-0.005117796827107668,-0.0008077367674559355,-0.02155349589884281
1690842045256489200,5.4624892578125,-0.0032959282398223877,0.0001627191377338022,-0.02256469801068306
1690842045266529000,5.472529052734375,-0.003431216813623905,-0.0012937636347487569,-0.02040114626288414
1690842045276570000,5.482570068359375,-0.0030546458438038826,-0.0024410535115748644,-0.021458154544234276
1690842045286610200,5.492610107421875,-0.006126868538558483,-0.0035081820096820593,-0.022307436913251877
1690842045296650200,5.502650146484375,-0.005811283830553293,-0.0009675264009274542,-0.02075081877410412
1690842045306690300,5.512690185546875,-0.00301709515042603,-0.00022956448083277792,-0.021501563489437103
1690842045316731100,5.522731201171875,-0.004593686666339636,-0.002721750643104315,-0.021157216280698776
1690842045326771200,5.532771240234375,-0.004314853344112635,-0.001770203118212521,-0.021561484783887863
1690842045336811300,5.542811279296875,-0.0054245926439762115,-0.0007922904333099723,-0.021761221811175346
1690842045346852400,5.552852294921875,-0.004022438544780016,-0.0009150621481239796,-0.02177693508565426
1690842045356892200,5.56289208984375,-0.0038959383964538574,-0.0011163970921188593,-0.020108463242650032
1690842045366932200,5.57293212890625,-0.004203000571578741,-0.000553404854144901,-0.020244551822543144
1690842045376972300,5.58297216796875,-0.004429901950061321,-0.0006916229031048715,-0.020439494401216507
1690842045387013000,5.59301318359375,-0.004991030320525169,-0.0014711301773786545,-0.019845610484480858
1690842045397084200,5.603084228515625,-0.003879426745697856,-0.0022599585354328156,-0.02034308761358261
1690842045407124200,5.613124267578125,-0.0049409628845751286,-0.0012665993999689817,-0.019826434552669525
1690842045417164000,5.6231640625,-0.0046538738533854485,-0.0015510249650105834,-0.020232833921909332
1690842045427204000,5.6332041015625,-0.006556968670338392,-0.0019971043802797794,-0.02069542557001114
1690842045437245200,5.6432451171875,-0.005389438942074776,-0.003108974313363433,-0.02383103035390377
1690842045447285200,5.65328515625,-0.003947070799767971,-0.0009893643436953425,-0.019097793847322464
1690842045457325300,5.6633251953125,-0.0041033984161913395,0.000017843178284238093,-0.021352693438529968
1690842045467366100,5.6733662109375,-0.004193679895251989,-0.0015472965314984322,-0.021197697147727013
1690842045477406200,5.68340625,-0.00552126532420516,-0.0014591459184885025,-0.02105734869837761
1690842045487446300,5.6934462890625,-0.005023520905524492,-0.0019001654582098126,-0.019829098135232925
1690842045497486000,5.703486083984375,-0.005030711181461811,-0.004780107643455267,-0.02327975630760193
1690842045507527200,5.713527099609375,-0.0038181741256266832,-0.0009853695519268513,-0.02286084182560444
1690842045517567200,5.723567138671875,-0.00526666734367609,-0.0023752732668071985,-0.02053030952811241
1690842045527607300,5.733607177734375,-0.003656253917142749,-0.0028660940006375313,-0.021031249314546585
1690842045537648000,5.743648193359375,-0.005258411634713411,-0.0034551850985735655,-0.020186761394143105
1690842045547718400,5.753718505859375,-0.005191033706068993,0.000143544384627603,-0.01948581635951996
1690842045557759200,5.76375927734375,-0.0027355989441275597,-0.002621349412947893,-0.022878417745232582
1690842045567799000,5.773799072265625,-0.004553472623229027,-0.002120675053447485,-0.020959077402949333
1690842045577839000,5.783839111328125,-0.005249356850981712,-0.0018929748330265284,-0.020987041294574738
1690842045587879200,5.793879150390625,-0.0033867419697344303,-0.002144377212971449,-0.021569207310676575
1690842045597920300,5.803920166015625,-0.005315402988344431,-0.0025009745731949806,-0.021526863798499107
1690842045607960300,5.813960205078125,-0.005315136630088091,-0.0022101574577391148,-0.020208066329360008
1690842045618000400,5.82400048828125,-0.005504753906279802,-0.003290601773187518,-0.01992177590727806
1690842045628041200,5.834041259765625,-0.0051995557732880116,-0.0012543488992378116,-0.0211204644292593
1690842045638081300,5.844081298828125,-0.005334311630576849,-0.0030802120454609394,-0.02202940173447132
1690842045648121000,5.85412109375,-0.00381391285918653,-0.0014253237750381231,-0.01998302899301052
1690842045658161200,5.8641611328125,-0.00455800024792552,-0.0035510589368641376,-0.02141554281115532
1690842045668202200,5.8742021484375,-0.0057473680935800076,-0.0043891556560993195,-0.020964404568076134
1690842045678242300,5.8842421875,-0.004968659486621618,-0.0025185514241456985,-0.019183814525604248
1690842045688282400,5.894282470703125,-0.002796851797029376,-0.0003028014034498483,-0.020327109843492508
1690842045698353400,5.904353515625,-0.00515721132978797,-0.00455773388966918,-0.019039737060666084
1690842045708393200,5.914393310546875,-0.005426457151770592,-0.0008194546680897474,-0.02021099627017975
1690842045718434000,5.92443408203125,-0.00538571085780859,-0.0028099012561142445,-0.022520221769809723
1690842045728474000,5.93447412109375,-0.004758003633469343,-0.0005789712304249406,-0.020627513527870178
1690842045738514200,5.94451416015625,-0.006834203843027353,-0.0007669904152862728,-0.021854965016245842
1690842045748554200,5.95455419921875,-0.0046669235453009605,-0.0011779161868616939,-0.021762020885944366
1690842045758595300,5.96459521484375,-0.005632319487631321,-0.0023180153220891953,-0.02159024588763714
1690842045768635400,5.974635498046875,-0.0054094125516712666,-0.001181644620373845,-0.021226191893219948
1690842045778675200,5.98467529296875,-0.004926049150526524,-0.0036479979753494263,-0.02040434069931507
1690842045788716300,5.99471630859375,-0.0048890309408307076,-0.002779274946078658,-0.02268613688647747
1690842045798756000,6.004756103515625,-0.005543369799852371,-0.0012263857061043382,-0.02251436375081539
1690842045808796200,6.014796142578125,-0.005518868565559387,-0.0035430695861577988,-0.01949167624115944
1690842045818836200,6.024836181640625,-0.00506985979154706,-0.00017443705291952938,-0.019763851538300514
1690842045828877300,6.034877197265625,-0.00506906071677804,-0.0015334481140598655,-0.021338578313589096
1690842045838917400,6.04491748046875,-0.004652542527765036,-0.0014945659786462784,-0.020970528945326805
1690842045848988400,6.054988525390625,-0.003939347807317972,-0.002130528911948204,-0.0211257915943861
1690842045859028200,6.0650283203125,-0.005822735372930765,-0.002670884132385254,-0.01974334381520748
1690842045869068000,6.075068115234375,-0.003849599277600646,-0.0032325449865311384,-0.02051379717886448
1690842045879109000,6.085109130859375,-0.005136172287166119,-0.0016652746126055717,-0.021084778010845184
1690842045889149200,6.095149169921875,-0.0054213968105614185,-0.0008761800127103925,-0.023001722991466522
1690842045899189200,6.105189208984375,-0.0051622712053358555,-0.0030892668291926384,-0.021597970277071
1690842045909230300,6.115230224609375,-0.005660282447934151,-0.0022327941842377186,-0.02117692492902279
1690842045919270400,6.1252705078125,-0.0057340520434081554,-0.00022290658671408892,-0.02045733854174614
1690842045929310200,6.135310302734375,-0.006354035809636116,-0.0021441110875457525,-0.02203366346657276
1690842045939350000,6.14535009765625,-0.004990231245756149,-0.0014559502014890313,-0.018504442647099495
1690842045949391000,6.15539111328125,-0.0038011297583580017,-0.0015310513554140925,-0.02214205451309681
1690842045959431200,6.16543115234375,-0.004734035115689039,-0.002956375014036894,-0.022066419944167137
1690842045969471200,6.17547119140625,-0.003825897118076682,-0.00009667274571256712,-0.020437363535165787
1690842045979512300,6.18551220703125,-0.004947620443999767,-0.003856257302686572,-0.02124430239200592
1690842045989545700,6.195545654296875,-0.004998753312975168,-0.0016013587592169642,-0.01998915523290634
1690842045999585800,6.205585693359375,-0.0059774648398160934,-0.0023465112317353487,-0.020189158618450165
1690842046009656800,6.21565673828125,-0.0038093857001513243,-0.0036304211243987083,-0.021437646821141243
1690842046019697000,6.22569677734375,-0.0037950044497847557,-0.00007243797881528735,-0.01998009905219078
1690842046029736700,6.23573681640625,-0.005297559779137373,-0.003162770066410303,-0.022618493065238
1690842046039777800,6.24577783203125,-0.005510612856596708,-0.002900714986026287,-0.02069302834570408
1690842046049817900,6.25581787109375,-0.005195028148591518,-0.0009574064170010388,-0.020730579271912575
1690842046059858000,6.26585791015625,-0.0036461339332163334,-0.004021373111754656,-0.02197454124689102
1690842046069898800,6.275898681640625,-0.005309011787176132,-0.0013888385146856308,-0.02130981534719467
1690842046079938800,6.285938720703125,-0.00603392394259572,-0.0012221246724948287,-0.022726884111762047
1690842046089979000,6.295978759765625,-0.0046213832683861256,0.00025353292585350573,-0.02141980454325676
1690842046100019000,6.30601904296875,-0.005687713157385588,-0.002663427498191595,-0.021829664707183838
1690842046110060000,6.31606005859375,-0.005046956706792116,-0.0017891116440296173,-0.019930565729737282
1690842046120099800,6.326099853515625,-0.0046570696868002415,-0.002683933824300766,-0.02141660824418068
1690842046130140000,6.336139892578125,-0.005512476898729801,-0.0011800467036664486,-0.021754032000899315
1690842046140180700,6.3461806640625,-0.004854676313698292,-0.0006940197781659663,-0.020051738247275352
1690842046150220800,6.356220703125,-0.004881840664893389,-0.002739860210567713,-0.02040620520710945
1690842046160291800,6.366291748046875,-0.004053330980241299,-0.003778493031859398,-0.020441625267267227
1690842046170332000,6.376331787109375,-0.0030024477746337652,-0.0027233485598117113,-0.020780645310878754
1690842046180371700,6.386371826171875,-0.003985154442489147,-0.0014839133946225047,-0.02160249650478363
1690842046190412800,6.396412841796875,-0.005769205745309591,-0.0007390272221527994,-0.021456023678183556
1690842046200452900,6.406452880859375,-0.0025939189363271,-0.001817607437260449,-0.02045600675046444
1690842046210493000,6.416492919921875,-0.004111920483410358,0.00011664645717246458,-0.020716996863484383
1690842046220533000,6.426532958984375,-0.003976099658757448,-0.0013616742799058557,-0.01991218887269497
1690842046230573800,6.43657373046875,-0.004333229269832373,-0.0012250541476532817,-0.018745724111795425
1690842046240614000,6.44661376953125,-0.004503671545535326,-0.0009084042394533753,-0.020242154598236084
1690842046250654000,6.456654052734375,-0.0043931505642831326,-0.0018679412314668298,-0.019881563261151314
1690842046260693800,6.46669384765625,-0.005843774415552616,-0.0013992248568683863,-0.020838702097535133
1690842046270734800,6.47673486328125,-0.0054938350804150105,0.000017843178284238093,-0.019751334562897682
1690842046280775000,6.48677490234375,-0.005151086021214724,-0.003200853243470192,-0.019245067611336708
1690842046290815000,6.49681494140625,-0.004491687286645174,-0.0007137271459214389,-0.02027331292629242
1690842046300855800,6.506855712890625,-0.0057471017353236675,-0.0013928331900388002,-0.02143019065260887
1690842046310926000,6.516926025390625,-0.004821919370442629,-0.0015912387752905488,-0.02184617705643177
1690842046320967000,6.526966796875,-0.004295412451028824,-0.0010604707058519125,-0.021571870893239975
1690842046331006700,6.5370068359375,-0.005543369799852371,-0.0024165522772818804,-0.021374264732003212
1690842046341046800,6.547046875,-0.0035428032279014587,-0.002031192881986499,-0.02130821719765663
1690842046351087900,6.557087890625,-0.005693305749446154,-0.002332396572455764,-0.02183765359222889
1690842046361128000,6.5671279296875,-0.0067820060066878796,-0.002412291243672371,-0.02021951787173748
1690842046371168000,6.57716796875,-0.005675995256751776,-0.0020754013676196337,-0.02099609561264515
1690842046381208000,6.5872080078125,-0.005327387247234583,-0.0037942056078463793,-0.02100089006125927
1690842046391249000,6.597248779296875,-0.0044115264900028706,0.00043276368523947895,-0.021389711648225784
1690842046401288700,6.607288818359375,-0.005119927227497101,-0.00007776429993100464,-0.01996731571853161
1690842046411328800,6.617328857421875,-0.005438707303255796,-0.0024740765802562237,-0.020955082029104233
1690842046421369900,6.627369873046875,-0.003549194661900401,0.003043194068595767,-0.020190222188830376
1690842046431410000,6.637409912109375,-0.004759601317346096,-0.002971821464598179,-0.020081566646695137
1690842046441450000,6.647449951171875,-0.004638161510229111,-0.001035436987876892,-0.02227175049483776
1690842046451490000,6.657489990234375,-0.0036578518338501453,-0.0004183826094958931,-0.0205747839063406
1690842046461561000,6.66756103515625,-0.004455202259123325,-0.0008876316132955253,-0.021566012874245644
1690842046471601000,6.677600830078125,-0.0041792988777160645,-0.0026698189321905375,-0.0215351190418005
1690842046481641700,6.687641845703125,-0.004189152270555496,-0.0023374564480036497,-0.02117585949599743
1690842046491681800,6.697681884765625,-0.0052107409574091434,-0.0049135321751236916,-0.021695442497730255
1690842046501721900,6.707721923828125,-0.00430260319262743,-0.0010343717876821756,-0.01996598392724991
1690842046511763000,6.717762939453125,-0.005434712860733271,-0.002310824813321233,-0.020970528945326805
1690842046521803000,6.727802978515625,-0.0028780782595276833,-0.0013193299528211355,-0.02172260545194149
1690842046531843000,6.737843017578125,-0.005770537536591291,-0.003221892286092043,-0.021770009770989418
1690842046541883000,6.7478828125,-0.004030161537230015,-0.002282329136505723,-0.02008902281522751
1690842046551923700,6.757923828125,-0.00264771468937397,-0.0008404936525039375,-0.023494407534599304
1690842046561963800,6.7679638671875,-0.0041071269661188126,-0.002231462625786662,-0.021856030449271202
1690842046572003800,6.77800390625,-0.003826962551102042,-0.0014213290996849537,-0.02286723256111145
1690842046582045000,6.788044921875,-0.0035633095540106297,-0.0014705975772812963,-0.02269173040986061
1690842046592085000,6.7980849609375,-0.005416070576757193,-0.0000476705827168189,-0.0208261851221323
1690842046602125000,6.808125,-0.0054363105446100235,-0.00033902039285749197,-0.02076599933207035
1690842046612164900,6.818164794921875,-0.005672799423336983,-0.0019017633749172091,-0.020958278328180313
1690842046622235600,6.828235595703125,-0.005465605296194553,-0.0018370485631749034,-0.02160649187862873
1690842046632276700,6.83827685546875,-0.004848551005125046,-0.0015686018159613013,-0.021252823993563652
1690842046642316800,6.84831689453125,-0.004335093777626753,-0.004178499802947044,-0.01901603490114212
1690842046652356900,6.85835693359375,-0.005245894659310579,-0.003748665563762188,-0.020122578367590904
1690842046662397000,6.86839697265625,-0.0037859496660530567,-0.0006958839949220419,-0.02268240973353386
1690842046672438000,6.87843798828125,-0.00481259822845459,-0.0006133259739726782,-0.02185096964240074
1690842046682477800,6.888477783203125,-0.004298075567930937,-0.0015773903578519821,-0.020902086049318314
1690842046692517600,6.898517578125,-0.004715659189969301,-0.00009880327706923708,-0.0196839552372694
1690842046702557700,6.9085576171875,-0.0037377465050667524,-0.0021076255943626165,-0.021208882331848145
1690842046712598800,6.918598876953125,-0.003885019337758422,-0.002662095706909895,-0.022340992465615273
1690842046722638800,6.928638916015625,-0.004210990387946367,-0.000666322885081172,-0.020611535757780075
1690842046732679000,6.938678955078125,-0.004467452876269817,0.0001661812566453591,-0.02165735885500908
1690842046742720000,6.948719970703125,-0.004563592839986086,-0.0033159018494188786,-0.02159504033625126
1690842046752759800,6.958759765625,-0.005027515348047018,-0.0013486248208209872,-0.021149493753910065
1690842046762799900,6.9687998046875,-0.006459497381001711,-0.0022570290602743626,-0.020109528675675392
1690842046772870700,6.97887060546875,-0.004743888974189758,-0.002213353058323264,-0.01996704936027527
1690842046782910700,6.98891064453125,-0.005347627215087414,-0.002662628423422575,-0.021632058545947075
1690842046792951800,6.998951904296875,-0.006131395697593689,-0.0028783443849533796,-0.021140173077583313
1690842046802991900,7.008991943359375,-0.006280266214162111,-0.001675128354690969,-0.021091170608997345
1690842046813032000,7.019031982421875,-0.003739078063517809,-0.0008777778712101281,-0.02076839469373226
1690842046823072000,7.029072021484375,-0.004765992984175682,-0.0027776770293712616,-0.019823506474494934
1690842046833112800,7.03911279296875,-0.005723399575799704,-0.0017925737192854285,-0.021165207028388977
1690842046843152600,7.049152587890625,-0.005589442327618599,-0.0021766014397144318,-0.021465877071022987
1690842046853192700,7.059192626953125,-0.005681055132299662,-0.0026847326662391424,-0.02161101996898651
1690842046863233800,7.06923388671875,-0.005063201766461134,0.0001781654718797654,-0.020000074058771133
1690842046873273900,7.07927392578125,-0.00501153664663434,-0.0016508935950696468,-0.021742580458521843
1690842046883314000,7.08931396484375,-0.0041100564412772655,-0.0013962953817099333,-0.020016584545373917
1690842046893354000,7.09935400390625,-0.003792874049395323,-0.0007755124825052917,-0.021463213488459587
1690842046903394800,7.109394775390625,-0.0041587925516068935,-0.0037670412566512823,-0.022538598626852036
1690842046913435000,7.119434814453125,-0.005044559482485056,-0.0027089675422757864,-0.020176908001303673
1690842046923505700,7.129505615234375,-0.00558198569342494,-0.002907373011112213,-0.020746557042002678
1690842046933545700,7.139545654296875,-0.006600112188607454,-0.0011291803093627095,-0.02111886814236641
1690842046943585800,7.149585693359375,-0.003694869577884674,-0.0023638217244297266,-0.020964937284588814
1690842046953627000,7.159626953125,-0.004536428488790989,0.001859419047832489,-0.017777664586901665
1690842046963667000,7.1696669921875,-0.004735366906970739,-0.0013757890556007624,-0.020230170339345932
1690842046973707000,7.17970703125,-0.004229632206261158,-0.0007928230334073305,-0.01998009905219078
1690842046983746800,7.189746826171875,-0.004716724622994661,-0.0017797905020415783,-0.01919739693403244
1690842046993784800,7.199784912109375,-0.005693039391189814,-0.0013989584986120462,-0.021316740661859512
1690842047003824600,7.20982470703125,-0.004233360756188631,-0.0010104032699018717,-0.01997796818614006
1690842047013864700,7.21986474609375,-0.005078914575278759,-0.0018170748371630907,-0.021033912897109985
1690842047023905800,7.22990576171875,-0.004998486954718828,-0.002061553066596389,-0.019846942275762558
1690842047033945900,7.23994580078125,-0.00418276060372591,-0.002032258315011859,-0.020722854882478714
1690842047043986000,7.24998583984375,-0.0037734329234808683,-0.00270683690905571,-0.023274162784218788
1690842047054026000,7.26002587890625,-0.00384374032728374,0.00002370213405811228,-0.02269359491765499
1690842047064066800,7.27006689453125,-0.004205664154142141,-0.0026636936236172915,-0.020498350262641907
1690842047074107000,7.28010693359375,-0.005440571811050177,-0.0028216191567480564,-0.0205092690885067
1690842047084177700,7.290177734375,-0.005450425669550896,-0.0032431974541395903,-0.020684771239757538
1690842047094217700,7.3002177734375,-0.005555354058742523,-0.0036876790691167116,-0.01980060338973999
1690842047104257800,7.3102578125,-0.005468002520501614,-0.0016335829859599471,-0.021383052691817284
1690842047114299000,7.320298828125,-0.003869839245453477,-0.003687146585434675,-0.02178598940372467
1690842047124339000,7.3303388671875,-0.005452289711683989,-0.0015723302494734526,-0.019664781168103218
1690842047134379000,7.34037890625,-0.004581169690936804,-0.0016186692519113421,-0.019214706495404243
1690842047144419800,7.350419921875,-0.00379021093249321,-0.00016777914424892515,-0.021137509495019913
1690842047154459600,7.360459716796875,-0.004199006129056215,-0.0029406624380499125,-0.020919661968946457
1690842047164499700,7.370499755859375,-0.00498064374551177,-0.003515905234962702,-0.020555075258016586
1690842047174539800,7.380539794921875,-0.006727677304297686,-0.001996039180085063,-0.020054401829838753
1690842047184580900,7.390580810546875,-0.00472444761544466,-0.0013398362789303064,-0.022421952337026596
1690842047194621000,7.400620849609375,-0.004304200876504183,-0.0024714134633541107,-0.02112366072833538
1690842047204661000,7.410660888671875,-0.0038517299108207226,-0.0012189288390800357,-0.021808359771966934
1690842047214701000,7.420701171875,-0.005578789860010147,-0.0008013451588340104,-0.02033110335469246
1690842047224742000,7.430741943359375,-0.0037766287568956614,-0.0019358517602086067,-0.019405389204621315
1690842047234812700,7.440812744140625,-0.004993693437427282,-0.002812031889334321,-0.021087441593408585
1690842047244852700,7.450852783203125,-0.004322310443967581,-0.0026873957831412554,-0.020135361701250076
1690842047254892800,7.460892822265625,-0.005459479987621307,-0.002365153282880783,-0.022046180441975594
1690842047264932900,7.470932861328125,-0.004722583573311567,-0.0010333064710721374,-0.021643776446580887
1690842047274974000,7.480973876953125,-0.0054602790623903275,-0.0017773937433958054,-0.022610504180192947
1690842047285014000,7.491013916015625,-0.006554305553436279,-0.0011728560784831643,-0.021287977695465088
1690842047295053800,7.5010537109375,-0.004507400095462799,-0.001371527905575931,-0.021511416882276535
1690842047305094700,7.5110947265625,-0.004449076950550079,-0.0015030881622806191,-0.020005932077765465
1690842047315134700,7.521134765625,-0.004890629090368748,-0.0015510249650105834,-0.0201066005975008
1690842047325174800,7.5311748046875,-0.0037294907961040735,-0.0017164073651656508,-0.018996328115463257
1690842047335214800,7.54121484375,-0.002811232814565301,-0.0006985471700318158,-0.020736703649163246
1690842047345256000,7.551255859375,-0.0037121803034096956,-0.0020793962758034468,-0.020863736048340797
1690842047355296000,7.5612958984375,-0.00490208063274622,-0.0027739484794437885,-0.021626465022563934
1690842047365336000,7.571336181640625,-0.005663744639605284,-0.0023635553661733866,-0.021864285692572594
1690842047375377000,7.581376953125,-0.0055817193351686,-0.001871136948466301,-0.02047092095017433
1690842047385447000,7.591447021484375,-0.005364938173443079,-0.0016293219523504376,-0.021406222134828568
1690842047395487700,7.60148779296875,-0.004721784498542547,-0.0008602010202594101,-0.021931396797299385
1690842047405527800,7.61152783203125,-0.004142280668020248,-0.0004540689697023481,-0.020915135741233826
1690842047415568000,7.62156787109375,-0.0037774275988340378,0.0034735610242933035,-0.01708870567381382
1690842047425608000,7.63160791015625,-0.004838164895772934,-0.003367567202076316,-0.020317256450653076
1690842047435649000,7.64164892578125,-0.004869590047746897,-0.00048389637959189713,-0.02082432247698307
1690842047445688800,7.651688720703125,-0.005037635564804077,-0.0010128001449629664,-0.019948940724134445
1690842047455729000,7.66172900390625,-0.005024053156375885,-0.0031127026304602623,-0.017849836498498917
1690842047465769700,7.671769775390625,-0.0038365498185157776,-0.002365153282880783,-0.021758824586868286
1690842047475809800,7.681809814453125,-0.0035899411886930466,-0.0036245621740818024,-0.021342573687434196
1690842047485849900,7.691849853515625,-0.004443218000233173,-0.0019590212032198906,-0.019871443510055542
1690842047495890000,7.701889892578125,-0.0037326866295188665,-0.0022540995851159096,-0.021455757319927216
1690842047505931000,7.711930908203125,-0.0032373385038226843,-0.0008058725506998599,-0.020854948088526726
1690842047515970800,7.721970703125,-0.00506906071677804,-0.0005720470217056572,-0.021929267793893814
1690842047526010600,7.7320107421875,-0.004311657976359129,-0.0019451729021966457,-0.022064555436372757
1690842047536051700,7.7420517578125,-0.0041121868416666985,-0.003549461020156741,-0.020266655832529068
1690842047546121700,7.752121826171875,-0.005060005933046341,-0.003840810852125287,-0.021500231698155403
1690842047556162800,7.762162841796875,-0.0046453517861664295,-0.0020596887916326523,-0.01992950029671192
1690842047566203000,7.772202880859375,-0.0041340249590575695,-0.0014769891276955605,-0.021691447123885155
1690842047576243000,7.782242919921875,-0.003719370812177658,-0.002123604528605938,-0.021285846829414368
1690842047586284000,7.792283935546875,-0.005109540652483702,-0.0010479538468644023,-0.020564131438732147
1690842047596323800,7.80232373046875,-0.006262157112360001,-0.001746234716847539,-0.02021312527358532
1690842047606363600,7.81236376953125,-0.004599545616656542,-0.001145159243606031,-0.02058383822441101
1690842047616403700,7.82240380859375,-0.003742806613445282,-0.0023872575256973505,-0.02027943916618824
1690842047626444800,7.83244482421875,-0.004826446995139122,-0.00276196445338428,-0.02124004065990448
1690842047636484900,7.84248486328125,-0.004525243304669857,-0.0030067088082432747,-0.021516744047403336
1690842047646525000,7.85252490234375,-0.005662412848323584,-0.002457564929500222,-0.021574800834059715
1690842047656566000,7.86256591796875,-0.0054301852360367775,-0.00045300371129997075,-0.022581741213798523
1690842047666605800,7.872605712890625,-0.0038511971943080425,-0.0014319816837087274,-0.021196098998188972
1690842047676645600,7.882645751953125,-0.005535114090889692,-0.002552906284108758,-0.018850918859243393
1690842047686685700,7.892685791015625,-0.004965197294950485,-0.0021225393284112215,-0.021345235407352448
1690842047696756700,7.9027568359375,-0.005369731690734625,-0.003315103007480502,-0.019935624673962593
1690842047706796800,7.912796875,-0.0036906085442751646,-0.003157177474349737,-0.021095165982842445
1690842047716838000,7.922837890625,-0.003932157531380653,-0.0028304075822234154,-0.021506890654563904
1690842047726878000,7.9328779296875,-0.00469488650560379,-0.0011089402250945568,-0.021044565364718437
1690842047736917800,7.942917724609375,-0.004956408869475126,-0.00041545313433744013,-0.019465310499072075
1690842047746958800,7.952958740234375,-0.004483697935938835,-0.0035265579354017973,-0.02100009098649025
1690842047756998700,7.96299853515625,-0.006813164800405502,-0.0013771206140518188,-0.02100887894630432
1690842047767038700,7.973038818359375,-0.004859203472733498,-0.0018434401135891676,-0.02016252651810646
1690842047777078800,7.983078857421875,-0.006816360633820295,-0.0019893813878297806,-0.020847758278250694
1690842047787119900,7.993119873046875,-0.0030306773260235786,-0.001996838254854083,-0.019098060205578804
1690842047797160000,8.003159912109375,-0.006130064371973276,-0.0020061591640114784,-0.022169750183820724
1690842047807199700,8.01319970703125,-0.005387308541685343,-0.003366768127307296,-0.020871993154287338
1690842047817240800,8.02324072265625,-0.0049034119583666325,-0.0007065366371534765,-0.018805645406246185
1690842047827280600,8.03328076171875,-0.004493019077926874,-0.0017454357584938407,-0.018983811140060425
1690842047837320700,8.04332080078125,-0.004255198873579502,-0.0009984191274270415,-0.01997051201760769
1690842047847391700,8.053391845703125,-0.004270112607628107,-0.0010271812789142132,-0.02088237926363945
1690842047857431800,8.063431884765626,-0.004273840691894293,-0.0016998957144096494,-0.019869312644004822
1690842047867472000,8.073471923828125,-0.004594219382852316,-0.0033718282356858253,-0.019889552146196365
1690842047877513000,8.083512939453126,-0.005055212415754795,-0.0042719766497612,-0.01991165615618229
1690842047887552800,8.093552734375,-0.0036282907240092754,-0.0007459514308720827,-0.0202163215726614
1690842047897592800,8.1035927734375,-0.0054669370874762535,-0.0008972189389169216,-0.022296782582998276
1690842047907633700,8.113633544921875,-0.004699414130300283,-0.0033960631117224693,-0.022666962817311287
1690842047917673700,8.123673828125,-0.005286907311528921,-0.0026410568971186876,-0.021936723962426186
1690842047927713800,8.1337138671875,-0.00436012726277113,0.001270061475224793,-0.021434985101222992
1690842047937753900,8.14375390625,-0.004147074185311794,-0.001511610229499638,-0.02184617705643177
1690842047947795000,8.153794921875,-0.004826180636882782,-0.002782470779493451,-0.020252540707588196
1690842047957834800,8.163834716796876,-0.005106611177325249,-0.002228533150628209,-0.022490395233035088
1690842047967874800,8.173874755859375,0.004399542231112719,-0.25062236189842224,0.003058640519157052
1690842047977915600,8.18391552734375,-0.0016157397767528892,-0.27542412281036377,-0.18708573281764984
1690842047987955700,8.193955810546875,-0.01811349019408226,0.036559343338012695,-0.17464691400527954
1690842047998009600,8.204009521484375,-0.02015160769224167,0.039331160485744476,-0.11223359405994415
1690842048008049700,8.214049560546876,-0.01070910319685936,0.023331953212618828,-0.030250580981373787
1690842048018089700,8.22408984375,0.002734001260250807,0.03363838791847229,0.04470914974808693
1690842048028130800,8.234130859375,0.010120278224349022,0.036446426063776016,0.09059541672468185
1690842048038171000,8.2441708984375,0.010656905360519886,0.009514675475656986,0.10870890319347382
1690842048048210700,8.254210693359376,-0.00043116576853208244,-0.011048123240470886,0.10741940140724182
1690842048058250800,8.264250732421875,-0.01330142468214035,-0.027836425229907036,0.09164949506521225
1690842048068291600,8.27429150390625,-0.018447717651724815,-0.03870745003223419,0.06179865077137947
1690842048078331600,8.28433154296875,-0.01612837053835392,-0.043297141790390015,0.029530461877584457
1690842048088371700,8.294371826171876,-0.01155811920762062,-0.03495265915989876,-0.009178850799798965
1690842048098412800,8.304412841796875,-0.005002215504646301,-0.02274073287844658,-0.04475948214530945
1690842048108452900,8.314452880859376,0.001446362817659974,-0.004144144710153341,-0.07551925629377365
1690842048118492700,8.32449267578125,0.004743356257677078,0.012387693859636784,-0.10023605823516846
1690842048128532700,8.33453271484375,0.00250496924854815,0.028063857927918434,-0.11353934556245804
1690842048138573600,8.344573486328125,-0.0024429175537079573,0.03662538900971413,-0.11786884814500809
1690842048148613600,8.354613525390626,-0.007467503659427166,0.03576172515749931,-0.10727106034755707
1690842048158684700,8.3646845703125,-0.010687531903386116,0.02473597228527069,-0.08779563009738922
1690842048168724700,8.374724853515625,-0.011718175373971462,0.00598572101444006,-0.06566449999809265
1690842048178764500,8.3847646484375,-0.008448878303170204,-0.011953865177929401,-0.034387268126010895
1690842048188805600,8.3948056640625,-0.002787530655041337,-0.024107201024889946,-0.004991562571376562
1690842048198845700,8.404845703125,0.0003456783015280962,-0.028858546167612076,0.02075321599841118
1690842048208885800,8.4148857421875,0.0011227887589484453,-0.025490712374448776,0.04120362922549248
1690842048218925800,8.42492578125,-0.0013022858183830976,-0.01762799546122551,0.051362790167331696
1690842048228966700,8.434966552734375,-0.005094094667583704,-0.008714928291738033,0.051298875361680984
1690842048239006700,8.4450068359375,-0.007047256920486689,0.0015510249650105834,0.0433831587433815
1690842048249046800,8.455046875,-0.008008924312889576,0.006588660646229982,0.0279203150421381
1690842048259088000,8.465087890625,-0.008017446845769882,0.009730124846100807,0.005505286622792482
1690842048269127700,8.475127685546875,-0.00410473020747304,0.009498963132500648,-0.016994163393974304
1690842048279167700,8.485167724609376,-0.0023100259713828564,0.004751611966639757,-0.04263880476355553
1690842048289207800,8.495207763671875,-0.002430400811135769,0.0010775149567052722,-0.05889207869768143
1690842048299248600,8.50524853515625,-0.0027260116767138243,-0.0021254688035696745,-0.07160653918981552
1690842048309319700,8.515319580078126,-0.004404069390147924,-0.004905809182673693,-0.07783807069063187
1690842048319359700,8.52535986328125,-0.005013400688767433,-0.005283711478114128,-0.07642792910337448
1690842048329399600,8.535399658203126,-0.0070669641718268394,-0.0032032502349466085,-0.06547514349222183
1690842048339439600,8.545439697265625,-0.005877862684428692,-0.002894856035709381,-0.05251380801200867
1690842048349480700,8.555480712890626,-0.006567621603608131,0.0012599414912983775,-0.034692201763391495
1690842048359520800,8.565520751953125,-0.004602741450071335,0.003242132253944874,-0.01846396178007126
1690842048369560800,8.575560791015626,-0.00347462622448802,0.004395014606416225,-0.0016700683627277613
1690842048379600600,8.5856005859375,-0.0037230991292744875,0.0003640541108325124,0.01082947850227356
1690842048389641700,8.595641845703126,-0.004598746541887522,-0.0030013825744390488,0.018316689878702164
1690842048399681800,8.605681884765625,-0.003964381758123636,-0.006488259416073561,0.021740715950727463
1690842048409721600,8.6157216796875,-0.006874417886137962,-0.007791077718138695,0.01720508560538292
1690842048419762700,8.6257626953125,-0.006387059111148119,-0.006275206338614225,0.009277387522161007
1690842048429802800,8.635802734375,-0.004833104554563761,-0.005061071366071701,-0.002435727044939995
1690842048439842800,8.6458427734375,-0.004474909510463476,-0.005431517027318478,-0.015666577965021133
1690842048449882600,8.655882568359376,-0.005721535068005323,-0.00390259618870914,-0.029797043651342392
1690842048459953700,8.66595361328125,-0.0027920580469071865,-0.0008644621120765805,-0.04116953909397125
1690842048469994800,8.675994873046875,-0.005018460564315319,0.0003150519623886794,-0.04843464493751526
1690842048480034600,8.68603466796875,-0.005759618245065212,0.0037942056078463793,-0.05404219776391983
1690842048490074600,8.69607470703125,-0.005809685681015253,0.0019592875614762306,-0.05235268548130989
1690842048500114700,8.70611474609375,-0.004309260752052069,0.001335841603577137,-0.04585723578929901
1690842048510155800,8.71615576171875,-0.004674113821238279,-0.00001304948909819359,-0.03915911912918091
1690842048520195800,8.72619580078125,-0.0036820864770561457,-0.0005944175645709038,-0.02971981279551983
1690842048530235600,8.736235595703125,-0.004288488067686558,-0.001496430253610015,-0.01660640724003315
1690842048540276700,8.74627685546875,-0.004473045468330383,-0.004506334662437439,-0.009162872098386288
1690842048550316800,8.75631689453125,-0.004544684197753668,-0.005505819339305162,-0.003981958609074354
1690842048560356600,8.766356689453126,-0.0041705104522407055,-0.00555189186707139,-0.0001246359315700829
1690842048570396700,8.776396728515625,-0.006677609868347645,-0.0037915424909442663,-0.0011619371362030506
1690842048580437800,8.786437744140626,-0.0028626318089663982,-0.004316451493650675,-0.0003225088003091514
1690842048590477800,8.796477783203125,-0.0046813045628368855,-0.003989681601524353,-0.007573763839900494
1690842048600517600,8.806517578125,-0.004727377090603113,-0.0018847191240638494,-0.011156780645251274
1690842048610558700,8.816558837890625,-0.005290635861456394,-0.0010466222884133458,-0.019183548167347908
1690842048620628500,8.82662841796875,-0.004053330980241299,-0.002326803747564554,-0.027571706101298332
1690842048630669600,8.836669677734376,-0.004177700728178024,0.0007550061563961208,-0.033304695039987564
1690842048640709600,8.846709716796875,-0.004977980628609657,-0.0007299724384211004,-0.03598036989569664
1690842048650749700,8.856749755859376,-0.003206445835530758,-0.00010839065362233669,-0.04007524624466896
1690842048660789800,8.866789794921875,-0.004079962614923716,0.0012511530658230186,-0.0358022041618824
1690842048670830800,8.876830810546876,-0.005495965480804443,0.0008602010202594101,-0.03417980670928955
1690842048680870700,8.88687060546875,-0.004345213528722525,-0.002151035238057375,-0.03257312253117561
1690842048690910700,8.89691064453125,-0.005134574603289366,-0.0027329358272254467,-0.021996645256876945
1690842048700951800,8.906951904296875,-0.0032959282398223877,-0.0013254552613943815,-0.01721334084868431
1690842048710991600,8.91699169921875,-0.00440966198220849,-0.005035238806158304,-0.012195679359138012
1690842048721031700,8.92703173828125,-0.00618119677528739,-0.003266367129981518,-0.010326673276722431
1690842048731071700,8.93707177734375,-0.004319913685321808,-0.0024833977222442627,-0.007336475886404514
1690842048741112800,8.94711279296875,-0.0041188448667526245,-0.0018330537714064121,-0.007469101343303919
1690842048751152600,8.957152587890626,-0.005672000348567963,-0.0033076461404561996,-0.010359962470829487
1690842048761192700,8.967192626953125,-0.0043654534965753555,-0.002944923471659422,-0.014288125559687614
1690842048771263500,8.977263427734375,-0.00555269094184041,0.00005273058923194185,-0.018018947914242744
1690842048781303600,8.987303466796876,-0.0057588196359574795,-0.0014442323008552194,-0.02341105043888092
1690842048791344600,8.9973447265625,-0.004239486064761877,-0.0034405377227813005,-0.027057716622948647
1690842048801384700,9.007384765625,-0.00564137427136302,-0.0026959178503602743,-0.030696926638484
1690842048811424800,9.0174248046875,-0.005634982604533434,-0.0007001450285315514,-0.0290545541793108
1690842048821464800,9.02746484375,-0.005017395596951246,-0.0029438582714647055,-0.029581859707832336
1690842048831505700,9.037505615234375,-0.004807538352906704,-0.0022948458790779114,-0.030652983114123344
1690842048841545500,9.04754541015625,-0.004408863373100758,-0.0004338289436418563,-0.025497104972600937
1690842048851585500,9.05758544921875,-0.004471180960536003,-0.0025331987999379635,-0.024477113038301468
1690842048861626600,9.067626708984376,-0.004471447318792343,-0.0027087011840194464,-0.019781960174441338
1690842048871666700,9.077666748046875,-0.0051566786132752895,-0.0018346516881138086,-0.017425062134861946
1690842048881706800,9.087706787109376,-0.004928978625684977,-0.002034655073657632,-0.015415707603096962
1690842048891746800,9.097746826171875,-0.004001399502158165,-0.00022770027862861753,-0.013939517550170422
1690842048901787600,9.10778759765625,-0.0028812738601118326,-0.0007576693315058947,-0.012374644167721272
1690842048911827700,9.11782763671875,-0.004518318921327591,-0.0035987296141684055,-0.016385897994041443
1690842048921898500,9.1278984375,-0.003863980295136571,-0.004099670331925154,-0.015562447719275951
1690842048931938600,9.1379384765625,-0.004760134033858776,-0.001927595934830606,-0.01859871856868267
1690842048941978600,9.147978515625,-0.004596616141498089,-0.0023904533591121435,-0.019816314801573753
1690842048952019700,9.158019775390626,-0.004985171370208263,-0.0018160095205530524,-0.020973991602659225
1690842048962059800,9.168059814453125,-0.0038219024427235126,-0.003576625371351838,-0.02569151483476162
1690842048972099800,9.178099853515626,-0.0036397422663867474,-0.0027981833554804325,-0.02779407985508442
1690842048982140700,9.188140625,-0.0032780850306153297,0.000025300030756625347,-0.02761245332658291
1690842048992185600,9.198185546875,-0.004514590837061405,-0.001055943313986063,-0.024593492969870567
1690842049002225700,9.2082255859375,-0.005287706386297941,-0.0028698223177343607,-0.027035346254706383
1690842049012265700,9.218265625,-0.004785700235515833,-0.000952080066781491,-0.022771624848246574
1690842049022306600,9.228306640625,-0.004236556589603424,-0.003055444685742259,-0.021279722452163696
1690842049032346600,9.2383466796875,-0.0042719766497612,-0.00421391986310482,-0.018281802535057068
1690842049042386700,9.24838671875,-0.004936435259878635,-0.002570483135059476,-0.019114039838314056
1690842049052427800,9.258427734375,-0.0057617491111159325,-0.002820287598297,-0.01722053252160549
1690842049062467800,9.2684677734375,-0.005674397107213736,-0.002445314545184374,-0.017435450106859207
1690842049072507600,9.278507568359375,-0.0026730147656053305,0.00021411814668681473,-0.015805594623088837
1690842049082578700,9.28857861328125,-0.005604356061667204,-0.0023704797495156527,-0.018795259296894073
1690842049092618800,9.29861865234375,-0.005359345115721226,-0.0019627497531473637,-0.020546553656458855
1690842049102658800,9.308658935546875,-0.0046549392864108086,-0.004327370319515467,-0.021736187860369682
1690842049112699600,9.31869970703125,-0.0041161817498505116,-0.0024897893890738487,-0.022786805406212807
1690842049122739700,9.32873974609375,-0.005432582460343838,-0.00041625206358730793,-0.02226109616458416
1690842049132779500,9.338779541015626,-0.0033563817851245403,-0.0027473168447613716,-0.022247515618801117
1690842049142820600,9.348820556640625,-0.005002748221158981,-0.002144643571227789,-0.02214125543832779
1690842049152860700,9.358860595703124,-0.005095425993204117,-0.001258876291103661,-0.02311037853360176
1690842049162900700,9.368900634765625,-0.004900216590613127,-0.0033622407354414463,-0.021636852994561195
1690842049172940800,9.37894091796875,-0.0037774275988340378,-0.0022365227341651917,-0.02401319146156311
1690842049182981600,9.388981689453125,-0.007528489921241999,-0.003722300287336111,-0.02406592108309269
1690842049193021700,9.399021728515624,-0.0062637547962367535,-0.002785133896395564,-0.021742047742009163
1690842049203061500,9.4090615234375,-0.006090915761888027,-0.0023552996572107077,-0.022398516535758972
1690842049213102600,9.4191025390625,-0.0032461269292980433,-0.0019137475173920393,-0.01950366050004959
1690842049223142700,9.429142578125,-0.003990214318037033,-0.0019712718203663826,-0.019289808347821236
1690842049233213700,9.439213623046875,-0.005282113794237375,-0.0001328917423961684,-0.017603760585188866
1690842049243253800,9.449253662109374,-0.0043625240214169025,-0.00031611722079105675,-0.0170250553637743
1690842049253293800,9.4592939453125,-0.00484215933829546,0.00008735168376006186,-0.017725201323628426
1690842049263334700,9.469334716796874,-0.004030427895486355,-0.002026399364694953,-0.01900991052389145
1690842049273374700,9.479374755859375,-0.004454669542610645,-0.003859453136101365,-0.021221132948994637
1690842049283414500,9.48941455078125,-0.004580104257911444,-0.003891677362844348,-0.022483205422759056
1690842049293454600,9.49945458984375,-0.003955060616135597,-0.0022186795249581337,-0.024047546088695526
1690842049303495700,9.50949560546875,-0.00415373221039772,-0.00162426196038723,-0.02474156580865383
1690842049313535700,9.51953564453125,-0.0026703516487032175,-0.0036274916492402554,-0.023921577259898186
1690842049323575800,9.529575927734374,-0.0065529742278158665,-0.0026935210917145014,-0.022518359124660492
1690842049333615900,9.539615966796875,-0.004810734186321497,-0.00017177389236167073,-0.021830730140209198
1690842049343656700,9.54965673828125,-0.004959604702889919,-0.0016415724530816078,-0.019884224981069565
1690842049353696500,9.559696533203125,-0.005151618737727404,0.000371777277905494,-0.018735604360699654
1690842049363736600,9.569736572265626,-0.004397677723318338,-0.0025566346012055874,-0.01908101700246334
1690842049373777700,9.579777587890625,-0.005405950825661421,-0.003936418332159519,-0.01835157722234726
1690842049383847700,9.58984765625,-0.004806206561625004,-0.001660480978898704,-0.018854381516575813
1690842049393888800,9.599888671875,-0.005613677203655243,-0.0031406658235937357,-0.020483171567320824
1690842049403928800,9.6099287109375,-0.003896470880135894,-0.0032804817892611027,-0.02064775489270687
1690842049413969000,9.619968994140624,-0.005003014579415321,-0.001580053474754095,-0.020660536363720894
1690842049424009700,9.630009765625,-0.004605670925229788,-0.003466104157269001,-0.02052178606390953
1690842049434049500,9.640049560546874,-0.005279184319078922,-0.003065032185986638,-0.020360665395855904
1690842049444089600,9.650089599609375,-0.0029497172217816114,-0.0022186795249581337,-0.020906614139676094
1690842049454129700,9.660129638671876,-0.004048004746437073,-0.00307568465359509,-0.020798223093152046
1690842049464170800,9.670170654296875,-0.00487118773162365,-0.0014961638953536749,-0.020731110125780106
1690842049474210800,9.6802109375,-0.0051838429644703865,0.0001699096756055951,-0.02165389619767666
1690842049484251000,9.6902509765625,-0.004148405976593494,-0.0015909724170342088,-0.02081446722149849
1690842049494291700,9.700291748046874,-0.00520647969096899,0.00022370553051587194,-0.02159424126148224
1690842049504331500,9.71033154296875,-0.0028852687682956457,-0.0019156117923557758,-0.020926320925354958
1690842049514371600,9.72037158203125,-0.005380916874855757,-0.0027385284192860126,-0.01985839381814003
1690842049524411600,9.73041162109375,-0.00458569684997201,-0.003522296901792288,-0.020963605493307114
1690842049534482700,9.740482666015625,-0.005547896958887577,-0.003754258155822754,-0.020167851820588112
1690842049544522800,9.750522705078126,-0.003745203372091055,-0.0032261533197015524,-0.01950685679912567
1690842049554563800,9.760563720703125,-0.002841326640918851,-0.0006434197421185672,-0.02095082215964794
1690842049564604000,9.77060400390625,-0.004580636974424124,-0.0021603561472147703,-0.019166236743330956
1690842049574643700,9.780643798828125,-0.0049098036251962185,-0.0010812433902174234,-0.019402459263801575
1690842049584684500,9.7906845703125,-0.004391552414745092,-0.0009217200567945838,-0.02111407369375229
1690842049594724600,9.800724609375,-0.005489307455718517,-0.001201618229970336,-0.02033909410238266
1690842049604764700,9.8107646484375,-0.004370513837784529,-0.0023963123094290495,-0.02237960696220398
1690842049614804700,9.8208046875,-0.004010987002402544,-0.002198173198848963,-0.022950589656829834
1690842049624845800,9.830845703125,-0.004228300880640745,-0.0011507519520819187,-0.021448034793138504
1690842049634886000,9.840885986328125,-0.00538437906652689,-0.0020397149492055178,-0.021444305777549744
1690842049644925700,9.85092578125,-0.0057372478768229485,-0.002591521944850683,-0.02087811753153801
1690842049654966500,9.860966552734375,-0.004375840071588755,-0.0017092167399823666,-0.020250409841537476
1690842049665006600,9.871006591796874,-0.0054365769028663635,-0.0003818972909357399,-0.019946809858083725
1690842049675046700,9.881046630859375,-0.005538309924304485,-0.0011299792677164078,-0.02075720950961113
1690842049685086700,9.891086669921876,-0.004649613052606583,0.0005555353709496558,-0.021191304549574852
1690842049695157800,9.90115771484375,-0.0032439965289086103,-0.00047883635852485895,-0.02058543637394905
1690842049705198800,9.91119873046875,-0.005239769350737333,0.00016058860637713224,-0.020899422466754913
1690842049715239000,9.921239013671874,-0.003748931922018528,0.0008913599886000156,-0.0204504132270813
1690842049725278700,9.93127880859375,-0.005496231839060783,-0.00043356261448934674,-0.02047092095017433
1690842049735318800,9.94131884765625,-0.004201402887701988,0.001419198582880199,-0.019837619736790657
1690842049745359600,9.951359619140625,-0.005565740168094635,-0.0033902039285749197,-0.022898923605680466
1690842049755399700,9.961399658203124,-0.0032927324064075947,-0.0049470881931483746,-0.019523900002241135
1690842049765439700,9.971439697265625,-0.004256263840943575,-0.0034384073223918676,-0.021854965016245842
1690842049775480800,9.981480712890624,-0.004434429574757814,-0.002862099092453718,-0.02045494131743908
1690842049785521000,9.99152099609375,-0.00478383619338274,-0.002412557601928711,-0.021674402058124542
1690842049795560700,10.001560791015624,-0.0028128307312726974,-0.002314287004992366,-0.02123364992439747
1690842049805600800,10.011600830078125,-0.004248807206749916,-0.0015009575290605426,-0.02238200418651104
1690842049815641600,10.0216416015625,-0.005404885392636061,-0.0013603427214547992,-0.022478410974144936
1690842049825681700,10.031681640625,-0.005254949443042278,-0.0002743055811151862,-0.021210480481386185
1690842049835721700,10.0417216796875,-0.004062119405716658,-0.0010274475207552314,-0.021809158846735954
1690842049845792800,10.051792724609374,-0.0026383937802165747,-0.00030892668291926384,-0.020560402423143387
1690842049855832800,10.061832763671875,-0.003824033075943589,-0.00481366366147995,-0.021567875519394875
1690842049865874000,10.0718740234375,-0.004835767671465874,-0.0046695866622030735,-0.018762502819299698
1690842049875913700,10.081913818359375,-0.004387824330478907,-0.004483697935938835,-0.01901550218462944
1690842049885953800,10.091953857421874,-0.004787298385053873,-0.004537760280072689,-0.01919153705239296
1690842049895993600,10.10199365234375,-0.0046445527113974094,-0.0041044638492167,-0.021135112270712852
1690842049906034700,10.11203466796875,-0.005622199270874262,-0.0034876756835728884,-0.022288260981440544
1690842049916074800,10.12207470703125,-0.003999801818281412,-0.0002556634717620909,-0.022473350167274475
1690842049926114800,10.13211474609375,-0.0037385455798357725,0.00247540813870728,-0.020556673407554626
1690842049936156000,10.142156005859375,-0.004793956410139799,0.002139050979167223,-0.021758025512099266
1690842049946195700,10.15219580078125,-0.00461658975109458,0.0027571707032620907,-0.019905798137187958
1690842049956235500,10.162235595703125,-0.003870904678478837,0.00029348034877330065,-0.02238892950117588
1690842049966275600,10.172275634765626,-0.005945773329585791,-0.0019156117923557758,-0.023327693343162537
1690842049976316700,10.182316650390625,-0.006044310517609119,-0.004519650712609291,-0.02142779342830181
1690842049986356700,10.192356689453124,-0.006619819439947605,-0.009042763151228428,-0.023966053500771523
1690842049996424000,10.202423828125,-0.004546815063804388,-0.004963333252817392,-0.022006765007972717
1690842050006464000,10.212464111328124,-0.004484763368964195,-0.005371862091124058,-0.0242568701505661
1690842050016504000,10.222504150390625,-0.0041673146188259125,0.0009720537927933037,-0.018814699724316597
1690842050026545200,10.232545166015624,-0.005769472103565931,0.0014096111990511417,-0.01841389387845993
1690842050036585000,10.2425849609375,-0.0028573055751621723,0.0031180288642644882,-0.018698852509260178
1690842050046625000,10.252625,-0.005111937876790762,0.0015566176734864712,-0.018272213637828827
1690842050056664800,10.262664794921875,-0.005084773525595665,0.0017781927017495036,-0.017552362754940987
1690842050066706000,10.272705810546874,-0.004770520608872175,-0.0002306297537870705,-0.021192103624343872
1690842050076746000,10.28274609375,-0.00544376764446497,-0.0027166905347257853,-0.01859445683658123
1690842050086786000,10.2927861328125,-0.003716441337019205,-0.004008590243756771,-0.02371704764664173
1690842050096827100,10.3028271484375,-0.0052352421917021275,-0.004517253953963518,-0.02304992452263832
1690842050106867000,10.312866943359374,-0.003680754918605089,-0.006668289192020893,-0.02257481776177883
1690842050116907000,10.322906982421875,-0.006478938274085522,-0.004655205644667149,-0.02286536805331707
1690842050126946800,10.33294677734375,-0.005107942968606949,-0.002463157754391432,-0.021980132907629013
1690842050136988000,10.34298779296875,-0.006193713750690222,0.00043809000635519624,-0.020434701815247536
1690842050147028000,10.353028076171874,-0.004909005016088486,0.00008948221511673182,-0.020905548706650734
1690842050157099000,10.36309912109375,-0.004819256253540516,0.0028567728586494923,-0.019480224698781967
1690842050167139000,10.37313916015625,-0.004867459647357464,0.0034080471377819777,-0.019592076539993286
1690842050177179000,10.383178955078124,-0.005675462540239096,0.0013707289472222328,-0.019893014803528786
1690842050187220000,10.393219970703125,-0.00570023013278842,-0.00031372037483379245,-0.021405955776572227
1690842050197259800,10.403259765625,-0.0046908920630812645,-0.0041641187854111195,-0.02021179534494877
1690842050207299800,10.4132998046875,-0.005169728305190802,-0.007991880178451538,-0.020747622475028038
1690842050217341000,10.4233408203125,-0.005035505164414644,-0.006494651082903147,-0.021646173670887947
1690842050227381000,10.433381103515625,-0.004276770167052746,-0.006714894436299801,-0.021468274295330048
1690842050237421000,10.443421142578124,-0.0030043120495975018,-0.004911934491246939,-0.02190556563436985
1690842050247460900,10.4534609375,-0.0037846181076020002,0.0001179780374513939,-0.019062373787164688
1690842050257502000,10.463501953125,-0.00392683083191514,0.0008349010022357106,-0.018921492621302605
1690842050267541800,10.473541748046875,-0.006331931799650192,0.002241050126031041,-0.01823173463344574
1690842050277581800,10.483581787109374,-0.005667206831276417,0.002998719457536936,-0.01714463159441948
1690842050287623000,10.493622802734375,-0.007582818623632193,-0.00047857005847617984,-0.022771891206502914
1690842050297663000,10.5036630859375,-0.005429120268672705,0.0005840312223881483,-0.022417424246668816
1690842050307734000,10.513734130859374,-0.0036666402593255043,-0.003941211849451065,-0.02232448011636734
1690842050317774000,10.523774169921875,-0.004299407359212637,-0.004487959202378988,-0.023736754432320595
1690842050327814000,10.53381396484375,-0.002858637133613229,-0.005584648810327053,-0.02172979712486267
1690842050337854000,10.54385400390625,-0.0051958272233605385,-0.004785700235515833,-0.020535368472337723
1690842050347894800,10.553894775390624,-0.0046485476195812225,-0.0037404096219688654,-0.020745491608977318
1690842050357934800,10.563934814453125,-0.006111422087997198,-0.0005251753609627485,-0.02041020058095455
1690842050367975000,10.573974853515624,-0.0051750545389950275,0.000023968450477696024,-0.01853080652654171
1690842050378016000,10.58401611328125,-0.0042733084410429,0.00032916670897975564,-0.01774757169187069
1690842050388056000,10.59405615234375,-0.004123106133192778,-0.00010839065362233669,-0.02021871879696846
1690842050398096000,10.604095947265625,-0.0033838124945759773,0.0002998719282913953,-0.0223897285759449
1690842050408136000,10.614135986328124,-0.005152151454240084,-0.0008902947301976383,-0.020618991926312447
1690842050418176800,10.6241767578125,-0.003590740030631423,-0.0026730147656053305,-0.0232925396412611
1690842050428216800,10.634216796875,-0.004829110112041235,-0.002675145398825407,-0.021934593096375465
1690842050438257000,10.6442568359375,-0.004920456558465958,-0.003915379289537668,-0.0215993020683527
1690842050448298000,10.654298095703124,-0.004478371702134609,-0.003319630166515708,-0.01998462714254856
1690842050458368000,10.664367919921874,-0.0038951393216848373,-0.0029462550301104784,-0.020929783582687378
1690842050468409000,10.6744091796875,-0.004059989005327225,-0.0007360977469943464,-0.019333750009536743
1690842050478449000,10.684448974609374,-0.0049590724520385265,-0.0013480921043083072,-0.019716713577508926
1690842050488489000,10.694489013671875,-0.005049087107181549,-0.00007376955909421667,-0.020795825868844986
1690842050498529000,10.704529052734374,-0.003754524514079094,-0.0006596649764105678,-0.020666662603616714
1690842050508569900,10.71456982421875,-0.007673365995287895,-0.002129729837179184,-0.021391840651631355
1690842050518610000,10.72460986328125,-0.00555056007578969,-0.0020905814599245787,-0.020866932347416878
1690842050528650000,10.73464990234375,-0.005622998345643282,0.0004767058417201042,-0.02041020058095455
1690842050538691000,10.744691162109374,-0.004114317707717419,-0.004224039614200592,-0.021823273971676826
1690842050548731000,10.75473095703125,-0.0037646444980055094,-0.0043952809646725655,-0.02231436036527157
1690842050558771000,10.76477099609375,-0.0049460227601230145,0.00021198761533014476,-0.020243752747774124
1690842050568811000,10.77481103515625,-0.004992361646145582,-0.0019150790758430958,-0.01896357163786888
1690842050578851800,10.784851806640624,-0.005118861794471741,-0.002712695859372616,-0.020590495318174362
1690842050588892000,10.794891845703125,-0.006232329644262791,-0.003278617514297366,-0.021208882331848145
1690842050598932000,10.804931884765624,-0.005083974450826645,-0.0029108349699527025,-0.020923657342791557
1690842050609002800,10.815002685546874,-0.004780107643455267,-0.0009733853512443602,-0.02002910152077675
1690842050619042800,10.825042724609375,-0.0038040592335164547,-0.0009534116834402084,-0.022405706346035004
1690842050629084000,10.835083984375,-0.003999002743512392,-0.002667954657226801,-0.024141555652022362
1690842050639124000,10.8451240234375,-0.005319131538271904,0.000015180017726379447,-0.021030183881521225
1690842050649164000,10.8551640625,-0.0046570696868002415,0.000054861116950633004,-0.019964920356869698
1690842050659204900,10.865204833984375,-0.005692773032933474,0.00020426444825716317,-0.020489029586315155
1690842050669245000,10.875244873046874,-0.006325806491076946,-0.0019688750617206097,-0.02021072991192341
1690842050679285000,10.885284912109375,-0.003385144053027034,-0.0027409254107624292,-0.01932522840797901
1690842050689324800,10.89532470703125,-0.005303685087710619,0.00023462448734790087,-0.019168633967638016
1690842050699366000,10.905365966796875,-0.004769188817590475,-0.0036280243657529354,-0.019990751519799232
1690842050709406000,10.915406005859374,-0.004972388036549091,-0.0011534150689840317,-0.021573469042778015
1690842050719446000,10.925446044921875,-0.0053553506731987,-0.001317998394370079,-0.020663999021053314
1690842050729486800,10.93548681640625,-0.00418409239500761,-0.002229065867140889,-0.020170781761407852
1690842050739527000,10.94552685546875,-0.004984372295439243,-0.00020213393145240843,-0.0194285586476326
1690842050749567000,10.95556689453125,-0.005175853613764048,-0.0033563817851245403,-0.01786128804087639
1690842050759606800,10.965606689453125,-0.0048948898911476135,-0.0020567593164741993,-0.021397434175014496
1690842050769677800,10.975677734375,-0.005075985100120306,-0.0019406455103307962,-0.020193418487906456
1690842050779718000,10.9857177734375,-0.00509915454313159,-0.0008122641011141241,-0.019334282726049423
1690842050789759000,10.995759033203125,-0.002674346324056387,-0.0025481125339865685,-0.020561734214425087
1690842050799799000,11.005799072265624,-0.006168946158140898,-0.0015725966077297926,-0.0210669357329607
1690842050809839000,11.015839111328125,-0.005343100056052208,-0.002463423879817128,-0.021924206987023354
1690842050819880000,11.0258798828125,-0.0054754591546952724,-0.0049734534695744514,-0.020667728036642075
1690842050829920000,11.035919921875,-0.0038461373187601566,-0.0037646444980055094,-0.021860025823116302
1690842050839959800,11.045959716796874,-0.0046874298714101315,-0.0019238675013184547,-0.02267841435968876
1690842050850000000,11.055999755859375,-0.0038155107758939266,-0.001942776027135551,-0.019039204344153404
1690842050860041000,11.066041015625,-0.004700745455920696,-0.0010346380295231938,-0.018696455284953117
1690842050870081000,11.0760810546875,-0.0035332157276570797,-0.0008396946941502392,-0.017828265205025673
1690842050880121000,11.08612109375,-0.004908472299575806,0.0001877528557088226,-0.020304206758737564
1690842050890162000,11.096161865234375,-0.004890362732112408,-0.0015728629659861326,-0.02094283141195774
1690842050900202000,11.106201904296874,-0.004033091012388468,-0.0012721919920295477,-0.02183552458882332
1690842050910241800,11.11624169921875,-0.004683701321482658,-0.0009643306257203221,-0.021750569343566895
1690842050920312800,11.126312744140625,-0.004825115203857422,-0.002514024032279849,-0.02143152244389057
1690842050930353000,11.136352783203124,-0.0059569585137069225,-0.0015784555580466986,-0.0213652104139328
1690842050940394000,11.14639404296875,-0.005703159607946873,-0.003522563260048628,-0.022130602970719337
1690842050950434000,11.15643408203125,-0.005299957003444433,-0.0020413128659129143,-0.020234698429703712
1690842050960474000,11.16647412109375,-0.005090898834168911,-0.0026554379146546125,-0.021290108561515808
1690842050970514200,11.17651416015625,-0.004877046681940556,-0.0022855247370898724,-0.020322049036622047
1690842050980555000,11.186554931640625,-0.005563343409448862,-0.0020580908749252558,-0.020202472805976868
1690842050990594800,11.1965947265625,-0.005520466715097427,0.0002516687090974301,-0.020769992843270302
1690842051000607000,11.20660693359375,-0.005532717332243919,-0.0012895026011392474,-0.022777218371629715
1690842051010647000,11.21664697265625,-0.004168113227933645,0.00030120351584628224,-0.020256802439689636
1690842051020688100,11.226688232421875,-0.004165716469287872,-0.0017965685110539198,-0.022533537819981575
1690842051030728000,11.23672802734375,-0.004538825247436762,-0.0020362529903650284,-0.021048560738563538
1690842051040768000,11.24676806640625,-0.0034320156555622816,-0.0013102752855047584,-0.020614463835954666
1690842051050808800,11.256808837890626,-0.005770271178334951,-0.002020540414378047,-0.020860539749264717
1690842051060849000,11.266848876953125,-0.004194212146103382,-0.002287389012053609,-0.021388646215200424
1690842051070920000,11.276919921875,-0.005419266410171986,-0.0018274611793458462,-0.020910874009132385
1690842051080960000,11.2869599609375,-0.005146292503923178,-0.0017590179340913892,-0.0205172598361969
1690842051090999800,11.296999755859375,-0.004400340840220451,-0.0022503710351884365,-0.02165203168988228
1690842051101041000,11.307041015625,-0.004594219382852316,-0.0006082659820094705,-0.020658940076828003
1690842051111081000,11.3170810546875,-0.006410761270672083,-0.0016935041639953852,-0.019944412633776665
1690842051121121000,11.32712109375,-0.0046267095021903515,-0.0032115059439092875,-0.021033912897109985
1690842051131161000,11.3371611328125,-0.004502872936427593,-0.0023734092246741056,-0.02045653946697712
1690842051141202000,11.347201904296876,-0.0038253646343946457,-0.001936384360305965,-0.022665364667773247
1690842051151242000,11.357241943359375,-0.002590989461168647,0.0013076120521873236,-0.022703981027007103
1690842051161282000,11.367281982421876,-0.005635248962789774,-0.003922836389392614,-0.021290374919772148
1690842051171323100,11.3773232421875,-0.005246960092335939,-0.0026546388398855925,-0.02040860243141651
1690842051181363000,11.387363037109376,-0.0038655782118439674,-0.0030770162120461464,-0.019637882709503174
1690842051191403000,11.397403076171875,-0.0032288164366036654,-0.002231462625786662,-0.020411532372236252
1690842051201443000,11.407443115234376,-0.004002464935183525,-0.001065264455974102,-0.021881597116589546
1690842051211484000,11.41748388671875,-0.004384628497064114,-0.001261273049749434,-0.02093244530260563
1690842051221524000,11.42752392578125,-0.0052352421917021275,-0.0033630398102104664,-0.0210642721503973
1690842051231595000,11.437594970703126,-0.004052266012877226,0.00019973708549514413,-0.02034095861017704
1690842051241634800,11.447634765625,-0.005054146982729435,-0.00105328019708395,-0.020554542541503906
1690842051251675000,11.4576748046875,-0.006253900937736034,-0.003061569994315505,-0.022220617160201073
1690842051261716000,11.467716064453125,-0.005184642039239407,-0.0022509037517011166,-0.019961724057793617
1690842051271756000,11.477756103515626,-0.0062427157536149025,-0.0007014766451902688,-0.021893048658967018
1690842051281796000,11.487796142578125,-0.0037033918779343367,-0.002626675646752119,-0.021878667175769806
1690842051291836000,11.4978359375,-0.004559597931802273,-0.0016128103015944362,-0.021142037585377693
1690842051301877000,11.507876953125,-0.004290086217224598,-0.004734301473945379,-0.019821641966700554
1690842051311916800,11.517916748046876,-0.004808870144188404,-0.001059405505657196,-0.019575566053390503
1690842051321956900,11.527956787109375,-0.0051710596308112144,-0.0016713999211788177,-0.02058889903128147
1690842051331998000,11.537998046875,-0.0043862261809408665,0.00024767397553659976,-0.020892499014735222
1690842051342038000,11.5480380859375,-0.0046847667545080185,-0.0025361282750964165,-0.021131116896867752
1690842051352078000,11.558078125,-0.004444549325853586,-0.0010178601369261742,-0.022069616243243217
1690842051362118000,11.568117919921875,-0.0054762582294642925,-0.0009917612187564373,-0.020925521850585938
1690842051372159000,11.578158935546876,-0.0038000645581632853,-0.003697799053043127,-0.021642711013555527
1690842051382230000,11.58822998046875,-0.0036916739773005247,-0.0016982977977022529,-0.021046163514256477
1690842051392269800,11.598269775390625,-0.0049095372669398785,-0.0033744913525879383,-0.022237394005060196
1690842051402310000,11.608309814453126,-0.006172408349812031,-0.0034591800067573786,-0.01990979164838791
1690842051412350000,11.618349853515625,-0.004681038204580545,0.0007954862085171044,-0.020714599639177322
1690842051422391000,11.62839111328125,-0.004526042379438877,-0.002764627570286393,-0.01848153956234455
1690842051432431000,11.63843115234375,-0.00381444557569921,-0.000925448490306735,-0.022824889048933983
1690842051442471000,11.648470947265626,-0.004932973068207502,-0.0021491709630936384,-0.021889053285121918
1690842051452510700,11.6585107421875,-0.005272526293992996,-0.0007302387384697795,-0.01950259506702423
1690842051462551800,11.6685517578125,-0.0046546729281544685,-0.0006732470938004553,-0.019652530550956726
1690842051472592000,11.678591796875,-0.004035487771034241,-0.0007241134881041944,-0.020260529592633247
1690842051482632000,11.6886318359375,-0.006000634748488665,-0.002966228872537613,-0.019155850633978844
1690842051492673000,11.698673095703125,-0.005291434936225414,-0.003991812001913786,-0.019872773438692093
1690842051502713000,11.708713134765626,-0.004042944870889187,-0.003198722843080759,-0.0218507032841444
1690842051512753000,11.7187529296875,-0.0033816818613559008,-0.0007278419216163456,-0.02149144373834133
1690842051522793000,11.72879296875,-0.0026996464002877474,-0.0034820830915123224,-0.020006731152534485
1690842051532863700,11.73886376953125,-0.005395564250648022,-0.0014855111949145794,-0.021710354834794998
1690842051542904800,11.74890478515625,-0.004422178957611322,0.00031878036679700017,-0.02076839469373226
1690842051552945000,11.75894482421875,-0.005402754992246628,-0.003237072378396988,-0.022248048335313797
1690842051562985000,11.76898486328125,-0.003668237943202257,-0.002089249901473522,-0.02009781077504158
