time,seconds_elapsed,z,y,x
1690842039994354000,0.20035400390625,0.0017513004131615162,-0.01020773034542799,0.04537779092788696
1690842040004394000,0.21039404296875,-0.0008357078768312931,-0.0011026841821148992,0.027627311646938324
1690842040014464800,0.22046484375,0.0008743079379200935,0.0022995041217654943,0.0037336982786655426
1690842040024504800,0.2305048828125,0.000046646688133478165,0.007153514306992292,-0.016803011298179626
1690842040034545000,0.240544921875,0.0004407945089042187,0.007925831712782383,-0.037008147686719894
1690842040044585000,0.2505849609375,0.0016296133399009705,0.0035941563546657562,-0.0492839515209198
1690842040054626000,0.2606259765625,-0.0007637692615389824,0.00433717854321003,-0.05591389536857605
1690842040064666000,0.270666015625,0.0005510495975613594,0.0018226649845018983,-0.05504627153277397
1690842040074706000,0.280705810546875,-0.00025402428582310677,0.0020013630855828524,-0.04829862341284752
1690842040084746800,0.290746826171875,0.000980595825240016,0.0007877049501985312,-0.0344448983669281
1690842040094786800,0.300786865234375,-0.0007936018519103527,0.0000785051379352808,-0.01676124334335327
1690842040104827000,0.310826904296875,-0.0007407814264297485,0.005044745746999979,0.00404767319560051
1690842040114867000,0.320866943359375,-0.0010148207657039165,0.0014675876591354609,0.019055385142564774
1690842040124908000,0.330907958984375,-0.001169341616332531,-0.0012758915545418859,0.033757783472537994
1690842040134948000,0.340947998046875,-0.000846832524985075,-0.005123893264681101,0.038883037865161896
1690842040144988200,0.35098828125,-0.0007327990606427193,-0.005376490298658609,0.04165489971637726
1690842040155029000,0.361029052734375,-0.0003104214556515217,-0.007027117535471916,0.0370742604136467
1690842040165068800,0.37106884765625,-0.0021773590706288815,-0.009386046789586544,0.026668032631278038
1690842040175139800,0.381139892578125,-0.0016127689741551876,-0.007290938403457403,0.01638104021549225
1690842040185180000,0.391179931640625,-0.0007405541837215424,-0.0025112838484346867,0.0022307056933641434
1690842040195220000,0.401219970703125,-0.0017120754346251488,0.0011537582613527775,-0.009721826761960983
1690842040205261000,0.411260986328125,-0.00048086419701576233,0.0021080574952065945,-0.020751221105456352
1690842040215301000,0.421301025390625,-0.00004144245758652687,0.00718217808753252,-0.02535875327885151
1690842040225341000,0.4313408203125,0.0010312346275895834,0.006088565569370985,-0.03160277009010315
1690842040235381000,0.441381103515625,0.0003992663696408272,0.006612143013626337,-0.028830954805016518
1690842040245421800,0.451421875,-0.0007857601158320904,0.0012615383602678776,-0.02380739152431488
1690842040255462000,0.4614619140625,-0.00023981183767318726,0.001157941296696663,-0.017877597361803055
1690842040265502000,0.471501953125,-0.0016072741709649563,-0.001668543671257794,-0.008337041363120079
1690842040275543000,0.48154296875,0.0000012754462659358978,-0.0029479260556399822,0.0031353235244750977
1690842040285583000,0.4915830078125,-0.0006696609780192375,-0.0031175375916063786,0.012275910936295986
1690842040295623200,0.501623046875,-0.0008587455376982689,-0.0035164793953299522,0.01750129833817482
1690842040305663000,0.5116630859375,-0.0009839143604040146,-0.001126292278058827,0.024075578898191452
1690842040315703800,0.521703857421875,-0.00038896407932043076,-0.002532441169023514,0.022573024034500122
1690842040325774000,0.531774169921875,-0.0010837679728865623,0.00013688544277101755,0.021338248625397682
1690842040335815000,0.54181494140625,-0.0003825575113296509,-0.0011094739893451333,0.014244653284549713
1690842040345855000,0.55185498046875,0.0005399840883910656,-0.0011243257904425263,0.00794274639338255
1690842040355895000,0.56189501953125,-0.0007662964053452015,-0.0009722592076286674,0.00001105479896068573
1690842040365936000,0.57193603515625,-0.0009013633243739605,-0.0020184721797704697,-0.009206011891365051
1690842040375976000,0.581975830078125,0.0007599168457090855,-0.0009854320669546723,-0.015313440933823586
1690842040386016000,0.59201611328125,0.0005855816416442394,0.00024735997430980206,-0.017664438113570213
1690842040396056000,0.60205615234375,0.00042605819180607796,0.0030961432494223118,-0.01831158436834812
1690842040406097000,0.612096923828125,-0.0002889917232096195,0.0025973559822887182,-0.01575036346912384
1690842040416137000,0.622136962890625,-0.00031162844970822334,0.0024162610061466694,-0.011206213384866714
1690842040426177000,0.632177001953125,-0.0014613736420869827,-0.0000017832498997449875,-0.007012432441115379
1690842040436218000,0.642218017578125,0.0007338700816035271,0.00048104790039360523,0.00024095363914966583
1690842040446258000,0.6522578125,0.00027691246941685677,-0.0026219552382826805,0.005947621539235115
1690842040456298000,0.662298095703125,-0.000040003564208745956,-0.002229671459645033,0.007894658483564854
1690842040466337800,0.672337890625,0.00003855116665363312,-0.002336752600967884,0.011925023049116135
1690842040476379000,0.68237890625,0.0006856992840766907,-0.001704784226603806,0.01228401716798544
1690842040486449000,0.692448974609375,0.0009129573591053486,-0.001336488756351173,0.009902408346533775
1690842040496490000,0.702489990234375,-0.00003645941615104675,-0.0018062704475596547,0.007884797640144825
1690842040506530000,0.712530029296875,-0.001342786941677332,-0.00044791994150727987,0.0032524745911359787
1690842040516569900,0.72256982421875,-0.0004650088958442211,-0.0029225293546915054,0.0013645589351654053
1690842040526611000,0.73261083984375,0.000741906464099884,-0.00008376326877623796,-0.005601773038506508
1690842040536651000,0.742651123046875,0.0006660064682364464,-0.00028403301257640123,-0.007461458444595337
1690842040546690800,0.75269091796875,0.0006177946925163269,0.0005739590851590037,-0.006965214386582375
1690842040556731000,0.76273095703125,-0.0009689168073236942,0.0013683800352737308,-0.007914897054433823
1690842040566772000,0.77277197265625,-0.0007012146525084972,-0.0016579373041167855,-0.009236250072717667
1690842040576812000,0.78281201171875,-0.0007283790037035942,-0.000983891193754971,-0.00828683190047741
1690842040586851800,0.792851806640625,-0.0006798282265663147,-0.00031190377194434404,-0.004364345222711563
1690842040596893000,0.802892822265625,-0.00060632498934865,-0.0015942159807309508,-0.0002670716494321823
1690842040606933000,0.81293310546875,0.0004864898510277271,0.0011773491278290749,0.00048164092004299164
1690842040616972800,0.822972900390625,0.0013994213659316301,-0.000009089126251637936,0.00516401045024395
1690842040627012900,0.833012939453125,0.0006927838549017906,-0.00045019376557320356,0.0062790606170892715
1690842040637084000,0.843083984375,-0.0007447907701134682,-0.001792959519661963,0.005658810026943684
1690842040647125000,0.853125,-0.0011945315636694431,-0.00007552735041826963,0.006444723345339298
1690842040657165000,0.8631650390625,-0.00043632974848151207,-0.0006228069541975856,0.006081468425691128
1690842040667204900,0.873204833984375,-0.0009055431000888348,-0.0011387198464944959,0.0032069962471723557
1690842040677245000,0.883244873046875,-0.00020965933799743652,-0.00042206316720694304,0.0019411947578191757
1690842040687286000,0.8932861328125,-0.0019415426068007946,0.0008969738846644759,-0.00130496546626091
1690842040697325800,0.903325927734375,-0.00020702555775642395,-0.0009627115214243531,-0.003962799906730652
1690842040707366000,0.913365966796875,-0.0007629781030118465,-0.0009703495306894183,-0.0056859757751226425
1690842040717407000,0.923406982421875,0.000059672631323337555,-0.0006342584965750575,-0.00471046008169651
1690842040727447000,0.933447021484375,0.0004068799316883087,0.002058938145637512,-0.005352649837732315
1690842040737486800,0.94348681640625,-0.0008083204738795757,0.0006309511372819543,-0.004137715324759483
1690842040747527000,0.95352685546875,-0.00028485385701060295,-0.0029382710345089436,-0.0038139838725328445
1690842040757568000,0.963568115234375,0.0005194209516048431,-0.0020634224638342857,-0.0020174141973257065
1690842040767607800,0.97360791015625,-0.00030557112768292427,-0.0007183152483776212,0.002538880333304405
1690842040777647900,0.98364794921875,-0.00041236402466893196,0.000281435321085155,0.0060156360268592834
1690842040787719000,0.993718994140625,0.000007152557373046875,-0.001565320766530931,0.0006500761955976486
1690842040797759000,1.003759033203125,0.00205805292353034,0.00006000639405101538,0.003238135948777199
1690842040807800000,1.013800048828125,0.0008500239346176386,-0.00016482791397720575,0.003866281360387802
1690842040817839900,1.02383984375,0.0007842439226806164,0.0019297482213005424,0.0009354725480079651
1690842040827880000,1.0338798828125,-0.001120501197874546,-0.00178512220736593,0.0020716022700071335
1690842040837920000,1.043919921875,-0.0005740206688642502,-0.000776849570684135,0.00004307366907596588
1690842040847960800,1.0539609375,-0.000034813303500413895,-0.001958262175321579,-0.0010806377977132797
1690842040858001000,1.0640009765625,-0.0005788970738649368,-0.0006597047904506326,-0.0023975707590579987
1690842040868041000,1.074041015625,0.0000942004844546318,-0.0005804317770525813,-0.0043586064130067825
1690842040878082000,1.08408203125,-0.0009028869681060314,-0.0016725942259654403,-0.005372736603021622
1690842040888121900,1.094121826171875,0.0006130030378699303,0.0008833014871925116,-0.0011730976402759552
1690842040898162000,1.104161865234375,0.0009509583469480276,0.001984518487006426,-0.0012713689357042313
1690842040908202000,1.114201904296875,0.0010628907475620508,0.0008912308840081096,-0.0003619994968175888
1690842040918242800,1.124242919921875,-0.0003549763932824135,-0.00011544383596628904,-0.0016640182584524155
1690842040928283000,1.134282958984375,-0.001883076038211584,-0.0008008322911337018,0.0028309784829616547
1690842040938323000,1.144322998046875,-0.0006726696155965328,0.0004796155262738466,0.0015875473618507385
1690842040948394000,1.15439404296875,0.0006084362976253033,-0.0011694405693560839,0.004086645320057869
1690842040958433800,1.164433837890625,-0.0008906573057174683,0.000174390384927392,0.0023931413888931274
1690842040968475000,1.174474853515625,0.0002508442848920822,0.0008897642837837338,0.00042150169610977173
1690842040978515000,1.184514892578125,-0.0006445101462304592,0.0006908260984346271,0.0015024784952402115
1690842040988550700,1.194550537109375,-0.00051450589671731,-0.0001201508566737175,-0.0009713508188724518
1690842040998590700,1.2045908203125,-0.001622647512704134,0.00010115769691765308,-0.0003372523933649063
1690842041008631800,1.2146318359375,-0.0019020112231373787,0.0011857207864522934,-0.0031353887170553207
1690842041018671900,1.224671875,-0.00022342056035995483,-0.0003171010175719857,-0.002374788746237755
1690842041028711700,1.234711669921875,0.0010294006206095219,0.0005308630643412471,-0.0014466308057308197
1690842041038752800,1.244752685546875,-0.0005541150458157063,0.002077094279229641,-0.0017425082623958588
1690842041048792600,1.25479248046875,0.0002545425668358803,-0.00028148735873401165,-0.00067874975502491
1690842041058832600,1.26483251953125,-0.0013137930072844028,-0.00008148397319018841,-0.001381823793053627
1690842041068872700,1.274872802734375,0.00017861463129520416,0.0012632766738533974,-0.0002998746931552887
1690842041078913800,1.284913818359375,-0.0006797220557928085,-0.000020899693481624126,-0.0018037613481283188
1690842041088953900,1.294953857421875,-0.0001965709961950779,0.0009450604557059705,0.0005897935479879379
1690842041099025000,1.30502490234375,-0.001466632355004549,-0.000017672311514616013,0.0016705039888620377
1690842041109064700,1.315064697265625,-0.001375603023916483,0.0007217467064037919,0.0012065023183822632
1690842041119104500,1.3251044921875,0.0001051146537065506,-0.0022149209398776293,0.0019061136990785599
1690842041129145600,1.3351455078125,-0.000785602256655693,0.0021157495211809874,0.000997304916381836
1690842041139185700,1.345185546875,0.000800310168415308,-0.0005524717271327972,0.0001986231654882431
1690842041149225700,1.355225830078125,-0.00040801381692290306,0.00024884799495339394,0.00039066001772880554
1690842041159266800,1.365266845703125,0.0005680345930159092,-0.0002784578828141093,-0.0015510506927967072
1690842041169307000,1.375306884765625,-0.0007570972666144371,-0.0013395055430009961,-0.0006023701280355453
1690842041179346700,1.3853466796875,0.0009180312044918537,0.0007774413097649813,-0.0003919806331396103
1690842041189386500,1.395386474609375,0.0005427342839539051,0.00034317479003220797,-0.0004321075975894928
1690842041199427600,1.405427490234375,0.0003778846003115177,-0.000022743595764040947,-0.0020499788224697113
1690842041209467600,1.415467529296875,-0.0005169101059436798,-0.002141735516488552,-0.0006856303662061691
1690842041219507700,1.4255078125,-0.00010358728468418121,-0.0013190850149840117,-0.00022969767451286316
1690842041229548800,1.435548828125,0.0012528002262115479,0.0029003284871578217,-0.00018242932856082916
1690842041239588900,1.4455888671875,-0.0004002237692475319,-0.0003018564311787486,-0.0003225114196538925
1690842041249660000,1.455659912109375,-0.0009222822263836861,-0.0010075932368636131,0.0005505625158548355
1690842041259699500,1.465699462890625,-0.0002905800938606262,-0.0013854957651346922,0.0009649507701396942
1690842041269739500,1.475739501953125,0.0008688527159392834,0.0000754364300519228,0.0008525513112545013
1690842041279779600,1.485779541015625,-0.0009186607785522938,-0.0014233906986191869,0.0008765198290348053
1690842041289820700,1.495820556640625,-0.002004802692681551,-0.0009361745323985815,-0.0010527968406677246
1690842041299860700,1.50586083984375,0.0009475776460021734,-0.001384118339046836,-0.001009652391076088
1690842041309900800,1.51590087890625,0.0010175732895731926,0.001965033821761608,-0.00043363869190216064
1690842041319941600,1.525941650390625,-0.0004985644482076168,0.001658504013903439,0.002507289871573448
1690842041329981700,1.535981689453125,-0.001569787971675396,0.0007795583223924041,-0.0001021306961774826
1690842041340021500,1.546021484375,0.0009229306597262621,0.00010790908709168434,0.000989764928817749
1690842041350061600,1.5560615234375,-0.0008162339217960835,0.0000670372974127531,-0.00021979771554470062
1690842041360102700,1.5661025390625,-0.0009414027445018291,-0.0005215214332565665,0.0010308213531970978
1690842041370142700,1.576142822265625,-0.0006173625588417053,-0.0009904357139021158,-0.00126739963889122
1690842041380182800,1.586182861328125,-0.0007204269059002399,0.0008178505813702941,-0.0009486190974712372
1690842041390223600,1.5962236328125,-0.00035158591344952583,-0.00026606733445078135,-0.001363959163427353
1690842041400263700,1.606263671875,0.00021833041682839394,0.0019137299386784434,-0.0007093548774719238
1690842041410334500,1.61633447265625,-0.0001363423652946949,-0.0006323517300188541,-0.0018822960555553436
1690842041420374500,1.62637451171875,0.0007241247221827507,0.0004608760355040431,-0.0007696263492107391
1690842041430414600,1.63641455078125,-0.0007217461243271828,-0.0005491490010172129,0.0018816795200109482
1690842041440455700,1.64645556640625,0.0010212927591055632,-0.002343320520594716,0.0008840598165988922
1690842041450495700,1.656495849609375,-0.00036189891397953033,-0.0016714954981580377,-0.0009015537798404694
1690842041460535800,1.666535888671875,0.0007369210943579674,0.0006800758419558406,0.0009741112589836121
1690842041470575900,1.676575927734375,-0.0008969297632575035,-0.00023670203518122435,0.0005805902183055878
1690842041480616700,1.68661669921875,0.0020637065172195435,0.0011366901453584433,0.0010160170495510101
1690842041490656500,1.696656494140625,0.0002782447263598442,0.000543430563993752,-0.002619115635752678
1690842041500696600,1.706696533203125,-0.000034942757338285446,-0.00020864605903625488,-0.002745082601904869
1690842041510736600,1.716736572265625,0.00023467419669032097,0.00039043999277055264,-0.0021295826882123947
1690842041520777700,1.72677783203125,-0.0008188723586499691,-0.004110835026949644,-0.0012289024889469147
1690842041530817800,1.73681787109375,-0.0004155435599386692,0.0009713469189591706,-0.001671571284532547
1690842041540857900,1.74685791015625,0.0011605150066316128,0.0000813184306025505,0.000999579206109047
1690842041550898700,1.756898681640625,-0.0002948869951069355,-0.000055864336900413036,-0.00041417963802814484
1690842041560968700,1.76696875,0.00005398690700531006,0.0007414862047880888,0.002318223938345909
1690842041571009500,1.777009521484375,-0.0007769954390823841,0.0006453873356804252,0.0026991963386535645
1690842041581049600,1.787049560546875,-0.001363423652946949,0.0014195682015269995,0.000440303236246109
1690842041591089700,1.797089599609375,0.00003418978303670883,-0.0014838699717074633,-0.0002962034195661545
1690842041601130800,1.807130859375,-0.00005422718822956085,-0.00029849703423678875,-0.002889322116971016
1690842041611170800,1.8171708984375,0.0001700841821730137,-0.0008053970523178577,-0.0007131025195121765
1690842041621211000,1.8272109375,0.0018880893476307392,0.0009538870071992278,-0.00028886087238788605
1690842041631250700,1.837250732421875,0.0014279931783676147,0.00037192145828157663,0.0008260924369096756
1690842041641291500,1.84729150390625,-0.00019227387383580208,0.0009487621719017625,0.0012055933475494385
1690842041651331600,1.85733154296875,-0.0000687544234097004,0.002309651579707861,0.00038568489253520966
1690842041661371600,1.86737158203125,-0.0010932721197605133,-0.002808145247399807,0.000303393229842186
1690842041671412700,1.877412841796875,-0.0006011337973177433,0.000945368898101151,0.00021318532526493073
1690842041681452800,1.887452880859375,-0.0005143149755895138,0.0006532201077789068,-0.0007934886962175369
1690842041691492900,1.897492919921875,0.001084694406017661,0.003144971327856183,-0.0005205944180488586
1690842041701532700,1.90753271484375,0.00010198773816227913,0.0003206890542060137,-0.0007911715656518936
1690842041711603700,1.917603759765625,0.0005301274359226227,0.0009731418103910983,-0.000009218230843544006
1690842041721643800,1.927643798828125,-0.0007599075324833393,0.0002945683663710952,-0.0012739524245262146
1690842041731684600,1.9376845703125,0.0009284147527068853,0.0006726862629875541,0.0003628656268119812
1690842041741724700,1.947724609375,0.00003092968836426735,-0.0001843190984800458,0.0007879063487052917
1690842041751764700,1.9577646484375,0.0006872615776956081,-0.00003938016016036272,-0.0020061954855918884
1690842041761805800,1.967805908203125,0.0003743399865925312,-0.002354199532419443,0.0018732305616140366
1690842041771845600,1.977845703125,0.0004120580852031708,-0.0008782888762652874,0.00010117329657077789
1690842041781885700,1.9878857421875,-0.0005480111576616764,0.0004679391859099269,0.0002002418041229248
1690842041791925800,1.99792578125,-0.00008243415504693985,0.0015906330663710833,0.0007935725152492523
1690842041801966600,2.007966552734375,-0.000299748033285141,-0.0007753192912787199,0.0010564271360635757
1690842041812006700,2.018006591796875,0.0010776163544505835,0.001589797786436975,0.0002684313803911209
1690842041822046700,2.028046630859375,-0.0003991061821579933,0.0005730028497055173,-0.001638125628232956
1690842041832087800,2.038087890625,-0.00009542983025312424,0.000522509915754199,-0.002531949430704117
1690842041842128000,2.0481279296875,-0.00032446160912513733,0.000981106306426227,-0.001971086487174034
1690842041852167700,2.058167724609375,-0.00011791940778493881,-0.0025300299748778343,-0.0014985539019107819
1690842041862207700,2.068207763671875,0.000693012960255146,0.0005725526716560125,0.00019601546227931976
1690842041872278800,2.07827880859375,0.0009690967854112387,0.00026852882001549006,0.00003830902278423309
1690842041882319600,2.088319580078125,-0.0006359904073178768,-0.0015868954360485077,-0.00022747553884983063
1690842041892359700,2.098359619140625,-0.00023018615320324898,0.0021689217537641525,0.000949641689658165
1690842041902399700,2.108399658203125,0.001059848815202713,-0.0010226103477180004,-0.0004367996007204056
1690842041912439600,2.118439453125,-0.000385248102247715,-0.001472959527745843,0.00044189952313899994
1690842041922480600,2.128480712890625,0.00040544429793953896,-0.0019065223168581724,-0.00029526278376579285
1690842041932520700,2.138520751953125,-0.0009810607880353928,0.0019678601529449224,0.0006852578371763229
1690842041942560800,2.148560791015625,-0.0010106218978762627,0.000995806185528636,0.0013664942234754562
1690842041952600800,2.158600830078125,-0.00022452650591731071,0.0021127653308212757,0.00021940842270851135
1690842041962641700,2.1686416015625,-0.0005398448556661606,0.0002900980180129409,0.001370428130030632
1690842041972681700,2.178681640625,0.0010262695141136646,-0.0014292786363512278,-0.0002951584756374359
1690842041982721500,2.188721435546875,-0.0007332810200750828,-0.00038239010609686375,-0.0004621390253305435
1690842041992762600,2.1987626953125,-0.0004071197472512722,0.0005190245574340224,-0.0002602040767669678
1690842042002802700,2.208802734375,-0.0008867550641298294,-0.002150528132915497,-0.0010636784136295319
1690842042012842800,2.2188427734375,0.0003759469836950302,0.0004012930439785123,-0.0016613546758890152
1690842042022913500,2.22891357421875,-0.00017053354531526566,0.0019347411580383778,-0.00048370473086833954
1690842042032953600,2.23895361328125,-0.0020368285477161407,-0.0016881106421351433,-0.00016103126108646393
1690842042042994400,2.248994384765625,-0.0008642389439046383,0.0001795643474906683,-0.00021855533123016357
1690842042053034500,2.259034423828125,-0.0007196268998086452,0.001439620042219758,0.0029564369469881058
1690842042063074600,2.269074462890625,0.00011101271957159042,-0.0002456281799823046,0.0007595960050821304
1690842042073114600,2.279114501953125,-0.00009009381756186485,-0.002374302828684449,0.0003698449581861496
1690842042083155700,2.28915576171875,0.0018857053946703672,-0.000008883187547326088,-0.0015910398215055466
1690842042093195800,2.29919580078125,0.0008550863713026047,-0.0011838837526738644,0.0004994794726371765
1690842042103235600,2.309235595703125,0.0003251172602176666,0.0002198684960603714,0.00032051466405391693
1690842042113276400,2.3192763671875,-0.0009157303720712662,0.0021785818971693516,-0.001298658549785614
1690842042123316500,2.32931640625,-0.00011198827996850014,-0.000047820620238780975,0.001017492264509201
1690842042133356500,2.3393564453125,-0.000882850494235754,-0.001434404868632555,0.0016903895884752274
1690842042143396600,2.349396728515625,-0.0011824560351669788,0.0009403357980772853,-0.0002670343965291977
1690842042153437700,2.359437744140625,0.0004746364429593086,0.00009406369645148516,0.0004375521093606949
1690842042163477800,2.369477783203125,-0.0003450843505561352,0.0022970305290073156,-0.00006498768925666809
1690842042173548500,2.379548583984375,-0.0007623657584190369,-0.0005876370705664158,0.00042656436562538147
1690842042183588600,2.389588623046875,0.0008227480575442314,0.0010920185595750809,0.0010425522923469543
1690842042193628700,2.399628662109375,-0.0007223105058073997,0.0007721707224845886,0.0005681905895471573
1690842042203669500,2.40966943359375,-0.0018626758828759193,-0.004402351099997759,-0.00018734857439994812
1690842042213709600,2.41970947265625,-0.0008743349462747574,0.0011481759138405323,-0.0014682523906230927
1690842042223749600,2.42974951171875,0.0007677702233195305,0.0004008928081020713,-0.0018605366349220276
1690842042233789700,2.439789794921875,-0.0001035323366522789,-0.00038838875479996204,0.001006845384836197
1690842042243830800,2.449830810546875,0.0011052764020860195,-0.00023312633857131004,-0.0006552319973707199
1690842042253870600,2.45987060546875,-0.0017103571444749832,0.0011066554579883814,-0.002371184527873993
1690842042263910700,2.46991064453125,0.0004939408972859383,-0.0005389116704463959,0.00021873973309993744
1690842042273951500,2.479951416015625,0.001740825828164816,-0.00034168921411037445,-0.00028492510318756104
1690842042283991600,2.489991455078125,-0.0008616154082119465,-0.000584303168579936,0.00040590018033981323
1690842042294031600,2.500031494140625,-0.0002688458189368248,0.00029673974495381117,0.000132119283080101
1690842042304071700,2.51007177734375,0.00041878269985318184,-0.00039435061626136303,0.0007481090724468231
1690842042314112800,2.52011279296875,-0.00029028207063674927,-0.00010723317973315716,-0.0016209147870540619
1690842042324152600,2.530152587890625,0.00028203101828694344,0.00131303071975708,0.0004022885113954544
1690842042334223600,2.5402236328125,0.0005788947455585003,-0.0011152774095535278,-0.0014339350163936615
1690842042344263700,2.550263671875,-0.0017148861661553383,-0.0009509602095931768,-0.0013820026069879532
1690842042354303500,2.560303466796875,-0.00023333122953772545,-0.0010286075994372368,0.001378687098622322
1690842042364344600,2.570344482421875,0.001000511460006237,-0.0008070324547588825,-0.0018418729305267334
1690842042374384600,2.580384521484375,-0.0007741209119558334,0.0009997704764828086,0.0003297235816717148
1690842042384424700,2.5904248046875,0.0008213790133595467,-0.0005690976977348328,0.0018418673425912857
1690842042394465800,2.6004658203125,0.0005964324809610844,-0.0018230732530355453,-0.00002277269959449768
1690842042404505600,2.610505615234375,0.0011053623165935278,-0.0015658119227737188,-0.0007604677230119705
1690842042414545700,2.620545654296875,-0.0006911447271704674,0.000625104526989162,0.0018560811877250671
1690842042424585500,2.63058544921875,-0.0011412189342081547,0.0007340278243646026,0.0013024099171161652
1690842042434626600,2.64062646484375,-0.000097671989351511,0.00005572824738919735,0.00010068528354167938
1690842042444666600,2.65066650390625,-0.00090434355661273,0.0023673521354794502,-0.0002870708703994751
1690842042454706700,2.660706787109375,0.000889006769284606,0.0006134292343631387,-0.00021601282060146332
1690842042464746500,2.67074658203125,0.0009784889407455921,-0.00022520008496940136,-0.0012370683252811432
1690842042474787600,2.68078759765625,0.0005822209641337395,-0.0016067554242908955,-0.0008142199367284775
1690842042484858600,2.690858642578125,0.0009294971823692322,0.0017887749709188938,0.000013224780559539795
1690842042494898400,2.7008984375,-0.0007334155961871147,0.00007024011574685574,0.0008170157670974731
1690842042504938500,2.7109384765625,-0.00048547517508268356,-0.002464024117216468,0.0008340608328580856
1690842042514978600,2.720978515625,0.0004207552410662174,-0.0008033858612179756,0.0019465256482362747
1690842042525019600,2.73101953125,-0.0009206789545714855,-0.0005426623392850161,-0.00169401615858078
1690842042535059700,2.741059814453125,-0.00014397036284208298,-0.0006826699245721102,-0.0006415173411369324
1690842042545099500,2.751099609375,-0.0008204132318496704,0.002539754845201969,0.0007987208664417267
1690842042555140600,2.761140625,0.0009530209936201572,-0.0001883243676275015,0.0002543628215789795
1690842042565180400,2.771180419921875,0.000787106342613697,0.0009632264263927937,0.001488473266363144
1690842042575220500,2.781220458984375,0.0019328801427036524,-0.0009990236721932888,-0.00033589452505111694
1690842042585260500,2.791260498046875,-0.00009192107245326042,0.0018963649636134505,-0.0001662522554397583
1690842042595301600,2.801301513671875,0.0020608827471733093,-0.0008922030683606863,0.0007429234683513641
1690842042605341700,2.811341796875,0.0007660537958145142,-0.002037628786638379,-0.0005316659808158875
1690842042615381500,2.821381591796875,0.0007602274417877197,0.0022179873194545507,0.00047701410949230194
1690842042625422600,2.831422607421875,-0.000427010003477335,-0.0006664823740720749,0.0005033779889345169
1690842042635492600,2.84149267578125,0.0007650116458535194,-0.002429051324725151,0.0021019987761974335
1690842042645533400,2.851533447265625,-0.0009729671292006969,0.0009579568868502975,-0.0006764773279428482
1690842042655573500,2.861573486328125,0.0000873710960149765,0.002138099167495966,-0.0014080274850130081
1690842042665613600,2.871613525390625,-0.0011739018373191357,0.0006403373554348946,-0.0005749911069869995
1690842042675653400,2.8816533203125,-0.0006409883499145508,0.00011673616245388985,0.0002233702689409256
1690842042685694500,2.891694580078125,0.0002823295071721077,-0.0003573065623641014,-0.0008016806095838547
1690842042695734500,2.901734619140625,-0.00017626117914915085,-0.0008037067018449306,0.0013883933424949646
1690842042705774600,2.911774658203125,-0.0008292682468891144,0.0007124308031052351,-0.00021003559231758118
1690842042715815400,2.9218154296875,-0.0008020964451134205,-0.0007692473009228706,-0.0031398553401231766
1690842042725855500,2.93185546875,0.0005159019492566586,0.00011492217890918255,0.0008314512670040131
1690842042735895600,2.9418955078125,-0.000014752615243196487,-0.0005111820064485073,0.0006667152047157288
1690842042745935600,2.951935546875,-0.0019266358576714993,0.00015886931214481592,0.00037350133061408997
1690842042755976700,2.961976806640625,-0.0003049843944609165,-0.0007337392307817936,0.00011076219379901886
1690842042766016500,2.9720166015625,0.001129127573221922,0.0009645585669204593,-0.0007430464029312134
1690842042776056600,2.982056640625,0.0007057641632854939,-0.0012533175759017467,-0.0009059421718120575
1690842042786127600,2.992127685546875,0.0003651459701359272,-0.000060221413150429726,0.0008520092815160751
1690842042796167700,3.002167724609375,-0.00023502018302679062,-0.0000025695189833641052,0.0009675268083810806
1690842042806208500,3.01220849609375,-0.00014766817912459373,-0.0003197521436959505,-0.0005973465740680695
1690842042816248600,3.02224853515625,-0.0017669787630438805,0.00012601632624864578,-0.0007520187646150589
1690842042826288400,3.032288330078125,-0.0009861397556960583,-0.0006423057056963444,0.0017249863594770432
1690842042836329500,3.04232958984375,-0.000252394936978817,-0.00125360325910151,-0.0020354632288217545
1690842042846369500,3.05236962890625,0.0001342957839369774,-0.0008306934032589197,-0.00010786764323711395
1690842042856409600,3.06240966796875,-0.0005061719566583633,0.0015415902016684413,-0.0018029585480690002
1690842042866449700,3.07244970703125,-0.00006089126691222191,0.001472614356316626,0.0014085471630096436
1690842042876490500,3.082490478515625,-0.0008508688770234585,0.0009043085156008601,-0.0002894289791584015
1690842042886530600,3.092530517578125,0.0007925676181912422,-0.0018826895393431187,-0.00008409842848777771
1690842042896570600,3.102570556640625,-0.000005336478352546692,0.0017742767231538892,0.0010002274066209793
1690842042906611700,3.11261181640625,-0.000031435396522283554,0.0017782715149223804,0.00007211603224277496
1690842042916651500,3.122651611328125,0.00047175679355859756,0.0023613148368895054,0.0021303780376911163
1690842042926691600,3.132691650390625,0.0005156989209353924,-0.00015563867054879665,0.002077115699648857
1690842042936731600,3.142731689453125,-0.0007448531687259674,-0.002361767925322056,-0.0015257112681865692
1690842042946802700,3.152802734375,-0.0007725497707724571,0.0007496030302718282,0.0010903123766183853
1690842042956842800,3.1628427734375,-0.00048267142847180367,-0.00048341485671699047,0.001333313062787056
1690842042966883600,3.172883544921875,-0.00031542452052235603,-0.0024656057357788086,-0.000352734699845314
1690842042976923400,3.18292333984375,0.00037366198375821114,0.0032292879186570644,0.0015247948467731476
1690842042986958000,3.1929580078125,0.0010801984462887049,0.00036159600131213665,0.002022538334131241
1690842042996999000,3.2029990234375,-0.00014014402404427528,-0.0012456057593226433,0.0008337032049894333
1690842043007039000,3.2130390625,-0.0016293833032250404,-0.0018618612084537745,0.00021798163652420044
1690842043017078800,3.223078857421875,-0.001368470024317503,0.0007445322116836905,-0.0005935840308666229
1690842043027118800,3.233118896484375,-0.00043023843318223953,0.00023160746786743402,-0.0020790938287973404
1690842043037160000,3.243159912109375,0.0007262676954269409,-0.0008043602574616671,0.00004894472658634186
1690842043047200000,3.253199951171875,0.0007827267982065678,-0.0006983664352446795,0.0005991533398628235
1690842043057240000,3.263239990234375,-0.0007113399915397167,0.001305969781242311,0.00007737241685390472
1690842043067281000,3.273281005859375,0.0007496699690818787,0.0001272546360269189,-0.00032982416450977325
1690842043077321000,3.283321044921875,0.001757659949362278,0.00016660080291330814,-0.0001948680728673935
1690842043087361000,3.293361083984375,0.00014271913096308708,0.00030828104354441166,0.0002823714166879654
1690842043097431800,3.303431884765625,0.0010106614790856838,-0.001041000010445714,-0.0007572639733552933
1690842043107472000,3.313471923828125,0.0009752414189279079,0.001106839394196868,0.0005495492368936539
1690842043117512000,3.323511962890625,-0.0013780398294329643,-0.0006937703583389521,-0.0009892657399177551
1690842043127553000,3.333552978515625,-0.0007905461825430393,0.00038720667362213135,0.0010488517582416534
1690842043137593000,3.343593017578125,-0.000705973245203495,0.0008325865492224693,0.0007303338497877121
1690842043147633200,3.353633056640625,0.0008003106340765953,-0.00014665769413113594,0.0008376594632863998
1690842043157674000,3.363674072265625,0.001096678664907813,-0.0009748293086886406,0.0005546417087316513
1690842043167713800,3.3737138671875,0.0003725653514266014,-0.0013213066849857569,0.00026382505893707275
1690842043177753900,3.38375390625,0.0009169077966362238,-0.001215826254338026,-0.00014422833919525146
1690842043187794000,3.3937939453125,-0.001665026880800724,-0.0010736135300248861,0.0008696373552083969
1690842043197835000,3.4038349609375,-0.0004073004238307476,-0.00024718232452869415,0.0002663861960172653
1690842043207875000,3.413875,-0.0008547115139663219,-0.0006943270564079285,0.0019292626529932022
1690842043217915100,3.4239150390625,-0.0008770865388214588,-0.002575419843196869,-0.0004246234893798828
1690842043227956000,3.4339560546875,-0.00010130787268280983,-0.00009894627146422863,0.00007604993879795074
1690842043237996000,3.44399609375,-0.0008185873739421368,0.0003316581714898348,-0.0009515807032585144
1690842043248066800,3.45406689453125,-0.00175495445728302,0.00010342535097151995,0.00038079917430877686
1690842043258107000,3.46410693359375,-0.0006821774877607822,-0.001494870288297534,0.00009545870125293732
1690842043268147000,3.47414697265625,-0.0007636700756847858,-0.001617375761270523,-0.00027765147387981415
1690842043278188000,3.48418798828125,-0.000925461295992136,-0.0005793927703052759,-0.00151108019053936
1690842043288228000,3.49422802734375,-0.0010935068130493164,0.0007559162331745028,-0.00004314631223678589
1690842043298268200,3.50426806640625,-0.000623960979282856,-0.0008631199598312378,-0.0008119884878396988
1690842043308308000,3.514307861328125,0.0002527516335248947,0.0017680833116173744,0.001191241666674614
1690842043318348800,3.524348876953125,0.0003722812980413437,0.00017810752615332603,0.00042596831917762756
1690842043328388900,3.534388916015625,0.0020801667124032974,0.0011613466776907444,0.0010760445147752762
1690842043338429000,3.544428955078125,0.00007447833195328712,-0.0017139411065727472,0.0006187893450260162
1690842043348470000,3.554469970703125,-0.00033058831468224525,-0.0016976958140730858,-0.00006191432476043701
1690842043358510000,3.564510009765625,0.0000349520705640316,0.0016872474225237966,-0.0009475182741880417
1690842043368550100,3.574550048828125,-0.001984523143619299,-0.0007969492580741644,-0.00010809116065502167
1690842043378590200,3.584590087890625,0.0002430882304906845,-0.00018441840074956417,-0.0017139986157417297
1690842043388631000,3.594631103515625,-0.0011225808411836624,-0.0006613906007260084,0.0001925583928823471
1690842043398701000,3.604701171875,0.0003355061635375023,0.0002677480224519968,0.001412888988852501
1690842043408742000,3.614741943359375,-0.0006416076794266701,-0.0016928710974752903,0.0010096859186887741
1690842043418782000,3.624781982421875,0.001007499871775508,-0.001071394421160221,-0.0022843722254037857
1690842043428822000,3.634822021484375,0.0006402498111128807,0.0009081332245841622,0.002118632197380066
1690842043438863000,3.644863037109375,0.0010091520380228758,-0.0009182451758533716,0.001431155949831009
1690842043448903200,3.654903076171875,-0.0007823565974831581,0.001076728687621653,0.00007800385355949402
1690842043458943000,3.66494287109375,0.0010044446680694818,-0.002869830932468176,-0.0007178876549005508
1690842043468983000,3.674983154296875,-0.0000403132289648056,0.000307586626149714,0.0009588394314050674
1690842043479023900,3.68502392578125,-0.0006374549120664597,0.00008583837188780308,-0.0005970485508441925
1690842043489064000,3.69506396484375,0.000528477132320404,0.002114368136972189,0.0006849970668554306
1690842043499104000,3.70510400390625,-0.0002818256616592407,0.0005756617756560445,-0.0005641505122184753
1690842043509145000,3.71514501953125,0.0008984874002635479,-0.0013047961983829737,0.002015385776758194
1690842043519185200,3.72518505859375,0.0020874026231467724,0.0012896009720861912,0.0007841251790523529
1690842043529225000,3.735224853515625,0.0003299824893474579,0.0008842678507789969,-0.0004313420504331589
1690842043539265000,3.74526513671875,-0.0007673907093703747,-0.0005823597311973572,0.000546799972653389
1690842043549305900,3.755305908203125,0.00044860877096652985,0.0003649267600849271,0.001898355782032013
1690842043559377000,3.765376953125,0.0007135914638638496,-0.0004942151717841625,-0.0007264446467161179
1690842043569417000,3.7754169921875,0.00007842760533094406,0.0016704020090401173,-0.000006059184670448303
1690842043579457000,3.78545703125,-0.0006569758988916874,-0.0006293903570622206,0.0006952323019504547
1690842043589497000,3.7954970703125,-0.00041835661977529526,-0.0003401711583137512,-0.00047735683619976044
1690842043599538200,3.8055380859375,-0.0018247710540890694,-0.0003387131728231907,0.0016446858644485474
1690842043609578000,3.815577880859375,0.0013574403710663319,0.001725236652418971,-0.0017543062567710876
1690842043619618000,3.8256181640625,-0.00034408317878842354,0.00020356103777885437,0.0004022233188152313
1690842043629657900,3.835657958984375,-0.0003526052460074425,-0.0027171275578439236,-0.0016108602285385132
1690842043639699000,3.845698974609375,0.0006709340959787369,0.001130232703872025,0.00032903626561164856
1690842043649739000,3.855739013671875,-0.0002574441023170948,0.00039440125692635775,-0.0007143896073102951
1690842043659779000,3.865779052734375,-0.0010180119425058365,0.0030294631142169237,0.000031225383281707764
1690842043669820200,3.875820068359375,0.0016270396299660206,0.0004786874633282423,0.0006892923265695572
1690842043679860000,3.88585986328125,-0.001653444953262806,0.0009275616612285376,-0.0016121398657560349
1690842043689900000,3.895900146484375,0.0004933290183544159,-0.0008466362487524748,-0.0015237238258123398
1690842043699939800,3.90593994140625,-0.0027153147384524345,0.21101176738739014,-0.09410268068313599
1690842043710011000,3.916010986328125,0.000046117231249809265,0.1378779113292694,-0.0988399088382721
1690842043720052000,3.926052001953125,0.05254651606082916,-0.10047540813684464,-0.12079598009586334
1690842043730092000,3.936092041015625,-0.01630178838968277,-0.08097174763679504,-0.08841247856616974
1690842043740132000,3.946132080078125,0.0017484165728092194,-0.03329317271709442,-0.08019841462373734
1690842043750172000,3.956171875,-0.00649060495197773,-0.02330552041530609,-0.038785725831985474
1690842043760213000,3.966212890625,-0.00902595929801464,0.016584567725658417,-0.0008107293397188187
1690842043770253000,3.976253173828125,-0.004141988232731819,0.05169914662837982,0.03283058851957321
1690842043780292900,3.98629296875,-0.0007555494084954262,0.06816883385181427,0.060206957161426544
1690842043790334000,3.996333984375,0.0030048340559005737,0.0588831901550293,0.07655902951955795
1690842043800374000,4.0063740234375,0.005332790780812502,0.03643724322319031,0.08087097853422165
1690842043810414000,4.0164140625,0.003137547057121992,0.00380899291485548,0.07576251029968262
1690842043820454000,4.026453857421875,0.0028109559789299965,-0.03745026886463165,0.05709531903266907
1690842043830495000,4.036494873046875,-0.0015507694333791733,-0.054435912519693375,0.03303419053554535
1690842043840535000,4.04653515625,-0.005169738549739122,-0.053960006684064865,0.009795981459319592
1690842043850574800,4.056574951171875,-0.0016602249816060066,-0.03956428915262222,-0.01352878101170063
1690842043860646000,4.06664599609375,-0.0017809141427278519,-0.012215887196362019,-0.033078424632549286
1690842043870686000,4.07668603515625,0.00012644147500395775,0.015857825055718422,-0.044159844517707825
1690842043880727000,4.08672705078125,0.002847998170182109,0.03763842210173607,-0.05367771536111832
1690842043890767000,4.09676708984375,0.002767836907878518,0.04889959841966629,-0.052454523742198944
1690842043900807000,4.106806884765625,0.0030439584515988827,0.044993139803409576,-0.04588548094034195
1690842043910847000,4.116846923828125,-0.001066630706191063,0.028696192428469658,-0.03750291466712952
1690842043920888000,4.12688818359375,-0.0012727230787277222,0.0038559208624064922,-0.021112890914082527
1690842043930927900,4.136927978515625,-0.002888995688408613,-0.020602283999323845,-0.004919271916151047
1690842043940968000,4.146968017578125,-0.001807591412216425,-0.0326019823551178,0.012189263477921486
1690842043951009000,4.157009033203125,-0.002047009766101837,-0.03357483446598053,0.028253450989723206
1690842043961049000,4.167049072265625,-0.00015959329903125763,-0.02317162975668907,0.03737998008728027
1690842043971089000,4.1770888671875,0.0003019324503839016,-0.0073897382244467735,0.043043456971645355
1690842043981129000,4.18712890625,0.00011537875980138779,0.004963169805705547,0.04253154247999191
1690842043991137800,4.1971376953125,0.0007276395335793495,0.015355090610682964,0.03114599548280239
1690842044001177900,4.207177734375,-0.00034913886338472366,0.015672100707888603,0.018069665879011154
1690842044011217700,4.2172177734375,0.00016991142183542252,0.014776745811104774,0.004336809739470482
1690842044021288700,4.227288818359375,-0.0013943281956017017,0.00491507351398468,-0.01043754629790783
1690842044031328800,4.237328857421875,-0.00010668952018022537,-0.0012413556687533855,-0.02133973129093647
1690842044041369600,4.24736962890625,-0.00036533456295728683,-0.00999743863940239,-0.03190997987985611
1690842044051409700,4.25740966796875,0.0010282979346811771,-0.011479487642645836,-0.033204272389411926
1690842044061449700,4.26744970703125,0.0005006394349038601,-0.007082046940922737,-0.028995977714657784
1690842044071489800,4.27748974609375,0.000819686334580183,-0.0017432074528187513,-0.024134909734129906
1690842044081531000,4.28753076171875,-0.0018308847211301327,0.002331895986571908,-0.014704661443829536
1690842044091570700,4.29757080078125,0.0008668974041938782,0.010741093195974827,-0.004301290959119797
1690842044101610800,4.30761083984375,0.00009215902537107468,0.008808371610939503,0.004506761208176613
1690842044111651600,4.317651611328125,-0.0002660360187292099,0.0066687879152596,0.01616368256509304
1690842044121691600,4.327691650390625,0.0010419185273349285,0.0012803560821339488,0.020786110311746597
1690842044131731700,4.337731689453125,0.00015402073040604591,-0.004370871931314468,0.02369188517332077
1690842044141771800,4.347771728515625,0.00014933571219444275,-0.0061210691928863525,0.02183675765991211
1690842044151812900,4.357812744140625,0.0002169799990952015,-0.008944818750023842,0.01876320317387581
1690842044161852700,4.367852783203125,-0.0019259843975305557,-0.00722838519141078,0.01135348156094551
1690842044171923700,4.377923828125,0.0004689963534474373,-0.0017768950201570988,0.00419091060757637
1690842044181963800,4.3879638671875,-0.0017621498554944992,0.0014291552361100912,-0.0024132952094078064
1690842044192003800,4.39800390625,0.0009657260961830616,0.005437212530523539,-0.011597208678722382
1690842044202044700,4.408044677734375,-0.00025326525792479515,0.00786317978054285,-0.017548250034451485
1690842044212084700,4.418084716796875,0.0008964217267930508,0.005977661348879337,-0.01926119439303875
1690842044222124800,4.428124755859375,0.0003333576023578644,0.0030666314996778965,-0.018815649673342705
1690842044232166000,4.438165771484375,-0.001113271340727806,-0.00040027149952948093,-0.016515476629137993
1690842044242205700,4.448205810546875,-0.0005736066959798336,-0.00461282953619957,-0.01178317703306675
1690842044252245800,4.458245849609375,0.0010647701565176249,-0.004030129872262478,-0.0050866566598415375
1690842044262285800,4.468285888671875,0.0004884130321443081,-0.0024952178355306387,0.004128774628043175
1690842044272326700,4.47832666015625,-0.0009584822691977024,-0.0011806816328316927,0.010200249031186104
1690842044282366700,4.48836669921875,0.0003943322226405144,0.003129981691017747,0.013553429394960403
1690842044292406800,4.49840673828125,0.0002001877874135971,0.00327645568177104,0.015450665727257729
1690842044302447900,4.50844775390625,0.000554701779037714,0.0015487258788198233,0.01386892981827259
1690842044312487700,4.51848779296875,-0.000516155268996954,0.0009332693880423903,0.010418272577226162
1690842044322558700,4.528558837890625,0.00003509502857923508,0.00334363104775548,0.0067209163680672646
1690842044332598800,4.538598876953125,-0.00030525680631399155,-0.002645285567268729,0.001573825255036354
1690842044342638800,4.548638916015625,-0.0004828176461160183,-0.002751611638814211,-0.0026267822831869125
1690842044352678700,4.5586787109375,0.0005073458887636662,-0.004295979160815477,-0.008117955178022385
1690842044362719700,4.5687197265625,-0.0003836313262581825,-0.000024750130251049995,-0.01066969707608223
1690842044372759600,4.578759521484375,-0.000019310973584651947,-0.00040664756670594215,-0.010342663154006004
1690842044382799600,4.588799560546875,0.0008627199567854404,0.003342499490827322,-0.007277460768818855
1690842044392840700,4.5988408203125,0.0012025393079966307,0.0025763080921024084,-0.007900107651948929
1690842044402880800,4.608880859375,0.00004652375355362892,0.0037496606819331646,-0.003926713019609451
1690842044412920800,4.6189208984375,0.0001764860935509205,0.0007397561566904187,-0.0026526562869548798
1690842044422960600,4.628960693359375,-0.0000027492642402648926,0.0011462804395705462,0.0018732920289039612
1690842044433001700,4.639001708984375,-0.00043071946129202843,-0.0020921234972774982,0.003421921283006668
1690842044443041800,4.649041748046875,0.00047711096704006195,-0.004530337173491716,0.0066090598702430725
1690842044453081600,4.65908154296875,0.0010736589320003986,-0.003025118727236986,0.0079725980758667
1690842044463122700,4.669122802734375,-0.0008843089453876019,-0.0024361966643482447,0.006926024332642555
1690842044473192700,4.679192626953125,0.0003338209353387356,0.0008203168399631977,0.005367542617022991
1690842044483233800,4.68923388671875,-0.000216703861951828,0.0012283476535230875,0.004300991073250771
1690842044493273900,4.69927392578125,0.0005763857625424862,0.0024475427344441414,0.00043621286749839783
1690842044503313700,4.709313720703125,-0.0009182384237647057,0.003086069831624627,-0.0018160715699195862
1690842044513354800,4.719354736328125,0.0009185438975691795,0.002704438753426075,-0.005963413044810295
1690842044523394600,4.72939453125,0.0005297008901834488,0.0032913670875132084,-0.006399950012564659
1690842044533434600,4.7394345703125,0.0006439504213631153,-0.0013798174913972616,-0.008056169375777245
1690842044543474700,4.749474609375,0.00014669308438897133,-0.0011448368895798922,-0.00517662800848484
1690842044553515800,4.759515869140625,-0.0002344050444662571,-0.0033525973558425903,-0.006396621465682983
1690842044563555800,4.769555908203125,0.00012028682976961136,-0.0013860724866390228,-0.001766946166753769
1690842044573595600,4.779595703125,0.0007602442055940628,-0.0001663446892052889,-0.0005616005510091782
1690842044583635700,4.7896357421875,-0.0008332529105246067,-0.0009693584870547056,0.0010324884206056595
1690842044593676800,4.7996767578125,-4.824250936508179e-7,0.0003718094667419791,0.003647180274128914
1690842044603716600,4.809716552734375,0.00029295170679688454,0.002707438077777624,0.0045018270611763
1690842044613756700,4.819756591796875,-0.00047244084998965263,0.0013681345153599977,0.005354837514460087
1690842044623797800,4.8297978515625,0.00048172101378440857,-0.00010160333476960659,0.003969205543398857
1690842044633867800,4.83986767578125,0.0003813197836279869,-0.00033090170472860336,0.0031337719410657883
1690842044643908900,4.849908935546875,0.0007413662970066071,-0.001545334467664361,0.0002220943570137024
1690842044653948700,4.85994873046875,-0.0009382897987961769,0.0012744204141199589,-0.0014277342706918716
1690842044663988500,4.869988525390625,-0.0008595399558544159,0.0003052307292819023,-0.001433415338397026
1690842044674029600,4.880029541015625,0.0012645975220948458,-0.002405600855126977,-0.0044044386595487595
1690842044684069600,4.890069580078125,-0.0002441038377583027,0.002071770839393139,-0.004333242774009705
1690842044694109700,4.900109619140625,-0.0009056329727172852,0.0009271441958844662,-0.004311671480536461
1690842044704149800,4.910149658203125,-0.00034102797508239746,0.0015357532538473606,-0.002646777778863907
1690842044714190800,4.92019091796875,0.0004232996143400669,-0.0001505604013800621,-0.003240128979086876
1690842044724230700,4.930230712890625,0.00020178686827421188,-0.0001438446342945099,0.00015355832874774933
1690842044734270700,4.940270751953125,0.0001439959742128849,-0.0005294701550155878,0.0012004468590021133
1690842044744311800,4.950311767578125,-0.0009422674775123596,-0.0016032545827329159,0.0010951627045869827
1690842044754351600,4.9603515625,0.0004700068384408951,0.00043832475785166025,0.002665894106030464
1690842044764391700,4.9703916015625,0.0006548678502440453,-0.0003201302606612444,0.0011933129280805588
1690842044774431700,4.980431640625,-0.0023057684302330017,0.0005584466271102428,0.004042895510792732
1690842044784502800,4.990502685546875,-0.00035554496571421623,-0.00010163499973714352,0.003051169216632843
1690842044794542800,5.00054296875,0.0006950721144676208,0.0008752124849706888,0.00026710145175457
1690842044804583700,5.010583740234375,0.0016753969248384237,0.00292777712456882,0.0012600179761648178
1690842044814623500,5.02062353515625,0.0009739203378558159,0.0012686277041211724,-0.00027769245207309723
1690842044824663600,5.03066357421875,-0.001354898326098919,0.000980217824690044,-0.002034783363342285
1690842044834704600,5.04070458984375,-0.0008787252008914948,-0.0036925647873431444,-0.0032129641622304916
1690842044844744700,5.05074462890625,0.00030874647200107574,-0.0032960916869342327,-0.005000291392207146
1690842044854784800,5.06078466796875,0.0008578901179134846,0.0006256795022636652,-0.0000377558171749115
1690842044864824800,5.070824951171875,-0.0016525676473975182,0.0013274120865389705,-0.0008396320044994354
1690842044874865700,5.08086572265625,0.0003866148181259632,0.0011902593541890383,0.0017343126237392426
1690842044884905700,5.09090576171875,-0.0006696074269711971,0.00202210433781147,0.0022995322942733765
1690842044894945500,5.100945556640625,-0.001251774374395609,0.002152599161490798,0.0024816934019327164
1690842044904986600,5.110986572265625,-0.000971068162471056,0.0005800686776638031,0.0016599297523498535
1690842044915026700,5.121026611328125,0.0005522603169083595,-0.000708102248609066,0.0021571405231952667
1690842044925066800,5.131066650390625,-0.0001669316552579403,0.0001884817611426115,0.0000019818544387817383
1690842044935137800,5.1411376953125,0.00045038899406790733,-0.00014920695684850216,-0.0006156042218208313
1690842044945177900,5.151177734375,0.0009171697311103344,-0.0007895713206380606,-0.0013350173830986023
1690842044955218700,5.16121875,-0.0008226735517382622,-0.000060397665947675705,-0.0005017146468162537
1690842044965258500,5.171258544921875,-0.00033094827085733414,-0.0009849632624536753,0.00017080828547477722
1690842044975298600,5.181298583984375,0.0010102195665240288,-0.00001663784496486187,-0.0009682253003120422
1690842044985338600,5.191338623046875,-0.00031471485272049904,0.0003300949465483427,0.001997135579586029
1690842044995381000,5.201381103515625,-0.0004108548164367676,0.0008414218900725245,0.0015148371458053589
1690842045005421000,5.211421142578125,-0.0007364382036030293,0.0006056564161553979,-0.0010106265544891357
1690842045015461000,5.221461181640625,0.0003149779513478279,0.0006354838842526078,0.0004053749144077301
1690842045025502200,5.231502197265625,-0.001365378499031067,-0.000053230905905365944,0.0006433166563510895
1690842045035542300,5.241542236328125,0.00019363593310117722,0.0005257404409348965,-0.0017490014433860779
1690842045045582300,5.251582275390625,-0.00044038379564881325,0.00024834659416228533,-0.002060387283563614
1690842045055622100,5.2616220703125,-0.0007937848567962646,-0.0013215867802500725,0.000625142827630043
1690842045065663000,5.2716630859375,-0.00023369770497083664,-0.0027238158509135246,-0.0004407670348882675
1690842045075703000,5.281703125,-0.0016670110635459423,-0.0002691803965717554,0.0008655134588479996
1690842045085774000,5.291774169921875,-0.00039143674075603485,-0.002699458273127675,0.00035192258656024933
1690842045095814100,5.301814208984375,0.0007571843452751637,0.0006646468536928296,0.0014233123511075974
1690842045105854200,5.311854248046875,-0.00011669425293803215,0.0009383775759488344,0.0011978764086961746
1690842045115895300,5.321895263671875,-0.00006556138396263123,0.0031852866522967815,0.0014061350375413895
1690842045125935400,5.331935302734375,0.00021739304065704346,0.0002738719340413809,-0.0009513441473245621
1690842045135975200,5.34197509765625,0.0013063594233244658,0.0007521756924688816,-0.0018102135509252548
1690842045146015200,5.35201513671875,-0.0012277327477931976,0.0017439249204471707,0.0005347840487957001
1690842045156056000,5.36205615234375,0.00017442135140299797,-0.0010055226739495993,-0.0028988290578126907
1690842045166096100,5.37209619140625,-0.00040168827399611473,0.00027673307340592146,-0.0009584464132785797
1690842045176136200,5.38213623046875,-0.0008522951975464821,-0.0013986616395413876,0.0009608939290046692
1690842045186177300,5.39217724609375,0.0005607632920145988,0.0007351347012445331,0.001751946285367012
1690842045196217300,5.40221728515625,0.0008073719218373299,0.0002078288234770298,-0.0013517029583454132
1690842045206257200,5.412257080078125,-0.00029886234551668167,0.0006508717779070139,0.00038880854845046997
1690842045216297200,5.422297119140625,-0.0016786460764706135,0.0007515392499044538,0.0012783035635948181
1690842045226338000,5.432338134765625,0.0011189042124897242,-0.0009840286802500486,-0.0007905755192041397
1690842045236408300,5.442408203125,-0.0002813860774040222,0.001171267475001514,0.0004437994211912155
1690842045246449200,5.45244921875,-0.00031067803502082825,0.0011912018526345491,-0.0007413625717163086
1690842045256489200,5.4624892578125,0.001511190552264452,0.0021616576705127954,-0.0017525646835565567
1690842045266529000,5.472529052734375,0.0013758917339146137,0.000700980075635016,0.00041212886571884155
1690842045276570000,5.482570068359375,0.0017524627037346363,-0.00044630980119109154,-0.0006448794156312943
1690842045286610200,5.492610107421875,-0.001319920178502798,-0.0015190523117780685,-0.0014925841242074966
1690842045296650200,5.502650146484375,-0.0010043354704976082,0.0010216033551841974,0.00006403401494026184
1690842045306690300,5.512690185546875,0.001789524918422103,0.0017527567688375711,-0.0006880573928356171
1690842045316731100,5.522731201171875,0.00021293340250849724,-0.0007394293788820505,-0.00034371018409729004
1690842045326771200,5.532771240234375,0.0004916377365589142,0.00021238357294350863,-0.0007539279758930206
1690842045336811300,5.542811279296875,-0.0006181015633046627,0.0011902962578460574,-0.0009536650031805038
1690842045346852400,5.552852294921875,0.0007839794270694256,0.001057774294167757,-0.0009709540754556656
1690842045356892200,5.56289208984375,0.0009104795753955841,0.0008564393501728773,0.0006975177675485611
1690842045366932200,5.57293212890625,0.0006033251993358135,0.0014118540566414595,0.0005600564181804657
1690842045376972300,5.58297216796875,0.00037642382085323334,0.001273636007681489,0.00036511383950710297
1690842045387013000,5.59301318359375,-0.00018555298447608948,0.0004919667262583971,0.0009573716670274734
1690842045397084200,5.603084228515625,0.0009260505903512239,-0.00029686163179576397,0.0004598945379257202
1690842045407124200,5.613124267578125,-0.00013671349734067917,0.0006909118965268135,0.0009769126772880554
1690842045417164000,5.6231640625,0.00015037553384900093,0.00040648633148521185,0.0005705133080482483
1690842045427204000,5.6332041015625,-0.0017538340762257576,-0.000048494781367480755,0.00010956078767776489
1690842045437245200,5.6432451171875,-0.000586304347962141,-0.0011603647144511342,-0.0030260439962148666
1690842045447285200,5.65328515625,0.0008552153594791889,0.0009631257271394134,0.0017034262418746948
1690842045457325300,5.6633251953125,0.0006988877430558205,0.001970333280041814,-0.0005514733493328094
1690842045467366100,5.6733662109375,0.0006075706332921982,0.0003972381819039583,-0.0003956221044063568
1690842045477406200,5.68340625,-0.0007200147956609726,0.000485388794913888,-0.00025527365505695343
1690842045487446300,5.6934462890625,-0.00022283196449279785,0.00004169438034296036,0.0009725969284772873
1690842045497486000,5.703486083984375,-0.00023002224043011665,-0.0028382479213178158,-0.002478061243891716
1690842045507527200,5.713527099609375,0.0009816705714911222,0.000951697351410985,-0.0020559318363666534
1690842045517567200,5.723567138671875,-0.00046682264655828476,-0.00043820636346936226,0.00027460046112537384
1690842045527607300,5.733607177734375,0.0011431730818003416,-0.0009260298684239388,-0.0002249162644147873
1690842045537648000,5.743648193359375,-0.0004589846357703209,-0.001515120966359973,0.0006195716559886932
1690842045547718400,5.753718505859375,-0.0003919876180589199,0.002074776217341423,0.0013267267495393753
1690842045557759200,5.76375927734375,0.002063447143882513,-0.0006901174783706665,-0.0020658746361732483
1690842045567799000,5.773799072265625,0.0002445001155138016,-0.00019719789270311594,-0.00014025159180164337
1690842045577839000,5.783839111328125,-0.00045138411223888397,0.00003050232771784067,-0.00016821548342704773
1690842045587879200,5.793879150390625,0.0014106365852057934,-0.00021672004368156195,-0.0007490254938602448
1690842045597920300,5.803920166015625,-0.0005180244334042072,-0.0005733174039050937,-0.0007066819816827774
1690842045607960300,5.813960205078125,-0.0005184654146432877,-0.0002874282654374838,0.0006178580224514008
1690842045618000400,5.82400048828125,-0.0007080826908349991,-0.0013678725808858871,0.0009041484445333481
1690842045628041200,5.834041259765625,-0.00040329620242118835,0.0006631436990574002,-0.000288497656583786
1690842045638081300,5.844081298828125,-0.0005380520597100258,-0.0011627194471657276,-0.0011974349617958069
1690842045648121000,5.85412109375,0.0009824868757277727,0.0004999910015612841,0.0008498318493366241
1690842045658161200,5.8641611328125,0.00023839948698878288,-0.0016257441602647305,-0.0005826819688081741
1690842045668202200,5.8742021484375,-0.0009512621909379959,-0.0024664876982569695,-0.00012618117034435272
1690842045678242300,5.8842421875,-0.00017255358397960663,-0.0005958835827186704,0.001654408872127533
1690842045688282400,5.894282470703125,0.001998536055907607,0.0016185231506824493,0.0005157440900802612
1690842045698353400,5.904353515625,-0.0003618234768509865,-0.0026364093646407127,0.0018031168729066849
1690842045708393200,5.914393310546875,-0.000631475355476141,0.0011076757218688726,0.0006337817758321762
1690842045718434000,5.92443408203125,-0.0005907290615141392,-0.0008827708661556244,-0.0016754437237977982
1690842045728474000,5.93447412109375,0.00003650318831205368,0.0013435439905151725,0.00022466294467449188
1690842045738514200,5.94451416015625,-0.0020396970212459564,0.0011555247474461794,-0.0010027885437011719
1690842045748554200,5.95455419921875,0.00012828316539525986,0.0007520203944295645,-0.0009072013199329376
1690842045758595300,5.96459521484375,-0.0008371127769351006,-0.0003880787407979369,-0.0007354263216257095
1690842045768635400,5.974635498046875,-0.0006131096743047237,0.0007504485547542572,-0.0003674682229757309
1690842045778675200,5.98467529296875,-0.00012974627315998077,-0.001715904800221324,0.0004543829709291458
1690842045788716300,5.99471630859375,-0.0000916551798582077,-0.0008433667244389653,-0.0018242765218019485
1690842045798756000,6.004756103515625,-0.0007459940388798714,0.0007095225155353546,-0.0016525033861398697
1690842045808796200,6.014796142578125,-0.0007200841791927814,-0.0016046800883486867,0.0013737753033638
1690842045818836200,6.024836181640625,-0.00027107540518045425,0.0017639524303376675,0.001101600006222725
1690842045828877300,6.034877197265625,-0.000269188079982996,0.0004048000555485487,-0.00046864524483680725
1690842045838917400,6.04491748046875,0.00014733010903000832,0.0004436821909621358,-0.0001005958765745163
1690842045848988400,6.054988525390625,0.0008614272810518742,-0.000191792962141335,-0.00025150366127491
1690842045859028200,6.0650283203125,-0.0010219602845609188,-0.0007321481825783849,0.0011309441179037094
1690842045869068000,6.075068115234375,0.0009528889786452055,-0.001281339442357421,0.00035957247018814087
1690842045879109000,6.085109130859375,-0.0003336840309202671,0.00028593093156814575,-0.0002114083617925644
1690842045889149200,6.095149169921875,-0.0006168941035866737,0.001072170096449554,-0.0021235551685094833
1690842045899189200,6.105189208984375,-0.0003577684983611107,-0.001140916720032692,-0.0007198024541139603
1690842045909230300,6.115230224609375,-0.0008535701781511307,-0.0002782931551337242,-0.0002972688525915146
1690842045919270400,6.1252705078125,-0.0009273397736251354,0.0017315944423899055,0.0004223175346851349
1690842045929310200,6.135310302734375,-0.0015451316721737385,-0.0001963734393939376,-0.0011478438973426819
1690842045939350000,6.14535009765625,-0.00018132710829377174,0.0004917874466627836,0.0023813769221305847
1690842045949391000,6.15539111328125,0.0010102787055075169,0.00042736076284199953,-0.0012579001486301422
1690842045959431200,6.16543115234375,0.00007737334817647934,-0.0009979628957808018,-0.00118226557970047
1690842045969471200,6.17547119140625,0.0009880184661597013,0.001865485101006925,0.0004482399672269821
1690842045979512300,6.18551220703125,-0.00013370485976338387,-0.0018940994050353765,-0.00035869888961315155
1690842045989545700,6.195545654296875,-0.00018218997865915298,0.00036541756708174944,0.0008981544524431229
1690842045999585800,6.205585693359375,-0.0011609015055000782,-0.000379734905436635,0.0006981510668992996
1690842046009656800,6.21565673828125,0.0010102468077093363,-0.001662745140492916,-0.0005470644682645798
1690842046019697000,6.22569677734375,0.0010246280580759048,0.001895237946882844,0.0009104833006858826
1690842046029736700,6.23573681640625,-0.0004748627543449402,-0.0011905934661626816,-0.0017262976616621017
1690842046039777800,6.24577783203125,-0.0006879158318042755,-0.0009285383857786655,0.00019916705787181854
1690842046049817900,6.25581787109375,-0.00036928383633494377,0.0010196277871727943,0.00016214698553085327
1690842046059858000,6.26585791015625,0.0011796103790402412,-0.0020443389657884836,-0.0010818149894475937
1690842046069898800,6.275898681640625,-0.00048052379861474037,0.0005866528954356909,-0.00041377730667591095
1690842046079938800,6.285938720703125,-0.0012054359540343285,0.000753366737626493,-0.0018308460712432861
1690842046089979000,6.295978759765625,0.00021016225218772888,0.00224000564776361,-0.0005249381065368652
1690842046100019000,6.30601904296875,-0.0008561676368117332,-0.0006769548635929823,-0.0009347982704639435
1690842046110060000,6.31606005859375,-0.00021236250177025795,0.00020102132111787796,0.0009655281901359558
1690842046120099800,6.326099853515625,0.00017752451822161674,-0.0006938008591532707,-0.0005205143243074417
1690842046130140000,6.336139892578125,-0.0006750491447746754,0.0008097121026366949,-0.0008550435304641724
1690842046140180700,6.3461806640625,-0.00001724855974316597,0.0012957390863448381,0.00084725022315979
1690842046150220800,6.356220703125,-0.0000415947288274765,-0.0007444552611559629,0.0004930105060338974
1690842046160291800,6.366291748046875,0.0007869149558246136,-0.001783088082447648,0.0004575904458761215
1690842046170332000,6.376331787109375,0.0018408994656056166,-0.0007200369145721197,0.00011728517711162567
1690842046180371700,6.386371826171875,0.0008581927977502346,0.0005193982506170869,-0.000704566016793251
1690842046190412800,6.396412841796875,-0.0009231232106685638,0.001266966573894024,-0.0005573797971010208
1690842046200452900,6.406452880859375,0.0022521635983139277,0.00018838641699403524,0.0004426371306180954
1690842046210493000,6.416492919921875,0.0007361932657659054,0.0021256578620523214,0.0001818593591451645
1690842046220533000,6.426532958984375,0.0008720140904188156,0.0006473370594903827,0.000986667349934578
1690842046230573800,6.43657373046875,0.0005162614397704601,0.0007824912900105119,0.002154819667339325
1690842046240614000,6.44661376953125,0.0003458191640675068,0.0010991411982104182,0.0006583891808986664
1690842046250654000,6.456654052734375,0.00045744283124804497,0.00014141772408038378,0.0010186433792114258
1690842046260693800,6.46669384765625,-0.0009931810200214386,0.0006101340986788273,0.0000615045428276062
1690842046270734800,6.47673486328125,-0.0006417674012482166,0.0020367426332086325,0.001144900918006897
1690842046280775000,6.48677490234375,-0.00029901834204792976,-0.0011819538194686174,0.001651167869567871
1690842046290815000,6.49681494140625,0.00036154594272375107,0.0012976904399693012,0.0006256736814975739
1690842046300855800,6.506855712890625,-0.0008938685059547424,0.0006185844540596008,-0.0005312040448188782
1690842046310926000,6.516926025390625,0.000032817479223012924,0.0004204647848382592,-0.0009472835808992386
1690842046320967000,6.526966796875,0.0005593243986368179,0.0009512328542768955,-0.0006729774177074432
1690842046331006700,6.5370068359375,-0.0006872727535665035,-0.00040181493386626244,-0.00047686509788036346
1690842046341046800,6.547046875,0.001313293818384409,-0.00001645553857088089,-0.00041081756353378296
1690842046351087900,6.557087890625,-0.000836765393614769,-0.00031959195621311665,-0.0009398777037858963
1690842046361128000,6.5671279296875,-0.001925465650856495,-0.00039948662742972374,0.000678258016705513
1690842046371168000,6.57716796875,-0.0008189864456653595,-0.00006445287726819515,-0.00009831227362155914
1690842046381208000,6.5872080078125,-0.00047037843614816666,-0.0017832571174949408,-0.00010310672223567963
1690842046391249000,6.597248779296875,0.00044624507427215576,0.0024509206414222717,-0.0004954617470502853
1690842046401288700,6.607288818359375,-0.0002621556632220745,0.0019403926562517881,0.0009269341826438904
1690842046411328800,6.617328857421875,-0.0005804672837257385,-0.0004585990682244301,-0.00006108358502388
1690842046421369900,6.627369873046875,0.0013090453576296568,0.005058671347796917,0.0007037762552499771
1690842046431410000,6.637409912109375,0.0000987006351351738,-0.0009620361961424351,0.0008129961788654327
1690842046441450000,6.647449951171875,0.00022014044225215912,0.0009743482805788517,-0.0013771876692771912
1690842046451490000,6.657489990234375,0.0012005437165498734,0.0015916182892397046,0.0003181733191013336
1690842046461561000,6.66756103515625,0.00040319329127669334,0.001122369198128581,-0.0006730556488037109
1690842046471601000,6.677600830078125,0.0006787749007344246,-0.0006640234496444464,-0.0006417036056518555
1690842046481641700,6.687641845703125,0.0006689215078949928,-0.00033166096545755863,-0.0002824440598487854
1690842046491681800,6.697681884765625,-0.00035312632098793983,-0.0029045857954770327,-0.0008042994886636734
1690842046501721900,6.707721923828125,0.0005550114437937737,0.0009745745919644833,0.0009251590818166733
1690842046511763000,6.717762939453125,-0.0005780146457254887,-0.0003076414577662945,-0.00007861107587814331
1690842046521803000,6.727802978515625,0.0019786199554800987,0.0006838534027338028,-0.0008306875824928284
1690842046531843000,6.737843017578125,-0.0009154309518635273,-0.0012237257324159145,-0.0008773691952228546
1690842046541883000,6.7478828125,0.0008249450474977493,-0.0002841625828295946,0.0008036177605390549
1690842046551923700,6.757923828125,0.0022055418230593204,0.0011590940412133932,-0.0026030633598566055
1690842046561963800,6.7679638671875,0.0007461295463144779,-0.0002318748738616705,-0.0009646862745285034
1690842046572003800,6.77800390625,0.0010242026764899492,0.0005790225695818663,-0.001976899802684784
1690842046582045000,6.788044921875,0.0012878556735813618,0.0005297540919855237,-0.0018013976514339447
1690842046592085000,6.7980849609375,-0.0005675223655998707,0.0019450144609436393,0.00006661936640739441
1690842046602125000,6.808125,-0.0005877623334527016,0.0016536646289750934,0.0001268051564693451
1690842046612164900,6.818164794921875,-0.0008269026875495911,0.00009003293234854937,-0.00006569363176822662
1690842046622235600,6.828235595703125,-0.0006197085604071617,0.00015474774409085512,-0.0007139071822166443
1690842046632276700,6.83827685546875,-0.000005002599209547043,0.00042141962330788374,-0.0003595929592847824
1690842046642316800,6.84831689453125,0.0005084546282887459,-0.0021884783636778593,0.0018771961331367493
1690842046652356900,6.85835693359375,-0.00040495023131370544,-0.0017651102971285582,0.0007730405777692795
1690842046662397000,6.86839697265625,0.0010549947619438171,0.001287671271711588,-0.0017867907881736755
1690842046672438000,6.87843798828125,0.000025838613510131836,0.0013671291526407003,-0.000954456627368927
1690842046682477800,6.888477783203125,0.0005403612740337849,0.0004030647687613964,-0.0000055730342864990234
1690842046692517600,6.898517578125,0.00011995481327176094,0.0018801698461174965,0.0012123994529247284
1690842046702557700,6.9085576171875,0.0010978674981743097,-0.0001286524347960949,-0.0003125276416540146
1690842046712598800,6.918598876953125,0.0009473271202296019,-0.000682484358549118,-0.001445939764380455
1690842046722638800,6.928638916015625,0.0006213560700416565,0.001313288463279605,0.00028351694345474243
1690842046732679000,6.938678955078125,0.00036115385591983795,0.0021341543179005384,-0.0007591769099235535
1690842046742720000,6.948719970703125,0.0002650138922035694,-0.001347928773611784,-0.0006968583911657333
1690842046752759800,6.958759765625,-0.0002024499699473381,0.0006217226618900895,-0.00025325454771518707
1690842046762799900,6.9687998046875,-0.001634432002902031,-0.00028668157756328583,0.0007867105305194855
1690842046772870700,6.97887060546875,0.00007797777652740479,-0.00024870969355106354,0.0009303633123636246
1690842046782910700,6.98891064453125,-0.0005257604643702507,-0.0006979850586503744,-0.0007346458733081818
1690842046792951800,6.998951904296875,-0.0013122772797942162,-0.0009197036270052195,-0.0002413783222436905
1690842046802991900,7.008991943359375,-0.0014611477963626385,0.0002835124032571912,-0.00019237585365772247
1690842046813032000,7.019031982421875,0.0010782526805996895,0.0010760705918073654,0.00013145990669727325
1690842046823072000,7.029072021484375,0.00005133775994181633,-0.000823828624561429,0.0010763481259346008
1690842046833112800,7.03911279296875,-0.0009072581306099892,0.00016412266995757818,-0.00026712752878665924
1690842046843152600,7.049152587890625,-0.0007733008824288845,-0.00021990505047142506,-0.0005677975714206696
1690842046853192700,7.059192626953125,-0.0008659511804580688,-0.0007349326042458415,-0.0007104743272066116
1690842046863233800,7.06923388671875,-0.00024809781461954117,0.002127965446561575,0.0009004715830087662
1690842046873273900,7.07927392578125,-0.00019723083823919296,0.00030531291849911213,-0.0008450113236904144
1690842046883314000,7.08931396484375,0.0007042493671178818,0.0005599111318588257,0.0008809845894575119
1690842046893354000,7.09935400390625,0.0010199947282671928,0.0011680542957037687,-0.0005611293017864227
1690842046903394800,7.109394775390625,0.0006540762260556221,-0.001823474420234561,-0.0016365144401788712
1690842046913435000,7.119434814453125,-0.0002332744188606739,-0.0007663164287805557,0.0007254984229803085
1690842046923505700,7.129505615234375,-0.0007707006298005581,-0.0009647218976169825,0.0001558493822813034
1690842046933545700,7.139545654296875,-0.0017901374958455563,0.0008175738621503115,-0.00021803006529808044
1690842046943585800,7.149585693359375,0.001115105114877224,-0.0004170675529167056,-0.00006409920752048492
1690842046953627000,7.159626953125,0.00027215201407670975,0.003802588675171137,0.003124633803963661
1690842046963667000,7.1696669921875,0.0000732135958969593,0.0005673804553225636,0.0006721280515193939
1690842046973707000,7.17970703125,0.000577110331505537,0.0011443954426795244,0.0009244941174983978
1690842046983746800,7.189746826171875,0.00009001791477203369,0.00015742797404527664,0.0017071962356567383
1690842046993784800,7.199784912109375,-0.0008883131667971611,0.0005341407377272844,-0.0004111621528863907
1690842047003824600,7.20982470703125,0.0005713654682040215,0.000922695966437459,0.0009276103228330612
1690842047013864700,7.21986474609375,-0.0002763238735496998,0.00011761055793613195,-0.00012966804206371307
1690842047023905800,7.22990576171875,-0.00019589625298976898,-0.00012686767149716616,0.0010573025792837143
1690842047033945900,7.23994580078125,0.0006178272888064384,-0.0001005042577162385,0.00018216855823993683
1690842047043986000,7.24998583984375,0.0010271549690514803,-0.0007750828517600894,-0.0023691393435001373
1690842047054026000,7.26002587890625,0.0009548214729875326,0.0019565951079130173,-0.0017889440059661865
1690842047064066800,7.27006689453125,0.0005928976461291313,-0.0007308005588129163,0.0004063006490468979
1690842047074107000,7.28010693359375,-0.0006440365687012672,-0.0008842111565172672,0.00039371103048324585
1690842047084177700,7.290177734375,-0.0006538904272019863,-0.001305789453908801,0.00021820887923240662
1690842047094217700,7.3002177734375,-0.0007608258165419102,-0.0017561324639245868,0.001104811206459999
1690842047104257800,7.3102578125,-0.0006734742783010006,0.00029796361923217773,-0.0004776380956172943
1690842047114299000,7.320298828125,0.0009232021402567625,-0.0017527465242892504,-0.000881243497133255
1690842047124339000,7.3303388671875,-0.0006592483259737492,0.0003620698116719723,0.0012399647384881973
1690842047134379000,7.34037890625,0.00021089566871523857,0.00031250505708158016,0.0016914382576942444
1690842047144419800,7.350419921875,0.0010018544271588326,0.001763395150192082,-0.00023136474192142487
1690842047154459600,7.360459716796875,0.0005922839045524597,-0.001010292093269527,-0.00001311860978603363
1690842047164499700,7.370499755859375,-0.00018935371190309525,-0.0015855348901823163,0.000351468101143837
1690842047174539800,7.380539794921875,-0.001936853863298893,-0.00006239465437829494,0.0008507650345563889
1690842047184580900,7.390580810546875,0.00006637582555413246,0.0005938082467764616,-0.0015167854726314545
1690842047194621000,7.400620849609375,0.0004863971844315529,-0.00053786626085639,-0.0002186708152294159
1690842047204661000,7.410660888671875,0.0009388681501150131,0.000714618363417685,-0.0009033698588609695
1690842047214701000,7.420701171875,-0.000788549892604351,0.0011373467277735472,0.0005719028413295746
1690842047224742000,7.430741943359375,0.0010136112105101347,0.0000028401846066117287,0.0014976169914007187
1690842047234812700,7.440812744140625,-0.00020441552624106407,-0.0008765915408730507,-0.00018348544836044312
1690842047244852700,7.450852783203125,0.00046696746721863747,-0.000751955434679985,0.0007685944437980652
1690842047254892800,7.460892822265625,-0.0006711557507514954,-0.00042760942596942186,-0.0011433828622102737
1690842047264932900,7.470932861328125,0.0000657406635582447,0.0009042373858392239,-0.000740978866815567
1690842047274974000,7.480973876953125,-0.0006727264262735844,0.0001627833116799593,-0.0017092656344175339
1690842047285014000,7.491013916015625,-0.0017667529173195362,0.0007673209765926003,-0.0003867391496896744
1690842047295053800,7.5010537109375,0.00027972273528575897,0.0005627513164654374,-0.0006083734333515167
1690842047305094700,7.5110947265625,0.0003380458801984787,0.00043119105976074934,0.0008971113711595535
1690842047315134700,7.521134765625,-0.00010342011228203773,0.00038735195994377136,0.0007940158247947693
1690842047325174800,7.5311748046875,0.0010577181819826365,0.00022196955978870392,0.0019042883068323135
1690842047335214800,7.54121484375,0.0019758467096835375,0.0012345402501523495,0.00016483105719089508
1690842047345256000,7.551255859375,0.0010748992208391428,-0.00014630891382694244,0.00003779865801334381
1690842047355296000,7.5612958984375,-0.00011519482359290123,-0.0008407095447182655,-0.0007264837622642517
1690842047365336000,7.571336181640625,-0.0008768588304519653,-0.0004303164314478636,-0.0009643044322729111
1690842047375377000,7.581376953125,-0.0007950770668685436,0.00007006525993347168,0.000424729660153389
1690842047385447000,7.591447021484375,-0.0005782959051430225,0.000311880256049335,-0.0005105715245008469
1690842047395487700,7.60148779296875,0.00006431760266423225,0.0010774456895887852,-0.001035582274198532
1690842047405527800,7.61152783203125,0.0006438214331865311,0.0014835777692496777,-0.000019321218132972717
1690842047415568000,7.62156787109375,0.0010077273473143578,0.005409612786024809,0.003806348890066147
1690842047425608000,7.63160791015625,-0.00005300994962453842,-0.0014315155567601323,0.0005777981132268906
1690842047435649000,7.64164892578125,-0.00008541904389858246,0.0014539730036631227,0.00006875209510326385
1690842047445688800,7.651688720703125,-0.00025346456095576286,0.0009250692091882229,0.000944133847951889
1690842047455729000,7.66172900390625,-0.0002411133609712124,-0.001178318285383284,0.003042973577976227
1690842047465769700,7.671769775390625,0.000946389976888895,-0.0004307689378038049,-0.0008660145103931427
1690842047475809800,7.681809814453125,0.0011915774084627628,-0.0016886764205992222,-0.0004515014588832855
1690842047485849900,7.691849853515625,0.00033830059692263603,-0.00002313544973731041,0.001019628718495369
1690842047495890000,7.701889892578125,0.0010473353322595358,-0.0003198428312316537,-0.0005650389939546585
1690842047505931000,7.711930908203125,0.001542683457955718,0.0011283841449767351,0.0000357702374458313
1690842047515970800,7.721970703125,-0.00029047904536128044,0.0013707373291254044,-0.0010434705764055252
1690842047526010600,7.7320107421875,0.00046692369505763054,-0.0000023886095732450485,-0.001178758218884468
1690842047536051700,7.7420517578125,0.0006642788648605347,-0.001614905777387321,0.0006209351122379303
1690842047546121700,7.752121826171875,-0.0002835402265191078,-0.001906255609355867,-0.0006126407533884048
1690842047556162800,7.762162841796875,0.0001293513923883438,-0.00012688548304140568,0.0009575560688972473
1690842047566203000,7.772202880859375,0.0006406782194972038,0.00045581418089568615,-0.0008043907582759857
1690842047576243000,7.782242919921875,0.0010536378249526024,-0.00018684309907257557,-0.00040118396282196045
1690842047586284000,7.792283935546875,-0.00033653201535344124,0.0008888075826689601,0.00032053142786026
1690842047596323800,7.80232373046875,-0.0014908509328961372,0.00019039283506572247,0.0006711017340421677
1690842047606363600,7.81236376953125,0.00017176056280732155,0.0007914683083072305,0.00030038878321647644
1690842047616403700,7.82240380859375,0.0010268422774970531,-0.0004535879706963897,0.0006057135760784149
1690842047626444800,7.83244482421875,-0.00005679810419678688,-0.0008282948983833194,-0.000354887917637825
1690842047636484900,7.84248486328125,0.000242721289396286,-0.0010775026166811585,-0.000629667192697525
1690842047646525000,7.85252490234375,-0.0008944482542574406,-0.0005283587379381061,-0.0006877239793539047
1690842047656566000,7.86256591796875,-0.0006633331067860126,0.0014796205796301365,-0.001696096733212471
1690842047666605800,7.872605712890625,0.0009156549349427223,0.0005006425781175494,-0.00031045451760292053
1690842047676645600,7.882645751953125,-0.0007694829255342484,-0.0006244472460821271,0.0020362455397844315
1690842047686685700,7.892685791015625,-0.00019956612959504128,-0.00019408029038459063,-0.0004580710083246231
1690842047696756700,7.9027568359375,-0.0006052679382264614,-0.001384903909638524,0.0009507797658443451
1690842047706796800,7.912796875,0.0010738552082329988,-0.001226978376507759,-0.0002087615430355072
1690842047716838000,7.922837890625,0.0008307080715894699,-0.000900501967407763,-0.0006203725934028625
1690842047726878000,7.9328779296875,0.00006797909736633301,0.0008209653897210956,-0.00015804730355739594
1690842047736917800,7.942917724609375,-0.00019539659842848778,0.0015141317853704095,0.0014216024428606033
1690842047746958800,7.952958740234375,0.00027731433510780334,-0.0015969730447977781,-0.00011317804455757141
1690842047756998700,7.96299853515625,-0.002054019831120968,0.0005483448039740324,-0.00011975690722465515
1690842047767038700,7.973038818359375,-0.00010005850344896317,0.00008202530443668365,0.0007265955209732056
1690842047777078800,7.983078857421875,-0.0020589642226696014,-0.00006309885066002607,0.000041503459215164185
1690842047787119900,7.993119873046875,0.0017267190851271152,-0.00007055571768432856,0.0017912015318870544
1690842047797160000,8.003159912109375,-0.001374702900648117,-0.00007672281935811043,-0.0012819506227970123
1690842047807199700,8.01319970703125,-0.0006319470703601837,-0.0014373317826539278,0.0000158064067363739
1690842047817240800,8.02324072265625,-0.00015002209693193436,0.001218633260577917,0.00208340585231781
1690842047827280600,8.03328076171875,0.00026037078350782394,0.00017973408102989197,0.0019052401185035706
1690842047837320700,8.04332080078125,0.0004967069253325462,0.0009344214340671897,0.0009149163961410522
1690842047847391700,8.053391845703125,0.00048179319128394127,0.000905659282580018,0.0000030491501092910767
1690842047857431800,8.063431884765626,0.0004763677716255188,0.00022785353939980268,0.0010175295174121857
1690842047867472000,8.073471923828125,0.00015598908066749573,-0.0014440789818763733,0.000997290015220642
1690842047877513000,8.083512939453126,-0.0003065844066441059,-0.0023438131902366877,0.0009742379188537598
1690842047887552800,8.093552734375,0.0011203372851014137,0.0011822120286524296,0.000669572502374649
1690842047897592800,8.1035927734375,-0.0007205777801573277,0.0010268993210047483,-0.0014103949069976807
1690842047907633700,8.113633544921875,0.000046945177018642426,-0.0014719448518007994,-0.0017805751413106918
1690842047917673700,8.123673828125,-0.0005426439456641674,-0.0007076514884829521,-0.0010544545948505402
1690842047927713800,8.1337138671875,0.0003841361030936241,0.0032034670002758503,-0.0005527157336473465
1690842047937753900,8.14375390625,0.0005949260666966438,0.00041758071165531874,-0.0009622499346733093
1690842047947795000,8.153794921875,-0.00008418038487434387,-0.0008532798383384943,0.0006313864141702652
1690842047957834800,8.163834716796876,-0.00036652106791734695,-0.0003001423319801688,-0.001606116071343422
1690842047967874800,8.173874755859375,0.009139632806181908,-0.24869397282600403,0.023942919448018074
1690842047977915600,8.18391552734375,0.0031244619749486446,-0.27349063754081726,-0.16620346903800964
1690842047987955700,8.193955810546875,-0.013373288325965405,0.0384928360581398,-0.15376465022563934
1690842047998009600,8.204009521484375,-0.015411469154059887,0.04126181825995445,-0.09135020524263382
1690842048008049700,8.214049560546876,-0.005968964658677578,0.025262609124183655,-0.009367194026708603
1690842048018089700,8.22408984375,0.007474103011190891,0.03556734323501587,0.06559320539236069
1690842048028130800,8.234130859375,0.014860380440950394,0.038375381380319595,0.11147947609424591
1690842048038171000,8.2441708984375,0.015396904200315475,0.011438555084168911,0.12959493696689606
1690842048048210700,8.254210693359376,0.004308832809329033,-0.009124243631958961,0.12830543518066406
1690842048058250800,8.264250732421875,-0.008561298251152039,-0.025906337425112724,0.11253310739994049
1690842048068291600,8.27429150390625,-0.013707591220736504,-0.03677736222743988,0.08268226683139801
1690842048078331600,8.28433154296875,-0.011388292536139488,-0.04136931896209717,0.05041496455669403
1690842048088371700,8.294371826171876,-0.006818041205406189,-0.03302483633160591,0.011705650016665459
1690842048098412800,8.304412841796875,-0.0002620769664645195,-0.020810076966881752,-0.023876095190644264
1690842048108452900,8.314452880859376,0.006186501123011112,-0.0022134887985885143,-0.05463586747646332
1690842048118492700,8.32449267578125,0.00948350690305233,0.014318915084004402,-0.07935289293527603
1690842048128532700,8.33453271484375,0.007245120592415333,0.029995080083608627,-0.09265618026256561
1690842048138573600,8.344573486328125,0.002297350438311696,0.03856172785162926,-0.09698772430419922
1690842048148613600,8.354613525390626,-0.0027272356674075127,0.037698063999414444,-0.0863899365067482
1690842048158684700,8.3646845703125,-0.005947500001639128,0.02666153945028782,-0.06691025197505951
1690842048168724700,8.374724853515625,-0.006978143472224474,0.007911289110779762,-0.04477912187576294
1690842048178764500,8.3847646484375,-0.003708715084940195,-0.010022077709436417,-0.013504326343536377
1690842048188805600,8.3948056640625,0.001952632563188672,-0.022175414487719536,0.01589137874543667
1690842048198845700,8.404845703125,0.005085732787847519,-0.026931850239634514,0.04163815826177597
1690842048208885800,8.4148857421875,0.005862843245267868,-0.023564016446471214,0.06208857148885727
1690842048218925800,8.42492578125,0.003437852719798684,-0.015697339549660683,0.07224617898464203
1690842048228966700,8.434966552734375,-0.0003539561294019222,-0.006784272380173206,0.07218226045370102
1690842048239006700,8.4450068359375,-0.002307015471160412,0.0034862239845097065,0.06426473706960678
1690842048249046800,8.455046875,-0.003268682863563299,0.008523860014975071,0.04880189523100853
1690842048259088000,8.465087890625,-0.0032773083075881004,0.011660780757665634,0.02638867311179638
1690842048269127700,8.475127685546875,0.0006354083307087421,0.011429619044065475,0.00388922356069088
1690842048279167700,8.485167724609376,0.0024299724027514458,0.006675491109490395,-0.021752770990133286
1690842048289207800,8.495207763671875,0.0023095975629985332,0.0030013942159712315,-0.038006044924259186
1690842048299248600,8.50524853515625,0.0020141026470810175,-0.0001959464279934764,-0.05072270333766937
1690842048309319700,8.515319580078126,0.00033604493364691734,-0.0029762866906821728,-0.05695423483848572
1690842048319359700,8.52535986328125,-0.0002732742577791214,-0.003353624138981104,-0.05554431676864624
1690842048329399600,8.535399658203126,-0.0023268377408385277,-0.0012731630122289062,-0.04459153115749359
1690842048339439600,8.545439697265625,-0.0011375667527318,-0.0009573762072250247,-0.03163314610719681
1690842048349480700,8.555480712890626,-0.0018273256719112396,0.003197421319782734,-0.013811539858579636
1690842048359520800,8.565520751953125,0.00013727927580475807,0.005167135037481785,0.002421637997031212
1690842048369560800,8.575560791015626,0.001265394501388073,0.0063200173899531364,0.019215531647205353
1690842048379600600,8.5856005859375,0.0010171027388423681,0.0022975471802055836,0.03171174228191376
1690842048389641700,8.595641845703126,0.00014145532622933388,-0.0010678895050659776,0.03919894993305206
1690842048399681800,8.605681884765625,0.0007758862338960171,-0.004551921039819717,0.04262183606624603
1690842048409721600,8.6157216796875,-0.002134149894118309,-0.0058547393418848515,0.03808620572090149
1690842048419762700,8.6257626953125,-0.0016468311659991741,-0.004340577870607376,0.030159197747707367
1690842048429802800,8.635802734375,-0.0000928766094148159,-0.0031264428980648518,0.01844608224928379
1690842048439842800,8.6458427734375,0.0002652537077665329,-0.003499729558825493,0.005216363817453384
1690842048449882600,8.655882568359376,-0.0009813718497753143,-0.0019708089530467987,-0.008914101868867874
1690842048459953700,8.66595361328125,0.0019481438212096691,0.0010690309572964907,-0.020287277176976204
1690842048469994800,8.675994873046875,-0.00027825869619846344,0.002248544944450259,-0.02755238302052021
1690842048480034600,8.68603466796875,-0.0010194918140769005,0.00572429271414876,-0.03315858542919159
1690842048490074600,8.69607470703125,-0.0010695592500269413,0.003889374900609255,-0.03146907314658165
1690842048500114700,8.70611474609375,0.00043089035898447037,0.0032670628279447556,-0.024974070489406586
1690842048510155800,8.71615576171875,0.00006603728979825974,0.001918171881698072,-0.018275953829288483
1690842048520195800,8.72619580078125,0.0010579342488199472,0.001330585335381329,-0.008834213018417358
1690842048530235600,8.736235595703125,0.00045153265818953514,0.0004285726463422179,0.004279192537069321
1690842048540276700,8.74627685546875,0.0002671056427061558,-0.0025751134380698204,0.011720293201506138
1690842048550316800,8.75631689453125,0.00019546691328287125,-0.003574598114937544,0.016901206225156784
1690842048560356600,8.766356689453126,0.0005695559084415436,-0.0036246315576136112,0.02076008729636669
1690842048570396700,8.776396728515625,-0.0019375435076653957,-0.0018642822979018092,0.01972278580069542
1690842048580437800,8.786437744140626,0.0018775314092636108,-0.00238466402515769,0.020560432225465775
1690842048590477800,8.796477783203125,0.00005885865539312363,-0.0020578941330313683,0.013309177942574024
1690842048600517600,8.806517578125,0.000012689270079135895,0.000042541068978607655,0.009727941825985909
1690842048610558700,8.816558837890625,-0.0005505695007741451,0.0008806379046291113,0.0017011743038892746
1690842048620628500,8.82662841796875,0.0006867470219731331,-0.00039898010436445475,-0.006687205284833908
1690842048630669600,8.836669677734376,0.0005623772740364075,0.0026828297413885593,-0.01242019422352314
1690842048640709600,8.846709716796875,-0.0002378174103796482,0.0012018149718642235,-0.015097428113222122
1690842048650749700,8.856749755859376,0.0015337173826992512,0.0018233966547995806,-0.019192304462194443
1690842048660789800,8.866789794921875,0.0006600581109523773,0.0031761559657752514,-0.01491660438477993
1690842048670830800,8.876830810546876,-0.0007559447549283504,0.002785203978419304,-0.01329420693218708
1690842048680870700,8.88687060546875,0.000394988339394331,-0.00021754216868430376,-0.011690860614180565
1690842048690910700,8.89691064453125,-0.00039437273517251015,-0.0007994427578523755,-0.001114383339881897
1690842048700951800,8.906951904296875,0.0014441264793276787,0.0006012414814904332,0.003671601414680481
1690842048710991600,8.91699169921875,0.000330392736941576,-0.0031085419468581676,0.00868926290422678
1690842048721031700,8.92703173828125,-0.001441153697669506,-0.001340236165560782,0.01055848877876997
1690842048731071700,8.93707177734375,0.0004201293922960758,-0.0005572667578235269,0.013548686169087887
1690842048741112800,8.94711279296875,0.0006213830783963203,0.00010157458018511534,0.013412708416581154
1690842048751152600,8.957152587890626,-0.0009317724034190178,-0.0013730177888646722,0.010521846823394299
1690842048761192700,8.967192626953125,0.0003747483715415001,-0.0010114304022863507,0.006594136357307434
1690842048771263500,8.977263427734375,-0.0008124890737235546,0.001986223738640547,0.002863314002752304
1690842048781303600,8.987303466796876,-0.0010186932049691677,0.000485854921862483,-0.0025274381041526794
1690842048791344600,8.9973447265625,0.0005006403662264347,-0.0015104505000635982,-0.006174104288220406
1690842048801384700,9.007384765625,-0.0009012478403747082,-0.0007658306276425719,-0.00981331430375576
1690842048811424800,9.0174248046875,-0.0008948561735451221,0.001229942194186151,-0.008170941844582558
1690842048821464800,9.02746484375,-0.00027599185705184937,-0.0010154674528166652,-0.00869758054614067
1690842048831505700,9.037505615234375,-0.00006613461300730705,-0.0003664550604298711,-0.009768703952431679
1690842048841545500,9.04754541015625,0.00033411383628845215,0.001497958437539637,-0.004614163190126419
1690842048851585500,9.05758544921875,0.00027179624885320663,-0.0006014114478603005,-0.00359417125582695
1690842048861626600,9.067626708984376,0.00027267076075077057,-0.0007763447938486934,0.001100754365324974
1690842048871666700,9.077666748046875,-0.0004125605337321758,0.00009770470205694437,0.0034576524049043655
1690842048881706800,9.087706787109376,-0.000183839350938797,-0.00010795833077281713,0.00546923466026783
1690842048891746800,9.097746826171875,0.0007437397725880146,0.0016989964060485363,0.00694542471319437
1690842048901787600,9.10778759765625,0.001865278696641326,0.0011729866964742541,0.008508742786943913
1690842048911827700,9.11782763671875,0.00022823363542556763,-0.0016680735861882567,0.004497488960623741
1690842048921898500,9.1278984375,0.0008838807698339224,-0.002172973472625017,0.0053224945440888405
1690842048931938600,9.1379384765625,-0.000012272968888282776,-8.991919457912445e-7,0.0022862236946821213
1690842048941978600,9.147978515625,0.00015241047367453575,-0.0004620625404641032,0.0010679643601179123
1690842048952019700,9.158019775390626,-0.0002361447550356388,0.00011238129809498787,-0.00008971244096755981
1690842048962059800,9.168059814453125,0.0009281253442168236,-0.0016419970197603106,-0.004809705540537834
1690842048972099800,9.178099853515626,0.0011102855205535889,-0.000863555003888905,-0.006912270560860634
1690842048982140700,9.188140625,0.001472551841288805,0.0019508680561557412,-0.0067270733416080475
1690842048992185600,9.198185546875,0.00023604603484272957,0.0008696246659383178,-0.003708112984895706
1690842049002225700,9.2082255859375,-0.0005361638031899929,-0.0009380349656566978,-0.006152404472231865
1690842049012265700,9.218265625,-0.0000341576524078846,0.0009797073435038328,-0.0018886830657720566
1690842049022306600,9.228306640625,0.0005154157988727093,-0.0011276210425421596,-0.00039522163569927216
1690842049032346600,9.2383466796875,0.0004799957387149334,-0.002286096103489399,0.0026026982814073563
1690842049042386700,9.24838671875,-0.00018406612798571587,-0.0006415281677618623,0.0017700176686048508
1690842049052427800,9.258427734375,-0.001009379979223013,-0.0008913326309993863,0.0036635249853134155
1690842049062467800,9.2684677734375,-0.0009216675534844398,-0.0005152273224666715,0.003448162227869034
1690842049072507600,9.278507568359375,0.0020797147881239653,0.0021442053839564323,0.005078017711639404
1690842049082578700,9.28857861328125,-0.0008515813387930393,-0.00044039252679795027,0.0020883530378341675
1690842049092618800,9.29861865234375,-0.0006065703928470612,-0.000032662530429661274,0.0003370586782693863
1690842049102658800,9.308658935546875,0.00009771948680281639,-0.002398415468633175,-0.0008521303534507751
1690842049112699600,9.31869970703125,0.0006364770233631134,-0.0005608344217762351,-0.0019027478992938995
1690842049122739700,9.32873974609375,-0.0006801430135965347,0.0015115715796127915,-0.0013765953481197357
1690842049132779500,9.338779541015626,0.0013960576616227627,-0.0008194932015612721,-0.0013630148023366928
1690842049142820600,9.348820556640625,-0.0002506324090063572,-0.00021625275257974863,-0.0012569762766361237
1690842049152860700,9.358860595703124,-0.0003433101810514927,0.0006695145275443792,-0.002226099371910095
1690842049162900700,9.368900634765625,-0.00014850124716758728,-0.001438361476175487,-0.0007508192211389542
1690842049172940800,9.37894091796875,0.0009742877446115017,-0.0003126434748992324,-0.003127157688140869
1690842049182981600,9.388981689453125,-0.002777327783405781,-0.0017937878146767616,-0.003181641921401024
1690842049193021700,9.399021728515624,-0.0015125926584005356,-0.0008566214237362146,-0.0008577685803174973
1690842049203061500,9.4090615234375,-0.0013403506018221378,-0.00042918475810438395,-0.001513354480266571
1690842049213102600,9.4191025390625,0.001504438230767846,0.00001236738171428442,0.00138150155544281
1690842049223142700,9.429142578125,0.0007595648057758808,-0.000046371715143322945,0.0015957914292812347
1690842049233213700,9.439213623046875,-0.0005323346704244614,0.001792008406482637,0.0032818391919136047
1690842049243253800,9.449253662109374,0.00038673123344779015,0.0016167066060006618,0.003857433795928955
1690842049253293800,9.4592939453125,-0.00009290408343076706,0.0020201755687594414,0.003157287836074829
1690842049263334700,9.469334716796874,0.0007182196713984013,-0.00009975105058401823,0.001875031739473343
1690842049273374700,9.479374755859375,0.0002939780242741108,-0.0019328048219904304,-0.00033619068562984467
1690842049283414500,9.48941455078125,0.00016818195581436157,-0.001956438645720482,-0.0016013961285352707
1690842049293454600,9.49945458984375,0.000793225597590208,-0.0002834408078342676,-0.0031657367944717407
1690842049303495700,9.50949560546875,0.0005937754176557064,0.00030779652297496796,-0.0038581788539886475
1690842049313535700,9.51953564453125,0.0020771559793502092,-0.0016954331658780575,-0.0030381903052330017
1690842049323575800,9.529575927734374,-0.0018063667230308056,-0.0007591465255245566,-0.0016356445848941803
1690842049333615900,9.539615966796875,-0.00006412668153643608,0.001762600615620613,-0.0009480156004428864
1690842049343656700,9.54965673828125,-0.00021394435316324234,0.0002930508926510811,0.0009984895586967468
1690842049353696500,9.559696533203125,-0.0004059583880007267,0.002306400565430522,0.002147110179066658
1690842049363736600,9.569736572265626,0.00034690042957663536,-0.0006257514469325542,0.0018030405044555664
1690842049373777700,9.579777587890625,-0.0006613726727664471,-0.002005535177886486,0.0025324802845716476
1690842049383847700,9.58984765625,-0.00006259279325604439,0.00027381780091673136,0.0020283330231904984
1690842049393888800,9.599888671875,-0.0008700634352862835,-0.0012063670437783003,0.000399542972445488
1690842049403928800,9.6099287109375,0.0008463396225124598,-0.0013427127851173282,0.00023359805345535278
1690842049413969000,9.619968994140624,-0.0002602040767669678,0.00035771552938967943,0.00022081658244132996
1690842049424009700,9.630009765625,0.00013621756806969643,-0.001528703491203487,0.00035979412496089935
1690842049434049500,9.640049560546874,-0.000537295825779438,-0.001127631519921124,0.0005209147930145264
1690842049444089600,9.650089599609375,0.0017912366893142462,-0.00028432998806238174,-0.000023672357201576233
1690842049454129700,9.660129638671876,0.0006929491646587849,-0.001141335116699338,0.00008471868932247162
1690842049464170800,9.670170654296875,-0.00013114744797348976,0.0004375323187559843,0.00015227682888507843
1690842049474210800,9.6802109375,-0.00044380268082022667,0.0021036057732999325,-0.0007705092430114746
1690842049484251000,9.6902509765625,0.0005907057784497738,0.00034127000253647566,0.00006959028542041779
1690842049494291700,9.700291748046874,-0.0004673679359257221,0.0021559479646384716,-0.0007101837545633316
1690842049504331500,9.71033154296875,0.0018530504312366247,0.000014502322301268578,-0.00004137866199016571
1690842049514371600,9.72037158203125,-0.0006425976753234863,-0.0008084143046289682,0.001026548445224762
1690842049524411600,9.73041162109375,0.00015215622261166573,-0.0015860137064009905,-0.00008111633360385895
1690842049534482700,9.740482666015625,-0.0008100438863039017,-0.0018179749604314566,0.0007146373391151428
1690842049544522800,9.750522705078126,0.000992125365883112,-0.001292547327466309,0.0013767555356025696
1690842049554563800,9.760563720703125,0.001896002097055316,0.001290186308324337,-0.00006720982491970062
1690842049564604000,9.77060400390625,0.00015599140897393227,-0.00022781710140407085,0.0017178207635879517
1690842049574643700,9.780643798828125,-0.00017317524179816246,0.000851295655593276,0.0014815982431173325
1690842049584684500,9.7906845703125,0.00034444546326994896,0.0010083821834996343,-0.00022913143038749695
1690842049594724600,9.800724609375,-0.000753309577703476,0.0007284840103238821,0.000545848160982132
1690842049604764700,9.8107646484375,0.0003651282750070095,-0.00046250387094914913,-0.0014962200075387955
1690842049614804700,9.8208046875,0.0007246551103889942,-0.0002643647603690624,-0.00206720270216465
1690842049624845800,9.830845703125,0.0005067922174930573,0.0007801378378644586,-0.0005635339766740799
1690842049634886000,9.840885986328125,-0.0006492859683930874,-0.00010882515925914049,-0.0005598049610853195
1690842049644925700,9.85092578125,-0.0010025347582995892,-0.0006615219172090292,0.000006604939699172974
1690842049654966500,9.860966552734375,0.00035887304693460464,0.00022078328765928745,0.000634312629699707
1690842049665006600,9.871006591796874,-0.0007023382931947708,0.0015486873453482985,0.0009374693036079407
1690842049675046700,9.881046630859375,-0.0008040713146328926,0.0008006053976714611,0.0001270696520805359
1690842049685086700,9.891086669921876,0.00008391076698899269,0.002477648900821805,-0.0003036893904209137
1690842049695157800,9.90115771484375,0.001489527290686965,0.0014432771131396294,0.0003021787852048874
1690842049705198800,9.91119873046875,-0.0005072015337646008,0.002085002837702632,-0.000011956319212913513
1690842049715239000,9.921239013671874,0.0009836358949542046,0.0028157741762697697,0.000437052920460701
1690842049725278700,9.93127880859375,-0.0007648044265806675,0.0014934539794921875,0.00041481107473373413
1690842049735318800,9.94131884765625,0.0005300245247781277,0.003346215235069394,0.0010481122881174088
1690842049745359600,9.951359619140625,-0.0008352603763341904,-0.0014652394456788898,-0.0020151734352111816
1690842049755399700,9.961399658203124,0.00143774738535285,-0.0030221235938370228,0.0013598501682281494
1690842049765439700,9.971439697265625,0.0004726178012788296,-0.0015212896978482604,-0.0009724367409944534
1690842049775480800,9.981480712890624,0.00029445206746459007,-0.000944981467910111,0.00042758695781230927
1690842049785521000,9.99152099609375,-0.000056381337344646454,-0.0004998601507395506,-0.0007961709052324295
1690842049795560700,10.001560791015624,0.0019146241247653961,-0.0004015895538032055,-0.00035541877150535583
1690842049805600800,10.011600830078125,0.00047617265954613686,0.00040685280691832304,-0.0015084389597177505
1690842049815641600,10.0216416015625,-0.0006799055263400078,0.0005474676145240664,-0.0016048457473516464
1690842049825681700,10.031681640625,-0.0005318624898791313,0.0016352359671145678,-0.00034299492835998535
1690842049835721700,10.0417216796875,0.0006609675474464893,0.0008820940274745226,-0.0009416732937097549
1690842049845792800,10.051792724609374,0.0020825143437832594,0.0015992834232747555,0.00030444376170635223
1690842049855832800,10.061832763671875,0.0008968750480562449,-0.0029054535552859306,-0.0007030293345451355
1690842049865874000,10.0718740234375,-0.00011755991727113724,-0.0027699200436472893,0.0021053440868854523
1690842049875913700,10.081913818359375,0.00033038342371582985,-0.002584031317383051,0.0018523447215557098
1690842049885953800,10.091953857421874,-0.00007162429392337799,-0.0026352256536483765,0.0016748365014791489
1690842049895993600,10.10199365234375,0.00007112137973308563,-0.002201929222792387,-0.000268738716840744
1690842049906034700,10.11203466796875,-0.0009088725782930851,-0.001583747798576951,-0.0014236215502023697
1690842049916074800,10.12207470703125,0.0007135248742997646,0.0016482644714415073,-0.0016087107360363007
1690842049926114800,10.13211474609375,0.0009728565346449614,0.004376526921987534,0.00030676089227199554
1690842049936156000,10.142156005859375,-0.00008255429565906525,0.004040169529616833,-0.000894591212272644
1690842049946195700,10.15219580078125,0.00009322306141257286,0.004662416409701109,0.0009531360119581223
1690842049956235500,10.162235595703125,0.0008389081340283155,0.002198725938796997,-0.0015299953520298004
1690842049966275600,10.172275634765626,-0.0012380643747746944,-0.000016590114682912827,-0.0024679675698280334
1690842049976316700,10.182316650390625,-0.0013366015627980232,-0.002620629034936428,-0.000568067654967308
1690842049986356700,10.192356689453124,-0.0019140522927045822,-0.007148627191781998,-0.0031046103686094284
1690842049996424000,10.202423828125,0.00015895208343863487,-0.003069197526201606,-0.0011453218758106232
1690842050006464000,10.212464111328124,0.00021906010806560516,-0.003471346804872155,-0.003397008404135704
1690842050016504000,10.222504150390625,0.0005365088582038879,0.0028725690208375454,0.0020451620221138
1690842050026545200,10.232545166015624,-0.0010681352578103542,0.0033029871992766857,0.002449098974466324
1690842050036585000,10.2425849609375,0.0018440312705934048,0.005011404864490032,0.0021641403436660767
1690842050046625000,10.252625,-0.00041155610233545303,0.003453391371294856,0.002589527517557144
1690842050056664800,10.262664794921875,-0.00038439175114035606,0.0036749662831425667,0.0033093784004449844
1690842050066706000,10.272705810546874,-0.00007121777161955833,0.0016627463046461344,-0.00032936781644821167
1690842050076746000,10.28274609375,-0.0007444648072123528,-0.0008233145345002413,0.0022682789713144302
1690842050086786000,10.2927861328125,0.0009818971157073975,-0.0021146470680832863,-0.0028553232550621033
1690842050096827100,10.3028271484375,-0.0005369037389755249,-0.0026233107782900333,-0.002188200131058693
1690842050106867000,10.312866943359374,0.0010166172869503498,-0.004774346016347408,-0.0017138533294200897
1690842050116907000,10.322906982421875,-0.0017815660685300827,-0.002761262468993664,-0.0020044036209583282
1690842050126946800,10.33294677734375,-0.00041143177077174187,-0.000569214578717947,-0.0011191684752702713
1690842050136988000,10.34298779296875,-0.0014972025528550148,0.00233203312382102,0.00042626261711120605
1690842050147028000,10.353028076171874,-0.00021328777074813843,0.0019822947215288877,-0.00004414096474647522
1690842050157099000,10.36309912109375,-0.0001235390082001686,0.004749585408717394,0.0013811830431222916
1690842050167139000,10.37313916015625,-0.00017225276678800583,0.005303122103214264,0.0012684445828199387
1690842050177179000,10.383178955078124,-0.0009802556596696377,0.0032658036798238754,0.0009675063192844391
1690842050187220000,10.393219970703125,-0.0010054600425064564,0.0015807868912816048,-0.0005452129989862442
1690842050197259800,10.403259765625,0.0000038780272006988525,-0.0022696114610880613,0.0006489474326372147
1690842050207299800,10.4132998046875,-0.0004753461107611656,-0.006093971431255341,0.00011177733540534973
1690842050217341000,10.4233408203125,-0.00034112296998500824,-0.004596742335706949,-0.0007867738604545593
1690842050227381000,10.433381103515625,0.00041726185008883476,-0.004815849009901285,-0.000609327107667923
1690842050237421000,10.443421142578124,0.0016897199675440788,-0.003012889064848423,-0.0010466184467077255
1690842050247460900,10.4534609375,0.000908759655430913,0.0020136176608502865,0.001797923818230629
1690842050257502000,10.463501953125,0.0007665469311177731,0.0027305404655635357,0.0019388049840927124
1690842050267541800,10.473541748046875,-0.0016392595134675503,0.004135557450354099,0.0026290081441402435
1690842050277581800,10.483581787109374,-0.0009745345450937748,0.00489322654902935,0.003716111183166504
1690842050287623000,10.493622802734375,-0.0028907698579132557,0.0014193386305123568,-0.0019124913960695267
1690842050297663000,10.5036630859375,-0.0007370715029537678,0.002481939969584346,-0.0015580244362354279
1690842050307734000,10.513734130859374,0.0010247854515910149,-0.0020495285280048847,-0.0014626327902078629
1690842050317774000,10.523774169921875,0.0003920183517038822,-0.002596275880932808,-0.0028749071061611176
1690842050327814000,10.53381396484375,0.0018324472475796938,-0.003691272810101509,-0.0008686110377311707
1690842050337854000,10.54385400390625,-0.0005047428421676159,-0.002892324235290289,0.00032581761479377747
1690842050347894800,10.553894775390624,0.00004235096275806427,-0.001844201236963272,0.00011458061635494232
1690842050357934800,10.563934814453125,-0.0014205235056579113,0.0013710330240428448,0.00044987164437770844
1690842050367975000,10.573974853515624,-0.0004841587506234646,0.0019167809514328837,0.002330601215362549
1690842050378016000,10.58401611328125,0.00041758734732866287,0.0022219792008399963,0.0031138360500335693
1690842050388056000,10.59405615234375,0.0005679219029843807,0.0017838584026321769,0.0006429087370634079
1690842050398096000,10.604095947265625,0.001307215541601181,0.002192120999097824,-0.0015281010419130325
1690842050408136000,10.614135986328124,-0.0004608547315001488,0.001004212535917759,0.00024175085127353668
1690842050418176800,10.6241767578125,0.001100556692108512,-0.0007785074412822723,-0.0024317968636751175
1690842050428216800,10.634216796875,-0.00013778498396277428,-0.0007823328487575054,-0.0010731853544712067
1690842050438257000,10.6442568359375,-0.00022913143038749695,-0.0020225667394697666,-0.0007378943264484406
1690842050448298000,10.654298095703124,0.00021298928186297417,-0.0014301985502243042,0.0008780919015407562
1690842050458368000,10.664367919921874,0.000796221662312746,-0.0010568234138190746,-0.00006706453859806061
1690842050468409000,10.6744091796875,0.0006316225044429302,0.0011595417745411396,0.001526547595858574
1690842050478449000,10.684448974609374,-0.0002674609422683716,0.0005475474754348397,0.0011435840278863907
1690842050488489000,10.694489013671875,-0.0003572027198970318,0.0018258430063724518,0.0000628940761089325
1690842050498529000,10.704529052734374,0.0009373598732054234,0.0012399476254358888,0.00019205734133720398
1690842050508569900,10.71456982421875,-0.002981355879455805,-0.000229549128562212,-0.0005333460867404938
1690842050518610000,10.72460986328125,-0.0008585499599575996,-0.0001904007513076067,-0.000008437782526016235
1690842050528650000,10.73464990234375,-0.0009309235028922558,0.0023683891631662846,0.00045164674520492554
1690842050538691000,10.744691162109374,0.0005777571350336075,-0.0023323562927544117,-0.0009614266455173492
1690842050548731000,10.75473095703125,0.0009277209173887968,-0.002500206232070923,-0.0014538392424583435
1690842050558771000,10.76477099609375,-0.00025365734472870827,0.002107062377035618,0.0006167683750391006
1690842050568811000,10.77481103515625,-0.0002996274270117283,-0.000017739366739988327,0.0018960554152727127
1690842050578851800,10.784851806640624,-0.0004261275753378868,-0.0008153561502695084,0.00026913173496723175
1690842050588892000,10.794891845703125,-0.0015393905341625214,-0.0013835427816957235,-0.00034836120903491974
1690842050598932000,10.804931884765624,-0.0003910353407263756,-0.00101576023735106,-0.00006313621997833252
1690842050609002800,10.815002685546874,-0.00008679134771227837,0.0009256600751541555,0.000829845666885376
1690842050619042800,10.825042724609375,0.0008892570622265339,0.0009456337429583073,-0.001546759158372879
1690842050629084000,10.835083984375,0.0006944406777620316,-0.0007751421071588993,-0.003280147910118103
1690842050639124000,10.8451240234375,-0.0006256881169974804,0.0019079925259575248,-0.00016877613961696625
1690842050649164000,10.8551640625,0.000036905985325574875,0.0019488042453303933,0.0008960440754890442
1690842050659204900,10.865204833984375,-0.0009987973608076572,0.0020982075948268175,0.00037193484604358673
1690842050669245000,10.875244873046874,-0.0016311896033585072,-0.00007493188604712486,0.0006502345204353333
1690842050679285000,10.885284912109375,0.0013094728346914053,-0.0008469822350889444,0.0015357360243797302
1690842050689324800,10.89532470703125,-0.0006085671484470367,0.002130263950675726,0.0016917362809181213
1690842050699366000,10.905365966796875,-0.00007407087832689285,-0.0017323847860097885,0.0008696187287569046
1690842050709406000,10.915406005859374,-0.0002769757993519306,0.0007388340309262276,-0.0007120668888092041
1690842050719446000,10.925446044921875,-0.0006599384360015392,0.0005742507055401802,0.00019740313291549683
1690842050729486800,10.93548681640625,0.0005115391686558723,-0.0003368167672306299,0.0006899125874042511
1690842050739527000,10.94552685546875,-0.00028874073177576065,0.0016901151975616813,0.0014321357011795044
1690842050749567000,10.95556689453125,-0.000480135902762413,-0.0014624386094510555,0.002997785806655884
1690842050759606800,10.965606689453125,-0.00019917218014597893,-0.0001628161408007145,-0.0005383603274822235
1690842050769677800,10.975677734375,-0.00038022082298994064,-0.000045005930587649345,0.0006642378866672516
1690842050779718000,10.9857177734375,-0.0004033902660012245,0.001083375420421362,0.0015233736485242844
1690842050789759000,10.995759033203125,0.002021484076976776,-0.0006467930506914854,0.0002929121255874634
1690842050799799000,11.005799072265624,-0.0014731157571077347,0.00032872287556529045,-0.00021228939294815063
1690842050809839000,11.015839111328125,-0.0006473497487604618,-0.00056891655549407,-0.0010675042867660522
1690842050819880000,11.0258798828125,-0.0007797088474035263,-0.0030789461452513933,0.00018897466361522675
1690842050829920000,11.035919921875,0.0008500372059643269,-0.0018754880875349045,-0.001004667952656746
1690842050839959800,11.045959716796874,0.000008744653314352036,-0.000034711090847849846,-0.0018230564892292023
1690842050850000000,11.055999755859375,0.0008816160261631012,-0.00006301526445895433,0.0018161684274673462
1690842050860041000,11.066041015625,-0.0000036186538636684418,0.0008451227331534028,0.002158917486667633
1690842050870081000,11.0760810546875,0.0011654011905193329,0.0010395757853984833,0.003023942932486534
1690842050880121000,11.08612109375,-0.00020985538139939308,0.002067023189738393,0.0005480013787746429
1690842050890162000,11.096161865234375,-0.00019043916836380959,0.0003055607667192817,-0.00009186007082462311
1690842050900202000,11.106201904296874,0.0006668325513601303,0.0006062317406758666,-0.0009845532476902008
1690842050910241800,11.11624169921875,0.000017161481082439423,0.0009193816222250462,-0.0009026732295751572
1690842050920312800,11.126312744140625,-0.00012425240129232407,-0.0006303117843344808,-0.0005836263298988342
1690842050930353000,11.136352783203124,-0.0012553823180496693,0.000299453386105597,-0.0005169566720724106
1690842050940394000,11.14639404296875,-0.0010015834122896194,-0.0016446543158963323,-0.0012823492288589478
1690842050950434000,11.15643408203125,-0.0005974811501801014,-0.00016742758452892303,0.0006133820861577988
1690842050960474000,11.16647412109375,-0.00038842298090457916,-0.0007815526332706213,-0.0004420280456542969
1690842050970514200,11.17651416015625,-0.000173856969922781,-0.0004110549343749881,0.0005247537046670914
1690842050980555000,11.186554931640625,-0.0008601536974310875,-0.0001836210722103715,0.0006443299353122711
1690842050990594800,11.1965947265625,-0.00081635732203722,0.0021244061645120382,0.000077834352850914
1690842051000607000,11.20660693359375,-0.000828607939183712,0.0005832349415868521,-0.0019293911755084991
1690842051010647000,11.21664697265625,0.0005376394838094711,0.0021758663933724165,0.0005913246423006058
1690842051020688100,11.226688232421875,0.0005400362424552441,0.00007809442467987537,-0.001685410737991333
1690842051030728000,11.23672802734375,0.0001688031479716301,-0.00016366876661777496,-0.00019875355064868927
1690842051040768000,11.24676806640625,0.0012756127398461103,0.0005623089382424951,0.0002353433519601822
1690842051050808800,11.256808837890626,-0.001061056274920702,-0.00014810101129114628,-0.00001054815948009491
1690842051060849000,11.266848876953125,0.0005150027573108673,-0.0004149496089667082,-0.000538654625415802
1690842051070920000,11.276919921875,-0.0007085739634931087,0.00004104245454072952,-0.000059353187680244446
1690842051080960000,11.2869599609375,-0.00043560005724430084,0.00010948569979518652,0.0003342609852552414
1690842051090999800,11.296999755859375,0.0003120354376733303,-0.00037680345121771097,-0.0008022468537092209
1690842051101041000,11.307041015625,0.00011815689504146576,0.001265301601961255,0.00019084475934505463
1690842051111081000,11.3170810546875,-0.0016965242102742195,0.0001834105933085084,0.0009043365716934204
1690842051121121000,11.32712109375,0.0000875275582075119,-0.0013345911866053939,-0.0001851636916399002
1690842051131161000,11.3371611328125,0.0002126721665263176,-0.0005079564871266484,0.0003972630947828293
1690842051141202000,11.347201904296876,0.0008901804685592651,-0.00007093162275850773,-0.001811562106013298
1690842051151242000,11.357241943359375,0.002125958213582635,0.003172352910041809,-0.0018493589013814926
1690842051161282000,11.367281982421876,-0.0009183012880384922,-0.0020580957643687725,-0.0004357527941465378
1690842051171323100,11.3773232421875,-0.000528422649949789,-0.0007861538324505091,0.0004458874464035034
1690842051181363000,11.387363037109376,0.0008529592305421829,-0.001208531204611063,0.0012166071683168411
1690842051191403000,11.397403076171875,0.001490857219323516,-0.00036557018756866455,0.00044527463614940643
1690842051201443000,11.407443115234376,0.0007172087207436562,0.0008006279822438955,-0.001024790108203888
1690842051211484000,11.41748388671875,0.00033596158027648926,0.0006089034723117948,-0.00007599964737892151
1690842051221524000,11.42752392578125,-0.0005146521143615246,-0.0014928632881492376,-0.00020782649517059326
1690842051231595000,11.437594970703126,0.0006693392060697079,0.0020680094603449106,0.0005174446851015091
1690842051241634800,11.447634765625,-0.0003325417637825012,0.0008149922359734774,0.00030386075377464294
1690842051251675000,11.4576748046875,-0.0015311148017644882,-0.0011868589790537953,-0.0013636387884616852
1690842051261716000,11.467716064453125,-0.0004618559032678604,-0.00037619273643940687,0.0008952543139457703
1690842051271756000,11.477756103515626,-0.0015191114507615566,0.0011708731763064861,-0.001033896580338478
1690842051281796000,11.487796142578125,0.0010202124249190092,-0.0007543258834630251,-0.0010195150971412659
1690842051291836000,11.4978359375,0.0001648147590458393,0.0002551780780777335,-0.00027925334870815277
1690842051301877000,11.507876953125,0.0004343264736235142,-0.0028663130942732096,0.0010411422699689865
1690842051311916800,11.517916748046876,-0.00008357036858797073,0.0008141112048178911,0.001287214457988739
1690842051321956900,11.527956787109375,-0.0004457598552107811,0.00020211678929626942,0.0002738814800977707
1690842051331998000,11.537998046875,0.0003398512490093708,0.0021257258486002684,-0.0000292900949716568
1690842051342038000,11.5480380859375,0.00004131067544221878,-0.0006580764893442392,-0.000267907977104187
1690842051352078000,11.558078125,0.0002821134403347969,0.000861424021422863,-0.0012039877474308014
1690842051362118000,11.568117919921875,-0.0007495954632759094,0.0008875229395925999,-0.00005989335477352142
1690842051372159000,11.578158935546876,0.0009272655006498098,-0.00181852956302464,-0.0007742680609226227
1690842051382230000,11.58822998046875,0.0010356560815125704,0.0001809716923162341,-0.0001777205616235733
1690842051392269800,11.598269775390625,-0.0001817392185330391,-0.0014894638443365693,-0.0013679172843694687
1690842051402310000,11.608309814453126,-0.0014446103014051914,-0.0015741524985060096,0.0009596850723028183
1690842051412350000,11.618349853515625,0.00004706345498561859,0.00268338480964303,0.00015701912343502045
1690842051422391000,11.62839111328125,0.0002020592801272869,-0.0008767290273681283,0.0023900792002677917
1690842051432431000,11.63843115234375,0.0009137408342212439,0.0009665201650932431,-0.00195244699716568
1690842051442471000,11.648470947265626,-0.00020478665828704834,-0.00025720230769366026,-0.0010166112333536148
1690842051452510700,11.6585107421875,-0.000544318463653326,0.0011634302791208029,0.0013711526989936829
1690842051462551800,11.6685517578125,0.00007353490218520164,0.0012204218655824661,0.0012212172150611877
1690842051472592000,11.678591796875,0.0006927633658051491,0.0011727851815521717,0.0006139818578958511
1690842051482632000,11.6886318359375,-0.0012723836116492748,-0.001069330144673586,0.0017186608165502548
1690842051492673000,11.698673095703125,-0.000562889501452446,-0.002090965863317251,0.0010022297501564026
1690842051502713000,11.708713134765626,0.0006856005638837814,-0.0012978768208995461,-0.0009757000952959061
1690842051512753000,11.7187529296875,0.0013471681158989668,0.0011747954413294792,-0.0006149280816316605
1690842051522793000,11.72879296875,0.00202920357696712,-0.0015794457867741585,0.0008697845041751862
