time,seconds_elapsed,z,y,x
1690841607543481300,0.1974814453125,0.22265666274130344,0.03663108264436014,-0.015022089267359115
1690841607553521400,0.207521484375,0.2204535997390747,0.026976324529852717,-0.006149250194604974
1690841607563554600,0.217554443359375,0.20717150883972643,0.014237829854758455,-0.00537156893655192
1690841607573594600,0.2275947265625,0.20390578504204748,-0.005984645633865147,-0.009528060711629222
1690841607583634700,0.237634765625,0.19314590609669685,-0.014899353370256722,-0.0075617199415690265
1690841607593674800,0.2476748046875,0.19883155051767826,-0.03185103616043925,0.004621312258252874
1690841607603715600,0.257715576171875,0.1944815386146307,-0.03216058616680093,0.004403269610379357
1690841607613755400,0.26775537109375,0.19341244807839392,-0.02993809694489464,0.0032454002455691807
1690841607623795500,0.27779541015625,0.20176468136012554,-0.021342775622289627,0.007251350234588607
1690841607633836500,0.28783642578125,0.20277356614172456,-0.0353044645499438,0.009634329531120601
1690841607643906600,0.297906494140625,0.207491242313385,-0.008738510919269174,0.003254049342905637
1690841607653947600,0.30794775390625,0.2231897467046976,0.0022058577475138007,0.002621210782486014
1690841607663987700,0.31798779296875,0.21746318575143814,0.024603686247533185,0.0007479185907403006
1690841607674027500,0.328027587890625,0.22627076158523557,0.03989544560201466,-0.009469791185751092
1690841607684068400,0.338068359375,0.22531273020803927,0.05260806605033576,-0.015452626171731388
1690841607694108400,0.3481083984375,0.22552374261021613,0.055902869812026613,-0.01927203376283869
1690841607704148500,0.3581484375,0.22600772673487662,0.05001675264919177,-0.015864042817102745
1690841607714188500,0.3681884765625,0.21344518228173254,0.04215551775479689,-0.012641315627645235
1690841607724229600,0.378229736328125,0.21282675812244414,0.03923929238137789,-0.015049876890005543
1690841607734269700,0.388269775390625,0.20352818390130994,0.023091500719450413,-0.007812068840290885
1690841607744309800,0.398309814453125,0.200497437903285,0.014924825738230719,-0.0004345554923638701
1690841607754349600,0.408349609375,0.1943143653541803,-0.0036768892813008277,0.008606466054415795
1690841607764390400,0.418390380859375,0.19590660298168658,-0.011596119706938043,0.0056540551227633835
1690841607774430500,0.428430419921875,0.20228665940761564,-0.025438219109224156,0.005885980165516958
1690841607784501500,0.43850146484375,0.20672727220356463,-0.024237465017335487,0.021119666356942617
1690841607794541600,0.44854150390625,0.20504268011748789,-0.022571614164346828,0.019208277494378853
1690841607804581600,0.45858154296875,0.2044067203015089,-0.020802339469501746,0.011491775699763092
1690841607814622700,0.468622802734375,0.20109365023076534,-0.005754837199673056,-0.006819856632279697
1690841607824662500,0.47866259765625,0.1994341925859451,-0.000009480214398354292,-0.014171561968803871
1690841607834702600,0.48870263671875,0.20407588091194628,0.006657265932112932,-0.012498648904077708
1690841607844743400,0.498743408203125,0.2099228533744812,0.01041942234407179,-0.014325590336602181
1690841607854783500,0.508783447265625,0.21233926686644553,0.023822399676730856,-0.012778792436153161
1690841607864823600,0.518823486328125,0.2071253316104412,0.025986783769540486,-0.01556427441923879
1690841607874863600,0.528863525390625,0.2107411840200424,0.02781440105549991,-0.02013708962695673
1690841607884904700,0.53890478515625,0.2055295868515968,0.025310848136199635,0.0015694481236743739
1690841607894944500,0.548944580078125,0.20180209076106548,0.019823420567903666,-0.005286781296506524
1690841607904984600,0.558984619140625,0.208244691029191,0.00680847443845123,-0.002068552185653243
1690841607915055600,0.5690556640625,0.19986849234998225,-0.003194750053854659,0.0005199619036284275
1690841607925095700,0.579095703125,0.19537585710585118,-0.00036019334821030496,0.004761713959497865
1690841607935136500,0.589136474609375,0.19581191043555735,-0.012232992838369683,-0.001286201602348592
1690841607945176600,0.599176513671875,0.19205168111920357,-0.014748656320571898,0.008367348652472718
1690841607955216600,0.609216552734375,0.1950216368407011,-0.01062596863368526,-0.0000473736725281924
1690841607965256400,0.61925634765625,0.20801731201410292,-0.01949988770196214,-0.0014106842152541502
1690841607975297500,0.629297607421875,0.19168518589437006,-0.012524303935142233,0.008228257558902259
1690841607985337600,0.639337646484375,0.21232114668786525,-0.0021456976586487144,0.008008246716228313
1690841607995377700,0.649377685546875,0.19166531215012073,0.002589249308221042,0.0060177053699619135
1690841608005418500,0.65941845703125,0.1982458595842123,0.005545523564238101,0.0014737669135676697
1690841608015458600,0.66945849609375,0.19451018018722532,0.00711952228215523,0.00029091837112791836
1690841608025498600,0.67949853515625,0.1984112792789936,0.012694025345705448,0.002309678881592117
1690841608035538400,0.689538330078125,0.20395663844645023,0.005624982008617371,-0.003917397206020541
1690841608045609500,0.699609375,0.20337094751298426,0.01043302161116153,0.002098456416861154
1690841608055650600,0.709650634765625,0.20517536658644675,0.019765406770352274,0.001565194356953725
1690841608065690600,0.719690673828125,0.19006664478182791,0.01117859754776582,0.004699752355902456
1690841608075730700,0.729730712890625,0.20458441495597363,0.010886354869231582,0.0026099359032232313
1690841608085770500,0.7397705078125,0.18588205257356166,0.0004016396034508943,0.0003451784421689808
1690841608095811600,0.7498115234375,0.19351707749664782,-0.007456069893296807,0.004241692690365016
1690841608105851600,0.7598515625,0.20309388413727283,-0.0005476604780182242,0.007788206190802157
1690841608115891500,0.769891357421875,0.20369360359609126,-0.001501883329777047,0.0017651716251741163
1690841608125932500,0.7799326171875,0.2012953102827072,-0.021573935763351617,-0.007328132664691656
1690841608135972600,0.78997265625,0.19484920288324356,-0.013776039295597,-0.0166647030919441
1690841608146012700,0.8000126953125,0.19618191279172897,-0.010884217711072414,-0.006565984619199298
1690841608156052500,0.810052490234375,0.20634148775637148,0.0033860074427910147,-0.009645275616820435
1690841608166093600,0.820093505859375,0.18687398622035978,0.005382030965061858,-0.003762923596939072
1690841608176133600,0.830133544921875,0.19704115996956825,-0.0020269118508789686,0.009497329929936677
1690841608186204400,0.840204345703125,0.19538988563120363,0.006792290488630533,0.01452555162180215
1690841608196244500,0.850244384765625,0.2027238817811012,0.010578613227466121,0.013408299678459298
1690841608206284500,0.860284423828125,0.19405717572271822,0.006411629741126671,0.00882224824654404
1690841608216325600,0.87032568359375,0.20005495483279226,0.010930723733920603,0.0037769155896734442
1690841608226365400,0.880365478515625,0.20201193411946294,0.012188432177435605,-0.009599676059558988
1690841608236405500,0.890405517578125,0.1894488051444292,0.008054337180545552,-0.018777247399662154
1690841608246445600,0.900445556640625,0.19439035319983958,-0.0016973328366409986,-0.015995023669453802
1690841608256486700,0.910486572265625,0.1985807906270027,0.004526455315342173,-0.013375089245312846
1690841608266526500,0.9205263671875,0.18211714708209037,0.0010155611175578087,0.007534916416322812
1690841608276566500,0.93056640625,0.1867506521016359,-0.0012252948781009763,0.00573050419272622
1690841608286607600,0.940607666015625,0.2014092920511961,0.004551507558207959,0.01309633623601403
1690841608296647400,0.9506474609375,0.1903290951102972,0.0029571693051606415,0.011747097601124551
1690841608306687500,0.9606875,0.1856844841748476,-0.0047345633743796495,0.0042885594728169964
1690841608316758500,0.970758544921875,0.1901683515906334,-0.0067394825891591605,-0.007445788244588766
1690841608326798300,0.98079833984375,0.2007896988481283,-0.009629687605332582,-0.012602460905001498
1690841608336839400,0.99083935546875,0.2046756003707647,0.0005705116306431591,-0.018068544291169383
1690841608346879500,1.00087939453125,0.20571955646574497,-0.0022795075056143105,-0.014855769956856965
1690841608356919600,1.01091943359375,0.20586568693816662,-0.0027821597981266674,-0.00923549608939793
1690841608366959600,1.020959716796875,0.19404197815358637,0.007393242923310026,-0.000829027852800209
1690841608377000400,1.03100048828125,0.18850363324880598,0.007216288054361939,0.006769909693463705
1690841608387040500,1.04104052734375,0.1876098992794752,0.010613638875074684,0.010909854475827888
1690841608397080600,1.05108056640625,0.2018278097242117,0.014287541614845394,0.010342726678936742
1690841608407120400,1.061120361328125,0.1933043115288019,0.0007228435149881988,0.008887162142340093
1690841608417161500,1.071161376953125,0.19465689518153667,-0.0043729361209087075,0.0008412982459063642
1690841608427201500,1.081201416015625,0.19690671993494033,0.0033642431355547157,-0.010083020863402634
1690841608437241600,1.09124169921875,0.19870587831139563,-0.007928144384454935,-0.014508351608540396
1690841608447312600,1.101312744140625,0.19481413156986235,-0.016568300362629816,-0.015268720972188747
1690841608457352700,1.111352783203125,0.19211656304895877,-0.004394663895526901,-0.014781300498137716
1690841608467393500,1.1213935546875,0.19046353514492512,-0.008366280073393136,-0.00406683844695799
1690841608477433300,1.131433349609375,0.18282500309050081,-0.004835366000887006,0.0068112874500453465
1690841608487473400,1.141473388671875,0.18671148913502691,-0.0013993180044461042,0.012216555443510878
1690841608497514500,1.151514404296875,0.18820494256317613,-0.004838014615699648,0.00984265450257808
1690841608507554600,1.161554443359375,0.18910101462006568,-0.0006698072866536676,0.005315895509847905
1690841608517594600,1.1715947265625,0.19658406385183333,0.00030292846933007236,0.002514658835204318
1690841608527634700,1.181634765625,0.20811083551645276,0.004712196278944611,0.00029048911286517977
1690841608537675500,1.191675537109375,0.1980886231958866,0.00022278503836132584,-0.007518506420927587
1690841608547715300,1.20171533203125,0.19300445179939268,-0.00015791224176064133,-0.014330124947824515
1690841608557755400,1.21175537109375,0.19659692333340645,-0.00017845270629040895,-0.005819986274198163
1690841608567786000,1.221785888671875,0.1967465609371662,-0.004765652632387355,-0.014789148161164485
1690841608577825800,1.23182568359375,0.1979413236796856,-0.003998175391228869,-0.0063883927127229975
1690841608587896800,1.241896728515625,0.19375030173063276,-0.0022045517064165324,0.0017212822510977274
1690841608597937000,1.25193701171875,0.18132862705290317,0.00231822294765152,0.008844599358958658
1690841608607977000,1.26197705078125,0.19419687645435332,0.006091403077123686,0.011849089821008964
1690841608618017000,1.27201708984375,0.18955869525969027,-0.00349500250890851,0.00837721245936118
1690841608628057900,1.282057861328125,0.19345044200122355,-0.001062258936651051,0.0001012592842336744
1690841608638097700,1.29209765625,0.19450024331510066,-0.004877469843253493,-0.000545687716640532
1690841608648137700,1.3021376953125,0.19689561401903627,-0.010035583258792757,-0.012387518963089678
1690841608658178800,1.3121787109375,0.19240473234057426,-0.0056635239207185805,-0.011185773923934902
1690841608668219000,1.322218994140625,0.19419746097624302,-0.004405961607675999,-0.012131249496946111
1690841608678259000,1.332259033203125,0.17608721926808357,0.002437036154884845,-0.008966154795838519
1690841608688299000,1.342299072265625,0.18132102826833724,-0.004459326629573479,0.003517897044017445
1690841608698339800,1.35233984375,0.19284137019217013,0.004520089506637305,-0.004326322783494834
1690841608708380000,1.3623798828125,0.19388941794037817,0.009971632910799234,0.0019926625214051453
1690841608718450700,1.37245068359375,0.19419161575734614,0.0055536155391484494,0.0109817552348366
1690841608728490800,1.38249072265625,0.19883447312712668,-0.0023698892028070984,0.00962712575548794
1690841608738530800,1.39253076171875,0.19614684147834777,-0.0015010430795606225,-0.004113511149876285
1690841608748572000,1.402572021484375,0.18806991800665854,-0.0010708349687512963,-0.006837657150451559
1690841608758612000,1.412612060546875,0.18313246160447597,-0.005037592308409512,-0.007783680712734348
1690841608768652000,1.422652099609375,0.18851824629604816,-0.002005777731304988,-0.007261723214841913
1690841608778692900,1.43269287109375,0.1980932993710041,-0.004827520621148869,-0.00657990354669746
1690841608788732700,1.442732666015625,0.19060791205167768,-0.006770325251994654,-0.0027911993378191254
1690841608798772700,1.452772705078125,0.19629180290699003,-0.005022139010950923,0.0031729400808457285
1690841608808812800,1.462812744140625,0.19793664750456808,-0.0006448829079512506,0.0036489486783160825
1690841608818854000,1.47285400390625,0.18551672639250755,-0.002278274529753253,0.004157263526634779
1690841608828894000,1.48289404296875,0.18910861340463161,-0.006546225039381534,-0.003764706845360342
1690841608838934000,1.49293408203125,0.1849210985869169,-0.0021758736012037843,-0.005239619969821069
1690841608848974800,1.502974853515625,0.18731822285652158,-0.0028744777240790427,0.0007862595734419301
1690841608859044900,1.513044921875,0.19405308406949043,-0.012227394214645028,-0.0021506592448451555
1690841608869085700,1.523085693359375,0.19031214397549628,-0.0059440030962228775,-0.013604536919901147
1690841608879125800,1.533125732421875,0.1959977883964777,0.003545243991957977,-0.002327449717011768
1690841608889165800,1.543165771484375,0.19045827444791794,-0.0037009825429413466,-0.00046678182811010625
1690841608899206000,1.553205810546875,0.18417291056811808,0.001628733712993562,-0.0003946299073519185
1690841608909247000,1.5632470703125,0.19300269823372362,-0.007125367501052096,-0.0021439121269388123
1690841608919287000,1.573287109375,0.19569734414517878,-0.012129139738250524,-0.0035522194387274794
1690841608929326800,1.583326904296875,0.19076105678677557,0.005521430302597582,-0.006813675769953988
1690841608939367700,1.59336767578125,0.19046587323248385,0.0023100761738140134,0.004521023371687624
1690841608949407700,1.60340771484375,0.1832838527739048,-0.0033328707497566937,0.002299981754773762
1690841608959447800,1.61344775390625,0.181636670088768,0.00021558811259455977,-0.004547128210612573
1690841608969488000,1.62348779296875,0.18283318639695642,-0.0036067375213839114,-0.00006948047305922954
1690841608979529000,1.633529052734375,0.1858230158627033,0.0027708164202049374,-0.008206182724412064
1690841608989600000,1.64360009765625,0.18432196364998815,-0.0017302578587085008,0.0031689740084926594
1690841608999640000,1.65364013671875,0.1832739159017801,-0.005670894376421347,0.0063307259750436055
1690841609009680000,1.663679931640625,0.18716332455575466,0.006835325912758708,0.002026843352220021
1690841609019720000,1.673719970703125,0.18132628896534442,-0.0020617639685515314,-0.0028338831354980357
1690841609029760800,1.6837607421875,0.1873147157251835,-0.0030814076061826197,-0.006582011022104416
1690841609039800800,1.69380078125,0.18671908791959285,-0.004528062750538811,-0.0024094129290198906
1690841609049841000,1.7038408203125,0.18357903632819653,-0.008561939642811194,-0.00621209771418944
1690841609059881000,1.713880859375,0.18477730620205401,-0.0002644048235379159,0.001743204105249606
1690841609069922000,1.723922119140625,0.18148644796311855,0.005625904457224533,-0.00011567368536489083
1690841609079961900,1.7339619140625,0.1977975312948227,0.010410417053708806,-0.004196558923984412
1690841609090002000,1.744001953125,0.18956454047858715,0.009015711292298511,-0.002736838802078273
1690841609100042800,1.754042724609375,0.1861205375045538,0.004239318070188164,0.002249888685485348
1690841609110082800,1.764082763671875,0.18686872552335262,-0.0014321699612773954,-0.00048174650180153546
1690841609120153900,1.77415380859375,0.1939016929000616,-0.0022762926352210343,-0.004096662763063795
1690841609130194000,1.78419384765625,0.1915086602836847,0.0023258125990629195,-0.0034604654850671065
1690841609140234000,1.79423388671875,0.19210837974250317,-0.0025339023917913435,-0.0010180339191458187
1690841609150275000,1.804275146484375,0.18776947375535963,-0.006071182273002341,-0.001243234676879365
1690841609160315000,1.81431494140625,0.18836685512661933,-0.006162952209683135,-0.004316906501178164
1690841609170355000,1.82435498046875,0.19135785363614558,0.009158279834454879,-0.0016956660359399391
1690841609180395000,1.83439501953125,0.18447335481941698,0.008461721538193523,-0.004789042641129344
1690841609190435800,1.844435791015625,0.1798322510153055,0.0028848255881574,-0.0030484894339810123
1690841609200476000,1.854475830078125,0.19165128362476824,-0.0004026533836033195,-0.0005219072655425407
1690841609210516000,1.864515869140625,0.19449322905242442,0.0068485415873583404,-0.009096194933273363
1690841609220557000,1.87455712890625,0.18057810094654558,0.004234313101507723,0.006878507467359304
1690841609230596900,1.884596923828125,0.18731296215951443,-0.0016612477431073784,0.004608772437088191
1690841609240637000,1.894636962890625,0.184620654335618,-0.0015387721409089862,0.0004756455545779317
1690841609250677000,1.904677001953125,0.18222703719735145,0.004069834121642634,-0.007607506728498264
1690841609260748000,1.914748046875,0.1805821925997734,0.004125354568008333,-0.008333585663477423
1690841609270787800,1.924787841796875,0.180433724039793,0.0004564659300725907,-0.008143663998390548
1690841609280829000,1.934828857421875,0.17459844201505184,-0.006729070792999118,-0.0029268700650194658
1690841609290868700,1.94486865234375,0.17743980292081832,0.00032017186507582663,-0.00018520667406264691
1690841609300908800,1.95490869140625,0.17594225783944129,0.0017510357852559535,0.0087307568710763
1690841609310950000,1.964949951171875,0.18043080143034457,0.005547615056624636,0.0030690892640152013
1690841609320990000,1.974989990234375,0.18701193338632582,-0.0019365301536861806,0.005874143597250804
1690841609331030000,1.985030029296875,0.19030454519093035,-0.0044407589264214035,0.006391634982579853
1690841609341069800,1.99506982421875,0.1922492495179176,-0.0008635580267757177,-0.0034670436396147123
1690841609351111000,2.00511083984375,0.1804284633427858,0.0041712943352758885,-0.005710728629888035
1690841609361151000,2.01515087890625,0.1795323912858963,0.004872985464381053,-0.009644971939432433
1690841609371190800,2.025190673828125,0.1802811638265848,0.001720996840018779,-0.002300296848604921
1690841609381231900,2.03523193359375,0.18701193338632582,0.0018189499223139137,0.00023149806777946649
1690841609391302000,2.045302001953125,0.18626491441130638,-0.00503383858189918,-0.009055529562744778
1690841609401343000,2.055343017578125,0.18416998795866965,-0.00193470352278091,-0.007112882478814571
1690841609411383000,2.065383056640625,0.1879103435307741,-0.0014197488711215555,-0.00006963801997480913
1690841609421422800,2.0754228515625,0.18760931475758552,0.006273171118507162,0.00544478715310106
1690841609431464000,2.0854638671875,0.18207155437469483,0.0105712245054543,0.006299976927042007
1690841609441503700,2.095503662109375,0.1920966893047094,0.003826800879696384,0.00024615449750563126
1690841609451543800,2.105543701171875,0.18296821095347404,-0.000479043088061735,0.0010410289189545438
1690841609461584000,2.115583984375,0.1888070001095533,0.004053056516777724,-0.00619821075273212
1690841609471625000,2.125625,0.1820762305498123,-0.0005355590482708066,0.004994065977225546
1690841609481665000,2.1356650390625,0.17788462407886982,0.002824985159700736,0.0031016329768812283
1690841609491704800,2.145704833984375,0.18387012822926044,-0.001094170178566128,-0.009396225909329951
1690841609501746000,2.155745849609375,0.18641455201506613,-0.0026155071274843065,-0.0006859341542585752
1690841609511786000,2.165785888671875,0.18356909945607183,-0.0014448650460690258,-0.004326137837115675
1690841609521825800,2.17582568359375,0.18596505468189714,0.0031208902332000433,0.006461722810415085
1690841609531896800,2.185896728515625,0.18506664453744887,0.0029555070710368453,0.0033151067642029374
1690841609541937000,2.19593701171875,0.18596505468189714,-0.007030282229278236,0.00342325016366085
1690841609551977000,2.20597705078125,0.1747428189218044,-0.0026242475563660263,-0.00002101995514240116
1690841609562017800,2.216017822265625,0.1903062987565994,0.005691425707796588,-0.0066021884437417605
1690841609572064300,2.226064208984375,0.18536942687630653,0.002798535544192418,-0.0037922958218958224
1690841609582104300,2.236104248046875,0.1880640727877617,0.0025291166188195348,-0.00857061842289986
1690841609592145200,2.246145263671875,0.18656828127205372,-0.0014866857606451957,-0.0035192989832372405
1690841609602185200,2.256185302734375,0.18866320772469042,-0.0024326431075576693,0.0008180498010595329
1690841609612225000,2.26622509765625,0.1813309651404619,-0.0035016697117127476,0.0000032148703932762145
1690841609622265000,2.27626513671875,0.18073124568164348,-0.0007698975271079689,0.004519415936490986
1690841609632306200,2.28630615234375,0.18387363536059856,-0.0013614793452434242,-0.003288077193382196
1690841609642346200,2.29634619140625,0.18177753986418246,-0.0035264753594063222,-0.001369792799151037
1690841609652386300,2.30638623046875,0.18492051406502721,0.0025491912924684584,0.004738052239408716
1690841609662457300,2.316457275390625,0.1802823328703642,-0.0005452310589142143,0.0011564856918994336
1690841609672497200,2.3264970703125,0.18686872552335262,-0.00025516207115724684,0.0034717403643298892
1690841609682538200,2.336538330078125,0.18118308110237122,0.0015838899242691694,-0.0022313483817968517
1690841609692578000,2.346578125,0.17803952237963674,-0.0029998668025713413,-0.0033911197260371407
1690841609702618000,2.3566181640625,0.1786380727946758,0.00836386892059818,0.0030965321100782602
1690841609712658200,2.366658203125,0.17609540257453918,-0.0026401940441690384,-0.0005409339097095653
1690841609722699300,2.37669921875,0.18148235630989074,-0.0009922715735156088,-0.0005950638332986272
1690841609732739300,2.3867392578125,0.1695101789653301,0.0029609230316709726,-0.006987276487902272
1690841609742779100,2.396779052734375,0.1813309651404619,-0.005603162902453914,0.00021863173634046687
1690841609752820200,2.4068203125,0.18148294083178043,-0.007267461119173094,0.010311712769453878
1690841609762860000,2.416860107421875,0.18462708407640457,-0.0032648196153808383,-0.0028001247130800037
1690841609772900000,2.426900146484375,0.1805862842530012,-0.006271563683310524,-0.00575455407188274
1690841609782940200,2.436940185546875,0.17415186729133128,-0.01082312604044564,-0.00022219823318300768
1690841609793011200,2.44701123046875,0.18343173681199548,-0.004405230955313891,-0.0018538499890477396
1690841609803052300,2.45705224609375,0.17744623266160486,-0.0001796856821514666,-0.0016572656877338885
1690841609813092400,2.46709228515625,0.18567688539028165,-0.002080313405394554,-0.006737847754498943
1690841609823132200,2.477132080078125,0.18642565793097018,0.0005223981725983321,-0.00521663410316687
1690841609833172000,2.487171875,0.18717501499354838,0.0016251443832647054,0.0020095109082176347
1690841609843213000,2.497213134765625,0.17969255028367043,0.0014775252066552638,0.005360134227084927
1690841609853253000,2.507253173828125,0.18253741832077502,0.004273083342472091,-0.00024100796493003144
1690841609863293200,2.517293212890625,0.18478607403039932,-0.0011377718582749367,-0.0032380046736914664
1690841609873334300,2.527334228515625,0.18852993673384189,-0.00021268376945517955,-0.012965780075348448
1690841609883374300,2.537374267578125,0.18344342724978924,0.00018480024868622422,-0.0007618649177020415
1690841609893414100,2.5474140625,0.1822463264197111,0.0021145901343319565,-0.00114004829704063
1690841609903454000,2.557453857421875,0.18628654172122477,-0.0055282984348014,0.0009240994248422794
1690841609913495000,2.5674951171875,0.1888297964632511,-0.0037984789675101637,0.000656059605802875
1690841609923535000,2.57753515625,0.18209435072839258,-0.0041873047551605844,0.001815260127885267
1690841609933606100,2.587606201171875,0.18239245689213274,0.0026005196209065613,0.0038746951420325785
1690841609943646200,2.597646240234375,0.1832920360803604,0.007196295579103753,-0.008997588830429594
1690841609953686300,2.607686279296875,0.18089841894209382,0.006046458823699504,-0.0049232452137395735
1690841609963727400,2.617727294921875,0.18164719148278236,-0.002579184571933001,0.0006771046771202236
1690841609973767200,2.62776708984375,0.18254618614912033,0.005590613948134705,0.0003660979326115921
1690841609983807000,2.637806884765625,0.17596213158369065,0.0032016638518311082,0.00019133045417256653
1690841609993847000,2.647846923828125,0.18224691094160078,-0.00292053622235544,-0.0041560008680215105
1690841610003888000,2.65788818359375,0.18643676384687421,0.001856642451044172,-0.00765082984699402
1690841610013928200,2.66792822265625,0.18404314670860766,0.008473640304850413,-0.0024725641259923576
1690841610023968300,2.67796826171875,0.18359423389732837,0.005921909995423629,-0.006534838278975803
1690841610034009300,2.68800927734375,0.1829956834822893,0.004884000048739835,-0.007335320457303896
1690841610044049200,2.698049072265625,0.17955401859581469,0.0014505915339570491,-0.002195235888799652
1690841610054089000,2.7080888671875,0.17132511943280695,-0.004624983786372467,-0.001866800802166108
1690841610064160000,2.718159912109375,0.18284663040041924,-0.00027370237484574317,0.000836829850054346
1690841610074200000,2.728199951171875,0.17835691776573656,-0.00464538725358434,-0.003701546515233349
1690841610084241200,2.7382412109375,0.18224749546349048,-0.006556152778351679,0.0010219725920353085
1690841610094281200,2.74828125,0.18763503372073173,0.002581979317218065,0.0038345709109096787
1690841610104321300,2.7583212890625,0.17192308532595632,0.0006381335067562759,-0.005436238520464394
1690841610114361300,2.768361328125,0.18808336201012132,0.0022795075056143105,-0.0023675648149801415
1690841610124402200,2.778402099609375,0.18314590560793875,0.006511747381044551,-0.010780503891559783
1690841610134442000,2.78844189453125,0.17910627482831476,0.0031235114485491065,-0.00621631038171472
1690841610144482000,2.79848193359375,0.17820844920575618,-0.00015103497640229761,-0.0025655853048432617
1690841610154522000,2.808522216796875,0.17925532791018484,0.0020515713681001214,0.007018735638668294
1690841610164563200,2.818563232421875,0.18778525584638117,-0.004355318265827373,0.0037103371764649635
1690841610174603300,2.828603271484375,0.1812012012809515,0.00003827705061994493,0.0005912164919544011
1690841610184643300,2.838643310546875,0.18703706782758234,-0.0012962777550797908,-0.0001455733499955386
1690841610194714000,2.848714111328125,0.19272388129234314,-0.00563354890756309,-0.004971739980985876
1690841610204754200,2.858754150390625,0.1871872899532318,-0.005010759100411087,-0.0003522383706178516
1690841610214795000,2.868794921875,0.18045418230593205,-0.01024082350730896,-0.005705002142000011
1690841610224835000,2.8788349609375,0.18344868794679642,-0.0038556433816906064,-0.003667144205421209
1690841610234875100,2.888875244140625,0.1809048486828804,0.0006139215141069144,-0.0017460673491936176
1690841610244916200,2.898916259765625,0.1792582505196333,0.0032657603302970527,-0.0010251509298104793
1690841610254956300,2.908956298828125,0.1800070230603218,0.0013212751990184187,-0.0029252671964000907
1690841610264996000,2.91899609375,0.18285013753175736,-0.0015266707111615686,0.005317767806525807
1690841610275036200,2.9290361328125,0.17656711173951625,0.0007008782783523202,0.005252025076956488
1690841610285077000,2.939076904296875,0.17552198660075663,0.004450787130091339,0.0025942086111288517
1690841610295117000,2.949116943359375,0.18016133683919905,0.004637888933718204,-0.004405957041098736
1690841610305157000,2.9591572265625,0.18450141187012195,0.004511979265417903,0.00022406824657227842
1690841610315198200,2.9691982421875,0.18240590089559555,0.0005730780470650643,0.00018713833624497056
1690841610325238300,2.97923828125,0.18794073866903782,-0.003402940311282873,-0.0010624096337007358
1690841610335309300,2.989309326171875,0.1918313163667917,-0.002066759804077446,-0.005306568275787868
1690841610345349000,2.99934912109375,0.1800111147135496,-0.0006838358120061456,-0.00628471314253984
1690841610355389200,3.00938916015625,0.18120646197795867,-0.004045969188865274,0.0012992734297644346
1690841610365429200,3.01942919921875,0.18838906695842741,0.001177300151064992,0.00042264814215013755
1690841610375470000,3.029469970703125,0.18419862953126429,-0.0018291699222289025,-0.0032276568096131085
1690841610385510100,3.03951025390625,0.1806079115629196,-0.0020981869888026267,-0.003726075885002501
1690841610395550200,3.04955029296875,0.18734277277588843,0.00039723742296919227,-0.004262466050335206
1690841610405591300,3.05959130859375,0.18674422236084937,-0.002012116140546277,0.0004622814662172459
1690841610415631000,3.069631103515625,0.17267770308554173,-0.0006994900388643145,0.002548677552526351
1690841610425671200,3.079671142578125,0.17866320723593235,-0.005008959868969395,-0.0014442302918294444
1690841610435711200,3.089711181640625,0.18031155896484852,-0.000654545785440132,0.0005510032125748694
1690841610445752000,3.099751953125,0.1837538083732128,-0.001494458075147122,0.004709186904528178
1690841610455792000,3.109792236328125,0.18540040653645992,0.001391783151961863,0.0027635509957792234
1690841610465863200,3.11986328125,0.18734627990722655,0.008462369992164894,0.003359635459096171
1690841610475903200,3.1299033203125,0.16924246793985365,0.0022965408388059584,-0.002521268955792766
1690841610485943000,3.139943115234375,0.17747312066853047,0.004867697367910296,-0.0010659327480592765
1690841610495984000,3.149984130859375,0.17852175293862818,-0.0007619060168974101,0.0014106225664610973
1690841610506024200,3.160024169921875,0.17897125027179717,0.010068553946632891,0.004701049263845198
1690841610516064300,3.170064208984375,0.18495675442218779,0.0072066982421092685,-0.002962710846669506
1690841610526105000,3.18010498046875,0.18450901065468786,-0.0032133725559338926,-0.0008648321018321439
1690841610536145200,3.190145263671875,0.1777759030073881,-0.007232243675319478,0.0036623766987584527
1690841610546185200,3.200185302734375,0.18675240566730497,-0.0010692914656363426,-0.0038462544988375155
1690841610556225000,3.21022509765625,0.17822364677488803,-0.004507577084936201,-0.0017283513127011247
1690841610566263600,3.220263671875,0.1777753184854984,0.00016007679938338695,0.0025002649836707858
1690841610576303400,3.230303466796875,0.17882395075559615,0.0000854041279759258,0.0032160074710147453
1690841610586343400,3.240343505859375,0.1723901183158159,0.0017640505304560065,0.004263657927000895
1690841610596384500,3.250384521484375,0.18106968385577202,0.002379469881905243,-0.002084777234669309
1690841610606454500,3.26045458984375,0.1887029552131891,-0.004836270183185115,0.0005974293203209526
1690841610616495600,3.27049560546875,0.18032324940264224,0.0034241200966294853,-0.0012888479338726028
1690841610626535700,3.28053564453125,0.18271862010657786,0.005149838777538389,-0.004700346010946668
1690841610636575500,3.290575439453125,0.18047347152829168,0.004234906756551936,-0.002522371784201823
1690841610646615600,3.300615478515625,0.17478665806353091,-0.0026686438205186275,-0.004331855191849172
1690841610656656400,3.310656494140625,0.1813712971508503,-0.004883059333823621,-0.004543497781688347
1690841610666696400,3.320696533203125,0.1801765344083309,0.0031741639235522597,-0.001632455473463051
1690841610676736500,3.330736572265625,0.17643500979244708,0.007178568126168102,0.00026075384501600635
1690841610686777600,3.340777587890625,0.1771837823331356,0.0006801642838865518,-0.0006489060625201091
1690841610696817700,3.350817626953125,0.1716460219502449,-0.0004128459840547293,-0.0012531783988699316
1690841610706857500,3.360857421875,0.1679062509000301,0.00039003136404789984,-0.0027252762284479103
1690841610716897500,3.3708974609375,0.17703414472937584,0.002654852757183835,0.0026199138745432718
1690841610726938400,3.3809384765625,0.17793255487382412,0.007481195201398804,-0.0009706077309790998
1690841610737009400,3.391009521484375,0.1761374881505966,0.0031683278378099203,-0.008290497723710722
1690841610747049500,3.401049560546875,0.17568799081742761,0.00913541041552089,-0.003704439441929571
1690841610757089500,3.411089599609375,0.16686112576127052,0.007605844494374468,-0.0051534806229057714
1690841610767129600,3.421129638671875,0.18032734105587003,-0.0002544953508768231,-0.0044281894225045105
1690841610777170700,3.431170654296875,0.17494038732051848,0.0016675952855031936,0.001875933956692461
1690841610787210500,3.44121044921875,0.18137538880407808,-0.0017583240425679831,-0.002594539687980432
1690841610797250600,3.45125048828125,0.1873614774763584,-0.0011573624747339636,-0.0036552688212483186
1690841610807290600,3.46129052734375,0.18511632889807222,-0.002844721906632185,0.0010069302865304052
1690841610817331500,3.47133154296875,0.18033026366531849,-0.00018243476166389882,0.0003696301801246591
1690841610827371500,3.48137158203125,0.1753893001317978,-0.004822387788305058,-0.001966276837978512
1690841610837411600,3.49141162109375,0.17853110528886318,-0.0006876808700617402,-0.006792176324198954
1690841610847452700,3.50145263671875,0.176285956710577,0.007769821150740608,0.0010601742941304109
1690841610857492500,3.511492431640625,0.18227146086096763,0.005700841990113258,0.0010370240306947379
1690841610867563500,3.5215634765625,0.1789776800125837,0.011130730684893205,-0.0044843012406257906
1690841610877603600,3.531603515625,0.1816711568802595,0.0024536128303501753,-0.0020695362830534577
1690841610887643600,3.5416435546875,0.1878057141125202,0.008839304412622003,-0.004188971555861645
1690841610897684500,3.5516845703125,0.17613515006303787,0.0014045330356806515,-0.0020238590939785353
1690841610907724500,3.561724609375,0.18152151927649973,0.000481837833346799,-0.001750661325920373
1690841610917764600,3.5717646484375,0.18092296886146067,-0.007611406585481017,-0.0006483055576100014
1690841610927804400,3.581804443359375,0.16790274376869202,-0.0008552011903841048,0.0015015111537300982
1690841610937845500,3.591845458984375,0.1731394753783941,0.0013614062800072133,-0.0046105899348389354
1690841610947885600,3.601885498046875,0.17972236090004443,-0.0015354750721249728,-0.009839715910109225
1690841610957925600,3.611925537109375,0.1854097588866949,0.0046490587817039335,0.0010023979585967026
1690841610967966500,3.621966552734375,0.1846604018241167,0.0053653264254331584,-0.00970068874862045
1690841610978006500,3.632006591796875,0.1771791061580181,-0.0010422299287747591,-0.006009165870479774
1690841610988046600,3.642046630859375,0.18241525324583052,0.005756252838624641,-0.008000230089842807
1690841610998086400,3.65208642578125,0.17882336623370645,0.0008154171692673117,-0.002994779635500163
1690841611008157400,3.662157470703125,0.18495792346596718,-0.005041400833847001,0.002645669370307587
1690841611018197500,3.672197509765625,0.1885474723905325,-0.0024763909177388994,-0.0022539460893836803
1690841611028238600,3.682238525390625,0.1735842965364456,-0.00213466480798088,-0.005870766613364685
1690841611038278700,3.692278564453125,0.1740332093477249,-0.0021416425380390135,0.0006916560755693353
1690841611048318700,3.702318603515625,0.17672843978106975,0.0018938783220481127,0.004015975909400731
1690841611058359600,3.712359619140625,0.1863064154654741,0.00030780557384714485,-0.011842861009621992
1690841611068399400,3.7223994140625,0.18750410081744193,-0.0022007340478245167,-0.014467074316658545
1690841611078439400,3.732439453125,0.1819675094783306,0.0002213785325642675,-0.003365179283893667
1690841611088479500,3.7424794921875,0.17433540716469287,0.0038807047577109188,0.006368130809406284
1690841611098520600,3.7525205078125,0.17672785525918006,0.0024186693811323492,0.002802451384195592
1690841611108560600,3.762560546875,0.18510756106972692,0.0031767577394377438,-0.0012031446950859389
1690841611118600700,3.7726005859375,0.1809177081644535,0.0057301502829883244,0.0016818315901211461
1690841611128641500,3.7826416015625,0.17448446024656294,0.002360536852572113,0.0009200214713462628
1690841611138711600,3.792711669921875,0.1743342381209135,0.0008500866238493472,0.0010413782621151767
1690841611148752400,3.80275244140625,0.17762451183795927,-0.00209284409340471,0.004553053344611544
1690841611158792400,3.81279248046875,0.17912147239744663,0.00023891418925486504,-0.00400864198631607
1690841611168832500,3.82283251953125,0.1770271304666996,0.0036891825072932986,-0.008815085570106749
1690841611178873600,3.83287353515625,0.17732523663043975,0.0031727391514461485,-0.004219015067676082
1690841611188913700,3.84291357421875,0.16969488788247108,-0.0019740765519440174,-0.0051621776693034915
1690841611198953700,3.85295361328125,0.16625322299599646,-0.003144335040869191,-0.0026938467604340982
1690841611208993500,3.86299365234375,0.175532507994771,0.0008330167580395937,-0.003914801106846426
1690841611219034400,3.873034423828125,0.18136895906329153,0.00014687939109280705,-0.002906756575463805
1690841611229074400,3.883074462890625,0.18316461030840872,-0.0007285974023398011,-0.003941554399742745
1690841611239114500,3.893114501953125,0.1836141076415777,0.004525688130361959,0.007777997607330326
1690841611249155600,3.903155517578125,0.1794230856925249,0.0026654563495889304,0.0027884160089772193
1690841611259195600,3.913195556640625,0.1924415572196245,0.0017811751951929181,-0.00048407545620575545
1690841611269266700,3.9232666015625,0.18391338284909725,0.002730274347262457,-0.0009282413104199804
1690841611279306800,3.933306640625,0.17942483925819397,0.003067050287267193,0.0008114899128209799
1690841611289346600,3.9433466796875,0.18106968385577202,0.00496943157617934,-0.005534422214911319
1690841611299386600,3.95338671875,0.17702888403236866,0.002671785625675693,0.004488306128885597
1690841611309427500,3.963427490234375,0.18136895906329153,-0.00899427577862516,-0.001539361229375936
1690841611319467500,3.973467529296875,0.17508534874916076,0.002912718242080882,-0.0012161708567291498
1690841611329507600,3.983507568359375,0.18511165272295474,-0.002149880643421784,-0.0034572506146738303
1690841611339548700,3.993548583984375,0.18720716369748114,0.0020689791606273503,-0.004497174421930685
1690841611349588700,4.003588623046875,0.17882804240882397,0.009101499012764542,-0.002077262931782752
1690841611359628500,4.013628662109375,0.18601006286740301,0.0032452015994582323,-0.00640669783768244
1690841611369668600,4.023668701171875,0.17777882561683653,0.0029949257659725842,0.0017122838106006383
1690841611379709400,4.03370947265625,0.17732991280555724,0.0017889840423129498,0.004096607964136637
1690841611389749500,4.04374951171875,0.17807868534624577,-0.0019135146042797712,0.002171206559240818
1690841611399789600,4.05378955078125,0.17373802579343317,0.0019191862932406364,-0.0022352802048204467
1690841611409860600,4.063860595703125,0.1779284632205963,0.0010337269619107247,-0.001364723898388911
1690841611419900700,4.073900634765625,0.17792729417681694,0.004269795406842604,-0.0024985913331038315
1690841611429941800,4.083941650390625,0.1707446891963482,-0.001239496933389455,-0.00010631220197537914
1690841611439981600,4.093981689453125,0.17672902430295942,0.0029006898775696755,0.0028670182201196437
1690841611450021600,4.104021728515625,0.18226620016396045,-0.0034770375939551738,-0.004541022696811705
1690841611460061400,4.1140615234375,0.17837679150998592,-0.0013414503373671322,0.0002940259269555099
1690841611470102500,4.1241025390625,0.17867548219561577,0.00014107983796857296,0.00022437192396027966
1690841611480142600,4.134142578125,0.178477329275012,0.008676003609690815,0.0027537876535905525
1690841611490182700,4.1441826171875,0.38878830518424506,-0.11834369002543389,-0.22671629512934013
1690841611500223700,4.1542236328125,-0.22152327479720113,-0.23093546546064317,0.16557349710352717
1690841611510263600,4.164263671875,0.301528539404273,-0.0018816490281373262,0.5091122457740828
1690841611520303400,4.174303466796875,0.2862088051974773,0.13901035648444668,-0.35227274781148876
1690841611530343400,4.184343505859375,0.2019143189638853,0.12143171916864812,-0.0740170890089823
1690841611540414500,4.19441455078125,0.10637655418217182,-0.04598307668631896,0.06878697893631179
1690841611550455600,4.20445556640625,0.07293371878564357,-0.010616470152977854,0.09451171880275942
1690841611560495600,4.21449560546875,0.36032033559083937,0.019880393185839056,-0.1507621508102864
1690841611570523400,4.2245234375,0.06758885062634945,0.07822669236091896,0.05302915470635052
1690841611580563500,4.2345634765625,0.2772176894903183,0.08500822399351746,-0.06574661115999333
1690841611590604500,4.2446044921875,0.16604513320326805,0.09236234961599112,-0.0582751793007832
1690841611600644600,4.25464453125,0.2741068639934063,0.08872032158551738,-0.107264360734215
1690841611610684700,4.2646845703125,0.14592238262891769,0.08718423459203914,-0.12896985958851873
1690841611620725500,4.2747255859375,0.2619716050416231,0.08842477270504459,-0.11696609066245145
1690841611630765300,4.284765380859375,0.20040917509794234,0.0798586774769239,-0.09903449345682747
1690841611640805400,4.294805419921875,0.21321429613530635,0.06608608138058335,-0.0694048688060604
1690841611650845400,4.304845458984375,0.13712766627669334,0.046293393877660856,-0.030063586488086727
1690841611660886500,4.314886474609375,0.23924714753627777,0.03250168208889663,0.00301668550663162
1690841611670926600,4.324926513671875,0.1047737951606512,0.010248805884364992,0.04059237379103433
1690841611680997600,4.33499755859375,0.20326573357284067,-0.022916418147180227,0.061523449640162285
1690841611691037700,4.34503759765625,0.11124971317648887,-0.02980997705319896,0.06357571056142915
1690841611701077500,4.355077392578125,0.19338965172469616,-0.049517945414735004,0.05396339421600569
1690841611711118300,4.365118408203125,0.10058043512403965,-0.05725846740575507,0.03497974437391385
1690841611721158400,4.375158447265625,0.15888766266405582,-0.05652059985157102,-0.00003790259128436446
1690841611731198500,4.385198486328125,0.17992168286442756,-0.044668523489031935,-0.02600378057011403
1690841611741238500,4.395238525390625,0.15575871698856353,-0.02794146150127053,-0.041938358739623795
1690841611751279600,4.405279541015625,0.15778116272687912,-0.010979732241109014,-0.043953621251904405
1690841611761319700,4.415319580078125,0.2281967612117529,0.01188574117012322,-0.05286660738866776
1690841611771359500,4.425359375,0.16948972069919108,0.03699289256092161,-0.05131588451506104
1690841611781400300,4.435400390625,0.20716624814271925,0.06175972434775903,-0.05016563220112584
1690841611791440400,4.4454404296875,0.2110463044464588,0.08239721951121463,-0.041328455813508476
1690841611801480400,4.45548046875,0.2073170547902584,0.08613817787151783,-0.026913429061206987
1690841611811551500,4.465551513671875,0.1889426091879606,0.08687098565809429,-0.023303988126083277
1690841611821591600,4.475591552734375,0.20080781902670858,0.08021361012812703,-0.017715954294102266
1690841611831632600,4.485632568359375,0.2013128459393978,0.07793262305147945,-0.010141897744056768
1690841611841672700,4.495672607421875,0.19418635506033896,0.060946398670878255,-0.01505687288637273
1690841611851712500,4.50571240234375,0.16386311298906803,0.040357427957421164,-0.022195134118327405
1690841611861752600,4.515752685546875,0.19278467156887052,0.022237395507609472,-0.03040429425111506
1690841611871793400,4.52579345703125,0.17171382648944855,-0.005627685422357171,-0.030831002080452162
1690841611881833500,4.53583349609375,0.15152794755101204,-0.011411456455569714,-0.02733917562603019
1690841611891873500,4.54587353515625,0.18010580725967884,-0.028597669520834458,-0.028238448853581212
1690841611901914600,4.55591455078125,0.1702127742767334,-0.03503203168357722,-0.01723790215330664
1690841611911954700,4.56595458984375,0.14983283407092093,-0.030409422517381608,-0.01139746446283534
1690841611921994500,4.575994384765625,0.17254034044146538,-0.021314006185531614,-0.01042253560812096
1690841611932034600,4.58603466796875,0.17055355053842067,-0.0021521182662807403,-0.0007773456146242096
1690841611942105600,4.596105712890625,0.16991408359110355,0.013379505125526337,0.0013210149041144176
1690841611952145700,4.606145751953125,0.17751169911324977,0.026980617112480103,0.0004499859569361433
1690841611962186500,4.6161865234375,0.18436697183549403,0.033680151283740994,-0.006296172968181781
1690841611972226600,4.6262265625,0.18988368943035602,0.03503775817146525,-0.020935190335242077
1690841611982266400,4.636266357421875,0.18074585872888563,0.04770323327612132,-0.02496357820164412
1690841611992307700,4.6463076171875,0.19975041892826556,0.055723421591892836,-0.033834248150198254
1690841612002347500,4.656347412109375,0.19901158325970172,0.05613344543119892,-0.04781764430287294
1690841612012387600,4.6663876953125,0.19393968682289123,0.043270876851864155,-0.05245191650739871
1690841612022427600,4.676427734375,0.20234101994335651,0.0390707948135212,-0.04934110014364123
1690841612032468500,4.686468505859375,0.2065542537242174,0.03408158995779231,-0.05105636592919472
1690841612042508500,4.696508544921875,0.18069383628070354,0.031072635666467247,-0.03811464258286869
1690841612052548600,4.706548583984375,0.18445698820650577,0.023716263287980106,-0.021886476877820676
1690841612062589700,4.716589599609375,0.17804010690152644,0.020534089587908238,-0.01601310731541598
1690841612072629500,4.72662939453125,0.17176643345952033,0.009108348878659307,-0.009273563077463768
1690841612082700500,4.736700439453125,0.16608371164798735,0.004537771293800324,-0.0017316438149078748
1690841612092740600,4.74674072265625,0.15635492931604383,0.00039754795022308825,-0.0019765196707798166
1690841612102780700,4.75678076171875,0.17085867096483706,-0.004403934047371149,0.00013393086126307023
1690841612112820700,4.76682080078125,0.1608183384656906,-0.0011786153253167868,-0.005758337481145281
1690841612122861600,4.776861572265625,0.16034896738827228,0.004838580871280283,-0.016686060973803978
1690841612132901400,4.7869013671875,0.17962942191958425,-0.002146930634509772,-0.020256660886015743
1690841612142941400,4.79694140625,0.17452011608183382,0.006448993476293981,-0.026934008341643494
1690841612152982500,4.806982421875,0.18108488142490387,0.0135581496280618,-0.021830992964073082
1690841612163022600,4.817022705078125,0.18930150562822817,0.02620776957646012,-0.028887302400462795
1690841612173062700,4.827062744140625,0.18420564379394053,0.031813864221516996,-0.02481064124581171
1690841612183102700,4.837102783203125,0.19692191750407217,0.03370296590374783,-0.024425749564473517
1690841612193143600,4.8471435546875,0.189893041780591,0.03389803181812167,-0.029379070256068368
1690841612203183600,4.85718359375,0.182869426754117,0.03754221527306363,-0.03092611018511234
1690841612213254400,4.86725439453125,0.1855745940595865,0.04333623370565474,-0.025406307867309078
1690841612223294500,4.87729443359375,0.1806517507046461,0.034804497404862196,-0.019854228981409688
1690841612233334500,4.88733447265625,0.1797673690855503,0.03399217637497932,-0.017565471873548812
1690841612243375600,4.897375732421875,0.16900690561830997,0.020297924478165804,-0.013147002410748973
1690841612253415700,4.907415771484375,0.17216040121316908,0.014107417541276663,-0.013937102475669235
1690841612263455700,4.917455810546875,0.1757593024879694,0.01517411519102752,-0.019303595661593134
1690841612273496600,4.92749658203125,0.17396540480852127,0.007816025779489427,-0.019314365934068337
1690841612283536400,4.937536376953125,0.17650690598487853,0.006335486631840467,-0.023661231465381568
1690841612293576400,4.947576416015625,0.17664952932596206,-0.000080828417558223,-0.018152318151062354
1690841612303616500,4.957616455078125,0.16930559630393982,0.0044266025369055564,-0.007956708325236104
1690841612313657600,4.96765771484375,0.17288403931260107,0.008730017085559665,-0.013845556301274336
1690841612323697700,4.97769775390625,0.1697287901520729,0.016627053945697842,-0.013259952132776379
1690841612333737700,4.98773779296875,0.17031565012931824,0.02325929503440857,-0.013858829058089758
1690841612343808800,4.997808837890625,0.1803296791434288,0.029956509384419766,-0.01944236709475517
1690841612353848600,5.0078486328125,0.1686526853531599,0.025916074887197462,-0.018365853587177114
1690841612363889400,5.017889404296875,0.17927286356687544,0.020771149746794254,-0.02225533530638786
1690841612373929500,5.027929443359375,0.18540858984291553,0.03371498513510451,-0.02507229470654856
1690841612383969500,5.037969482421875,0.1830173107922077,0.02910336315380409,-0.03424374683311907
1690841612394009600,5.048009521484375,0.18152619545161722,0.038549876211956144,-0.02479325856945943
1690841612404050700,5.05805078125,0.18138298758864402,0.03594199526850134,-0.02298023606443312
1690841612414090800,5.0680908203125,0.1803419541031122,0.01819647695319727,-0.019434567380789667
1690841612424130600,5.078130615234375,0.17870295472443104,0.014995379356946795,-0.027352957556210457
1690841612434171400,5.08817138671875,0.1766127044469118,0.01973559615397826,-0.017940673277934548
1690841612444211500,5.09821142578125,0.17901099776029586,0.019964016348682345,-0.017028645600087475
1690841612454251500,5.10825146484375,0.1829039135456085,0.014281002276204526,-0.01653227920117788
1690841612464291600,5.11829150390625,0.18230536313056944,0.010401895820535719,-0.013383841090637724
1690841612474332700,5.128332763671875,0.17078092955350874,0.01375014680251479,-0.016425590256578287
1690841612484403700,5.13840380859375,0.181998489138484,0.020050671718828378,-0.014399313159938901
1690841612494443800,5.14844384765625,0.17346505407094953,0.01920169020667672,-0.013401125585578847
1690841612504483600,5.158483642578125,0.18079028239250183,0.013254636636842041,-0.02059654438184807
1690841612514523400,5.1685234375,0.1794365296959877,0.022586966997105627,-0.021793058406747876
1690841612524564500,5.178564453125,0.18571312574744223,0.026477069770824164,-0.02587735487858299
1690841612534604500,5.1886044921875,0.18002163610756397,0.02540744951162487,-0.02083474846833851
1690841612544644600,5.19864453125,0.1782201396435499,0.022813798022922126,-0.023969644394004716
1690841612554685700,5.208685791015625,0.18210837925374507,0.02220050669647753,-0.025579924568277783
1690841612564725800,5.218725830078125,0.18061024965047837,0.024170254133176056,-0.018175167020398657
1690841612574748200,5.228748046875,0.17896482053101062,0.024513423281349242,-0.02227733479235321
1690841612584788200,5.238788330078125,0.1886947719067335,0.024834471929259597,-0.015179875928245018
1690841612594829300,5.248829345703125,0.1711930174857378,0.02410803908454254,-0.006628361781325656
1690841612604869400,5.258869384765625,0.18122458215653894,0.025039218987431375,-0.0170091600149055
1690841612614940200,5.268940185546875,0.183026078620553,0.02269055523574352,-0.01583613418015884
1690841612624980200,5.278980224609375,0.17285305965244768,0.013589330217614768,-0.0192239157382166
1690841612635020300,5.289020263671875,0.17854162668287754,0.018668825438991187,-0.020501203381747473
1690841612645061400,5.299061279296875,0.18347849856317042,0.020261665854696184,-0.01594598091293592
1690841612655101200,5.30910107421875,0.1803337707966566,0.012943451795820146,-0.01739738073106855
1690841612665141200,5.319141357421875,0.17643968596756457,0.02066407264312729,-0.01839588111597113
1690841612675181000,5.32918115234375,0.17853052076697348,0.016980799286812544,-0.015096442278358152
1690841612685222100,5.33922216796875,0.19573241545856,0.018082422119472176,-0.020773869143554474
1690841612695262200,5.34926220703125,0.1753752716064453,0.018175233235768973,-0.021986402721493502
1690841612705302300,5.35930224609375,0.18419921405315398,0.016847875355836,-0.012548344681144226
1690841612715343400,5.36934326171875,0.17386954321861267,0.013613441745564342,-0.01989619810974691
1690841612725383200,5.379383056640625,0.18538988514244556,0.021280195247475056,-0.016286462630389725
1690841612735423200,5.38942333984375,0.1810486410677433,0.02567084968816489,-0.015934201426885557
1690841612745463300,5.39946337890625,0.1837415334135294,0.022372136936336755,-0.024187187001667915
1690841612755534000,5.4095341796875,0.18418986170291898,0.03181284130821004,-0.02438619387221988
1690841612765574100,5.41957421875,0.17162205655276774,0.03024053222388029,-0.020966007881902622
1690841612775615200,5.429615234375,0.1825473551928997,0.01583024101220071,-0.015889197807956952
1690841612785655300,5.4396552734375,0.18599018912315368,0.016376695913821456,-0.0206880928395316
1690841612795695400,5.4496953125,0.17566870159506798,0.01596915629254654,-0.012682458205497823
1690841612805736200,5.459736083984375,0.1753711799532175,0.013512684784829615,-0.019541420722170733
1690841612815776300,5.4697763671875,0.18854045812785625,0.01671648579481989,-0.01810920052854344
1690841612825816000,5.479816162109375,0.17716916928589344,0.015582568127755075,-0.017461936150549445
1690841612835856100,5.489856201171875,0.17312895398437975,0.014685984614212066,-0.01279814102401724
1690841612845897200,5.499897216796875,0.1804600275248289,0.009844773394428193,-0.00525642725743819
1690841612855937300,5.509937255859375,0.18464929590821266,0.01639885294670239,-0.01135907781436108
1690841612865977300,5.519977294921875,0.17881401388347148,0.01534821138260886,-0.015278450065047945
1690841612876018200,5.53001806640625,0.17761223687827585,0.01347598776994273,-0.003989371030265465
1690841612886088400,5.54008837890625,0.17401742725670336,0.011939718113373965,-0.011505174037453252
1690841612896129300,5.55012939453125,0.1859849284261465,0.013127430060598999,-0.01790170439085923
1690841612906169000,5.560169189453125,0.1870312226086855,0.0120094954139553,-0.012220332002907525
1690841612916209200,5.570209228515625,0.18628303458988665,0.016834668814390896,-0.018483842527214436
1690841612926250200,5.580250244140625,0.18074702777266502,0.021194307062309233,-0.025026852696202695
1690841612936290300,5.590290283203125,0.17940087386071682,0.01943133424408734,-0.021373102261894383
1690841612946330400,5.600330322265625,0.1789525455713272,0.01870638097040355,-0.022365049608424305
1690841612956370400,5.610370361328125,0.18089841894209382,0.018101656542904673,-0.024278287934779652
1690841612966411300,5.620411376953125,0.18105156367719172,0.018782094821427016,-0.016027791144605726
1690841612976451000,5.630451171875,0.1835971565067768,0.017249624557141213,-0.014523026304575614
1690841612986491100,5.6404912109375,0.18494447946250436,0.019964454740099606,-0.0183609445166192
1690841612996532200,5.6505322265625,0.17192483889162538,0.019602069434802978,-0.022763403559534344
1690841613006572300,5.660572265625,0.16219897916913031,0.013665829519927501,-0.020428517171449494
1690841613016643300,5.670643310546875,0.1735714370548725,0.013698581012059003,-0.011182424339512363
1690841613026683400,5.680683349609375,0.18464403521120548,0.022348299403022975,-0.01528826363958651
1690841613036723200,5.69072314453125,0.1785077244132757,0.02019939600713551,-0.02030937745394185
1690841613046763300,5.70076318359375,0.1812017858028412,0.019794870326854286,-0.018868626893986946
1690841613056804000,5.71080419921875,0.1798544628471136,0.023910470685828477,-0.01598471233799355
1690841613066844200,5.72084423828125,0.1819452976465225,0.02667553321868181,-0.018755453409673644
1690841613076884200,5.73088427734375,0.17416180416345595,0.022202844784036276,-0.016216463850811123
1690841613086925300,5.74092529296875,0.17625439252853392,0.017857527322415263,-0.01986841048710048
1690841613096965400,5.75096533203125,0.1770014115035534,0.01957236841628328,-0.014156830190552864
1690841613107005400,5.76100537109375,0.17729951766729354,0.019045038340240714,-0.0184631308160373
1690841613117045200,5.771045166015625,0.18418460100591183,0.020969375732634216,-0.011946743792493362
1690841613127086000,5.781086181640625,0.1787994008362293,0.022924674518872052,-0.010824043922475539
1690841613137126100,5.791126220703125,0.19032149632573125,0.023569530027359724,-0.006548581393249333
1690841613147166200,5.801166259765625,0.1835889732003212,0.022121358779352156,-0.015015995170001406
1690841613157237200,5.8112373046875,0.18254384806156157,0.019692688594013453,-0.021168174823920707
1690841613167277300,5.82127734375,0.1741641422510147,0.019114632977731524,-0.008972013714467176
1690841613177318400,5.831318359375,0.17042378667891026,0.024203042157925663,-0.01684052088315366
1690841613187358200,5.841358154296875,0.18030103757083416,0.021721107415389268,-0.01517770680404501
1690841613197398300,5.851398193359375,0.18194822025597093,0.015820194542221725,-0.020986947921942917
1690841613207438300,5.861438232421875,0.1791051057845354,0.0176053061270155,-0.017380219533713534
1690841613217479200,5.871479248046875,0.1813490853190422,0.015778529091272503,-0.011584344787464942
1690841613227519200,5.881519287109375,0.16758184125125408,0.012176851337496191,-0.010603583271941169
1690841613237559300,5.891559326171875,0.17087269949018954,0.025746362609788773,-0.014994064182695001
1690841613247600400,5.901600341796875,0.1755108806848526,0.019894841836299745,-0.021621889391192233
1690841613257640400,5.911640380859375,0.18104747202396393,0.018692662972304968,-0.009789901402033865
1690841613267680300,5.92168017578125,0.17146949633955955,0.02369785084845498,-0.01631690343442606
1690841613277720300,5.93172021484375,0.1883773765206337,0.026174323964584616,-0.016733197184314486
1690841613287791400,5.941791259765625,0.18313830682337284,0.020710469068121164,-0.019257996104331685
1690841613297832200,5.951832275390625,0.18433423860967157,0.02018271886697039,-0.022337188920541665
1690841613307872300,5.961872314453125,0.18268880949020386,0.020791334018297494,-0.018504469756712206
1690841613317912300,5.971912353515625,0.17655542130172253,0.017018793209642172,-0.01908460773222614
1690841613327952100,5.9819521484375,0.18059622112512588,0.01031204384630546,-0.0115777278170106
1690841613337993200,5.9919931640625,0.1740109975159168,0.01589983564969152,-0.01446600345429033
1690841613348033300,6.002033203125,0.17535539786219595,0.01714112268136814,-0.016842052969825452
1690841613358073300,6.0120732421875,0.1734106935352087,0.020918924187030643,-0.01805134884448489
1690841613368114200,6.0221142578125,0.17864567157924174,0.02739113414213061,-0.006932429611682891
1690841613378154200,6.032154296875,0.16921733349859713,0.021480229597911238,-0.017753288346517366
1690841613388194300,6.0421943359375,0.1790910772591829,0.01653846234679222,-0.022891267722903282
1690841613398234400,6.052234375,0.17534779907763004,0.02163861676370725,-0.017378148590924684
1690841613408275500,6.062275390625,0.18148060274422168,0.016107322654221205,-0.008211781348136719
1690841613418315300,6.072315185546875,0.19225275664925573,0.018415508265048265,-0.01750111966675613
1690841613428386300,6.08238623046875,0.1738461623430252,0.02462230874961242,-0.017269137541786765
1690841613438426400,6.09242626953125,0.17504209412932395,0.022609525888785717,-0.01811691804411821
1690841613448466200,6.102466064453125,0.18790975900888443,0.02596683696005493,-0.015072894722700583
1690841613458507300,6.11250732421875,0.18806056565642357,0.02035696118902415,-0.01294873304242501
1690841613468547300,6.12254736328125,0.18536650426685808,0.019452504896279425,-0.013071740650874561
1690841613478587100,6.132587158203125,0.186263745367527,0.015654902711603788,-0.012458113681001122
1690841613488627200,6.142627197265625,0.1829693799972534,0.0180795543089509,-0.020919040634750852
1690841613498668300,6.152668212890625,0.18057459381520746,0.017452965109515935,-0.024907598814263472
1690841613508708400,6.162708251953125,0.17848025188446043,0.02482807872109115,-0.01938349021410104
1690841613518748200,6.172748046875,0.1802764876514673,0.021998262122645974,-0.012597277839807793
1690841613528789200,6.182789306640625,0.17728256653249264,0.015532463642023504,-0.01906330008271616
1690841613538829300,6.192829345703125,0.1823719986259937,0.030608598351292312,-0.016327449944615362
1690841613548869400,6.202869384765625,0.18656126700937747,0.02381943140150979,-0.016052249732427297
1690841613558940200,6.212940185546875,0.17803075455129144,0.017906207036040723,-0.017117853686923624
1690841613568980200,6.222980224609375,0.17877718900442122,0.010165164455212651,-0.01535608872838784
1690841613579027700,6.23302783203125,0.18446166438162326,0.012479396214336157,-0.014954006166942417
1690841613589067800,6.24306787109375,0.17967267653942107,0.01632986109741032,-0.010609990179841405
1690841613599107800,6.25310791015625,0.1844599108159542,0.019402035084366796,-0.022162859833519906
1690841613609148000,6.26314794921875,0.18685294343233108,0.013057123037055134,-0.026881709615536965
1690841613619188700,6.273188720703125,0.18011691317558287,0.020090364408399907,-0.008594624919572379
1690841613629228500,6.283228515625,0.18310849620699882,0.02211949561582878,-0.011684581158391666
1690841613639268600,6.2932685546875,0.1792179185092449,0.011178871542401611,-0.019995546281395944
1690841613649309700,6.303309814453125,0.17802198672294617,0.01664692768994719,-0.017763394182000774
1690841613659349800,6.313349853515625,0.18475450984835623,0.022286431414261457,-0.020235344103351233
1690841613669389800,6.323389892578125,0.18026479721367358,0.012667557463888078,-0.017895900271157734
1690841613679430000,6.333429931640625,0.17667407924532888,0.018243147372826934,-0.013392994794761762
1690841613689500700,6.343500732421875,0.18340835593640803,0.02649513515047729,-0.012846594692068173
1690841613699540700,6.353540771484375,0.1878968995273113,0.013855269411113112,-0.003782973154413048
1690841613709581600,6.36358154296875,0.18520283813774585,0.021183128081168977,-0.01052789225380402
1690841613719621600,6.37362158203125,0.16754676993787287,0.019298446845728904,-0.0102757464069291
1690841613729661700,6.38366162109375,0.17772212699353693,0.0173670038591139,-0.015868355949327815
1690841613739702800,6.393702880859375,0.18250994579195975,0.02170782780870795,-0.018219702565157786
1690841613749742800,6.403742919921875,0.17577683814466,0.019643972347769885,-0.009079545192571823
1690841613759782700,6.41378271484375,0.17757307391166685,0.020862773553002624,-0.01954596218325896
1690841613769822700,6.42382275390625,0.18161328921318054,0.027002682813815772,-0.020193523388775066
1690841613779863600,6.433863525390625,0.1714373476356268,0.01545724298134446,-0.01321482521626167
1690841613789903600,6.443903564453125,0.17787001103162764,0.016241379096359015,-0.017993430945056024
1690841613799943700,6.453943603515625,0.17308102318942545,0.02024915343299508,-0.008959375711891334
1690841613809984800,6.46398486328125,0.17876608308851719,0.01774761894084513,-0.007834878893720452
1690841613820024800,6.47402490234375,0.16739187163710592,0.017080916926730423,-0.011514122245600446
1690841613830096000,6.484095947265625,0.1745733075737953,0.012796097480691968,-0.02143882900844328
1690841613840135700,6.4941357421875,0.1756196017563343,0.014370909049361943,-0.01743138346537016
1690841613850175700,6.50417578125,0.17771335916519165,0.00965275795366615,-0.013811277289048303
1690841613860215600,6.514215576171875,0.18055530459284783,0.014108769248146562,-0.014652150843269192
1690841613870256600,6.524256591796875,0.18235037131607532,0.015093743431195615,-0.011183956426184158
1690841613880296700,6.534296630859375,0.17366963673233984,0.0123126065463759,-0.0182416632352164
1690841613890336800,6.544336669921875,0.18384440926611423,0.010760901858657598,-0.01635231724110199
1690841613900377900,6.5543779296875,0.17770985203385353,0.01004592198971659,-0.0180929412301979
1690841613910417700,6.564417724609375,0.17262041994035243,0.012805047972127795,-0.013655239627254194
1690841613920457700,6.574457763671875,0.1675327414125204,0.020278142065461725,-0.01134123848028248
1690841613930497500,6.58449755859375,0.18279519247412682,0.018162830411922185,-0.006687505806749686
1690841613940538600,6.59453857421875,0.17710779448747635,0.017526176476199178,-0.014053924655215815
1690841613950578700,6.60457861328125,0.17561141844987868,0.018268427944555878,-0.019858240719535385
1690841613960649700,6.614649658203125,0.17396540480852127,0.017063235139567402,-0.01777362559835892
1690841613970689800,6.624689697265625,0.16678279982805252,0.0176731654651463,-0.0218298376200255
1690841613980729600,6.6347294921875,0.17127251246273517,0.018430103045981375,-0.01119386589884525
1690841613990770700,6.644770751953125,0.1781552577137947,0.011365717617701738,-0.01823773369548144
1690841614000810500,6.654810546875,0.1805471212863922,0.019053586972877384,-0.012706830028351396
1690841614010850600,6.6648505859375,0.18338965123593806,0.01902116427430883,-0.019689916681614704
1690841614020891600,6.6748916015625,0.1857832683742046,0.02363587326183915,-0.01835975263995351
1690841614030931700,6.684931640625,0.1747089166522026,0.021041144060902295,-0.019929977081762626
1690841614040971800,6.6949716796875,0.17680384310483932,0.012178239576984197,-0.026463586951454635
1690841614051011600,6.705011474609375,0.18219196588397024,0.018254728212766348,-0.02011428642339306
1690841614061052700,6.715052734375,0.17456103261411188,0.0271487036883831,-0.013839957677549681
1690841614071092500,6.725092529296875,0.17949848901629448,0.019648904251214117,-0.009925154287414625
1690841614081132500,6.735132568359375,0.17919804476499557,0.015369126306474207,-0.01412286855544662
1690841614091173600,6.745173583984375,0.183984694519639,0.014835457821190357,-0.017719966032227967
1690841614101243600,6.75524365234375,0.1854793169915676,0.01578972633872181,-0.013447745772858614
1690841614111284700,6.76528466796875,0.1773971328228712,0.01122287508090958,-0.014254338031564838
1690841614121324800,6.77532470703125,0.1875707363128662,0.015027473261952399,-0.014230148871801792
1690841614131364600,6.785364501953125,0.1800900251686573,0.01777960324799642,-0.011016285408812108
1690841614141404700,6.79540478515625,0.17979016543924808,0.008480718499608337,-0.01031401432439452
1690841614151445500,6.805445556640625,0.182781748470664,0.019485658247210085,-0.013444448704074602
1690841614161485600,6.815485595703125,0.18293138607442377,0.016085914540011435,-0.013078978675836697
1690841614171525600,6.825525634765625,0.17036182735860347,0.011118227396346629,-0.014571950330084654
1690841614181566700,6.835566650390625,0.17484978642761706,0.012876962430868296,-0.012656266601604875
1690841614191606800,6.845606689453125,0.18053601537048816,0.015445479478314518,-0.017118974781641736
1690841614201646600,6.855646484375,0.18218319805562494,0.014308182544074951,-0.015432706761709413
1690841614211686700,6.865686767578125,0.18263211086690426,0.022401655291765927,-0.011061305010761134
1690841614221727500,6.8757275390625,0.1898141313254833,0.019381668149773032,-0.01938091923110187
1690841614231798500,6.885798583984375,0.18128478791117666,0.01517411519102752,-0.011951579797815064
1690841614241838600,6.895838623046875,0.17679390623271465,0.015828030788805333,-0.009045259330479893
1690841614251878700,6.905878662109375,0.1853226651251316,0.01192382642449811,-0.018651109402498697
1690841614261918700,6.915918701171875,0.17335165682435036,0.018977233801037073,-0.012618498724349773
1690841614271959800,6.925959716796875,0.17858838843405245,0.022075619941484183,-0.019177032972744198
1690841614281999600,6.93599951171875,0.1851706894338131,0.020942980916053056,-0.01271153816950973
1690841614292039700,6.946039794921875,0.1854705491632223,0.011409154900629073,-0.016957820270024238
1690841614302080500,6.95608056640625,0.1806821458429098,0.016330372554063798,-0.012035508921334984
1690841614312120600,6.96612060546875,0.18127835817039012,0.01068038396835327,-0.014806585636443922
1690841614322160600,6.97616064453125,0.17918518528342245,0.010035254465229808,-0.016636415429087354
1690841614332200700,6.98620068359375,0.17724106547832488,0.015337726521212607,-0.01806243192750262
1690841614342241800,6.99624169921875,0.18023264850974083,0.02185207685129717,-0.02195825205595465
1690841614352281600,7.006281494140625,0.18531740442812442,0.018854995660856366,-0.02092542242647614
1690841614362352600,7.0163525390625,0.18441724071800708,0.015585161943640558,-0.011678980251378378
1690841614372392700,7.026392822265625,0.17663608532249928,0.009282445070240647,-0.012596321141871158
1690841614382432800,7.036432861328125,0.17947861527204512,0.018247293824981897,-0.020152193581254686
1690841614392473600,7.0464736328125,0.17513854024112224,0.01778009643834084,-0.008474955479102209
1690841614402513700,7.056513671875,0.17244506337344645,0.01854852352757007,-0.010272684516874141
1690841614412553700,7.0665537109375,0.17528817784488201,0.020224146855901924,-0.0076601388147450045
1690841614422593500,7.076593505859375,0.17932839314639568,0.012642751816194503,-0.013647540377988479
1690841614432634600,7.086634521484375,0.18501403756737708,0.01829431130448356,-0.009157585714710877
1690841614442674700,7.0966748046875,0.18247019830346106,0.017067253727559,-0.012033426562102977
1690841614452714800,7.10671484375,0.17992577451765537,0.010017316949740052,-0.008595467453077436
1690841614462755600,7.116755615234375,0.18052432493269444,0.01388833143049851,-0.012523945458827073
1690841614472795600,7.126795654296875,0.1767833848387003,0.015363628147449343,-0.01288458633160917
1690841614482835700,7.136835693359375,0.18231880713403223,0.025023016771301625,-0.014255349528428631
1690841614492875500,7.14687548828125,0.1893523590326309,0.025207926617842165,-0.01645020410802681
1690841614502946600,7.156946533203125,0.18636194504499434,0.017972933863010257,-0.010019230345613323
1690841614512986600,7.166986572265625,0.17498831811547277,0.01701546874139458,-0.016709403033484702
1690841614523027700,7.17702783203125,0.18501228400170802,0.01856061582416296,-0.016860780503181738
1690841614533067800,7.18706787109375,0.18172201028466223,0.016557276645116508,-0.01408537467282731
1690841614543107800,7.19710791015625,0.17663433175683022,0.021779212544485924,-0.009758777894696686
1690841614553148700,7.207148681640625,0.1719949815183878,0.013380710701923816,-0.019033749761246145
1690841614563188500,7.2171884765625,0.17079671164453028,0.011522095489501952,-0.014829384273430331
1690841614573222700,7.22722265625,0.18336510131657122,0.018781382435373962,-0.014136351374816149
1690841614583262700,7.2372626953125,0.17558336139917372,0.013649115847144275,-0.013097455047443508
1690841614593303800,7.2473037109375,0.17887480415999887,0.024396190109848975,-0.01500385492434725
1690841614603343600,7.257343505859375,0.1823164690464735,0.023031368030048904,-0.017433445275004487
1690841614613383400,7.267383544921875,0.17962065409123895,0.014979597265925258,-0.017792419347085524
1690841614623424500,7.277424560546875,0.17797464044988154,0.013782898294646292,-0.014097713564592412
1690841614633494500,7.28749462890625,0.17543021666407585,0.01747563359905034,-0.010670444812939966
1690841614643535600,7.29753564453125,0.18814824393987656,0.010531239554937928,-0.0178491887523327
1690841614653575700,7.30757568359375,0.18111469204127786,0.013355174401868133,-0.010284247090504505
1690841614663615700,7.31761572265625,0.18006605977118015,0.017018975872732697,-0.010267485468660015
1690841614673656600,7.327656494140625,0.17781857310533522,0.02389982142765075,-0.011756781028211117
1690841614683696600,7.337696533203125,0.17692016296088695,0.017566910345386714,-0.007629807608562987
1690841614693736400,7.347736328125,0.18245792334377764,0.013598024980723857,-0.010542877477093133
1690841614703776500,7.357776611328125,0.17662264131903646,0.014689784006495028,-0.007150696021842304
1690841614713817600,7.367817626953125,0.1779687952309847,0.013746621404867619,-0.010641460747050586
1690841614723857700,7.377857666015625,0.17736849125027657,0.018720610425155607,-0.012782806457567493
1690841614733897700,7.387897705078125,0.16853987262845038,0.014855916087329387,-0.016221656049159355
1690841614743938600,7.3979384765625,0.17422434800565242,0.01924063397757709,-0.015854000913701018
1690841614753978600,7.407978515625,0.18095920921862124,0.016270842652861026,-0.011095369393855798
1690841614764018400,7.418018310546875,0.17422317896187303,0.018407270159665493,-0.011517186418944038
1690841614774089500,7.42808935546875,0.170631291949749,0.012838036926276981,-0.006709955100575461
1690841614784129500,7.438129638671875,0.18050678927600383,0.008759133582189679,-0.021830865099909714
1690841614794169600,7.448169677734375,0.18559563684761524,0.013739625408500431,-0.017981644609139764
1690841614804210700,7.458210693359375,0.1840980917662382,0.019071031298022716,-0.007872760935407131
1690841614814250800,7.468250732421875,0.17451953155994415,0.020133052772656083,-0.008823058814008255
1690841614824290600,7.47829052734375,0.17167700161039828,0.01760457547465339,-0.011252699397015386
1690841614834331400,7.488331298828125,0.17646365136504172,0.010347133425995707,-0.009331138483597897
1690841614844371500,7.498371337890625,0.17676234205067157,0.005960369709134101,-0.017620257100975138
1690841614854411500,7.50841162109375,0.18109949447214602,0.009424264693725854,-0.018243884875054937
1690841614864451600,7.51845166015625,0.17586217834055423,0.01527308205347508,-0.013868284156313165
1690841614874492700,7.52849267578125,0.17077391529083252,0.01584529245086014,-0.010584236967365723
1690841614884532700,7.53853271484375,0.17974924890697003,0.011952632393874228,-0.013172945136181079
1690841614894572800,7.54857275390625,0.1800496931582689,0.008711056656762957,-0.014783908013754989
1690841614904643600,7.5586435546875,0.18139467802643774,0.01585897391634062,-0.004145260278298519
1690841614914683600,7.56868359375,0.1842372079759836,0.014787088634818792,-0.004772456832509488
1690841614924724500,7.578724365234375,0.1755588114798069,0.01778648964650929,-0.012723833678790833
1690841614934764500,7.5887646484375,0.17765315341055393,0.02403815218610689,-0.009649259955482556
1690841614944804600,7.5988046875,0.17675591230988502,0.019137922521773723,-0.01748517546224175
1690841614954845700,7.608845703125,0.18303835358023643,0.008704170258250087,-0.015750170646468175
1690841614964885800,7.6188857421875,0.17839783429801462,0.01546263154251501,-0.00872479063788196
1690841614974925600,7.628925537109375,0.17690204278230667,0.01671162695661187,-0.01455669111215975
1690841614984965600,7.638965576171875,0.18049276075065135,0.019661617602314798,-0.0140812898694654
1690841614995006500,7.64900634765625,0.18004326341748236,0.016498148602712898,-0.006399443829699885
1690841615005046500,7.659046630859375,0.1827344021975994,0.02350813696263358,-0.010319567282346542
1690841615015086600,7.669086669921875,0.18737258339226245,0.018518000525142995,-0.014324916766455862
1690841615025126700,7.679126708984375,0.18034136958122252,0.014558376179169863,-0.01922299557289807
1690841615035167700,7.689167724609375,0.17076456294059753,0.009159896402806043,-0.014580405347887427
1690841615045238800,7.69923876953125,0.18198621417880056,0.014767616749368608,-0.009876643537147902
1690841615055278600,7.709278564453125,0.18123919520378112,0.025311606188025325,-0.007164484801888466
1690841615065318700,7.719318603515625,0.1783949116885662,0.02163302727313712,-0.013821376274665818
1690841615075358700,7.729358642578125,0.18303309288322925,0.014561243989691138,-0.015867618447099812
1690841615085399600,7.739399658203125,0.18303250836133955,0.016457012874726205,-0.013620257362129632
1690841615095439600,7.749439697265625,0.1749526622802019,0.016037435755785555,-0.012450117604213301
1690841615105479700,7.759479736328125,0.17704525064527987,0.015605127019435167,-0.008256905981362797
1690841615115520800,7.769520751953125,0.17584756529331205,0.010475837839581071,-0.012755703821510542
1690841615125560600,7.779560546875,0.19000059380829334,-0.004972399851400405,-0.027367059146799145
1690841615135600600,7.7896005859375,0.19049802193641663,-0.5045711317457259,-0.061456540150102226
1690841615145640700,7.799640625,-0.7883721451491117,-1.039052833108604,0.582973637331277
1690841615155681500,7.809681640625,0.7353133396565914,0.5633726821413263,-0.07705909161996095
1690841615165721600,7.8197216796875,0.3254974440127611,0.3269078953325748,-0.14379961832128466
1690841615175792600,7.829792724609375,0.0333095644056797,0.13977995261745527,0.21429878517007453
1690841615185832700,7.839832763671875,0.31982582811713217,0.08378091068826615,0.045121514253807254
1690841615195872500,7.84987255859375,0.16451602393984793,0.2157236668740399,0.0734034003903158
1690841615205913600,7.85991357421875,0.27277240051925183,0.11845958975637332,-0.07505295769562945
1690841615215953700,7.86995361328125,0.21547522680461406,0.08891193516748025,-0.1587627576427534
1690841615225993700,7.87999365234375,0.2278513087749481,0.14899864826910197,-0.15056771508357486
1690841615236033800,7.89003369140625,0.29786826333105565,0.10421879162639379,-0.18367740040244535
1690841615246074600,7.90007470703125,0.22594109123945236,0.09487177515365183,-0.19272391782496123
1690841615256114700,7.91011474609375,0.22154724019467828,0.07880774365188553,-0.1977135976047255
1690841615266154500,7.920154541015625,0.24964696099758146,0.04096066368073225,-0.20150818584840743
1690841615276195600,7.930195556640625,0.2382388472765684,0.033102680189348754,-0.18657343237120658
1690841615286235600,7.940235595703125,0.14376725042164326,0.006002528350427747,-0.15507458891561254
1690841615296275700,7.950275634765625,0.23062486514151095,0.0006085420860908926,-0.11405021234890446
1690841615306346800,7.9603466796875,0.19010522322654724,-0.006156641199905425,-0.06059858988020569
1690841615316386800,7.97038671875,0.10181611439883709,-0.012166768334899098,-0.004426086513674818
1690841615326427600,7.980427734375,0.17944763561189173,-0.00792014374108985,0.07367921252385713
1690841615336467700,7.9904677734375,0.11055822378098965,-0.007526468248385936,0.14836404015999285
1690841615346507500,8.000507568359374,0.12888356954455374,-0.012750559572223574,0.198682095577009
1690841615356547600,8.010547607421875,0.10228490095436572,-0.03388318130886182,0.22134174421783534
1690841615366588700,8.020588623046875,0.10946867497861384,-0.05218839759984985,0.18220290740309283
1690841615376628700,8.030628662109375,0.1709270600259304,-0.08429081470547244,0.1160571865234524
1690841615386668800,8.040668701171874,0.0818032539397478,-0.09719886639434844,0.04828562257422599
1690841615396709600,8.050709716796876,0.15649112291634082,-0.101407478799019,-0.016542161274375394
1690841615406749700,8.060749755859375,0.18729834911227225,-0.09487383924657479,-0.05876293541826307
1690841615416789500,8.07078955078125,0.12396189523339271,-0.07833322147531434,-0.08873223121901974
1690841615426829600,8.08082958984375,0.19319266784787176,-0.05675051788361743,-0.10452774797771125
1690841615436870700,8.09087060546875,0.20032558846771717,-0.029590653480403125,-0.10742482112608849
1690841615446940700,8.100940673828125,0.17410393649637698,-0.011910711214598267,-0.09987148313708603
1690841615456981800,8.110981689453125,0.21060499041974542,0.022009404571168123,-0.08795170270004309
1690841615467021800,8.121021728515625,0.20509762517511843,0.06425477430019527,-0.07549994341130369
1690841615477061600,8.1310615234375,0.21849194427728652,0.08162776950867846,-0.06345645896277856
1690841615487102700,8.141102783203126,0.21233459069132804,0.10067412302317097,-0.05346735889394767
1690841615497142500,8.151142578125,0.20652678119540213,0.1188898526661098,-0.025545789403235538
1690841615507182600,8.1611826171875,0.2369797871261835,0.12288131518876179,-0.022785891669266856
1690841615517222700,8.17122265625,0.20073416926860807,0.11814752813251689,-0.01029564070077613
1690841615527263700,8.181263671875,0.18247604352235794,0.10828554787496104,-0.004104343746020459
1690841615537303800,8.1913037109375,0.2230418626666069,0.09516200853819028,-0.011347195580322295
1690841615547343600,8.201343505859375,0.1733838055282831,0.08085452011385932,-0.013133677138295025
1690841615557384700,8.211384765625,0.18027882573902607,0.05741539326682686,-0.015303061633207835
1690841615567424500,8.221424560546875,0.20301964985728263,0.015588833471760153,-0.02332525467639789
1690841615577481700,8.231481689453124,0.1503185717612505,-0.014702826151158659,-0.03713907783227041
1690841615587521500,8.241521484375,0.16223697309195995,-0.03823858177307993,-0.04508011823091656
1690841615597561600,8.2515615234375,0.16035422808527947,-0.054361284659523515,-0.03971146733723581
1690841615607601700,8.2616015625,0.14377484920620917,-0.0657071285329759,-0.04008091713755857
1690841615617642800,8.271642822265624,0.1560387029737234,-0.07440324334893375,-0.02798372517384123
1690841615627682600,8.2816826171875,0.14867138907611369,-0.0794933878284879,-0.023890916601987555
1690841615637722600,8.29172265625,0.17030629777908324,-0.07355009711831807,-0.007463033923623152
1690841615647763700,8.301763671875,0.15496201365292073,-0.04738161837263032,0.013018759221467188
1690841615657803500,8.311803466796874,0.137508774548769,-0.03625694296918809,0.029094303064513948
1690841615667843600,8.321843505859375,0.17122165905833242,-0.025479126508347688,0.024760950035322457
1690841615677883600,8.331883544921874,0.16198855128884315,0.0007121668573468923,0.026478097250708377
1690841615687924700,8.3419248046875,0.1680254933655262,0.01513813056219369,0.02440488487295806
1690841615697964500,8.351964599609374,0.1888864950865507,0.01790786927016452,0.01704235674832016
1690841615708004600,8.362004638671875,0.18402151939868927,0.03018266455680132,-0.014777676919079386
1690841615718075400,8.372075439453125,0.19189502925276755,0.04671471542911604,-0.01826824528146535
1690841615728115500,8.382115478515624,0.19305179807245731,0.05391794307250529,-0.03118000046450179
1690841615738156500,8.392156494140625,0.19557401002645491,0.05082339285695925,-0.04485862096734345
1690841615748196600,8.402196533203124,0.21158406458497045,0.04897513464177027,-0.06443081585369073
1690841615758236700,8.412236572265625,0.20516718327999114,0.04891523941438645,-0.064018577224412
1690841615768277800,8.42227783203125,0.21133914991319178,0.04071068924134597,-0.06977558354828506
1690841615778317600,8.432317626953125,0.20525135443210601,0.03215043923212215,-0.07227743313426617
1690841615788357600,8.442357666015624,0.1828647505789995,0.032817031648382546,-0.07183811013523954
1690841615798397400,8.4523974609375,0.1910088940680027,0.034349282716959716,-0.05881157859927043
1690841615808438500,8.4624384765625,0.19301964936852453,0.03223356920462102,-0.04480616012774408
1690841615818478600,8.472478515625,0.16884440853297708,0.02466925316387787,-0.03401877212096006
1690841615828518700,8.4825185546875,0.18910627531707286,0.010977576816640794,-0.027461135204997843
1690841615838559700,8.492559814453125,0.17719079659581183,0.005147537222597748,-0.01116686601077672
1690841615848629800,8.502629638671875,0.16541384956240654,-0.0016144129266962408,0.004782069477648474
1690841615858670600,8.512670654296874,0.18085867145359516,-0.0008373824059031903,0.008770002036076039
1690841615868710400,8.52271044921875,0.16038170061409474,-0.004368661804590374,0.023219355749664827
1690841615878750500,8.53275048828125,0.17056465645432473,-0.014627441093698143,0.01835580940048676
1690841615888790500,8.54279052734375,0.16696692422330378,-0.01871324910260737,0.012309642837732098
1690841615898831600,8.55283154296875,0.1588660353541374,-0.014544274588581175,0.009757268640911206
1690841615908871700,8.56287158203125,0.17708967430889605,-0.029435791712254283,-0.0016625720505136995
1690841615918911700,8.572911865234374,0.1631312915831804,-0.026792912520654497,-0.011494883255590683
1690841615928952600,8.58295263671875,0.16906477328538894,-0.016118720831070094,-0.021176666374341582
1690841615938992600,8.59299267578125,0.17933365384340286,-0.014211462437640874,-0.02303788910238072
1690841615949032400,8.603032470703125,0.1634159537434578,-0.0017211612368002534,-0.029877288402058184
1690841615959072500,8.613072509765624,0.17637948021292685,0.004210676497593522,-0.03771972726443782
1690841615969113600,8.623113525390625,0.1927905167877674,0.011990206191595644,-0.04289349490683526
1690841615979153700,8.633153564453124,0.18586860857009888,0.01761805601073429,-0.03622755247792229
1690841615989224700,8.643224609375,0.1969172413289547,0.025515275533962992,-0.03628618732998148
1690841615999264800,8.6532646484375,0.18418460100591183,0.04106008720090613,-0.02873119624000974
1690841616009304600,8.6633046875,0.18448270716965198,0.04753644360816106,-0.029715704632177948
1690841616019345400,8.673345458984375,0.19033201771974562,0.0444829560553655,-0.03382435466055758
1690841616029385500,8.683385498046874,0.1854191112369299,0.04192043035728857,-0.029687318787910043
1690841616039425500,8.693425537109375,0.18290975876450538,0.0348160051795654,-0.022430141600733623
1690841616049466600,8.703466552734374,0.1835492257118225,0.034294757784437385,-0.024003007807489485
1690841616059506700,8.713506591796875,0.17476444623172283,0.025988738264609127,-0.0296588507452514
1690841616069546800,8.723546630859374,0.18438216940462587,0.02177040818352252,-0.020044826499931515
1690841616079586800,8.7335869140625,0.17634148629009722,0.02226060285326093,-0.025326369932317173
1690841616089627600,8.743627685546874,0.18655366822481154,0.003444587495923042,-0.02129768067181576
1690841616099667500,8.75366748046875,0.16338672764897347,-0.0030725758457556367,-0.031165839508408677
1690841616109707500,8.76370751953125,0.17597557558715343,-0.0036644955906085666,-0.0232047381358454
1690841616119778600,8.773778564453124,0.1698503707051277,-0.014242314233630895,-0.020850452927546573
1690841616129818600,8.783818603515625,0.18481062394976616,-0.01294792704153806,-0.018219113476690835
1690841616139859700,8.793859619140624,0.1505307532072067,0.0057505811496637756,-0.016899075820110736
1690841616149899800,8.803899658203125,0.17953940554857253,-0.0026665523281320927,-0.014905408651707693
1690841616159939600,8.813939697265624,0.1681423977434635,-0.006100454033259302,-0.019506404207716696
1690841616169979600,8.823979736328125,0.1753016218483448,0.00008380582593381405,-0.013102469149278475
1690841616180020500,8.8340205078125,0.1760246754258871,-0.002542268361337483,-0.007964384741615503
1690841616190060500,8.844060546875,0.172705175614357,0.006996836617402732,-0.011288578994572161
1690841616200100600,8.8541005859375,0.18629589407145977,0.014670348653662948,-0.010914809212158434
1690841616210141700,8.8641416015625,0.18133564131557942,0.022386713450960813,-0.01760912835218478
1690841616220181800,8.874181640625,0.17697510801851749,0.021796547271776944,-0.027714516311022452
1690841616230221600,8.8842216796875,0.19431728796362877,0.018713504830934105,-0.026648398616584017
1690841616240261600,8.89426171875,0.17515081520080567,0.01854529039086774,-0.023046994857443496
1690841616250332700,8.904332763671874,0.18591829293072223,0.01711803406672552,-0.02532174855612684
1690841616260372700,8.914372802734375,0.19340192668437955,0.021523155424185095,-0.03435968994654249
1690841616270413600,8.92441357421875,0.18861995310485363,0.02660235838461667,-0.03612741657169535
1690841616280453600,8.93445361328125,0.17366671412289142,0.024186365017760544,-0.03554418702337425
1690841616290493700,8.94449365234375,0.19448329218029975,0.018863452961947767,-0.02530237256879918
1690841616300534800,8.95453466796875,0.191360776245594,0.015278945538681,-0.034250014460412787
1690841616310574600,8.96457470703125,0.17895897531211374,0.013534713953547179,-0.03345988699602894
1690841616320614700,8.97461474609375,0.1845160249173641,0.023401626114547252,-0.023474147928063755
1690841616330654700,8.98465478515625,0.1752577827066183,0.013448588306363671,-0.019188122905627825
1690841616340695600,8.994695556640625,0.17616963685452938,0.012604392567183821,-0.01437996000549756
1690841616350735600,9.004735595703124,0.17722995956242082,0.01623622799720615,-0.016879453237610868
1690841616360775700,9.014775634765625,0.1788824029445648,0.016527758289687333,-0.01890810495442711
1690841616370816800,9.024816650390624,0.17574352039694785,0.0017494009505957364,-0.015779419573838823
1690841616380856600,9.034856689453125,0.17454700408875942,0.004664338549226522,-0.01342765511618927
1690841616390927600,9.044927734375,0.18307284037172794,0.00595516381105408,-0.00681129201662261
1690841616400967700,9.0549677734375,0.18276830446720121,-0.0009562595452181995,-0.013946463959058747
1690841616411007700,9.0650078125,0.1736316428095102,0.0029344460166990756,-0.016951162200374528
1690841616421048600,9.075048583984374,0.16658581595122812,0.003200805335305631,-0.013747562119783834
1690841616431088600,9.085088623046875,0.17779460770785807,0.0024885288801044223,-0.022041096617374568
1690841616441128700,9.095128662109374,0.1806207710444927,0.006271938142646104,-0.02657402277269866
1690841616451168500,9.10516845703125,0.1871872899532318,0.015415102606359869,-0.018854854096961207
1690841616461209600,9.115209716796874,0.18597382251024244,0.020697773983329535,-0.022894799970416352
1690841616471249700,9.125249755859375,0.18655659083426,0.015254651347640901,-0.022752683519409036
1690841616481289700,9.135289794921874,0.17322890722751616,0.009132825732789934,-0.02010665795607492
1690841616491330600,9.14533056640625,0.18414719160497187,0.018363540615793317,-0.03330955070594791
1690841616501370600,9.15537060546875,0.18684125299453735,0.017051599500700832,-0.024747145272255872
1690841616511410700,9.16541064453125,0.1840016456544399,0.01541815307997167,-0.016587639817339368
1690841616521481500,9.1754814453125,0.18924714509248733,0.02339642021646723,-0.01621259139329195
1690841616531521500,9.185521484375,0.18566344138681887,0.01772392753800377,-0.02480050572757609
1690841616541561600,9.1955615234375,0.18477613715827465,0.015158022572752087,-0.020117343746870756
1690841616551602700,9.205602783203124,0.197356801789999,0.017537574653048067,-0.021595426075952127
1690841616561642800,9.215642822265625,0.18599428077638147,0.01930907783759758,-0.024716622269828802
1690841616571682800,9.225682861328124,0.17582769154906272,0.01967599318753928,-0.02364195137617644
1690841616581712400,9.23571240234375,0.19125088613033295,0.01712141333390027,-0.021980420505278743
1690841616591752400,9.24575244140625,0.18512568124830722,0.012917184843402355,-0.020582477040588854
1690841616601792500,9.25579248046875,0.1748082853734493,0.013093893117178231,-0.02238702397821471
1690841616611832600,9.26583251953125,0.17645722162425517,-0.0011491335025057196,-0.017738814579881728
1690841616621873700,9.275873779296875,0.18169629132151602,0.002313793367706239,-0.018543792553525416
1690841616631913700,9.285913818359376,0.1806464900076389,0.005313504906650632,-0.017681905894028023
1690841616641953500,9.29595361328125,0.17630173880159855,0.005097085676994175,-0.011013086521439253
1690841616651994400,9.305994384765626,0.17704232803583145,-0.0013562917134724557,-0.016691867376794105
1690841616662064600,9.316064697265626,0.17344225771725177,0.0043933030555024745,-0.0266509924324695
1690841616672105500,9.32610546875,0.1788175210148096,0.009559691109042614,-0.02016270812540315
1690841616682145500,9.3361455078125,0.18179916717410086,0.0032503800980746744,-0.02050370358279906
1690841616692185600,9.346185546875,0.18747838185429572,0.0077653185055591165,-0.030637331255432217
1690841616702226700,9.356226806640626,0.18582535395026206,0.011554828715324402,-0.01767682786011137
1690841616712266500,9.3662666015625,0.18043255499601363,0.017628011149168014,-0.01362248356854543
1690841616722306600,9.376306640625,0.17533844672739504,0.02334836155734956,-0.025711268463521262
1690841616732346600,9.3863466796875,0.17653028686046598,0.013740977115370333,-0.023422372075053863
1690841616742387500,9.396387451171876,0.18206629367768765,0.016094828498829154,-0.028560314918821675
1690841616752427500,9.406427490234375,0.18356091614961623,0.012716693835239856,-0.02304579384762328
1690841616762467600,9.416467529296876,0.18610826254487037,0.013889463941659777,-0.0224233237008797
1690841616772507400,9.42650732421875,0.1917968295753002,0.006539959695376456,-0.015213543019117787
1690841616782548500,9.436548583984376,0.18910685983896255,0.015330693992227315,-0.023329401128552852
1690841616792619500,9.44661962890625,0.18641922819018364,0.01509167933827266,-0.023660806773696093
1690841616802659600,9.45665966796875,0.19226210899949073,0.00804137723427266,-0.020094542826595715
1690841616812699600,9.46669970703125,0.1921189011365175,0.00741166449598968,-0.01743989099881146
1690841616822739700,9.47673974609375,0.18748539611697196,0.015400306896027177,-0.02099321783252526
1690841616832780500,9.486780517578126,0.17597031489014625,0.014949622252769768,-0.016794514900515787
1690841616842820600,9.496820556640625,0.18076339438557623,0.012288147958554327,-0.01522924747832585
1690841616852860400,9.5068603515625,0.18136311384439469,0.009185158708225935,-0.011958801839756778
1690841616862901500,9.516901611328125,0.18211363995075225,0.011356767126265913,-0.022135697831958533
1690841616872941600,9.526941650390626,0.1785211684167385,0.009554759205598383,-0.021677268273662776
1690841616882981600,9.536981689453125,0.1753799477815628,0.011709562619309872,-0.01954856284901034
1690841616893021700,9.547021728515626,0.17552490921020505,0.009167787448316813,-0.020732685466506518
1690841616903062500,9.5570625,0.18015782970786093,0.007321374130342155,-0.02253919603235554
1690841616913102600,9.5671025390625,0.18030220661461352,0.014725348510220646,-0.016060866863722913
1690841616923142400,9.577142333984375,0.18433657669723033,0.00699068087125197,-0.022307647732226175
1690841616933213400,9.58721337890625,0.17864508705735205,0.007845050944574177,-0.02406257880788762
1690841616943253500,9.59725341796875,0.17998714931607246,0.014855660359002648,-0.02452317292380612
1690841616953294600,9.607294677734375,0.19135610007047651,0.015156670865882188,-0.016553778646932915
1690841616963334700,9.617334716796876,0.18536650426685808,0.019340751617494968,-0.023445136462710795
1690841616973374700,9.627374755859375,0.18042670977711678,0.019434549114480615,-0.025664415380801074
1690841616983414500,9.63741455078125,0.18042729429900645,0.017208306166063992,-0.02173512680758722
1690841616993455600,9.64745556640625,0.19074936634898185,0.010221442953404039,-0.02149252282390371
1690841617003495400,9.657495361328126,0.17892858017385005,0.011767357221152634,-0.026964273332455192
1690841617013535500,9.667535400390625,0.17668576968312263,0.008848967290110886,-0.021299525569030083
1690841617023576600,9.67757666015625,0.18536650426685808,0.007881784492079168,-0.01918793110938277
1690841617033616600,9.68761669921875,0.18252865049242972,0.01827635552268475,-0.017599698370136318
1690841617043656700,9.69765673828125,0.1823813509762287,0.02091094180997461,-0.011522118322388268
1690841617053696500,9.707696533203125,0.18044015378057957,0.01687450763443485,-0.014647040843311697
1690841617063767600,9.717767578125,0.18283552448451518,0.025006485761608927,-0.021879649844812228
1690841617073808400,9.727808349609376,0.1792436374723911,0.013313034026883542,-0.01953408679908607
1690841617083848400,9.737848388671875,0.17535422881841659,0.01243676264900714,-0.018988467581104486
1690841617093888500,9.747888427734376,0.18253800284266472,0.008717577729094773,-0.021771641159383577
1690841617103928600,9.757928466796875,0.18298866921961307,0.006981821711361408,-0.017953822737163862
1690841617113969700,9.7679697265625,0.1822422347664833,0.012330964186973868,-0.01338382054104004
1690841617124009700,9.778009765625,0.18837620747685432,0.011250292810797691,-0.023598546059289946
1690841617134049500,9.788049560546876,0.18298925374150274,0.017781886536628006,-0.01948112363598775
1690841617144090600,9.798090576171875,0.17535189073085783,0.009952197557967156,-0.014914870599796995
1690841617154130400,9.80813037109375,0.17848726614713667,0.015037117873132227,-0.02053533169692382
1690841617164170500,9.81817041015625,0.18656535866260526,0.018559446780383584,-0.014091055494942701
1690841617174210600,9.82821044921875,0.18671324270069597,0.019192228258587418,-0.018070571851474232
1690841617184251600,9.838251708984375,0.1768348227649927,0.008921813330613076,-0.018232178454240782
1690841617194321700,9.84832177734375,0.18251929814219472,0.00687706442894414,-0.016023567060637286
1690841617204362800,9.85836279296875,0.18685820412933826,0.02002206667885184,-0.019048257777211256
1690841617214402600,9.868402587890625,0.18296704190969465,0.00995681893415749,-0.026159487155056557
1690841617224442400,9.8784423828125,0.17922317920625208,0.012257825885526836,-0.025541268491744994
1690841617234483500,9.8884833984375,0.1691962907105684,0.014471300683915615,-0.022598812698526306
1690841617244523500,9.8985234375,0.17653028686046598,0.018301837023813276,-0.023397260466683653
1690841617254563600,9.9085634765625,0.18715864838063717,0.01830017478968948,-0.02594250623639673
1690841617264603600,9.918603759765626,0.18461597816050052,0.012516604685876518,-0.021788468996598385
1690841617274644700,9.928644775390625,0.1810258447140455,0.013862996059842406,-0.022756186084169894
1690841617284684500,9.9386845703125,0.1756377219349146,0.022920875126589087,-0.022404034478520043
1690841617294724400,9.948724365234375,0.18042612525522708,0.0186975948757492,-0.028914115058863533
1690841617304765400,9.958765380859376,0.17982932840585708,0.02251070515681058,-0.0209409168231301
1690841617314805500,9.968805419921875,0.18566636399626732,0.012224343741033225,-0.028851059760013592
1690841617324845600,9.978845458984376,0.18162614869475363,0.012080405225697904,-0.027176020953571422
1690841617334916600,9.98891650390625,0.18910861340463161,0.020799371194280682,-0.018460260722227395
1690841617344956700,9.998956787109375,0.18641689010262488,0.008760722751077263,-0.027401043614791704
1690841617354997800,10.008997802734376,0.1808791297197342,0.008441208473127335,-0.018828217251785098
1690841617365037600,10.01903759765625,0.18461831624805927,0.013734857901837675,-0.022233997974125667
1690841617375077400,10.029077392578126,0.18162497965097427,0.012045224314462392,-0.01874157101479359
1690841617385117400,10.039117431640625,0.17728198201060294,0.013393186591006814,-0.0242495299144648
1690841617395158500,10.049158447265626,0.18087153093516825,0.013168109130859374,-0.031092134951381013
1690841617405198600,10.059198486328125,0.17458441348969936,0.015001498570479452,-0.020112827401957474
1690841617415238700,10.06923876953125,0.18311024977266788,0.009767488640826195,-0.019739002820616587
1690841617425278700,10.07927880859375,0.1784685614466667,0.009811583510879426,-0.019591328845079987
1690841617435319600,10.089319580078126,0.17906418925225734,0.008073398074042051,-0.02501123043538537
1690841617445359400,10.099359375,0.18714286628961563,0.006665686700586229,-0.0200263501283247
1690841617455399400,10.1093994140625,0.19088439090549944,0.013411270236968994,-0.011699703378998673
1690841617465470500,10.119470458984376,0.18624504066705702,0.010715583145897834,-0.016846108090435154
1690841617475510500,10.129510498046875,0.18010872986912727,0.012625453621521591,-0.021742118237377143
1690841617485551600,10.139551513671876,0.18265081556737423,0.01252458706293255,-0.02044744335091673
1690841617495591700,10.149591796875,0.17831015601456165,0.013058840070106088,-0.02750564106700476
1690841617505631500,10.159631591796876,0.1886339816302061,0.014969569062255323,-0.029108304190402848
1690841617515672300,10.16967236328125,0.18564239859879017,0.016062241403479127,-0.02373330118774902
1690841617525712400,10.17971240234375,0.18609189593195913,0.00835031531928107,-0.016085699910880064
1690841617535752400,10.18975244140625,0.18310323550999164,0.011963245119433849,-0.019107865310227498
1690841617545792500,10.19979248046875,0.18549919073581694,0.023060064401570705,-0.02172527670043055
1690841617555833600,10.20983349609375,0.18041443481743336,0.017648597279470414,-0.027634076052531598
1690841617565873700,10.219873779296876,0.1730839457988739,0.006788308433257043,-0.023892629068461246
1690841617575913700,10.229913818359375,0.17936814063489437,0.006288523951265961,-0.021479594843671655
1690841617585954600,10.23995458984375,0.18011457508802414,0.012513901272136717,-0.021953148905863053
1690841617595994600,10.24999462890625,0.17771686629652975,0.012988934905361384,-0.022453764504916034
1690841617606065400,10.2600654296875,0.17876608308851719,0.008108451121114194,-0.020567544332938267
1690841617616105500,10.27010546875,0.18265256913304329,0.01667449155030772,-0.024705758382519705
1690841617626145500,10.2801455078125,0.18325053502619265,0.015006065147742628,-0.01714715969651006
1690841617636185600,10.290185546875,0.1811538550078869,0.008187672103475778,-0.020645304010575637
1690841617646226700,10.300226806640625,0.17875848430395125,0.0081057842399925,-0.026292749012750572
1690841617656266800,10.310266845703126,0.18010463821589945,0.012405728189926593,-0.02539321549029555
1690841617666306800,10.320306884765625,0.18159926068782806,0.0076986464775167405,-0.023020746171334757
1690841617676347600,10.33034765625,0.18369068000912664,0.014166728246770798,-0.017784083060291594
1690841617686387500,10.340387451171875,0.17426351097226142,0.013118826629035175,-0.02506106549305841
1690841617696427500,10.350427490234376,0.16872458154559133,0.007940638539846986,-0.02263104816742707
1690841617706467600,10.360467529296875,0.18593232145607472,0.01107895483188331,-0.01714420055444352
1690841617716508700,10.3705087890625,0.18413433212339878,0.014727449135761708,-0.018738895000517366
1690841617726548700,10.380548828125,0.18069149819314478,0.00854905276177451,-0.028431345643755046
1690841617736619800,10.390619873046875,0.1860802054941654,0.010414572639018297,-0.0211199905839283
1690841617746659600,10.40065966796875,0.17710253379046917,0.0010000621543265879,-0.016378577343653885
1690841617756699600,10.41069970703125,0.17575637987852097,0.012422533194255084,-0.01721398242160212
1690841617766740500,10.420740478515626,0.1751578294634819,0.017966577187459913,-0.01843123099056538
1690841617776780500,10.430780517578125,0.17441081048846244,0.006920647842343896,-0.011756529866461642
1690841617786820600,10.440820556640626,0.1862327657073736,0.010366130387410522,-0.009852801437256857
1690841617796861700,10.45086181640625,0.17575579535663127,0.007717789569403975,-0.018996586955478414
1690841617806901800,10.46090185546875,0.18039280750751494,0.011093403482344001,-0.025243203427200205
1690841617816941800,10.47094189453125,0.1901204207956791,0.015461462498735635,-0.01933964193922002
1690841617826981600,10.480981689453126,0.18443477637469768,0.008905921641737221,-0.02743986865468323
1690841617837022500,10.4910224609375,0.1760550705641508,0.018017558456026015,-0.019162755568930878
1690841617847062500,10.5010625,0.1790489916831255,0.015212675369437783,-0.01676670444498304
1690841617857102600,10.5111025390625,0.18548223960101604,0.014431425331253557,-0.02225221405082848
1690841617867173600,10.521173583984375,0.18084230484068392,0.012136026136763393,-0.016828453702735714
1690841617877213700,10.531213623046876,0.17919512215554714,0.011180241515580565,-0.03074770086130593
1690841617887254800,10.5412548828125,0.17859774078428745,0.010477006883360444,-0.02499216040873434
1690841617897294600,10.551294677734376,0.18024433894753455,0.008846994528733193,-0.023080335438041947
1690841617907334700,10.561334716796875,0.1830874534189701,0.007937021810654551,-0.024047673499700613
1690841617917374700,10.571374755859376,0.1845809068471193,0.01995523025402799,-0.020933907127031123
1690841617927415600,10.58141552734375,0.17874620934426783,0.018509104832634328,-0.01824130247561261
1690841617937455600,10.59145556640625,0.17156828053891657,0.01211291925581172,-0.018338209811714478
1690841617947495700,10.60149560546875,0.1842898149460554,0.017884835454449056,-0.022307245873427018
1690841617957536800,10.611536865234376,0.17411738049983977,0.022290705730579792,-0.023268327724235132
1690841617967576800,10.621576904296875,0.17097674438655375,0.010256660397257655,-0.020282786274538375
1690841617977616600,10.63161669921875,0.17441899379491804,0.013559483068622648,-0.022686417916743085
1690841617987656700,10.64165673828125,0.17770809846818447,0.00927174101313576,-0.01793449241560884
1690841617997697500,10.651697509765626,0.18085048814713953,0.014368278700858354,-0.029585470415209418
1690841618007768600,10.6617685546875,0.18833587546646594,0.011959025602042674,-0.024894979077996683
1690841618017808600,10.67180859375,0.18250234700739382,0.009219974293280392,-0.015369455100037156
1690841618027848700,10.6818486328125,0.1805570581585169,0.02088913183696568,-0.018658262945781462
1690841618037888500,10.691888427734375,0.18983458959162233,0.014016853180993348,-0.022209379556099883
1690841618047929600,10.7019296875,0.17831015601456165,0.01887676910124719,-0.02540491962782107
1690841618057969700,10.7119697265625,0.16903320910334585,0.01575189681267366,-0.02642597433782648
1690841618068009700,10.722009765625,0.17606559195816515,0.005094930252525955,-0.02417767482122872
1690841618078049500,10.732049560546875,0.19491817646622656,0.022825999917369333,-0.02045571342234034
1690841618088090600,10.742090576171876,0.19222294603288173,0.01946693528043106,-0.015735521066607906
1690841618098130700,10.752130615234375,0.1842898149460554,0.007292275900021195,-0.014566559485625475
1690841618108170500,10.76217041015625,0.17920038285255432,0.00902310001431033,-0.014649497661879285
1690841618118211800,10.7722119140625,0.1839893706947565,0.013937559133395552,-0.01432607896036934
1690841618128251600,10.782251708984376,0.18578268385231494,0.011890508676785976,-0.020053402532031757
1690841618138322700,10.79232275390625,0.18548750029802322,0.01263354559643194,-0.02599913636103738
1690841618148362800,10.80236279296875,0.17965221827328204,0.005648344617895782,-0.020817546171788125
1690841618158402600,10.812402587890626,0.18937690895199774,0.007423574129492044,-0.01639094820145983
1690841618168443600,10.822443603515625,0.18593056789040566,0.009467080922145396,-0.013124087326042354
1690841618178483700,10.832483642578126,0.18817104029357432,0.019313370420224962,-0.01739706107066013
1690841618188523500,10.8425234375,0.18861586145162582,0.017944931611232458,-0.01354870594628155
1690841618198563600,10.8525634765625,0.1848778439670801,0.014629231191985309,-0.01069376860631164
1690841618208604700,10.862604736328125,0.17919161502420902,0.008625168471597135,-0.016186406639264895
1690841618218644700,10.872644775390626,0.17859481817483902,0.011970825637690722,-0.025331406867038456
1690841618228684500,10.8826845703125,0.1817407149851322,0.007010609414428472,-0.03294332490917295
1690841618238725600,10.8927255859375,0.1844371144622564,0.012823807471524923,-0.023009786385903133
1690841618248765700,10.902765625,0.17935060497820376,0.00896159735172987,-0.020175184014486147
1690841618258805500,10.912805419921876,0.18069675889015197,0.013886742261610924,-0.01913653884886298
1690841618268845600,10.922845458984375,0.1733656853497028,0.012265570800565182,-0.021802054563956334
1690841618278916600,10.93291650390625,0.18309037602841852,0.009758191089518368,-0.03279689304265193
1690841618288956700,10.942956787109376,0.18413842377662656,0.00841956289689988,-0.01916255920610856
1690841618298997800,10.952997802734375,0.19446341843605042,0.006795085233915597,-0.016339889301080254
1690841618309037600,10.96303759765625,0.18832652311623096,0.014054189516697077,-0.022531099490867925
1690841618319077600,10.97307763671875,0.18593232145607472,0.021388441394921392,-0.01704323353115469
1690841618329118700,10.98311865234375,0.17829788105487823,0.01456781986095011,-0.018556040113745256
1690841618339158500,10.993158447265625,0.1809925269663334,0.00680692180218175,-0.0226058452275116
1690841618349198600,11.003198486328126,0.18623159666359423,0.010474303469620645,-0.01939160045532044
1690841618359238700,11.01323876953125,0.1860813745379448,0.00717349009225145,-0.024451422861847094
1690841618369279700,11.02327978515625,0.18234160348773001,0.013642613041121512,-0.021271728813229127
1690841618379319600,11.033319580078125,0.18383797952532768,0.013178685323800891,-0.021348018052987753
1690841618389359600,11.043359619140626,0.18413900829851626,0.004980674489401281,-0.02369323403884191
1690841618399400700,11.053400634765625,0.18174246855080126,0.013114954171516001,-0.028959429205046034
1690841618409470500,11.063470458984375,0.18877660497128962,0.014972674334794283,-0.018991413023439235
1690841618419511600,11.073511474609376,0.19057400978207586,0.007136427751183509,-0.02044107754221186
1690841618429551600,11.083551513671875,0.19117197567522526,0.019247575175017118,-0.026616030716942622
1690841618439591700,11.093591796875,0.18264438582658768,0.011710530733689665,-0.020715684099355713
1690841618449632800,11.1036328125,0.1790524988144636,0.015160086665675043,-0.030372273411345668
1690841618459672600,11.113672607421876,0.1778548134624958,0.009627660045027733,-0.02816458446634933
1690841618469712600,11.123712646484375,0.1795019961476326,0.015805270967725663,-0.023040925876260734
1690841618479752400,11.13375244140625,0.1821948884934187,0.016115980884712187,-0.020842146323504857
1690841618489793500,11.14379345703125,0.18309271411597727,0.011153755367454141,-0.017295125932991505
1690841618499833600,11.15383349609375,0.1830915450721979,0.008285488188453018,-0.016222144672926514
1690841618509873700,11.163873779296875,0.17890169216692448,0.01982849860182032,-0.022241359296673906
1690841618519913700,11.173913818359376,0.18159458451271057,0.013992723386734723,-0.02256356785520911
1690841618529954600,11.18395458984375,0.1841366702109575,0.013944536863453686,-0.030228727621654978
1690841618539994600,11.19399462890625,0.18294015390276908,0.014870163808390497,-0.024086366108851506
1690841618550065400,11.2040654296875,0.18817805455625056,0.014756437768228351,-0.01882012527687475
1690841618560105500,11.21410546875,0.18518530248105525,0.012831661984417587,-0.016050487033603712
1690841618570145500,11.2241455078125,0.18907529565691947,0.0201443230853416,-0.01739638521722518
1690841618580180000,11.234179931640625,0.17725392495989797,0.02133019013535231,-0.02038985881162807
1690841618590220000,11.244219970703124,0.17441139501035213,0.020784867744892833,-0.01967706176661886
1690841618600260000,11.254260009765625,0.18204291280210017,0.018730985688697546,-0.01964101777228061
1690841618610301000,11.264301025390624,0.18757833509743213,0.011236355616990476,-0.025084551399922928
1690841618620341000,11.274341064453125,0.18683131612241266,0.01472746740207076,-0.022077195410639978
1690841618630381000,11.284381103515624,0.18144202429950237,0.015351864644419401,-0.02039975915113464
1690841618640420900,11.2944208984375,0.17890110764503478,0.011105568844173103,-0.02286115799571853
1690841618650462000,11.3044619140625,0.1763560993373394,0.017050430456921457,-0.02003688978864811
1690841618660502000,11.314501953125,0.17635493029356003,0.013850648034922778,-0.02643753234487958
1690841618670542000,11.3245419921875,0.1839852790415287,0.012780534585379063,-0.015309098648349754
1690841618680613000,11.334613037109374,0.18697920016050337,0.017161124289780855,-0.01960038893437013
1690841618690653200,11.344653076171875,0.17650281433165071,0.012017843117192386,-0.027046969480114057
1690841618700694000,11.354694091796874,0.17949381284117696,0.01253923664279282,-0.02496110311676748
1690841618710733800,11.36473388671875,0.18068857558369636,0.01975567082762718,-0.018518100989842787
1690841618720774000,11.37477392578125,0.1823334201812744,0.022726284136250614,-0.028108972688438368
1690841618730814000,11.38481396484375,0.17979074996113775,0.013800634880736469,-0.021737967218644915
1690841618740855000,11.39485498046875,0.17724749521911143,0.012619444005843252,-0.015204861955740489
1690841618750895000,11.40489501953125,0.176647775760293,0.012866020911745726,-0.011599544639885426
1690841618760935200,11.41493505859375,0.1797895809173584,0.01274655925054103,-0.014848162039136513
1690841618770976000,11.42497607421875,0.18368132765889167,0.007558653484936803,-0.025249761032150125
1690841618781016000,11.43501611328125,0.18502748157083987,0.012651592709776014,-0.022293756204191596
1690841618791056000,11.445055908203125,0.18502865061461923,0.008379103022348134,-0.020640299041895193
1690841618801096000,11.455095947265624,0.1803904694199562,0.013030618622619658,-0.015979052065475844
1690841618811167000,11.4651669921875,0.17590075678527353,0.021232940305955707,-0.02468218571068719
1690841618821208000,11.4752080078125,0.17814415179789064,0.015228567058313637,-0.02203122367733158
1690841618831248100,11.485248046875,0.181138657438755,0.015584248628187924,-0.01343096131812781
1690841618841288200,11.4952880859375,0.19430910465717313,0.019426402340643106,-0.022401020537526347
1690841618851328000,11.505327880859374,0.19191782560646534,0.014499376000929622,-0.024545005729701367
1690841618861368800,11.515368896484375,0.18353928883969783,0.014393522739969192,-0.011420361281232907
1690841618871409000,11.525408935546874,0.18189444424211978,0.01831139030344784,-0.022413510126341133
1690841618881449000,11.535448974609375,0.18458675206601619,0.016917159466072917,-0.024053989076055583
1690841618891490000,11.545489990234374,0.1818938597202301,0.015426920908316969,-0.022321890886710025
1690841618901530000,11.555530029296875,0.18698446085751055,0.022152795097231864,-0.016595873356144875
1690841618911570200,11.565570068359374,0.1808481500595808,0.009384900797717272,-0.02320502583021298
1690841618921610200,11.5756103515625,0.18727964441180228,0.004967376616410911,-0.019688697405485435
1690841618931651000,11.585651123046874,0.17231529951393604,0.004943192023225128,-0.020860015340335665
1690841618941691000,11.59569091796875,0.18293781581521032,0.006226582897268235,-0.017038835917250254
1690841618951762000,11.605761962890625,0.1839852790415287,0.016251206370629368,-0.0207837808995042
1690841618961802000,11.615802001953124,0.19368717336654662,0.0019359182323329149,-0.021787199488119222
1690841618971842000,11.625842041015625,0.22096856352388858,-0.6981568905644119,-0.14258507316606117
1690841618981883100,11.635883056640624,-0.6121335347115993,-0.39769663797877725,-0.08494547008876688
1690841618991923200,11.645923095703125,0.78444006639719,0.40474999055638905,0.09890481179570779
1690841619001963000,11.655962890625,0.12323825713396072,0.15911555313579737,0.11949947246443479
1690841619012003000,11.666003173828125,0.26523791336119174,0.1354934344046749,0.15241337948287836
1690841619022044000,11.6760439453125,0.2289887883722782,0.1777745147679001,-0.05697477792643476
1690841619032084000,11.686083984375,0.25305472361445425,0.39033341573439534,0.195382378178183
1690841619042124000,11.6961240234375,0.22896073132157324,0.27343013377562164,0.11264240051074884
1690841619052165000,11.7061650390625,0.2508002226859331,0.0069101447146385905,0.08697987112635747
1690841619062205200,11.716205078125,0.07870353435873985,0.20438712055189534,0.22925153096169232
1690841619072245200,11.726245361328125,0.3277683115541935,0.10716096429182216,-0.00165974077261053
1690841619082316000,11.73631591796875,0.07450666719079017,-0.11047383343316614,-0.1238852315342985
1690841619092355800,11.74635595703125,0.24396131657660006,0.04134215554529801,-0.1111157389327418
1690841619102397000,11.75639697265625,0.1681383060902357,-0.09146518158055841,-0.1837227556478232
1690841619112437000,11.76643701171875,0.2347755550801754,-0.14360206818887963,-0.23710578812602906
1690841619122477000,11.77647705078125,0.07935410722196101,-0.04521616570074111,-0.14862243536785244
1690841619132517000,11.78651708984375,0.2665899124920368,-0.13014805478872732,-0.21209354847706854
1690841619142558200,11.79655810546875,0.128959557390213,-0.14694894919767976,-0.2146710890811868
1690841619152598000,11.806597900390624,0.18718787447512147,-0.042609271137975156,-0.1402671698788181
1690841619162637800,11.816637939453125,0.18568682226240635,-0.09935096639432013,-0.1684174700914882
1690841619172678000,11.826677978515624,0.18416648082733153,-0.06013075317274779,-0.14656116458964533
1690841619182719000,11.836718994140625,0.18157412624657154,0.009033128217980265,-0.07100652271588333
1690841619192759000,11.846759033203124,0.18301029652953146,-0.01867065206989646,-0.07912249955632723
1690841619202799000,11.856799072265625,0.16619243271946907,0.05477337259175256,0.019068067589378915
1690841619212840200,11.866840087890624,0.2312368595600128,0.07088707018783316,0.060577108700759705
1690841619222910000,11.876909912109374,0.12063304307162762,0.07668844994297251,0.10343120317896827
1690841619232951000,11.886950927734375,0.22283961809277533,0.12899294820316135,0.16438814151016995
1690841619242990800,11.896990966796874,0.18322364701926708,0.10051107794856652,0.17727262966036794
1690841619253031000,11.907031005859375,0.13854805446863175,0.12529394755475223,0.1889920560865663
1690841619263072000,11.917072021484374,0.1854670420318842,0.11746930007738991,0.18334667061073703
1690841619273112000,11.927112060546875,0.19423487037718296,0.09486309865685179,0.1341522671950981
1690841619283152100,11.937152099609374,0.1548100379616022,0.0887661517549306,0.10754145150939003
1690841619293192000,11.94719189453125,0.19976269388794898,0.04226955432221293,0.03902423399174586
1690841619303233000,11.95723291015625,0.17182196303904054,0.01400397543311119,-0.00508011627588421
1690841619313272800,11.96727294921875,0.19233809684515,-0.00834956640060991,-0.0449072641483508
1690841619323313000,11.97731298828125,0.15941957758367062,-0.03880942219728604,-0.07745073955236002
1690841619333354000,11.98735400390625,0.16478665757477282,-0.046803836750984186,-0.09661745891035534
1690841619343394000,11.99739404296875,0.193483175227046,-0.07061760559668764,-0.11446003525881096
1690841619353465000,12.007465087890624,0.16725217090547084,-0.07225212972965091,-0.13496259719729423
1690841619363505000,12.0175048828125,0.163607676923275,-0.06788819889910519,-0.12766084108287468
1690841619373545000,12.027544921875,0.21547113515138624,-0.06843399621360004,-0.13539765501315704
1690841619383585000,12.0375849609375,0.15435411088764667,-0.047267782734613864,-0.11277073046499862
1690841619393625900,12.0476259765625,0.1797270370751619,-0.02958725594691932,-0.09395864236410707
1690841619403666000,12.057666015625,0.20390286243259906,-0.014508911014255135,-0.0743034819020424
1690841619413706000,12.0677060546875,0.18155074537098406,0.021589042000938207,-0.046520891623757776
1690841619423747000,12.0777470703125,0.19916238990724086,0.038482911922968925,-0.038926527504622936
1690841619433787100,12.087787109375,0.1865595134437084,0.058203840230777855,-0.004073880109097808
1690841619443827000,12.097826904296875,0.18445757272839544,0.07868440953316166,0.03090794205747079
1690841619453867000,12.107866943359374,0.19435060571134088,0.0918100860280916,0.047385687192971815
1690841619463907800,12.117907958984375,0.17762918801307678,0.09253282907838001,0.06845014819737989
1690841619473948000,12.127947998046874,0.20118542016744612,0.08835894092721865,0.07339407087296712
1690841619484019000,12.13801904296875,0.18584873482584952,0.08145442223576828,0.07209457368091679
1690841619494059000,12.14805908203125,0.16902619484066964,0.07779168021082877,0.06132480352921411
1690841619504098800,12.158098876953124,0.19559972898960112,0.0639215237578377,0.04804105952889658
1690841619514140000,12.168139892578125,0.1808656857162714,0.04821114626564085,0.034046363380784164
1690841619524180000,12.178179931640624,0.1836281361669302,0.019803711220435796,0.0037233679046854377
1690841619534220000,12.188219970703125,0.19281097505390643,-0.001777987724263221,-0.013542705463757737
1690841619544260900,12.1982607421875,0.1768389144182205,-0.017403737406618894,-0.03173530082628131
1690841619554301000,12.208301025390625,0.18553952274620533,-0.026102336440607905,-0.05034475162769667
1690841619564341000,12.218341064453124,0.18479601090252398,-0.034508564931899306,-0.06841735560605303
1690841619574358800,12.22835888671875,0.17071487857997417,-0.03707074357010424,-0.07551180737903342
1690841619584399600,12.238399658203125,0.18624504066705702,-0.04214585487730801,-0.07008513355464674
1690841619594439700,12.248439697265624,0.16465221754014492,-0.039370325749367475,-0.0662886730142869
1690841619604479700,12.258479736328125,0.17268121021687982,-0.0367312642163597,-0.05528670154190622
1690841619614520800,12.268520751953124,0.18444412872493265,-0.021150522719509898,-0.0539713537601754
