time,seconds_elapsed,z,y,x
1690841607543481300,0.1974814453125,-0.0017215674743056297,0.006190575659275055,0.028851471841335297
1690841607553521400,0.207521484375,-0.0003044609911739826,0.009674297645688057,0.02702728658914566
1690841607563554600,0.217554443359375,0.0004207175225019455,0.008016480132937431,0.02141893468797207
1690841607573594600,0.2275947265625,0.0010406938381493092,0.006355082616209984,0.013767764903604984
1690841607583634700,0.237634765625,0.001855354756116867,0.0017824352253228426,0.004289042204618454
1690841607593674800,0.2476748046875,0.0008470683824270964,0.0009092667605727911,-0.004775570705533028
1690841607603715600,0.257715576171875,0.0004515890032052994,-0.00326443905942142,-0.01014823280274868
1690841607613755400,0.26775537109375,-0.0006771674379706383,-0.0030644044745713472,-0.018264463171362877
1690841607623795500,0.27779541015625,-0.00034400587901473045,-0.005445537157356739,-0.021303394809365273
1690841607633836500,0.28783642578125,-0.0004270109347999096,-0.006920658051967621,-0.020713603124022484
1690841607643906600,0.297906494140625,-0.0004219510592520237,-0.008857575245201588,-0.018382007256150246
1690841607653947600,0.30794775390625,-0.0008216067217290401,-0.005976106505841017,-0.013384684920310974
1690841607663987700,0.31798779296875,0.0008665709756314754,-0.004950789734721184,-0.00662318617105484
1690841607674027500,0.328027587890625,0.0006359382532536983,0.0010129786096513271,-0.0018547046929597855
1690841607684068400,0.338068359375,0.0002966513857245445,0.002197286346927285,0.00515713170170784
1690841607694108400,0.3481083984375,0.0004674396477639675,0.0028308522887527943,0.010083713568747044
1690841607704148500,0.3581484375,0.0015968864317983389,0.006107605528086424,0.013325579464435577
1690841607714188500,0.3681884765625,0.0010571549646556377,0.006751811597496271,0.01496870443224907
1690841607724229600,0.378229736328125,-0.00010398309677839279,0.005188535898923874,0.014934349805116653
1690841607734269700,0.388269775390625,-0.0012148786336183548,0.005372203420847654,0.013223495334386826
1690841607744309800,0.398309814453125,-0.0002782451920211315,0.003605462145060301,0.008020743727684021
1690841607754349600,0.408349609375,-0.0006371689960360527,0.0023355535231530666,0.00460006482899189
1690841607764390400,0.418390380859375,0.0001753615215420723,-0.0014906099531799555,0.0005342178046703339
1690841607774430500,0.428430419921875,-0.0001600850373506546,-0.004069964401423931,-0.005208875983953476
1690841607784501500,0.43850146484375,-0.0009201508946716785,-0.006992250680923462,-0.007263505831360817
1690841607794541600,0.44854150390625,-0.00036254990845918655,-0.004060724750161171,-0.010606562718749046
1690841607804581600,0.45858154296875,-0.001580413430929184,-0.006395251490175724,-0.010184183716773987
1690841607814622700,0.468622802734375,-0.0012772814370691776,-0.005507571157068014,-0.010983593761920929
1690841607824662500,0.47866259765625,0.0005408586002886295,-0.004151489585638046,-0.007812568917870522
1690841607834702600,0.48870263671875,-0.000054704491049051285,-0.001078401692211628,-0.004963679239153862
1690841607844743400,0.498743408203125,-0.0003449888899922371,0.0024098067078739405,-0.002673361450433731
1690841607854783500,0.508783447265625,-0.0009341789409518242,0.002903138753026724,-0.001217234879732132
1690841607864823600,0.518823486328125,0.0004432080313563347,0.005748992785811424,0.002516781911253929
1690841607874863600,0.528863525390625,0.0005997940897941589,0.005563870072364807,0.008241325616836548
1690841607884904700,0.53890478515625,-0.0019523133523762226,0.00579157005995512,0.010128707624971867
1690841607894944500,0.548944580078125,-0.00035821646451950073,0.004770481958985329,0.01115809939801693
1690841607904984600,0.558984619140625,-0.0005843187682330608,0.003443428548052907,0.009345551952719688
1690841607915055600,0.5690556640625,0.001683391397818923,0.0021985163912177086,0.00828205794095993
1690841607925095700,0.579095703125,-0.001916137058287859,0.0024270154535770416,0.0050204843282699585
1690841607935136500,0.589136474609375,-0.0010196361690759659,-0.001229149755090475,0.001016935333609581
1690841607945176600,0.599176513671875,0.0005092844367027283,0.0012023162562400103,-0.002198830246925354
1690841607955216600,0.609216552734375,-0.00042419973760843277,-0.0024353484623134136,-0.004938485100865364
1690841607965256400,0.61925634765625,0.000702583696693182,-0.0004313196986913681,-0.009987305849790573
1690841607975297500,0.629297607421875,0.0004782825708389282,-0.002166018821299076,-0.007558785378932953
1690841607985337600,0.639337646484375,-0.00039097340777516365,-0.003264838829636574,-0.006884472444653511
1690841607995377700,0.649377685546875,-0.0020719002932310104,-0.0032243900932371616,-0.004746144637465477
1690841608005418500,0.65941845703125,-0.001672426238656044,-0.00258363364264369,-0.0023889802396297455
1690841608015458600,0.66945849609375,0.001836493844166398,-0.001258711563423276,0.00048770010471343994
1690841608025498600,0.67949853515625,-0.0019523855298757553,0.0004963116953149438,0.0010842476040124893
1690841608035538400,0.689538330078125,0.00022808415815234184,0.0005998207489028573,0.001148514449596405
1690841608045609500,0.699609375,0.0002685640938580036,0.0030778921209275723,0.0017969943583011627
1690841608055650600,0.709650634765625,-0.00015474390238523483,0.0023538372479379177,0.0033155884593725204
1690841608065690600,0.719690673828125,-0.0002695261500775814,0.0023692836984992027,0.00343196839094162
1690841608075730700,0.729730712890625,-0.0011433195322751999,0.00027819944079965353,0.003197265788912773
1690841608085770500,0.7397705078125,0.0010540548246353865,0.001687278039753437,0.0044090040028095245
1690841608095811600,0.7498115234375,-0.0020629786886274815,-0.00170854851603508,0.005104700103402138
1690841608105851600,0.7598515625,-0.0032233181409537792,0.0008512819185853004,0.002610383555293083
1690841608115891500,0.769891357421875,-0.0004342016763985157,-0.0003311317414045334,0.0020188167691230774
1690841608125932500,0.7799326171875,-0.000887205358594656,0.004054828081279993,-0.0012840349227190018
1690841608135972600,0.78997265625,-0.0007236688397824764,0.00520933885127306,-0.00480007566511631
1690841608146012700,0.8000126953125,0.0003333399072289467,0.0039611151441931725,-0.007592134177684784
1690841608156052500,0.810052490234375,0.002898632548749447,0.006005981005728245,-0.01064627431333065
1690841608166093600,0.820093505859375,0.0001782132312655449,0.0030069954227656126,-0.008864887058734894
1690841608176133600,0.830133544921875,0.000863298075273633,-0.0007443674840033054,-0.006220756098628044
1690841608186204400,0.840204345703125,-0.00007440103217959404,-0.006866708863526583,0.0017626024782657623
1690841608196244500,0.850244384765625,-0.0021671545691788197,-0.005114198662340641,0.002777364104986191
1690841608206284500,0.860284423828125,-0.0002086656168103218,-0.002936798380687833,0.006952667608857155
1690841608216325600,0.87032568359375,-0.00028622429817914963,-0.003665971802547574,0.008208082057535648
1690841608226365400,0.880365478515625,0.0007180538959801197,0.0009506178321316838,0.006629626266658306
1690841608236405500,0.890405517578125,0.0017148745246231556,0.005661983508616686,0.0036195293068885803
1690841608246445600,0.900445556640625,0.002558031352236867,0.005896075628697872,0.0013545118272304535
1690841608256486700,0.910486572265625,0.00002584001049399376,0.006816526409238577,-0.0010832324624061584
1690841608266526500,0.9205263671875,0.0008759209886193275,0.005100651644170284,-0.0019429009407758713
1690841608276566500,0.93056640625,0.0006209490820765495,0.0006677900673821568,-0.0024738572537899017
1690841608286607600,0.940607666015625,-0.0008597681298851967,-0.0030190900433808565,-0.002711411565542221
1690841608296647400,0.9506474609375,0.0007142203394323587,-0.006235156208276749,-0.002911873161792755
1690841608306687500,0.9606875,-0.00009671226143836975,-0.004985600709915161,0.00020482391119003296
1690841608316758500,0.970758544921875,-0.000697646290063858,-0.004543214105069637,-0.0016526076942682266
1690841608326798300,0.98079833984375,-0.00041907932609319687,-0.002080589300021529,-0.00018547289073467255
1690841608336839400,0.99083935546875,0.0014338807668536901,0.0024476097896695137,-0.004006117582321167
1690841608346879500,1.00087939453125,-0.00008358852937817574,0.0027541397139430046,-0.0027288664132356644
1690841608356919600,1.01091943359375,0.00022275373339653015,0.005988873541355133,-0.004779644310474396
1690841608366959600,1.020959716796875,0.00041743088513612747,0.0053361328318715096,-0.00026745162904262543
1690841608377000400,1.03100048828125,-0.001808717381209135,0.0022855717688798904,-0.00042779557406902313
1690841608387040500,1.04104052734375,0.00020969239994883537,-0.0021589777898043394,0.002627914771437645
1690841608397080600,1.05108056640625,0.0007405593059957027,-0.004693733528256416,0.0026626475155353546
1690841608407120400,1.061120361328125,-0.0020741354674100876,-0.0038476476911455393,0.004514077678322792
1690841608417161500,1.071161376953125,-0.0002774982713162899,-0.0023794875014573336,0.0053177084773778915
1690841608427201500,1.081201416015625,-0.0008375612087547779,0.0002301438944414258,0.004577349871397018
1690841608437241600,1.09124169921875,-0.00010547041893005371,0.0007531356532126665,0.00277160108089447
1690841608447312600,1.101312744140625,-0.0006839088164269924,0.00525014940649271,-0.0011112876236438751
1690841608457352700,1.111352783203125,-0.00007360149174928665,0.0032673045061528683,-0.002900831401348114
1690841608467393500,1.1213935546875,0.00029391469433903694,0.003625233191996813,-0.0024536866694688797
1690841608477433300,1.131433349609375,0.000375211238861084,0.001873912406153977,-0.0012133847922086716
1690841608487473400,1.141473388671875,-0.00041228532791137695,-0.001386329298838973,-0.002066928893327713
1690841608497514500,1.151514404296875,-0.0007129600271582603,-0.0023964911233633757,-0.00010544247925281525
1690841608507554600,1.161554443359375,0.0007749481592327356,-0.006745699793100357,0.0009939111769199371
1690841608517594600,1.1715947265625,0.00016319053247570992,-0.002582354936748743,0.00011206977069377899
1690841608527634700,1.181634765625,-0.0001606498844921589,-0.0029882206581532955,0.002169627696275711
1690841608537675500,1.191675537109375,-0.0006747529841959476,-0.0017227851785719395,0.0020186323672533035
1690841608547715300,1.20171533203125,0.0010187511797994375,0.004272523336112499,0.0002569500356912613
1690841608557755400,1.21175537109375,-0.000024692155420780182,0.0053717344999313354,-0.00011117011308670044
1690841608567786000,1.221785888671875,-0.00028514955192804337,0.0050042178481817245,-0.0016787070780992508
1690841608577825800,1.23182568359375,0.0014458086807280779,0.006131294183433056,-0.0020654723048210144
1690841608587896800,1.241896728515625,-0.0010567638091742992,0.002010851399973035,0.000513000413775444
1690841608597937000,1.25193701171875,-0.00033425865694880486,-0.0027436313685029745,0.0004715770483016968
1690841608607977000,1.26197705078125,-0.00015023443847894669,-0.004731947556138039,0.0020433738827705383
1690841608618017000,1.27201708984375,0.00008094822987914085,-0.0030497645493596792,0.002210177481174469
1690841608628057900,1.282057861328125,-0.0021276110783219337,-0.0041299425065517426,0.0010985732078552246
1690841608638097700,1.29209765625,-0.0025951117277145386,0.000036159297451376915,0.0029400531202554703
1690841608648137700,1.3021376953125,-0.0006201113574206829,0.000423649325966835,-0.0006496217101812363
1690841608658178800,1.3121787109375,0.00017005112022161484,0.002285997848957777,-0.0016807988286018372
1690841608668219000,1.322218994140625,-0.00029706768691539764,0.004891634918749332,-0.0032715052366256714
1690841608678259000,1.332259033203125,0.0007002144120633602,0.0036108260974287987,-0.003188120201230049
1690841608688299000,1.342299072265625,0.0006131292320787907,0.002445160411298275,-0.004002513363957405
1690841608698339800,1.35233984375,-0.0008066077716648579,0.0011778564658015966,-0.00028343871235847473
1690841608708380000,1.3623798828125,-0.00034934328868985176,-0.0012078031431883574,0.0014446880668401718
1690841608718450700,1.37245068359375,0.0016208565793931484,-0.000982180004939437,0.001636827364563942
1690841608728490800,1.38249072265625,0.00025066034868359566,-0.002033063443377614,0.0028887800872325897
1690841608738530800,1.39253076171875,0.0007748755160719156,-0.0016609013546258211,0.0037749819457530975
1690841608748572000,1.402572021484375,-0.0003268742002546787,-0.0013445178046822548,0.0016489792615175247
1690841608758612000,1.412612060546875,0.00006687268614768982,-0.0001454399898648262,0.00029812566936016083
1690841608768652000,1.422652099609375,0.000735060079023242,0.0022066638339310884,-0.0007873792201280594
1690841608778692900,1.43269287109375,-0.0005099265836179256,0.0017465886194258928,-0.0013584587723016739
1690841608788732700,1.442732666015625,-0.0021941098384559155,0.0012054343242198229,-0.0016034692525863647
1690841608798772700,1.452772705078125,-0.0008577597327530384,0.0021030919160693884,-0.0002875719219446182
1690841608808812800,1.462812744140625,-0.0008281986229121685,-0.0001811012625694275,-0.0008777286857366562
1690841608818854000,1.47285400390625,0.00008688075467944145,0.0003240235382691026,0.0001528523862361908
1690841608828894000,1.48289404296875,-0.0004564044065773487,-0.0016866631340235472,0.00303812138736248
1690841608838934000,1.49293408203125,0.00008275220170617104,-0.0013396409340202808,0.0021329298615455627
1690841608848974800,1.502974853515625,0.0011565389577299356,-0.00041525764390826225,0.00023356452584266663
1690841608859044900,1.513044921875,-0.0006866902112960815,-0.0004913329612463713,-0.0017313435673713684
1690841608869085700,1.523085693359375,-0.001855284906923771,0.002907393267378211,-0.000986725091934204
1690841608879125800,1.533125732421875,-0.0020507662557065487,0.0015634710434824228,-0.0009827017784118652
1690841608889165800,1.543165771484375,-0.00020359782502055168,0.001539768883958459,-0.0013574082404375076
1690841608899206000,1.553205810546875,0.001039179740473628,0.00039702688809484243,-0.00029200315475463867
1690841608909247000,1.5632470703125,-0.0011137197725474834,-0.0005579825956374407,0.0009543560445308685
1690841608919287000,1.573287109375,0.00023392541334033012,-0.00026942440308630466,0.0008413121104240417
1690841608929326800,1.583326904296875,0.0007540406659245491,-0.00029578967951238155,0.001325475051999092
1690841608939367700,1.59336767578125,-0.00006245356053113937,0.001381155103445053,0.0017005819827318192
1690841608949407700,1.60340771484375,0.000872049480676651,-0.00016374466940760612,-0.0009095817804336548
1690841608959447800,1.61344775390625,0.0006534205749630928,0.00029569852631539106,0.00018271245062351227
1690841608969488000,1.62348779296875,-0.0009577921591699123,0.001824885606765747,-0.00008174031972885132
1690841608979529000,1.633529052734375,-0.0008545792661607265,-0.0001293665263801813,-0.0025150012224912643
1690841608989600000,1.64360009765625,-0.00019704457372426987,0.0004978079814463854,-0.0031807906925678253
1690841608999640000,1.65364013671875,-0.000022361520677804947,0.002401412231847644,-0.000040858983993530273
1690841609009680000,1.663679931640625,-0.0008117225952446461,-0.0015459251590073109,-0.00022541731595993042
1690841609019720000,1.673719970703125,0.0019928873516619205,-0.002076498232781887,0.000546598806977272
1690841609029760800,1.6837607421875,0.0017659859731793404,0.00020023831166327,0.002491505816578865
1690841609039800800,1.69380078125,-0.0007255952805280685,0.00009816908277571201,0.0020696185529232025
1690841609049841000,1.7038408203125,-0.0019783461466431618,0.0003887199563905597,0.0009241923689842224
1690841609059881000,1.713880859375,-0.0003206683322787285,-0.0002193814143538475,0.0008293967694044113
1690841609069922000,1.723922119140625,-0.0004157428629696369,0.0010906276293098927,-0.0004888679832220078
1690841609079961900,1.7339619140625,-0.0006282273679971695,0.0005697624292224646,-0.0007065851241350174
1690841609090002000,1.744001953125,-0.0009046634659171104,-0.0003556860610842705,-0.0018789097666740417
1690841609100042800,1.754042724609375,-0.00020531052723526955,0.0009398621041327715,-0.0010416638106107712
1690841609110082800,1.764082763671875,-0.0014095921069383621,-0.0010559107176959515,-0.0009119678288698196
1690841609120153900,1.77415380859375,-0.00033374736085534096,-0.0015617485623806715,0.0010325126349925995
1690841609130194000,1.78419384765625,0.0005504218861460686,-0.0033247610554099083,0.0003534071147441864
1690841609140234000,1.79423388671875,-0.001074078492820263,-0.0025726966559886932,0.0018021482974290848
1690841609150275000,1.804275146484375,-0.0008879234082996845,0.0004521216033026576,0.00033234991133213043
1690841609160315000,1.81431494140625,0.0007589245215058327,0.001708843745291233,0.0000024493783712387085
1690841609170355000,1.82435498046875,0.00010032486170530319,0.0016435962170362473,-0.00003616698086261749
1690841609180395000,1.83439501953125,-0.001358900684863329,0.0012712515890598297,-0.0005137249827384949
1690841609190435800,1.844435791015625,0.0009641747456043959,0.0007711100624874234,-0.0008487515151500702
1690841609200476000,1.854475830078125,0.000268563162535429,0.0001612554769963026,-0.0019390489906072617
1690841609210516000,1.864515869140625,-0.001051565632224083,0.00023715558927506208,0.0009827036410570145
1690841609220557000,1.87455712890625,-0.00004298100247979164,-0.0009530908428132534,-0.0008218418806791306
1690841609230596900,1.884596923828125,0.0003034966066479683,-0.0007189991883933544,0.0001664571464061737
1690841609240637000,1.894636962890625,-0.00006812391802668571,-0.001161457970738411,0.0012944415211677551
1690841609250677000,1.904677001953125,-0.00034456001594662666,-0.0015494804829359055,0.001662224531173706
1690841609260748000,1.914748046875,-0.000002759508788585663,0.0014216864947229624,0.0010618772357702255
1690841609270787800,1.924787841796875,-0.0003942442126572132,0.001908778678625822,-0.00031444430351257324
1690841609280829000,1.934828857421875,-0.0009226086549460888,0.0017725799698382616,0.0008283462375402451
1690841609290868700,1.94486865234375,0.0006459932774305344,-0.0003558183088898659,-0.0009559709578752518
1690841609300908800,1.95490869140625,0.000022966880351305008,-0.00016004731878638268,-0.0002667773514986038
1690841609310950000,1.964949951171875,-0.0003394894301891327,0.0003970859106630087,-0.0028636250644922256
1690841609320990000,1.974989990234375,-0.0004442064091563225,-0.001291271299123764,0.000825054943561554
1690841609331030000,1.985030029296875,-0.0006311605684459209,-0.0013485292438417673,0.0014967042952775955
1690841609341069800,1.99506982421875,0.0004003569483757019,-0.0010530040599405766,0.000603916123509407
1690841609351111000,2.00511083984375,0.00048504583537578583,-0.00039040972478687763,0.00006782263517379761
1690841609361151000,2.01515087890625,-0.00062162009999156,0.00014285114593803883,0.001027701422572136
1690841609371190800,2.025190673828125,0.0007336623966693878,0.002109861932694912,-0.0013225395232439041
1690841609381231900,2.03523193359375,-0.0004108608700335026,0.001912504667416215,0.00010309368371963501
1690841609391302000,2.045302001953125,-0.0005581332370638847,0.0030368913430720568,-0.000612230971455574
1690841609401343000,2.055343017578125,-0.00007044477388262749,0.001164459390565753,-0.001979084685444832
1690841609411383000,2.065383056640625,0.0001687067560851574,0.00039933319203555584,-0.0013580340892076492
1690841609421422800,2.0754228515625,0.0002902951091527939,-0.0016547369305044413,0.0004898067563772202
1690841609431464000,2.0854638671875,0.0008679346647113562,-0.001195341581478715,-0.0009720027446746826
1690841609441503700,2.095503662109375,-0.0007690996862947941,-0.002716692164540291,0.0014135763049125671
1690841609451543800,2.105543701171875,0.0009310622699558735,-0.000900948652997613,0.0003941170871257782
1690841609461584000,2.115583984375,-0.00042262813076376915,-0.0009654934983700514,0.0020912252366542816
1690841609471625000,2.125625,-0.0005312850698828697,-0.000681866891682148,0.002086430788040161
1690841609481665000,2.1356650390625,-0.0007060952484607697,-0.0004887676332145929,0.0004883315414190292
1690841609491704800,2.145704833984375,0.0006763515993952751,0.0016276463866233826,0.0009434670209884644
1690841609501746000,2.155745849609375,0.0003448980860412121,0.0015871596988290548,-0.001881266012787819
1690841609511786000,2.165785888671875,0.0006841849535703659,0.00125746033154428,0.0003475341945886612
1690841609521825800,2.17582568359375,0.0011820944491773844,0.0007070754654705524,-0.001378718763589859
1690841609531896800,2.185896728515625,-0.00039476295933127403,-0.0012141289189457893,0.00162559375166893
1690841609541937000,2.19593701171875,0.0007435143925249577,-0.0012546496000140905,-0.0001302119344472885
1690841609551977000,2.20597705078125,0.0001565534621477127,-0.00231245718896389,0.0006690025329589844
1690841609562017800,2.216017822265625,0.0021168196108192205,0.0004257580731064081,0.00039550475776195526
1690841609572064300,2.226064208984375,-0.0011181221343576908,-0.000895702512934804,0.0015411954373121262
1690841609582104300,2.236104248046875,0.0009210011921823025,0.0023855899926275015,-0.00020954757928848267
1690841609592145200,2.246145263671875,-0.0018939599394798279,0.0033797482028603554,0.0009020566940307617
1690841609602185200,2.256185302734375,0.00036828452721238136,0.0023086268920451403,-0.00030709803104400635
1690841609612225000,2.26622509765625,-0.0012969900853931904,0.0027523094322532415,-0.001028815284371376
1690841609622265000,2.27626513671875,0.0005223159678280354,0.00041358976159244776,-0.0016934927552938461
1690841609632306200,2.28630615234375,-0.000917388591915369,-0.0004580628592520952,-0.0009422153234481812
1690841609642346200,2.29634619140625,-0.0008059465326368809,-0.0012419295962899923,0.001992577686905861
1690841609652386300,2.30638623046875,-0.0003907596692442894,-0.0020315570291131735,0.0011941604316234589
1690841609662457300,2.316457275390625,0.000113670714199543,0.000893454416655004,0.0022720862179994583
1690841609672497200,2.3264970703125,-0.00038966676220297813,0.0007786721689626575,0.0007748566567897797
1690841609682538200,2.336538330078125,0.0005792402662336826,-0.0012215736787766218,0.00028201937675476074
1690841609692578000,2.346578125,0.0005084001459181309,0.0004306515911594033,-0.0011409074068069458
1690841609702618000,2.3566181640625,0.0007434813305735588,0.0003978873137384653,0.000082455575466156
1690841609712658200,2.366658203125,-0.00008609332144260406,-0.0002218303270637989,0.0008627623319625854
1690841609722699300,2.37669921875,0.0020124660804867744,0.000138845294713974,-0.0003399401903152466
1690841609732739300,2.3867392578125,0.000557048711925745,0.0006469764048233628,-0.0010009370744228363
1690841609742779100,2.396779052734375,0.00008629262447357178,-0.00041193142533302307,0.001610729843378067
1690841609752820200,2.4068203125,0.00019122101366519928,0.00046797702088952065,0.002161473035812378
1690841609762860000,2.416860107421875,0.0003187260590493679,-0.0006998043972998857,0.0008553899824619293
1690841609772900000,2.426900146484375,0.0006430991925299168,0.00005173962563276291,0.0004865434020757675
1690841609782940200,2.436940185546875,0.0005966015160083771,0.0010988262947648764,0.001392936334013939
1690841609793011200,2.44701123046875,-0.00030274782329797745,0.001689781667664647,-0.00024623796343803406
1690841609803052300,2.45705224609375,-0.0009747976437211037,-0.0012270889710634947,-0.0005392897874116898
1690841609813092400,2.46709228515625,-0.0012357872910797596,-0.0001229424960911274,0.001968609169125557
1690841609823132200,2.477132080078125,-0.0005499008111655712,-0.0012272968888282776,-0.0005349591374397278
1690841609833172000,2.487171875,-0.00030409079045057297,0.000039302511140704155,0.0008261818438768387
1690841609843213000,2.497213134765625,-0.00041622016578912735,-0.0002766558900475502,0.00004896335303783417
1690841609853253000,2.507253173828125,0.0021087229251861572,0.00104427186306566,0.0004678778350353241
1690841609863293200,2.517293212890625,-0.0001750555820763111,-0.0006969885434955359,0.0032325536012649536
1690841609873334300,2.527334228515625,0.0001937919296324253,-0.0001308005303144455,-0.0002348814159631729
1690841609883374300,2.537374267578125,0.001956087304279208,0.0004639530088752508,0.0006997734308242798
1690841609893414100,2.5474140625,-0.00043569784611463547,0.0002066916786134243,0.0006092265248298645
1690841609903454000,2.557453857421875,0.0007531256414949894,0.0006952077383175492,0.0009232126176357269
1690841609913495000,2.5674951171875,0.0010253007058054209,-0.00038070930168032646,-0.002044614404439926
1690841609923535000,2.57753515625,0.0007986654527485371,0.0012006094912067056,0.00005920231342315674
1690841609933606100,2.587606201171875,-0.0003046821802854538,0.00042030331678688526,0.0006365757435560226
1690841609943646200,2.597646240234375,0.0001787133514881134,0.001499186153523624,0.0008076708763837814
1690841609953686300,2.607686279296875,0.0004809820093214512,0.0013287437614053488,-0.0004746410995721817
1690841609963727400,2.617727294921875,0.0013231129851192236,-0.0012627234682440758,0.002064494416117668
1690841609973767200,2.62776708984375,-0.00012671202421188354,0.0007527568377554417,0.001101762056350708
1690841609983807000,2.637806884765625,-0.0005623381584882736,-0.0008770462591201067,-0.0011211074888706207
1690841609993847000,2.647846923828125,0.0004725661128759384,-0.0005838321521878242,0.0006333831697702408
1690841610003888000,2.65788818359375,-0.0006295484490692616,-0.000517180422320962,0.0012018699198961258
1690841610013928200,2.66792822265625,-0.0005246195942163467,-0.0010578022338449955,-0.0007182694971561432
1690841610023968300,2.67796826171875,-0.0003399285487830639,0.0001874219160526991,0.001517193391919136
1690841610034009300,2.68800927734375,-0.0008864090777933598,0.0005307033425197005,0.000409051775932312
1690841610044049200,2.698049072265625,0.00013634469360113144,-0.0003735022619366646,0.00040728598833084106
1690841610054089000,2.7080888671875,-0.0008700639009475708,-0.0009878934361040592,0.0011521726846694946
1690841610064160000,2.718159912109375,-0.0007733763195574284,-0.00021048099733889103,0.00019624456763267517
1690841610074200000,2.728199951171875,0.0011089458130300045,0.00016422581393271685,0.0007592365145683289
1690841610084241200,2.7382412109375,-0.00033620139583945274,0.0005226514767855406,-0.00044179894030094147
1690841610094281200,2.74828125,0.00007658824324607849,-0.002512287115678191,0.000029314309358596802
1690841610104321300,2.7583212890625,0.0005318718031048775,0.0007128495490178466,-0.0006995461881160736
1690841610114361300,2.768361328125,0.0016650466714054346,-0.0012581560295075178,0.0016134101897478104
1690841610124402200,2.778402099609375,-0.0005548899061977863,-0.0006039089057594538,0.0008716154843568802
1690841610134442000,2.78844189453125,0.0011932088527828455,-0.00021721795201301575,0.0004737395793199539
1690841610144482000,2.79848193359375,-0.0006970460526645184,0.00006208335980772972,0.000004103407263755798
1690841610154522000,2.808522216796875,0.0011847433634102345,-0.00004018191248178482,-0.00099138543009758
1690841610164563200,2.818563232421875,-0.00043172575533390045,-0.002080050529912114,-0.00023719854652881622
1690841610174603300,2.828603271484375,-0.0007124231196939945,-0.0017809777054935694,0.0003524255007505417
1690841610184643300,2.838643310546875,0.0010449138935655355,0.0022134932223707438,-0.0007766038179397583
1690841610194714000,2.848714111328125,0.00007206108421087265,0.0008171978406608105,0.0013925395905971527
1690841610204754200,2.858754150390625,-0.0008589415811002254,-0.0003230567090213299,0.00037773512303829193
1690841610214795000,2.868794921875,0.0006755716167390347,0.0018226520624011755,-0.000692855566740036
1690841610224835000,2.8788349609375,-0.0005309521220624447,0.0012882188893854618,0.0016329903155565262
1690841610234875100,2.888875244140625,-0.0009626508690416813,0.0005209621740505099,-0.0018203295767307281
1690841610244916200,2.898916259765625,-0.00023876642808318138,0.0005142714362591505,-0.0010518450289964676
1690841610254956300,2.908956298828125,0.0010360886808484793,0.0010178751545026898,0.000813433900475502
1690841610264996000,2.91899609375,-0.000870168674737215,-0.0027740681543946266,0.0004588421434164047
1690841610275036200,2.9290361328125,0.00041667046025395393,0.00040414847899228334,0.002321455627679825
1690841610285077000,2.939076904296875,0.0006059110164642334,-0.00046505266800522804,0.000035703182220458984
1690841610295117000,2.949116943359375,0.0006344071589410305,0.001165867201052606,0.0005907062441110611
1690841610305157000,2.9591572265625,0.00009593460708856583,0.0005714005092158914,-0.0011901315301656723
1690841610315198200,2.9691982421875,-0.0008193938992917538,-0.0007465977687388659,0.00023386068642139435
1690841610325238300,2.97923828125,0.0004321858286857605,-0.000058232806622982025,0.0011230818927288055
1690841610335309300,2.989309326171875,0.0009235390461981297,0.0004826552467420697,0.0007481090724468231
1690841610345349000,2.99934912109375,-0.001062649767845869,-0.00023979181423783302,-0.00034743547439575195
1690841610355389200,3.00938916015625,-0.0008517270907759666,-0.00013619475066661835,-0.0005756691098213196
1690841610365429200,3.01942919921875,0.00026290351524949074,-0.0006071627140045166,-0.0007432568818330765
1690841610375470000,3.029469970703125,0.0009737012442201376,-0.0007898553740233183,-0.0009975899010896683
1690841610385510100,3.03951025390625,0.00011224066838622093,0.0002546070609241724,0.00031851232051849365
1690841610395550200,3.04955029296875,-0.0003319745883345604,0.00038030825089663267,0.00045726262032985687
1690841610405591300,3.05959130859375,-0.0015139761380851269,-0.0006700169760733843,-0.0010827966034412384
1690841610415631000,3.069631103515625,-0.0005634939298033714,-0.00005535944364964962,0.000856516882777214
1690841610425671200,3.079671142578125,0.0008310962002724409,0.0002279832260683179,0.001430276781320572
1690841610435711200,3.089711181640625,0.0016425612848252058,-0.0008841529488563538,0.0009599626064300537
1690841610445752000,3.099751953125,-0.000421884935349226,-0.0018326465506106615,-0.00005999766290187836
1690841610455792000,3.109792236328125,0.0010061021894216537,0.0006496858550235629,0.00010511837899684906
1690841610465863200,3.11986328125,0.00023367349058389664,0.0010837536538019776,0.0008990354835987091
1690841610475903200,3.1299033203125,0.0009175732266157866,0.00021849258337169886,0.001243116334080696
1690841610485943000,3.139943115234375,0.0015491889789700508,0.00010329810902476311,0.0003798212856054306
1690841610495984000,3.149984130859375,0.0008168194908648729,0.0012444626772776246,0.0002972632646560669
1690841610506024200,3.160024169921875,-0.0020577632822096348,0.00023775722365826368,-0.0009844675660133362
1690841610516064300,3.170064208984375,0.0005473410710692406,0.0009035475086420774,0.0007361993193626404
1690841610526105000,3.18010498046875,-0.000582459382712841,0.0023607087787240744,0.0006981547921895981
1690841610536145200,3.190145263671875,0.0020399552304297686,-0.00021217111498117447,-0.001015854999423027
1690841610546185200,3.200185302734375,0.00004470720887184143,0.0008009126177057624,-0.00019755959510803223
1690841610556225000,3.21022509765625,-0.000832271296530962,0.00006321701221168041,0.0010400116443634033
1690841610566263600,3.220263671875,0.0015168150421231985,0.0006142799975350499,0.001225372776389122
1690841610576303400,3.230303466796875,0.00011332891881465912,-0.000009165843948721886,0.0026395097374916077
1690841610586343400,3.240343505859375,-0.00004007760435342789,0.001281180651858449,0.0005939565598964691
1690841610596384500,3.250384521484375,0.00006831344217061996,-0.00026078964583575726,0.0007079392671585083
1690841610606454500,3.26045458984375,-0.000939453486353159,0.0008251543622463942,-0.0002516303211450577
1690841610616495600,3.27049560546875,-0.0008443784900009632,-0.00006114575080573559,0.0003020409494638443
1690841610626535700,3.28053564453125,-0.001893431879580021,-0.00045838020741939545,0.0003555659204721451
1690841610636575500,3.290575439453125,-0.000004451721906661987,-0.00017821555957198143,-0.0001839902251958847
1690841610646615600,3.300615478515625,-0.0004503801465034485,-0.0007881720084697008,0.001040823757648468
1690841610656656400,3.310656494140625,-0.00043866224586963654,0.002013739664107561,0.0006370898336172104
1690841610666696400,3.320696533203125,0.00046537816524505615,-0.0005198507569730282,0.0004141908138990402
1690841610676736500,3.330736572265625,0.0009378227405250072,-0.0013923023361712694,0.0005590673536062241
1690841610686777600,3.340777587890625,-0.00013432279229164124,-0.001637097680941224,0.0001255292445421219
1690841610696817700,3.350817626953125,-0.00010955566540360451,-0.0016117976047098637,-0.00038606487214565277
1690841610706857500,3.360857421875,-0.0003562215715646744,0.0010484947124496102,0.0007425229996442795
1690841610716897500,3.3708974609375,0.0007798830047249794,0.00037631287705153227,-0.0002718735486268997
1690841610726938400,3.3809384765625,-0.0006666029803454876,0.0002451325999572873,0.0003412514925003052
1690841610737009400,3.391009521484375,0.0005856151692569256,-0.0023005830589681864,-0.0011368021368980408
1690841610747049500,3.401049560546875,-0.0008634845726191998,-0.0014107124879956245,0.0006225872784852982
1690841610757089500,3.411089599609375,0.00037568388506770134,-0.001667441101744771,-0.0005574598908424377
1690841610767129600,3.421129638671875,0.0012040836736559868,0.00012064771726727486,-0.00127447210252285
1690841610777170700,3.431170654296875,-0.0000665104016661644,0.0017015000339597464,0.0006616450846195221
1690841610787210500,3.44121044921875,0.00040177349001169205,0.003269484732300043,0.0013093221932649612
1690841610797250600,3.45125048828125,0.0015956687275320292,0.0011743759969249368,-0.0009173471480607986
1690841610807290600,3.46129052734375,-0.0011037853546440601,-0.00004542665556073189,0.0005154814571142197
1690841610817331500,3.47133154296875,-0.000594056211411953,0.0019700536504387856,0.0000331830233335495
1690841610827371500,3.48137158203125,-0.0004723980091512203,0.000022302381694316864,-0.0009294748306274414
1690841610837411600,3.49141162109375,0.00039792293682694435,0.0019813235849142075,-0.00033106282353401184
1690841610847452700,3.50145263671875,-0.00047534331679344177,-0.00008500250987708569,0.0001498740166425705
1690841610857492500,3.511492431640625,0.0004509040154516697,0.000017529353499412537,0.0006564073264598846
1690841610867563500,3.5215634765625,-0.0006605358794331551,-0.00027588196098804474,-0.0011125188320875168
1690841610877603600,3.531603515625,-0.0010339110158383846,-0.00021169986575841904,-0.0020808447152376175
1690841610887643600,3.5416435546875,0.0005552484653890133,-0.00000934302806854248,0.001629553735256195
1690841610897684500,3.5516845703125,-0.00000721123069524765,0.001187747810035944,-0.0008594375103712082
1690841610907724500,3.561724609375,0.0003997902385890484,0.00015944510232657194,0.0008066017180681229
1690841610917764600,3.5717646484375,0.0003012530505657196,-0.00021845754235982895,-0.0013130083680152893
1690841610927804400,3.581804443359375,-0.0007350449450314045,0.0021234105806797743,-0.0007150843739509583
1690841610937845500,3.591845458984375,-0.0003092056140303612,-0.0012167261447757483,0.0006005186587572098
1690841610947885600,3.601885498046875,0.0003115115687251091,-0.0005481482949107885,0.00019177980720996857
1690841610957925600,3.611925537109375,-0.000019253231585025787,-0.00023043318651616573,0.000023202970623970032
1690841610967966500,3.621966552734375,-0.0005724448710680008,-0.001177833415567875,0.0008009746670722961
1690841610978006500,3.632006591796875,0.00020972546190023422,-0.0015131253749132156,-0.00008692406117916107
1690841610988046600,3.642046630859375,-0.0004511866718530655,0.0011633968679234385,0.0008324515074491501
1690841610998086400,3.65208642578125,-0.00026662927120923996,-0.0006755159702152014,0.0006031524389982224
1690841611008157400,3.662157470703125,-0.00028316862881183624,-0.00026671867817640305,-0.0010641682893037796
1690841611018197500,3.672197509765625,0.0010912891011685133,0.0005902864504605532,-0.0005469825118780136
1690841611028238600,3.682238525390625,-0.001579319592565298,0.0005133141530677676,0.00010931305587291718
1690841611038278700,3.692278564453125,0.0008068729657679796,-0.0001452856231480837,0.0019096098840236664
1690841611048318700,3.702318603515625,0.00020653381943702698,-0.001544013386592269,-0.0004113428294658661
1690841611058359600,3.712359619140625,-0.0017844452522695065,-0.0000233484897762537,-0.00021240487694740295
1690841611068399400,3.7223994140625,0.000846595736220479,-0.0005538598634302616,0.00014659203588962555
1690841611078439400,3.732439453125,-0.0001885751262307167,0.0013002329505980015,-0.00010986998677253723
1690841611088479500,3.7424794921875,-0.00021678023040294647,-0.0008228977676481009,-0.001778462901711464
1690841611098520600,3.7525205078125,0.00005219923332333565,-0.0002657645381987095,0.0007150545716285706
1690841611108560600,3.762560546875,-0.0015154294669628143,-0.0007700156420469284,-0.0008688624948263168
1690841611118600700,3.7726005859375,0.0013059235643595457,-0.00002512941136956215,0.000023031607270240784
1690841611128641500,3.7826416015625,0.00039935018867254257,0.0005792650626972318,0.0019207950681447983
1690841611138711600,3.792711669921875,-0.00009919330477714539,-0.0005701552145183086,-0.0005295798182487488
1690841611148752400,3.80275244140625,0.0001398078165948391,-3.082677721977234e-7,-0.000229567289352417
1690841611158792400,3.81279248046875,0.00022316491231322289,-0.0005377342458814383,0.0016828477382659912
1690841611168832500,3.82283251953125,-0.000027437694370746613,0.00021289451979100704,0.000606166198849678
1690841611178873600,3.83287353515625,0.000030086375772953033,0.000033131102100014687,0.0018637105822563171
1690841611188913700,3.84291357421875,-0.0011589028872549534,-0.000884293345734477,0.001001080498099327
1690841611198953700,3.85295361328125,-0.0006371894851326942,0.0004073396557942033,0.001960352063179016
1690841611208993500,3.86299365234375,0.00008384231477975845,-0.000671010697260499,0.0008850712329149246
1690841611219034400,3.873034423828125,0.0004548206925392151,-0.0010680879931896925,-0.0006150882691144943
1690841611229074400,3.883074462890625,-0.0010434649884700775,-0.0001089985016733408,0.00011895410716533661
1690841611239114500,3.893114501953125,-0.000021609943360090256,-0.0008219266310334206,-0.0018653664737939835
1690841611249155600,3.903155517578125,0.001677818363532424,0.000030863797292113304,-0.0010122768580913544
1690841611259195600,3.913195556640625,-0.0005693570710718632,0.0005499138496816158,0.0006545949727296829
1690841611269266700,3.9232666015625,-0.0004907352849841118,0.0004336977144703269,-0.0002223663032054901
1690841611279306800,3.933306640625,-0.0004827459342777729,-0.00011065253056585789,0.0015078894793987274
1690841611289346600,3.9433466796875,-0.00023853685706853867,-0.0004212146159261465,-0.0009195078164339066
1690841611299386600,3.95338671875,-0.0020819767378270626,-0.0004627599846571684,-0.0009895488619804382
1690841611309427500,3.963427490234375,-0.0007284432649612427,0.0004063360393047333,0.0005963928997516632
1690841611319467500,3.973467529296875,-0.0009827753528952599,-0.0013518829364329576,0.0001308731734752655
1690841611329507600,3.983507568359375,-0.0010188263840973377,-0.0005392197053879499,0.0005513764917850494
1690841611339548700,3.993548583984375,0.0009106339421123266,0.0022320658899843693,-0.0015754234045743942
1690841611349588700,4.003588623046875,0.00070930365473032,0.00008706748485565186,0.0014048591256141663
1690841611359628500,4.013628662109375,0.0009340743999928236,-0.00006739585660398006,-0.0011126268655061722
1690841611369668600,4.023668701171875,0.000180867500603199,0.0021294269245117903,-0.0007635168731212616
1690841611379709400,4.03370947265625,0.0002501094713807106,-0.001229617977514863,0.000401083379983902
1690841611389749500,4.04374951171875,0.00013241171836853027,-0.0017013009637594223,0.00011769309639930725
1690841611399789600,4.05378955078125,0.001842427533119917,-0.0007750533986836672,-0.0009374506771564484
1690841611409860600,4.063860595703125,0.0008943194989115,0.0002162867458537221,-0.0009217187762260437
1690841611419900700,4.073900634765625,-0.0007685585878789425,-0.0010899936314672232,0.00012330710887908936
1690841611429941800,4.083941650390625,-0.0008859597146511078,-0.0011719632893800735,0.00002605840563774109
1690841611439981600,4.093981689453125,-0.0006167138926684856,-0.0007948598358780146,-0.000054368749260902405
1690841611450021600,4.104021728515625,0.0008703379426151514,0.0019779761787503958,0.002362700179219246
1690841611460061400,4.1140615234375,-0.0008476674556732178,0.00020138139370828867,-0.00034813210368156433
1690841611470102500,4.1241025390625,-0.0011717360466718674,-0.00035203457809984684,-0.00028041377663612366
1690841611480142600,4.134142578125,-0.04011434316635132,-0.1894756257534027,0.3075506389141083
1690841611490182700,4.1441826171875,0.06844626367092133,0.15801988542079926,-0.07291237264871597
1690841611500223700,4.1542236328125,-0.00005077151581645012,-0.08291683346033096,-0.061553992331027985
1690841611510263600,4.164263671875,0.0022835254203528166,-0.02854510024189949,-0.04671386629343033
1690841611520303400,4.174303466796875,-0.003301655873656273,0.05237185209989548,-0.04216784983873367
1690841611530343400,4.184343505859375,-0.013600119389593601,-0.006477139424532652,-0.03805655241012573
1690841611540414500,4.19441455078125,-0.018823910504579544,-0.023479025810956955,-0.04778161644935608
1690841611550455600,4.20445556640625,-0.019588880240917206,0.006787477061152458,-0.04893958568572998
1690841611560495600,4.21449560546875,-0.008592154830694199,-0.0910610556602478,-0.018076477572321892
1690841611570523400,4.2245234375,-0.0016392013058066368,-0.0414203479886055,-0.02323000878095627
1690841611580563500,4.2345634765625,0.003609888954088092,-0.023233886808156967,-0.005324779078364372
1690841611590604500,4.2446044921875,0.01134895533323288,-0.004516898654401302,0.012104742228984833
1690841611600644600,4.25464453125,0.014445945620536804,0.009721159003674984,0.026363572105765343
1690841611610684700,4.2646845703125,0.013772550970315933,0.027664031833410263,0.03681086376309395
1690841611620725500,4.2747255859375,0.01020258478820324,0.04170794412493706,0.04513856768608093
1690841611630765300,4.284765380859375,0.0042807795107364655,0.047834545373916626,0.04951201006770134
1690841611640805400,4.294805419921875,-0.0007840204052627087,0.05032699927687645,0.04952985420823097
1690841611650845400,4.304845458984375,-0.004972461145371199,0.042840585112571716,0.04872182011604309
1690841611660886500,4.314886474609375,-0.007206054870039225,0.030189773067831993,0.041164569556713104
1690841611670926600,4.324926513671875,-0.006046572234481573,0.01284789852797985,0.0302948746830225
1690841611680997600,4.33499755859375,-0.004120041150599718,-0.004656526725739241,0.018496006727218628
1690841611691037700,4.34503759765625,-0.00019339611753821373,-0.019410734996199608,0.005161362700164318
1690841611701077500,4.355077392578125,0.005225604400038719,-0.029489202424883842,-0.011373938992619514
1690841611711118300,4.365118408203125,0.005285461898893118,-0.031598616391420364,-0.02352750673890114
1690841611721158400,4.375158447265625,0.003227637615054846,-0.028669141232967377,-0.03429919481277466
1690841611731198500,4.385198486328125,0.0018364654388278723,-0.021019816398620605,-0.04173823446035385
1690841611741238500,4.395238525390625,-0.0019316412508487701,-0.014131017029285431,-0.045254409313201904
1690841611751279600,4.405279541015625,-0.00464335223659873,-0.007790002040565014,-0.04360304772853851
1690841611761319700,4.415319580078125,-0.004255862440913916,0.00019415467977523804,-0.038021333515644073
1690841611771359500,4.425359375,-0.004128853790462017,0.0036287582479417324,-0.0275727529078722
1690841611781400300,4.435400390625,-0.002167169004678726,0.007321763783693314,-0.01806100644171238
1690841611791440400,4.4454404296875,0.0005882666446268559,0.00867078173905611,-0.0019942298531532288
1690841611801480400,4.45548046875,0.003424000460654497,0.005417997017502785,0.010407844558358192
1690841611811551500,4.465551513671875,0.003471630858257413,0.004658341407775879,0.022395364940166473
1690841611821591600,4.475591552734375,0.003079613670706749,0.0045784469693899155,0.029632505029439926
1690841611831632600,4.485632568359375,-0.000253225676715374,0.001836781040765345,0.03772091120481491
1690841611841672700,4.495672607421875,0.0008048480376601219,0.002678339835256338,0.03547826409339905
1690841611851712500,4.50571240234375,-0.0016508223488926888,0.005822816863656044,0.03344037011265755
1690841611861752600,4.515752685546875,-0.0033658980391919613,0.005755971651524305,0.024479897692799568
1690841611871793400,4.52579345703125,-0.002579950261861086,0.00689089996740222,0.017696944996714592
1690841611881833500,4.53583349609375,-0.0024350741878151894,0.006436032243072987,0.006849356926977634
1690841611891873500,4.54587353515625,0.00016844691708683968,0.006177212577313185,-0.005159521475434303
1690841611901914600,4.55591455078125,0.00031998101621866226,0.004146818071603775,-0.014353819191455841
1690841611911954700,4.56595458984375,0.0009858694393187761,0.00012173980940133333,-0.020461080595850945
1690841611921994500,4.575994384765625,0.0011017171200364828,-0.004684200510382652,-0.023345282301306725
1690841611932034600,4.58603466796875,-0.0010432335548102856,-0.012033846229314804,-0.024557985365390778
1690841611942105600,4.596105712890625,0.0004143146798014641,-0.009997859597206116,-0.021648481488227844
1690841611952145700,4.606145751953125,-0.0014486480504274368,-0.013051951304078102,-0.01824129931628704
1690841611962186500,4.6161865234375,-0.0019711600616574287,-0.012909471988677979,-0.01480475626885891
1690841611972226600,4.6262265625,-0.00012603355571627617,-0.009724060073494911,-0.009471489116549492
1690841611982266400,4.636266357421875,-0.0019036931917071342,-0.007187399081885815,-0.0016633663326501846
1690841611992307700,4.6463076171875,-0.0000809929333627224,-0.0011693607084453106,0.003122011199593544
1690841612002347500,4.656347412109375,0.0002407170832157135,0.0017340175108984113,0.005666128359735012
1690841612012387600,4.6663876953125,-0.00020826933905482292,0.006152006797492504,0.01048731803894043
1690841612022427600,4.676427734375,0.00042263371869921684,0.009264176711440086,0.013117455877363682
1690841612032468500,4.686468505859375,0.0017693783156573772,0.012736896052956581,0.014853458851575851
1690841612042508500,4.696508544921875,0.0002670893445611,0.01174140628427267,0.015426306053996086
1690841612052548600,4.706548583984375,-0.0011396324262022972,0.008042952977120876,0.014324387535452843
1690841612062589700,4.716589599609375,0.00009900378063321114,0.0060775401070714,0.009781568311154842
1690841612072629500,4.72662939453125,-0.0014952444471418858,0.0030397027730941772,0.006121781654655933
1690841612082700500,4.736700439453125,-0.001662757247686386,-0.0007473120931535959,0.0018599238246679306
1690841612092740600,4.74674072265625,-0.0010667722672224045,-0.006165081635117531,-0.003952182829380035
1690841612102780700,4.75678076171875,-0.0002616983838379383,-0.005564272403717041,-0.006400693207979202
1690841612112820700,4.76682080078125,-0.0001341286115348339,-0.006720599252730608,-0.008969342336058617
1690841612122861600,4.776861572265625,-0.00017594033852219582,-0.007548309396952391,-0.013032793998718262
1690841612132901400,4.7869013671875,-0.0005850661545991898,-0.006684842519462109,-0.013017309829592705
1690841612142941400,4.79694140625,-0.00020556524395942688,-0.004244587384164333,-0.011821551248431206
1690841612152982500,4.806982421875,-0.0006721918471157551,-0.002211916958913207,-0.00925229862332344
1690841612163022600,4.817022705078125,-0.000680447556078434,0.0002978462725877762,-0.007657064124941826
1690841612173062700,4.827062744140625,-0.00015340792015194893,0.0016552594024688005,-0.005000561475753784
1690841612183102700,4.837102783203125,0.0004213019274175167,0.003016667440533638,-0.001232454553246498
1690841612193143600,4.8471435546875,-0.00008959602564573288,0.005076573230326176,0.0026002340018749237
1690841612203183600,4.85718359375,0.00048271752893924713,0.0042954678647220135,0.006352095864713192
1690841612213254400,4.86725439453125,0.0006078020669519901,0.001955913146957755,0.009171065874397755
1690841612223294500,4.87729443359375,0.0006860988214612007,0.002633687574416399,0.010519424453377724
1690841612233334500,4.88733447265625,0.0017993263900279999,0.00321006216108799,0.0076897963881492615
1690841612243375600,4.897375732421875,0.00013431813567876816,0.000047558220103383064,0.009495685808360577
1690841612253415700,4.907415771484375,-0.00028314441442489624,0.0009283600375056267,0.006012775935232639
1690841612263455700,4.917455810546875,-0.00003973161801695824,0.0010521970689296722,0.005020482465624809
1690841612273496600,4.92749658203125,-0.0008689486421644688,0.0015901722945272923,0.0009983181953430176
1690841612283536400,4.937536376953125,-0.0007491065189242363,0.0013864404754713178,-0.0019599217921495438
1690841612293576400,4.947576416015625,0.0010095539037138224,0.0008902768604457378,-0.00418420135974884
1690841612303616500,4.957616455078125,-0.0008333534933626652,0.0002423296682536602,-0.005228694528341293
1690841612313657600,4.96765771484375,0.0008109337650239468,0.0010558217763900757,-0.007255520671606064
1690841612323697700,4.97769775390625,0.00021278765052556992,-0.0008989383932203054,-0.007848607376217842
1690841612333737700,4.98773779296875,0.0007174052298069,-0.0024075154215097427,-0.006015924736857414
1690841612343808800,4.997808837890625,-0.00015504658222198486,-0.0043159369379282,-0.005246004089713097
1690841612353848600,5.0078486328125,-0.0006357869133353233,-0.0011966952588409185,-0.002630682662129402
1690841612363889400,5.017889404296875,0.00024065934121608734,-0.0023146902676671743,-0.0012655463069677353
1690841612373929500,5.027929443359375,-0.0015225857496261597,-0.0013054460287094116,0.0009385161101818085
1690841612383969500,5.037969482421875,-0.0021047526970505714,-0.0004516367334872484,0.0029340218752622604
1690841612394009600,5.048009521484375,0.0003402354195713997,0.0011450729798525572,0.004305915907025337
1690841612404050700,5.05805078125,-0.0008547245524823666,0.0019237813539803028,0.003512561321258545
1690841612414090800,5.0680908203125,0.00023708678781986237,0.0029610826168209314,0.004249723628163338
1690841612424130600,5.078130615234375,0.0003382870927453041,0.002758149756118655,0.0037250816822052
1690841612434171400,5.08817138671875,0.0026815677992999554,0.002749457722529769,0.0037548765540122986
1690841612444211500,5.09821142578125,0.000340915285050869,0.0008442322723567486,0.002968978136777878
1690841612454251500,5.10825146484375,0.00007613049820065498,0.0018434389494359493,0.0025394894182682037
1690841612464291600,5.11829150390625,-0.0017390800639986992,-0.0018799265380948782,0.0000033602118492126465
1690841612474332700,5.128332763671875,-0.00179972592741251,-0.002354971133172512,-0.0012477468699216843
1690841612484403700,5.13840380859375,-0.0009989133104681969,-0.001642043236643076,-0.0018775835633277893
1690841612494443800,5.14844384765625,-0.0007156678475439548,-0.0017601116560399532,-0.003786839544773102
1690841612504483600,5.158483642578125,0.0009381554555147886,-0.00017846026457846165,-0.00287417508661747
1690841612514523400,5.1685234375,0.000756238354369998,-0.0027922687586396933,-0.003995615988969803
1690841612524564500,5.178564453125,0.0006784740835428238,-0.0018021056894212961,-0.0039170533418655396
1690841612534604500,5.1886044921875,0.0003635562025010586,0.0003697087522596121,-0.002343636006116867
1690841612544644600,5.19864453125,-0.00028412463143467903,0.0031255478970706463,-0.0026299264281988144
1690841612554685700,5.208685791015625,0.0007702435832470655,0.002029605209827423,-0.0015099253505468369
1690841612564725800,5.218725830078125,-0.0003884979523718357,0.0003930928651243448,-0.00030324794352054596
1690841612574748200,5.228748046875,-0.001109500415623188,-0.0003907980863004923,0.00021963007748126984
1690841612584788200,5.238788330078125,-0.0006261365488171577,0.0021647713147103786,0.0023943670094013214
1690841612594829300,5.248829345703125,-0.00008042482659220695,0.0025674887001514435,0.00396147184073925
1690841612604869400,5.258869384765625,0.0015702021773904562,0.002317950362339616,0.004275459796190262
1690841612614940200,5.268940185546875,-0.000856427475810051,0.00017485732678323984,0.0044527240097522736
1690841612624980200,5.278980224609375,0.00046450039371848106,0.0010957785416394472,0.0025826524943113327
1690841612635020300,5.289020263671875,0.0008015397470444441,-0.0003447744529694319,0.001798488199710846
1690841612645061400,5.299061279296875,-0.0007545454427599907,-0.0009477140847593546,-0.0007197968661785126
1690841612655101200,5.30910107421875,-0.0007015909068286419,0.0014489968307316303,-0.0002532936632633209
1690841612665141200,5.319141357421875,-0.00003340374678373337,-0.001669298391789198,-0.0031694546341896057
1690841612675181000,5.32918115234375,0.001703927293419838,0.0009270566515624523,-0.0028436370193958282
1690841612685222100,5.33922216796875,-0.0007075648754835129,-0.0006940094754099846,-0.004397058859467506
1690841612695262200,5.34926220703125,-0.0000554574653506279,-0.0016973542515188456,-0.0029651671648025513
1690841612705302300,5.35930224609375,0.000034557655453681946,0.00022544816602021456,-0.000918261706829071
1690841612715343400,5.36934326171875,-0.00037059560418128967,0.0006604460068047047,-0.0019466131925582886
1690841612725383200,5.379383056640625,-0.0002539493143558502,-0.00041094375774264336,-0.0012086518108844757
1690841612735423200,5.38942333984375,0.0007922686636447906,-0.00013238820247352123,0.00028732791543006897
1690841612745463300,5.39946337890625,-0.0011174841783940792,-0.0012197569012641907,0.0009126383811235428
1690841612755534000,5.4095341796875,0.00023192446678876877,-0.00004420964978635311,0.0006350632756948471
1690841612765574100,5.41957421875,-0.000629874411970377,0.00019946962129324675,0.0018185712397098541
1690841612775615200,5.429615234375,-0.0006138463504612446,-0.0008004014380276203,0.0013720560818910599
1690841612785655300,5.4396552734375,-0.0007166443392634392,0.0016462445491924882,0.0003094542771577835
1690841612795695400,5.4496953125,0.0003023943863809109,0.000681027420796454,0.003707136958837509
1690841612805736200,5.459736083984375,0.0006017335690557957,0.001433903002180159,0.001563291996717453
1690841612815776300,5.4697763671875,0.0006183567456901073,-0.000615045428276062,0.0016389042139053345
1690841612825816000,5.479816162109375,-0.0006796680390834808,0.00036712829023599625,-0.00001039169728755951
1690841612835856100,5.489856201171875,-0.0010974234901368618,-0.00025572325102984905,-0.0004646778106689453
1690841612845897200,5.499897216796875,0.0007678545080125332,0.0005040764808654785,-0.0008516348898410797
1690841612855937300,5.509937255859375,-0.0013611558824777603,-0.0006220096256583929,-0.000601818785071373
1690841612865977300,5.519977294921875,-0.0005912361666560173,-0.0014579759445041418,-0.0012881141155958176
1690841612876018200,5.53001806640625,0.00025915447622537613,-0.0028842627070844173,-0.0006829909980297089
1690841612886088400,5.54008837890625,-0.00041995150968432426,-0.0020903744734823704,-0.0015879329293966293
1690841612896129300,5.55012939453125,-0.0006419885903596878,-0.0013646900188177824,-0.000820668414235115
1690841612906169000,5.560169189453125,-0.0006055030971765518,-0.0029199759010225534,0.0007782932370901108
1690841612916209200,5.570209228515625,0.0004659239202737808,0.00037594931200146675,0.0005767624825239182
1690841612926250200,5.580250244140625,-0.0010353000834584236,0.002045751316472888,-0.00020194612443447113
1690841612936290300,5.590290283203125,-0.000482343602925539,0.0004568768199533224,-0.000036755576729774475
1690841612946330400,5.600330322265625,0.00017625605687499046,0.0005231895484030247,0.0002500656992197037
1690841612956370400,5.610370361328125,0.0004959171637892723,0.0033346605487167835,0.0015460345894098282
1690841612966411300,5.620411376953125,-0.0011381986550986767,0.0002174304099753499,0.002936204895377159
1690841612976451000,5.630451171875,-0.000448059756308794,0.00003937329165637493,0.0012329984456300735
1690841612986491100,5.6404912109375,0.00040974467992782593,-0.0009595784358680248,-0.00010630488395690918
1690841612996532200,5.6505322265625,-0.0009285737760365009,0.00008362205699086189,0.00046355463564395905
1690841613006572300,5.660572265625,-0.0011014128103852272,-0.0011377036571502686,0.00023878365755081177
1690841613016643300,5.670643310546875,-0.0005574761889874935,0.0006665476830676198,-0.00011828914284706116
1690841613026683400,5.680683349609375,-0.0009340471588075161,0.0003094178391620517,0.0008036978542804718
1690841613036723200,5.69072314453125,-0.0000851089134812355,-0.0007875147275626659,0.00042706169188022614
1690841613046763300,5.70076318359375,-0.00029842788353562355,0.0011856213677674532,-0.0005396660417318344
1690841613056804000,5.71080419921875,-0.00039647240191698074,-0.00021807756274938583,-0.00116032175719738
1690841613066844200,5.72084423828125,-0.0002249646931886673,0.001236807438544929,-0.0019672606140375137
1690841613076884200,5.73088427734375,0.00028868112713098526,0.001915236352942884,-0.00036097317934036255
1690841613086925300,5.74092529296875,-0.00036192918196320534,0.00015009322669357061,-0.000968441367149353
1690841613096965400,5.75096533203125,-0.0009565418586134911,0.0008327981922775507,-0.0006388016045093536
1690841613107005400,5.76100537109375,-0.0005629267543554306,0.00023891334421932697,0.0016147643327713013
1690841613117045200,5.771045166015625,-0.000984561163932085,-0.0007301094010472298,0.0018327757716178894
1690841613127086000,5.781086181640625,0.00016299495473504066,-0.0011381057556718588,0.0007933434098958969
1690841613137126100,5.791126220703125,-0.00023924699053168297,-0.0012269038707017899,0.0016236137598752975
1690841613147166200,5.801166259765625,0.0015402771532535553,0.0007523575332015753,0.001592986285686493
1690841613157237200,5.8112373046875,-0.00036742351949214935,0.0011973092332482338,0.0015039779245853424
1690841613167277300,5.82127734375,0.00021634157747030258,-0.00013959757052361965,0.000440843403339386
1690841613177318400,5.831318359375,-0.0008363467641174793,0.0018732176395133138,0.000418640673160553
1690841613187358200,5.841358154296875,0.0018124331254512072,0.0004899718333035707,0.0003222338855266571
1690841613197398300,5.851398193359375,-0.0008170418441295624,0.0018363345880061388,0.0016250722110271454
1690841613207438300,5.861438232421875,-0.0005523236468434334,-0.0000601024366915226,-0.00041277892887592316
1690841613217479200,5.871479248046875,0.0008083570282906294,-0.0008212244138121605,0.00010179728269577026
1690841613227519200,5.881519287109375,0.0004221987910568714,-0.000962638296186924,-0.00011977739632129669
1690841613237559300,5.891559326171875,-0.0005726986564695835,-0.000786718912422657,0.0014008991420269012
1690841613247600400,5.901600341796875,-0.001014783512800932,-0.001049040351063013,0.00048637017607688904
1690841613257640400,5.911640380859375,-0.000959380529820919,-0.0005399605724960566,0.0017459522932767868
1690841613267680300,5.92168017578125,-0.0010680374689400196,-0.0016081545036286116,-0.00019256211817264557
1690841613277720300,5.93172021484375,0.0006977785378694534,0.0007009083637967706,-0.00037961266934871674
1690841613287791400,5.941791259765625,-0.0002260720357298851,0.0011416615452617407,0.00028298236429691315
1690841613297832200,5.951832275390625,0.0016920743510127068,0.000959141063503921,-0.00012239068746566772
1690841613307872300,5.961872314453125,-0.0003716093488037586,-0.000003325287252664566,0.0014526024460792542
1690841613317912300,5.971912353515625,0.0007532369345426559,-0.00021956046111881733,0.0017104968428611755
1690841613327952100,5.9819521484375,0.00011514360085129738,0.0019903306383639574,0.0001328401267528534
1690841613337993200,5.9919931640625,-0.00016930978745222092,-0.0014801069628447294,-0.00007559545338153839
1690841613348033300,6.002033203125,-0.0011514835059642792,0.000007534865289926529,0.0005164258182048798
1690841613358073300,6.0120732421875,0.00023765349760651588,-0.000505759147927165,-0.00009236298501491547
1690841613368114200,6.0221142578125,-0.0003405185416340828,-0.0013891295529901981,-0.00011499971151351929
1690841613378154200,6.032154296875,0.00047567859292030334,0.0000254183541983366,-0.0010961275547742844
1690841613388194300,6.0421943359375,0.0002738111652433872,0.000986819388344884,-0.0007411278784275055
1690841613398234400,6.052234375,0.0002619614824652672,-0.0001574347261339426,-0.0010239705443382263
1690841613408275500,6.062275390625,0.000093117356300354,0.00028438365552574396,0.0004708617925643921
1690841613418315300,6.072315185546875,-0.00081678107380867,0.0021975315175950527,-0.0009168665856122971
1690841613428386300,6.08238623046875,-0.00030172569677233696,0.0023248305078595877,0.0007406845688819885
1690841613438426400,6.09242626953125,-0.0007998403161764145,-0.0004157524090260267,-0.001167813315987587
1690841613448466200,6.102466064453125,0.00004278356209397316,-0.0001574256457388401,0.0012884195894002914
1690841613458507300,6.11250732421875,-0.0005970289930701256,-0.00014021596871316433,0.0023284051567316055
1690841613468547300,6.12254736328125,0.0009049936197698116,0.000768454628996551,-0.0016034860163927078
1690841613478587100,6.132587158203125,-0.0005661444738507271,-0.0002849812153726816,-0.00041255541145801544
1690841613488627200,6.142627197265625,-0.0006524310447275639,-0.0010008388198912144,-0.0006253421306610107
1690841613498668300,6.152668212890625,-0.000536714680492878,0.000525143463164568,0.0002767164260149002
1690841613508708400,6.162708251953125,0.0010103157255798578,0.0016878795577213168,0.0005835127085447311
1690841613518748200,6.172748046875,0.00007653515785932541,-0.0006107762455940247,0.0014244373887777328
1690841613528789200,6.182789306640625,0.0013037200551480055,-0.0007825500797480345,0.0008531901985406876
1690841613538829300,6.192829345703125,0.0008773764129728079,-0.0011366517283022404,0.0015806034207344055
1690841613548869400,6.202869384765625,0.00019720522686839104,0.0008263642666861415,-0.00027029402554035187
1690841613558940200,6.212940185546875,-0.0017432067543268204,0.0004682906437665224,-0.0011696591973304749
1690841613568980200,6.222980224609375,-0.002112586982548237,-0.00010615331120789051,-0.0016130749136209488
1690841613579027700,6.23302783203125,-0.00047315191477537155,0.0010496589820832014,0.0018971450626850128
1690841613589067800,6.24306787109375,-0.00020204205065965652,0.00007094722241163254,-0.0006586909294128418
1690841613599107800,6.25310791015625,-0.00036093080416321754,-0.0000028391368687152863,-0.0012049507349729538
1690841613609148000,6.26314794921875,0.0011557394172996283,-0.0008284191135317087,-0.001222526654601097
1690841613619188700,6.273188720703125,-0.00006168195977807045,-0.0017232897225767374,0.00047679804265499115
1690841613629228500,6.283228515625,0.0014376777689903975,-0.0002801227383315563,-0.0005770139396190643
1690841613639268600,6.2932685546875,-0.0009376546368002892,0.0022683492861688137,-0.00004652142524719238
1690841613649309700,6.303309814453125,-0.0007003671489655972,0.0005338324699550867,0.0007217992097139359
1690841613659349800,6.313349853515625,-0.0010157478973269463,-0.001428576186299324,0.00043667107820510864
1690841613669389800,6.323389892578125,-0.000532117672264576,0.002017554361373186,-0.0012682843953371048
1690841613679430000,6.333429931640625,0.0006538908928632736,-0.00034077768214046955,0.0013917312026023865
1690841613689500700,6.343500732421875,0.0006416402757167816,-0.00010668602772057056,0.0003461744636297226
1690841613699540700,6.353540771484375,0.00001393025740981102,-0.00012799957767128944,0.0006122235208749771
1690841613709581600,6.36358154296875,0.0007782573811709881,-0.0006342665292322636,0.00022553279995918274
1690841613719621600,6.37362158203125,-0.0007380829192698002,-0.002256616484373808,-0.00020824745297431946
1690841613729661700,6.38366162109375,0.0008544875308871269,0.00004009343683719635,0.00040587782859802246
1690841613739702800,6.393702880859375,-0.0005719275213778019,-0.0010903740767389536,-0.00040097348392009735
1690841613749742800,6.403742919921875,-0.0004233228974044323,-0.0011979658156633377,0.0008339341729879379
1690841613759782700,6.41378271484375,0.000016804784536361694,0.001326166675426066,-0.00034789182245731354
1690841613769822700,6.42382275390625,-0.001936623826622963,-0.0007516315672546625,0.00013254210352897644
1690841613779863600,6.433863525390625,-0.00007821386680006981,0.000016775215044617653,-0.0021847784519195557
1690841613789903600,6.443903564453125,-0.000041462015360593796,-0.0014772582799196243,-0.001500612124800682
1690841613799943700,6.453943603515625,0.0007515768520534039,-0.000319015234708786,0.00022009946405887604
1690841613809984800,6.46398486328125,-0.00019118189811706543,0.0015390721382573247,-0.002020951360464096
1690841613820024800,6.47402490234375,0.0012487845961004496,0.0002886687871068716,-0.0003388877958059311
1690841613830096000,6.484095947265625,0.0003891163505613804,0.0006191669963300228,-0.000130360946059227
1690841613840135700,6.4941357421875,0.00011829379945993423,-0.0007226108573377132,-0.000038528814911842346
1690841613850175700,6.50417578125,0.00024585938081145287,0.00003479211591184139,0.00005281716585159302
1690841613860215600,6.514215576171875,0.0014539887197315693,0.0008499567629769444,0.0004968494176864624
1690841613870256600,6.524256591796875,0.0006126961670815945,-0.0006081238389015198,-0.0017572510987520218
1690841613880296700,6.534296630859375,0.0009771068580448627,0.0006018606945872307,-0.00047296471893787384
1690841613890336800,6.544336669921875,-0.00042344955727458,0.00007295690011233091,-0.0012242421507835388
1690841613900377900,6.5543779296875,0.0010305566247552633,-0.0005323314107954502,-0.000759955495595932
1690841613910417700,6.564417724609375,0.0014726414810866117,0.00028419389855116606,-0.0008880533277988434
1690841613920457700,6.574457763671875,0.0005453424528241158,-0.001117646461352706,0.000035392120480537415
1690841613930497500,6.58449755859375,-0.0006381659768521786,-0.0007213680073618889,-0.0012301411479711533
1690841613940538600,6.59453857421875,0.0010790363885462284,-0.00035975221544504166,0.00043914467096328735
1690841613950578700,6.60457861328125,0.00045612314715981483,-0.0005344555247575045,0.0018053464591503143
1690841613960649700,6.614649658203125,0.0007716617546975613,0.0013927326072007418,-0.00047195516526699066
1690841613970689800,6.624689697265625,0.0009165378287434578,-0.0018118491861969233,0.00017945468425750732
1690841613980729600,6.6347294921875,0.0019400587771087885,0.001381471985951066,-0.000548236072063446
1690841613990770700,6.644770751953125,0.00030807359144091606,-0.0007208273746073246,0.0018813647329807281
1690841614000810500,6.654810546875,-0.00182037940248847,-0.0006109690293669701,-0.0004934389144182205
1690841614010850600,6.6648505859375,0.0004430413246154785,-0.0004799417220056057,0.0012450739741325378
1690841614020891600,6.6748916015625,-0.00016561197116971016,-0.0010581426322460175,0.0006661266088485718
1690841614030931700,6.684931640625,0.0005230815149843693,-0.0006805064622312784,0.000009657815098762512
1690841614040971800,6.6949716796875,-0.001624575350433588,0.0013180403038859367,0.0014382153749465942
1690841614051011600,6.705011474609375,-0.00002374919131398201,-0.0013901281636208296,0.0008296836167573929
1690841614061052700,6.715052734375,0.0004390822723507881,-0.0004949064459651709,0.00039158202707767487
1690841614071092500,6.725092529296875,-0.0010046171955764294,0.0021397587843239307,0.00036601535975933075
1690841614081132500,6.735132568359375,-0.0007940903306007385,-0.0009480672888457775,-0.0010509137064218521
1690841614091173600,6.745173583984375,0.0006456146948039532,-0.002318263752385974,-0.00003758072853088379
1690841614101243600,6.75524365234375,0.0007953296881169081,-0.00015681819058954716,-0.000017812475562095642
1690841614111284700,6.76528466796875,0.0009588475804775953,-0.002482823096215725,-0.0011557824909687042
1690841614121324800,6.77532470703125,-0.000020244158804416656,0.0011705702636390924,0.0007760543376207352
1690841614131364600,6.785364501953125,-0.0007483521476387978,-0.0013690199702978134,-0.0008822958916425705
1690841614141404700,6.79540478515625,-0.0011253640986979008,-0.001362338662147522,0.0007858742028474808
1690841614151445500,6.805445556640625,-0.0005471915937960148,-0.00022064149379730225,0.00019411928951740265
1690841614161485600,6.815485595703125,0.001971218967810273,-0.0016547543928027153,-0.00020726770162582397
1690841614171525600,6.825525634765625,0.0021126328501850367,-0.00013542105443775654,-0.00035880133509635925
1690841614181566700,6.835566650390625,0.0003567840903997421,-0.0006999475881457329,-0.0008118338882923126
1690841614191606800,6.845606689453125,-0.00018144072964787483,-0.0014616118278354406,0.0013703592121601105
1690841614201646600,6.855646484375,-0.00011107977479696274,-0.0005819895304739475,0.0014909766614437103
1690841614211686700,6.865686767578125,-0.0010517081245779991,-0.0006773306522518396,-0.0007340945303440094
1690841614221727500,6.8757275390625,-0.000870660413056612,-0.0001997097861021757,-0.00003145262598991394
1690841614231798500,6.885798583984375,-0.0010323142632842064,-0.0007001175545156002,-0.000412551686167717
1690841614241838600,6.895838623046875,-0.0013865875080227852,-0.0003421108704060316,-0.00015683285892009735
1690841614251878700,6.905878662109375,0.00042729172855615616,-0.001732813660055399,0.00016594305634498596
1690841614261918700,6.915918701171875,-0.00007914053276181221,0.0010022458154708147,0.0015851594507694244
1690841614271959800,6.925959716796875,0.0015472520608454943,0.000797715038061142,-0.000019393861293792725
1690841614281999600,6.93599951171875,0.0019819035660475492,-0.0009387275204062462,-0.000013932585716247559
1690841614292039700,6.946039794921875,0.000969636021181941,-0.0003299289382994175,0.0005541201680898666
1690841614302080500,6.95608056640625,-0.0008159386925399303,0.002266951836645603,-0.0015410911291837692
1690841614312120600,6.96612060546875,-0.0002952907234430313,-0.0017134088557213545,0.0016781389713287354
1690841614322160600,6.97616064453125,-0.0006294925697147846,-0.00012681703083217144,0.00022865645587444305
1690841614332200700,6.98620068359375,-0.00045132730156183243,0.0003269856097176671,0.0018148347735404968
1690841614342241800,6.99624169921875,-0.0005630948580801487,0.000021268846467137337,-0.0020360592752695084
1690841614352281600,7.006281494140625,0.0008406573906540871,0.00022899534087628126,-0.002182265743613243
1690841614362352600,7.0163525390625,0.00042544491589069366,0.0007154041668400168,0.000903300940990448
1690841614372392700,7.026392822265625,0.00030214060097932816,-0.001806875690817833,-0.0006325431168079376
1690841614382432800,7.036432861328125,0.0005592633970081806,-0.0025351194199174643,0.00025535374879837036
1690841614392473600,7.0464736328125,0.00045460090041160583,-0.00019127153791487217,0.00014217011630535126
1690841614402513700,7.056513671875,-0.0005462043918669224,-0.0005425233393907547,0.0007045101374387741
1690841614412553700,7.0665537109375,-0.00002875225618481636,-0.0015912761446088552,0.0010403338819742203
1690841614422593500,7.076593505859375,0.00047253677621483803,0.0007789561059325933,0.0007859468460083008
1690841614432634600,7.086634521484375,-0.00040311040356755257,0.002717204624786973,-0.0006910413503646851
1690841614442674700,7.0966748046875,-0.0004013977013528347,-0.0006425220053642988,-0.0004738345742225647
1690841614452714800,7.10671484375,0.001160546438768506,0.0016770913498476148,-0.0011774413287639618
1690841614462755600,7.116755615234375,-0.0010139583609998226,0.0007307535270228982,0.001721048727631569
1690841614472795600,7.126795654296875,0.000710704829543829,0.000004775822162628174,0.0008411407470703125
1690841614482835700,7.136835693359375,0.00041262339800596237,-0.0005334769375622272,-0.00022242777049541473
1690841614492875500,7.14687548828125,-0.0020643826574087143,0.0004119452787563205,0.001890791580080986
1690841614502946600,7.156946533203125,0.00029946165159344673,0.0002363033127039671,0.00028481893241405487
1690841614512986600,7.166986572265625,-0.001946648582816124,0.0010056905448436737,0.00011171400547027588
1690841614523027700,7.17702783203125,0.0006948770023882389,-0.00039116619154810905,0.00001613609492778778
1690841614533067800,7.18706787109375,-0.0004617339000105858,0.0008956731762737036,0.0007285326719284058
1690841614543107800,7.19710791015625,-0.00047383690252900124,0.0012697111815214157,0.001127956435084343
1690841614553148700,7.207148681640625,0.000015651807188987732,0.0006662388332188129,-0.0002084188163280487
1690841614563188500,7.2171884765625,0.00044519780203700066,-0.0008175056427717209,0.00036996975541114807
1690841614573222700,7.22722265625,0.0009091205429285765,0.0007076867623254657,-0.0010673385113477707
1690841614583262700,7.2372626953125,-0.0009632399305701256,-0.0003524885978549719,0.0007201768457889557
1690841614593303800,7.2473037109375,-0.0004820064641535282,0.0016201147809624672,0.001363065093755722
1690841614603343600,7.257343505859375,-0.0001722932793200016,-0.0005719286855310202,-0.00036457739770412445
1690841614613383400,7.267383544921875,0.00012784497812390327,-0.0011975050438195467,-0.00015205703675746918
1690841614623424500,7.277424560546875,0.0013877649325877428,0.0009499342413619161,0.00028427504003047943
1690841614633494500,7.28749462890625,-0.0002277088351547718,-0.00006100162863731384,0.00046244077384471893
1690841614643535600,7.29753564453125,0.0003743045963346958,-0.00007113954052329063,-0.00023225322365760803
1690841614653575700,7.30757568359375,-0.00034341728314757347,0.0003136872546747327,0.0001712162047624588
1690841614663615700,7.31761572265625,-0.00042665470391511917,-0.00028340984135866165,-0.00005158036947250366
1690841614673656600,7.327656494140625,-0.0006817854009568691,-0.000022686319425702095,-0.0021674614399671555
1690841614683696600,7.337696533203125,-0.0006566778756678104,-0.0013123643584549427,0.0017568878829479218
1690841614693736400,7.347736328125,-0.0006092735566198826,-0.00026973686181008816,0.00024980492889881134
1690841614703776500,7.357776611328125,-0.0005873409099876881,0.00046011433005332947,0.0015248581767082214
1690841614713817600,7.367817626953125,-0.0003066440112888813,0.000016431789845228195,-0.0005478803068399429
1690841614723857700,7.377857666015625,0.000745078083127737,0.000726675963960588,0.00004478916525840759
1690841614733897700,7.387897705078125,-0.0009521543979644775,-0.0014587140176445246,-0.0006577521562576294
1690841614743938600,7.3979384765625,-0.0006061517633497715,-0.00006744056008756161,0.000023147091269493103
1690841614753978600,7.407978515625,0.0011808292474597692,0.001142699969932437,-0.0007089562714099884
1690841614764018400,7.418018310546875,0.00088722282089293,0.00010050507262349129,-0.0009369198232889175
1690841614774089500,7.42808935546875,-0.0005420958623290062,0.0008632342796772718,-0.00011293776333332062
1690841614784129500,7.438129638671875,0.0006900024600327015,0.0007647875463590026,-0.0009642764925956726
1690841614794169600,7.448169677734375,-0.00027379579842090607,-0.0031838812865316868,-0.002003708854317665
1690841614804210700,7.458210693359375,-0.00022723479196429253,0.0011787090916186571,0.0027319863438606262
1690841614814250800,7.468250732421875,-0.0005111279897391796,-0.0003107970114797354,-0.0004198644310235977
1690841614824290600,7.47829052734375,-0.00042038457468152046,-0.0002802193630486727,-0.0012016445398330688
1690841614834331400,7.488331298828125,-0.0005636629648506641,-0.0014035406056791544,-0.0005321260541677475
1690841614844371500,7.498371337890625,-0.0010002241469919682,0.000599980354309082,0.0008855368942022324
1690841614854411500,7.50841162109375,0.00002482673153281212,0.0005349993007257581,-0.0006753429770469666
1690841614864451600,7.51845166015625,0.00155197037383914,-0.001372399041429162,0.0004996079951524734
1690841614874492700,7.52849267578125,-0.00016949698328971863,-0.0022464485373347998,-0.0007020104676485062
1690841614884532700,7.53853271484375,-0.00031928811222314835,0.0013723764568567276,0.0004836134612560272
1690841614894572800,7.54857275390625,-0.0010141069069504738,-0.0017999811097979546,-0.001021072268486023
1690841614904643600,7.5586435546875,0.00046863779425621033,-0.0033138052094727755,-0.0029318854212760925
1690841614914683600,7.56868359375,0.0008622531313449144,0.0020857537165284157,0.0017427615821361542
1690841614924724500,7.578724365234375,0.000850731274113059,-0.00038488837890326977,-0.001888621598482132
1690841614934764500,7.5887646484375,-0.00002811197191476822,0.0020998409017920494,0.0016280822455883026
1690841614944804600,7.5988046875,-0.00008777203038334846,-0.0015761218965053558,-0.0004564281553030014
1690841614954845700,7.608845703125,0.0009929388761520386,-0.000588621711358428,-0.001188531517982483
1690841614964885800,7.6188857421875,0.00017269747331738472,0.00047248415648937225,-0.0007635261863470078
1690841614974925600,7.628925537109375,0.0005519315600395203,-0.0016061130445450544,-0.0009400937706232071
1690841614984965600,7.638965576171875,-0.00002207048237323761,-0.00010516238398849964,0.0005510766059160233
1690841614995006500,7.64900634765625,0.00041042687371373177,-0.00031235627830028534,-0.0018593501299619675
1690841615005046500,7.659046630859375,-0.0010373834520578384,0.001303916797041893,-0.00010410510003566742
1690841615015086600,7.669086669921875,0.0001410655677318573,0.0013289505150169134,-0.0000191517174243927
1690841615025126700,7.679126708984375,0.0006873803213238716,-0.00046211015433073044,0.0007172375917434692
1690841615035167700,7.689167724609375,0.00020401645451784134,0.0010697400430217385,-0.0012372564524412155
1690841615045238800,7.69923876953125,-0.0005578296259045601,0.0010340530425310135,0.0010547768324613571
1690841615055278600,7.709278564453125,0.0004973150789737701,0.0004252544604241848,0.0008702203631401062
1690841615065318700,7.719318603515625,0.000027101486921310425,0.0011359326308593154,0.00001816079020500183
1690841615075358700,7.729358642578125,-0.000056255608797073364,-0.00010749720968306065,-0.001989329233765602
1690841615085399600,7.739399658203125,0.00022617727518081665,0.0006444314494729042,0.0004802681505680084
1690841615095439600,7.749439697265625,-0.0018007545731961727,-0.000520169036462903,0.00025017186999320984
1690841615105479700,7.759479736328125,0.00011294428259134293,-0.0005848275031894445,-0.001459633931517601
1690841615115520800,7.769520751953125,0.000625336542725563,0.0005981485592201352,-0.000844176858663559
1690841615125560600,7.779560546875,-0.016148991882801056,-0.2691854238510132,-0.20848213136196136
1690841615135600600,7.7896005859375,-0.006231378763914108,-0.12881606817245483,-0.27746039628982544
1690841615145640700,7.799640625,-0.014843913726508617,-0.0337032824754715,-0.19551342725753784
1690841615155681500,7.809681640625,-0.0032136226072907448,0.020753303542733192,-0.11630915850400925
1690841615165721600,7.8197216796875,0.016780920326709747,-0.11819341778755188,-0.08375663310289383
1690841615175792600,7.829792724609375,0.014921767637133598,-0.1281222105026245,-0.06063853204250336
1690841615185832700,7.839832763671875,0.01931559108197689,-0.12656334042549133,-0.023871734738349915
1690841615195872500,7.84987255859375,0.012584984302520752,-0.10978861153125763,-0.01055220142006874
1690841615205913600,7.85991357421875,0.010066716000437737,-0.07953903079032898,0.014513375237584114
1690841615215953700,7.86995361328125,0.00408552261069417,-0.046608779579401016,0.03002362698316574
1690841615225993700,7.87999365234375,-0.000330854207277298,-0.011312488466501236,0.05123988911509514
1690841615236033800,7.89003369140625,-0.005722690373659134,0.021542664617300034,0.06131995469331741
1690841615246074600,7.90007470703125,-0.009881975129246712,0.055660270154476166,0.06875060498714447
1690841615256114700,7.91011474609375,-0.011446847580373287,0.08571936935186386,0.07507321983575821
1690841615266154500,7.920154541015625,-0.010674702003598213,0.1133427768945694,0.07524950802326202
1690841615276195600,7.930195556640625,-0.006923374254256487,0.13193963468074799,0.07460369169712067
1690841615286235600,7.940235595703125,-0.0031209811568260193,0.14345066249370575,0.06982950121164322
1690841615296275700,7.950275634765625,0.00394704844802618,0.14150255918502808,0.06638656556606293
1690841615306346800,7.9603466796875,0.006262520328164101,0.1261918693780899,0.06028257682919502
1690841615316386800,7.97038671875,0.0065440163016319275,0.10026892274618149,0.05797068774700165
1690841615326427600,7.980427734375,0.006541579961776733,0.06016852706670761,0.05202767252922058
1690841615336467700,7.9904677734375,0.0038616410456597805,0.01244627870619297,0.04419798403978348
1690841615346507500,8.000507568359374,0.0008316305465996265,-0.030573494732379913,0.03136696293950081
1690841615356547600,8.010547607421875,-0.0031388765200972557,-0.06656718254089355,0.017786704003810883
1690841615366588700,8.020588623046875,-0.004128307569772005,-0.08554692566394806,0.0025724507868289948
1690841615376628700,8.030628662109375,-0.003957332577556372,-0.09079175442457199,-0.019209543243050575
1690841615386668800,8.040668701171874,-0.002110191620886326,-0.08809112757444382,-0.04011379927396774
1690841615396709600,8.050709716796876,0.0012635006569325924,-0.07592234760522842,-0.05749598518013954
1690841615406749700,8.060749755859375,0.0013163259718567133,-0.0597500205039978,-0.07457970827817917
1690841615416789500,8.07078955078125,0.0031642932444810867,-0.04359395429491997,-0.08422861248254776
1690841615426829600,8.08082958984375,0.003152906894683838,-0.02844969369471073,-0.08873870968818665
1690841615436870700,8.09087060546875,0.0034375987015664577,-0.009285055100917816,-0.08727183938026428
1690841615446940700,8.100940673828125,0.00037381844595074654,0.0050393203273415565,-0.07941506057977676
1690841615456981800,8.110981689453125,-0.0011300686746835709,0.015840569511055946,-0.06715866178274155
1690841615467021800,8.121021728515625,-0.002881856169551611,0.023283956572413445,-0.05020080879330635
1690841615477061600,8.1310615234375,-0.0035455161705613136,0.025144973769783974,-0.027965012937784195
1690841615487102700,8.141102783203126,-0.00411198241636157,0.025747347623109818,-0.006320033222436905
1690841615497142500,8.151142578125,-0.0017734612338244915,0.024708714336156845,0.015578075312077999
1690841615507182600,8.1611826171875,-0.0008550835773348808,0.016741424798965454,0.035144299268722534
1690841615517222700,8.17122265625,-0.0009395056404173374,0.01394963264465332,0.05219279229640961
1690841615527263700,8.181263671875,0.002910252893343568,0.010091188363730907,0.06589064002037048
1690841615537303800,8.1913037109375,0.003859936259686947,0.00733907800167799,0.07386946678161621
1690841615547343600,8.201343505859375,0.0038880459032952785,0.0063008880242705345,0.0763172060251236
1690841615557384700,8.211384765625,0.0026030708104372025,0.006648164242506027,0.07411263883113861
1690841615567424500,8.221424560546875,0.0017251730896532536,0.009773562662303448,0.06431755423545837
1690841615577481700,8.231481689453124,0.0011121134739369154,0.01243033166974783,0.05352775752544403
1690841615587521500,8.241521484375,0.0008487165905535221,0.017232254147529602,0.038638949394226074
1690841615597561600,8.2515615234375,-0.0026639928109943867,0.0207766555249691,0.02212735265493393
1690841615607601700,8.2616015625,-0.0022572376765310764,0.020067978650331497,0.0036614742130041122
1690841615617642800,8.271642822265624,-0.0026053129695355892,0.020470116287469864,-0.015085583552718163
1690841615627682600,8.2816826171875,-0.0019189883023500443,0.01225968450307846,-0.026140326634049416
1690841615637722600,8.29172265625,-0.0012822267599403858,0.00724495155736804,-0.03592584282159805
1690841615647763700,8.301763671875,-0.000627515371888876,-0.0012238621711730957,-0.04409130662679672
1690841615657803500,8.311803466796874,0.0002995310351252556,-0.0116615891456604,-0.04728763550519943
1690841615667843600,8.321843505859375,-0.0005352101288735867,-0.020167497918009758,-0.04705812782049179
1690841615677883600,8.331883544921874,-0.000037997961044311523,-0.02672686241567135,-0.04285352677106857
1690841615687924700,8.3419248046875,0.0005041668191552162,-0.03151646628975868,-0.037715844810009
1690841615697964500,8.351964599609374,-0.0007070386782288551,-0.03429228067398071,-0.030133824795484543
1690841615708004600,8.362004638671875,-0.0007592602632939816,-0.03389526531100273,-0.023311860859394073
1690841615718075400,8.372075439453125,0.000059927813708782196,-0.030602531507611275,-0.015267517417669296
1690841615728115500,8.382115478515624,-0.001695910468697548,-0.025270147249102592,-0.00839034654200077
1690841615738156500,8.392156494140625,-0.0005241194739937782,-0.017813295125961304,-0.0009875576943159103
1690841615748196600,8.402196533203124,-0.00006411131471395493,-0.008886671625077724,0.004418732598423958
1690841615758236700,8.412236572265625,0.0012994268909096718,0.002936698030680418,0.010710718110203743
1690841615768277800,8.42227783203125,0.0013306920882314444,0.012886591255664825,0.014674155041575432
1690841615778317600,8.432317626953125,0.0019131253939121962,0.019486170262098312,0.017584457993507385
1690841615788357600,8.442357666015624,0.0011002630926668644,0.024529729038476944,0.02319391816854477
1690841615798397400,8.4523974609375,0.0014366202522069216,0.02961157262325287,0.021108662709593773
1690841615808438500,8.4624384765625,0.0007780860178172588,0.030641354620456696,0.025274068117141724
1690841615818478600,8.472478515625,0.0014979385305196047,0.030290881171822548,0.022556578740477562
1690841615828518700,8.4825185546875,-0.00006755860522389412,0.02560318633913994,0.02336251176893711
1690841615838559700,8.492559814453125,-0.0009421408176422119,0.019514666870236397,0.020513461902737617
1690841615848629800,8.502629638671875,-0.00028139911592006683,0.01195664331316948,0.017205948010087013
1690841615858670600,8.512670654296874,-0.0005362634547054768,0.002701625693589449,0.01245859730988741
1690841615868710400,8.52271044921875,0.0006474601104855537,-0.0007390584796667099,0.008965824730694294
1690841615878750500,8.53275048828125,0.00019152695313096046,-0.006522645242512226,0.0027822311967611313
1690841615888790500,8.54279052734375,0.0009365442674607038,-0.015942925587296486,-0.0039583854377269745
1690841615898831600,8.55283154296875,-0.0004674741066992283,-0.017698215320706367,-0.007833549752831459
1690841615908871700,8.56287158203125,0.0010525668039917946,-0.017392218112945557,-0.013740116730332375
1690841615918911700,8.572911865234374,-0.0009469348005950451,-0.0175850298255682,-0.0181665550917387
1690841615928952600,8.58295263671875,-0.0009560841135680676,-0.0156801026314497,-0.02228885143995285
1690841615938992600,8.59299267578125,-0.0003933585248887539,-0.011791888624429703,-0.023763976991176605
1690841615949032400,8.603032470703125,-0.001463389489799738,-0.009455941617488861,-0.023577241227030754
1690841615959072500,8.613072509765624,-0.00021596485748887062,-0.007279872894287109,-0.02271810732781887
1690841615969113600,8.623113525390625,-0.0020507890731096268,-0.003761563217267394,-0.020929601043462753
1690841615979153700,8.633153564453124,0.0000821365974843502,0.0007080200593918562,-0.014557190239429474
1690841615989224700,8.643224609375,-0.0002596513368189335,0.001075770240277052,-0.009641587734222412
1690841615999264800,8.6532646484375,0.0005440907552838326,0.002780459588393569,-0.003692353144288063
1690841616009304600,8.6633046875,-0.0010021571069955826,0.0019135377369821072,0.001010878011584282
1690841616019345400,8.673345458984375,0.0007573934271931648,0.0031750770285725594,0.009153492748737335
1690841616029385500,8.683385498046874,-0.0008969753980636597,0.0038120760582387447,0.01254863478243351
1690841616039425500,8.693425537109375,0.0016796330455690622,0.003697293810546398,0.016383852809667587
1690841616049466600,8.703466552734374,0.0007640514522790909,0.004555926192551851,0.019792022183537483
1690841616059506700,8.713506591796875,-0.000058865174651145935,0.006546638906002045,0.01976832002401352
1690841616069546800,8.723546630859374,0.0009380229748785496,0.004013378638774157,0.01845426857471466
1690841616079586800,8.7335869140625,0.001745759742334485,0.0061763981357216835,0.018792223185300827
1690841616089627600,8.743627685546874,0.0008315360173583031,0.006098221056163311,0.015091665089130402
1690841616099667500,8.75366748046875,-0.0012377402745187283,0.0060177939012646675,0.011028479784727097
1690841616109707500,8.76370751953125,0.0003156149759888649,0.0059882961213588715,0.00550885871052742
1690841616119778600,8.773778564453124,0.0005331952124834061,0.005314516369253397,0.0007716268301010132
1690841616129818600,8.783818603515625,0.0004333183169364929,0.0012552631087601185,-0.0035651102662086487
1690841616139859700,8.793859619140624,0.0001614093780517578,-0.0005753939040005207,-0.007153719663619995
1690841616149899800,8.803899658203125,-0.0007872269488871098,-0.0024992325343191624,-0.01103428564965725
1690841616159939600,8.813939697265624,0.00100827612914145,-0.000876568490639329,-0.009154893457889557
1690841616169979600,8.823979736328125,0.00009115738794207573,-0.005515645258128643,-0.010980125516653061
1690841616180020500,8.8340205078125,-0.0009402851574122906,-0.005047994665801525,-0.009995291009545326
1690841616190060500,8.844060546875,-0.0011549508199095726,-0.006758391857147217,-0.011863473802804947
1690841616200100600,8.8541005859375,0.000022965483367443085,-0.010279889218509197,-0.009160632267594337
1690841616210141700,8.8641416015625,-0.00025158002972602844,-0.007248742505908012,-0.006895659491419792
1690841616220181800,8.874181640625,0.0002813185565173626,-0.006023688241839409,-0.006407501175999641
1690841616230221600,8.8842216796875,0.000057674478739500046,-0.005523014813661575,-0.0049046799540519714
1690841616240261600,8.89426171875,-0.00029865652322769165,-0.005991997197270393,-0.005274860188364983
1690841616250332700,8.904332763671874,0.001043305965140462,0.00002062576822936535,0.0007066559046506882
1690841616260372700,8.914372802734375,0.0006464947946369648,0.00006057322025299072,0.00125872902572155
1690841616270413600,8.92441357421875,-0.0007707616314291954,0.002180748153477907,0.004915578290820122
1690841616280453600,8.93445361328125,0.0009075624402612448,0.0027045919559895992,0.006022920832037926
1690841616290493700,8.94449365234375,-0.0008981768041849136,0.004931698553264141,0.00838470458984375
1690841616300534800,8.95453466796875,0.0008480576798319817,0.008754400536417961,0.005371071398258209
1690841616310574600,8.96457470703125,0.0009997622109949589,0.008957715705037117,0.008253583684563637
1690841616320614700,8.97461474609375,0.00044049834832549095,0.009882365353405476,0.008082608692348003
1690841616330654700,8.98465478515625,-0.000822083093225956,0.007633325643837452,0.005180828273296356
1690841616340695600,8.994695556640625,0.000498312059789896,0.0051280902698636055,0.00490412674844265
1690841616350735600,9.004735595703124,0.00011564372107386589,0.0030552935786545277,0.0065511735156178474
1690841616360775700,9.014775634765625,-0.0006566727533936501,-0.0013802011962980032,0.0029625631868839264
1690841616370816800,9.024816650390624,0.0002132914960384369,-0.0009069207590073347,0.0002415888011455536
1690841616380856600,9.034856689453125,0.000009026844054460526,-0.004867840558290482,0.0001001749187707901
1690841616390927600,9.044927734375,0.001690286211669445,-0.0022108680568635464,-0.0009705238044261932
1690841616400967700,9.0549677734375,-0.00012305984273552895,-0.005915857385843992,-0.0015622787177562714
1690841616411007700,9.0650078125,-0.0014420198276638985,-0.0039872899651527405,-0.0038236062973737717
1690841616421048600,9.075048583984374,0.00173033750616014,-0.003920444753021002,-0.004542127251625061
1690841616431088600,9.085088623046875,-0.0009783846326172352,-0.0025242255069315434,-0.005664847791194916
1690841616441128700,9.095128662109374,-0.0008084750734269619,-0.0024794843047857285,-0.008598053827881813
1690841616451168500,9.10516845703125,0.0008099370170384645,-0.0010626940056681633,-0.007868660613894463
1690841616461209600,9.115209716796874,-0.00043988460674881935,-0.0027599267195910215,-0.007242018356919289
1690841616471249700,9.125249755859375,0.0019882675260305405,-0.0028865127824246883,-0.005311004817485809
1690841616481289700,9.135289794921874,-0.001074367668479681,0.000046958914026618004,-0.0021887142211198807
1690841616491330600,9.14533056640625,-0.001352465245872736,-0.0005323973018676043,-0.0018783006817102432
1690841616501370600,9.15537060546875,0.00075888866558671,0.00014511100016534328,0.00010255910456180573
1690841616511410700,9.16541064453125,0.0001361444592475891,0.00010738195851445198,0.002882547676563263
1690841616521481500,9.1754814453125,-0.0021523097530007362,0.0022504276130348444,0.0034772325307130814
1690841616531521500,9.185521484375,-0.0008477075025439262,0.0013748389901593328,0.004738625138998032
1690841616541561600,9.1955615234375,0.00014884723350405693,0.002821468049660325,0.003657381981611252
1690841616551602700,9.205602783203124,-0.0006511588580906391,0.0023339891340583563,0.00460955873131752
1690841616561642800,9.215642822265625,0.0002196948044002056,0.0010937550105154514,0.004258554428815842
1690841616571682800,9.225682861328124,0.0014241384342312813,0.003432818688452244,0.004296423867344856
1690841616581712400,9.23571240234375,-0.0008733705617487431,0.0005065373843535781,0.004945170134305954
1690841616591752400,9.24575244140625,-0.00025165174156427383,0.0015290649607777596,0.0031465142965316772
1690841616601792500,9.25579248046875,0.0007174722850322723,-0.0006850871723145247,0.002761952579021454
1690841616611832600,9.26583251953125,-0.00023556780070066452,0.002847630064934492,0.0014645829796791077
1690841616621873700,9.275873779296875,0.0019745894242078066,0.002469993894919753,-0.0000195968896150589
1690841616631913700,9.285913818359376,0.0006691198796033859,0.00045311893336474895,-0.001218864694237709
1690841616641953500,9.29595361328125,0.0010089392308145761,-0.0005322506185621023,-0.0034673716872930527
1690841616651994400,9.305994384765626,0.0006218613125383854,-0.0017246066126972437,-0.0031210165470838547
1690841616662064600,9.316064697265626,0.00022105546668171883,0.00021790305618196726,-0.004876039922237396
1690841616672105500,9.32610546875,-0.000006868038326501846,-0.0008636328857392073,-0.006130313500761986
1690841616682145500,9.3361455078125,0.0008373542223125696,-0.00023592589423060417,-0.003483397886157036
1690841616692185600,9.346185546875,-0.0007595941424369812,-0.002752106636762619,-0.002613276243209839
1690841616702226700,9.356226806640626,0.00076692970469594,-0.0037827501073479652,-0.0029799938201904297
1690841616712266500,9.3662666015625,-0.0011974088847637177,-0.001724175177514553,-0.0018446296453475952
1690841616722306600,9.376306640625,0.0006172689609229565,-0.0027723952662199736,-0.00253305584192276
1690841616732346600,9.3863466796875,0.001002045115455985,0.0013927404070273042,-0.0000935625284910202
1690841616742387500,9.396387451171876,0.000995919806882739,-0.00027333316393196583,-0.00117560476064682
1690841616752427500,9.406427490234375,0.0014437902718782425,0.00229661725461483,-0.00021127425134181976
1690841616762467600,9.416467529296876,-0.0007850094698369503,0.0006196247413754463,0.0012686438858509064
1690841616772507400,9.42650732421875,-0.0010852604173123837,0.0006975092692300677,0.0013308674097061157
1690841616782548500,9.436548583984376,0.00016243057325482368,0.002013643505051732,0.0014594979584217072
1690841616792619500,9.44661962890625,-0.0004704520106315613,0.0026270572561770678,0.002854440361261368
1690841616802659600,9.45665966796875,-0.00008828844875097275,0.0012195766903460026,0.004897883161902428
1690841616812699600,9.46669970703125,0.0009607532992959023,-0.00010747648775577545,0.0027007758617401123
1690841616822739700,9.47673974609375,-0.000575091689825058,0.0013263694709166884,0.003635810688138008
1690841616832780500,9.486780517578126,-0.000052601099014282227,0.001445236150175333,0.003740184009075165
1690841616842820600,9.496820556640625,0.00009919935837388039,0.0020175494719296694,0.00045916996896266937
1690841616852860400,9.5068603515625,-0.0000775093212723732,0.000925452564842999,0.001942455768585205
1690841616862901500,9.516901611328125,-0.0018708817660808563,-0.0015760546084493399,-0.00033081695437431335
1690841616872941600,9.526941650390626,-0.0009129890240728855,-0.0013942099176347256,-0.000017356127500534058
1690841616882981600,9.536981689453125,-0.0003926074132323265,-0.00036463188007473946,0.0019312798976898193
1690841616893021700,9.547021728515626,0.00028815120458602905,-0.008192654699087143,-0.003421276807785034
1690841616903062500,9.5570625,0.0005510048940777779,0.00030229613184928894,-0.0013029985129833221
1690841616913102600,9.5671025390625,0.0007577068172395229,-0.00011904840357601643,-0.002918664366006851
1690841616923142400,9.577142333984375,-0.0013046450912952423,-0.0011307834647595882,-0.0021809693425893784
1690841616933213400,9.58721337890625,0.0007541798986494541,-0.0021182834170758724,-0.001980166882276535
1690841616943253500,9.59725341796875,-0.00025169597938656807,-0.0006322397384792566,-0.0012203659862279892
1690841616953294600,9.607294677734375,0.000889600720256567,-0.000505086500197649,-0.0006534755229949951
1690841616963334700,9.617334716796876,0.0009987903758883476,0.00077163300011307,-0.0005006100982427597
1690841616973374700,9.627374755859375,0.000646278727799654,0.00002642185427248478,0.0005437601357698441
1690841616983414500,9.63741455078125,0.0014806471299380064,-0.0007405686192214489,0.00046013668179512024
1690841616993455600,9.64745556640625,0.00004486599937081337,-0.0003750345204025507,0.0006850063800811768
1690841617003495400,9.657495361328126,0.000835824990645051,-0.0002464037388563156,0.0014581214636564255
1690841617013535500,9.667535400390625,0.00003803428262472153,0.000773704843595624,0.0004667937755584717
1690841617023576600,9.67757666015625,0.0006843837909400463,-0.0004468217957764864,0.0029251575469970703
1690841617033616600,9.68761669921875,0.0007283864542841911,0.0019397068535909057,0.0010175779461860657
1690841617043656700,9.69765673828125,-0.0015169247053563595,-0.0006004162132740021,0.0010266341269016266
1690841617053696500,9.707696533203125,-0.0010133790783584118,0.002389179076999426,0.001023726537823677
1690841617063767600,9.717767578125,-0.00003519980236887932,0.00014040584210306406,-0.00039706937968730927
1690841617073808400,9.727808349609376,-0.0008033746853470802,-0.00009655742906033993,0.001739107072353363
1690841617083848400,9.737848388671875,-0.00011414848268032074,0.0008227657526731491,-0.0009501520544290543
1690841617093888500,9.747888427734376,0.00009579909965395927,0.0010888155084103346,0.001170257106423378
1690841617103928600,9.757928466796875,0.00015492131933569908,-0.0005029558669775724,0.0007292367517948151
1690841617113969700,9.7679697265625,-0.0004544290713965893,-0.0005763694643974304,0.001009378582239151
1690841617124009700,9.778009765625,-0.000792650505900383,-0.00037130597047507763,0.00012307986617088318
1690841617134049500,9.788049560546876,0.000029734335839748383,0.0019281560089439154,0.00041660480201244354
1690841617144090600,9.798090576171875,0.00047315098345279694,0.0005414480110630393,-0.0034106243401765823
1690841617154130400,9.80813037109375,-0.0007910826243460178,-0.0012162765488028526,-0.0025420933961868286
1690841617164170500,9.81817041015625,-0.0006115855649113655,-0.0022626323625445366,-0.0010400693863630295
1690841617174210600,9.82821044921875,-0.002724945079535246,-0.0005910587497055531,-0.0009658876806497574
1690841617184251600,9.838251708984375,-0.0020857863128185272,0.000023332424461841583,-0.0028873588889837265
1690841617194321700,9.84832177734375,-0.0014657173305749893,-0.0004361707251518965,0.00020507164299488068
1690841617204362800,9.85836279296875,0.00014682672917842865,0.0007614527130499482,-0.000045532360672950745
1690841617214402600,9.868402587890625,0.00025231484323740005,-0.00011237361468374729,-0.0009979717433452606
1690841617224442400,9.8784423828125,-0.0020326771773397923,-0.00125726661644876,-0.0018954575061798096
1690841617234483500,9.8884833984375,0.0009239627979695797,-0.0026752117555588484,0.0022507905960083008
1690841617244523500,9.8985234375,0.0009189026895910501,-0.0007508115377277136,0.0000076089054346084595
1690841617254563600,9.9085634765625,-0.0010815616697072983,0.0025957587640732527,0.0025267228484153748
1690841617264603600,9.918603759765626,0.00007211929187178612,0.0009075809502974153,-0.0003572143614292145
1690841617274644700,9.928644775390625,-0.0012284978292882442,0.0011429598089307547,0.000695815309882164
1690841617284684500,9.9386845703125,-0.0005624415352940559,-0.00047837267629802227,-0.00040460191667079926
1690841617294724400,9.948724365234375,0.0008214134722948074,0.002483779564499855,-0.0011364761739969254
1690841617304765400,9.958765380859376,-0.00035463832318782806,0.0010885496158152819,0.0017282851040363312
1690841617314805500,9.968805419921875,0.0008734860457479954,0.0003990737022832036,0.0014550220221281052
1690841617324845600,9.978845458984376,0.0009496523998677731,0.0007697857217863202,-0.0010520778596401215
1690841617334916600,9.98891650390625,0.0018201852217316628,-0.000033893855288624763,0.00030447356402873993
1690841617344956700,9.998956787109375,0.0009711694438010454,-0.000629909336566925,0.00037691183388233185
1690841617354997800,10.008997802734376,-0.0009530088864266872,0.0003169345436617732,0.00025179237127304077
1690841617365037600,10.01903759765625,-0.0009673899039626122,0.0012690146686509252,-0.0010222624987363815
1690841617375077400,10.029077392578126,-0.0008058133535087109,0.0017364132218062878,-0.0005261953920125961
1690841617385117400,10.039117431640625,-0.0000832974910736084,-0.0013139713555574417,-0.0003589484840631485
1690841617395158500,10.049158447265626,-0.00003251200541853905,0.00013625272549688816,-0.0007883589714765549
1690841617405198600,10.059198486328125,-0.0010780692100524902,0.00007713050581514835,-0.0009681209921836853
1690841617415238700,10.06923876953125,0.00011339690536260605,-0.002121144440025091,0.000019086524844169617
1690841617425278700,10.07927880859375,0.00034775538370013237,-0.0010793160181492567,0.00022281892597675323
1690841617435319600,10.089319580078126,-0.0008077924139797688,-0.0005735456943511963,-0.0018469039350748062
1690841617445359400,10.099359375,-0.0006882166489958763,0.0003090259851887822,0.0007249116897583008
1690841617455399400,10.1093994140625,-0.0006972723640501499,0.002213431056588888,-0.0009287204593420029
1690841617465470500,10.119470458984376,-0.0009350930340588093,0.00016838975716382265,0.0003570541739463806
1690841617475510500,10.129510498046875,-0.00014706049114465714,-0.0003741548862308264,0.0006033256649971008
1690841617485551600,10.139551513671876,-0.002012871205806732,0.0013686178717762232,-0.0022068414837121964
1690841617495591700,10.149591796875,-0.0010781888850033283,-0.0001752963289618492,0.0005184579640626907
1690841617505631500,10.159631591796876,-0.0010808524675667286,0.0009805156150832772,0.0009323116391897202
1690841617515672300,10.16967236328125,0.0007366468198597431,-0.0006911202799528837,0.0010826010257005692
1690841617525712400,10.17971240234375,-0.0007565878331661224,0.0005792075535282493,0.001006435602903366
1690841617535752400,10.18975244140625,-0.00025258539244532585,0.0019862784538418055,0.0012462679296731949
1690841617545792500,10.19979248046875,0.0005804514512419701,0.00032393319997936487,0.0005381330847740173
1690841617555833600,10.20983349609375,0.00027141906321048737,0.0012986717047169805,0.0009014029055833817
1690841617565873700,10.219873779296876,-0.0013054385781288147,0.0004587107105180621,0.0024881139397621155
1690841617575913700,10.229913818359375,-0.001354182604700327,0.0003196224570274353,0.00042534247040748596
1690841617585954600,10.23995458984375,-0.00009504007175564766,-0.0009147527161985636,-0.0020753666758537292
1690841617595994600,10.24999462890625,-0.0003036246635019779,0.0010549367871135473,-0.0011506769806146622
1690841617606065400,10.2600654296875,-0.001129204872995615,-0.00044255866669118404,0.001487981528043747
1690841617616105500,10.27010546875,0.002043601358309388,-0.0005299830809235573,-0.0015429891645908356
1690841617626145500,10.2801455078125,-0.0005670953541994095,0.0007619162788614631,-0.0005608145147562027
1690841617636185600,10.290185546875,0.00037517771124839783,0.0019490434788167477,-0.0017972439527511597
1690841617646226700,10.300226806640625,0.0007344381883740425,0.0022909934632480145,0.0005918778479099274
1690841617656266800,10.310266845703126,-0.00020179292187094688,0.001076006330549717,0.001514257863163948
1690841617666306800,10.320306884765625,-0.0007314956746995449,-0.0008137726690620184,-0.002994474023580551
1690841617676347600,10.33034765625,-0.0004450930282473564,0.0011588020715862513,-0.0006444565951824188
1690841617686387500,10.340387451171875,-0.0005220584571361542,-0.0017360539641231298,-0.0005648285150527954
1690841617696427500,10.350427490234376,0.001522938720881939,-0.002586096292361617,-0.000645119696855545
1690841617706467600,10.360467529296875,-0.0005990681238472462,-0.0006787402089685202,-0.0006230156868696213
1690841617716508700,10.3705087890625,-0.000887884758412838,-0.00047249533236026764,-0.001029839739203453
1690841617726548700,10.380548828125,-0.0010753711685538292,-0.001558798598125577,-0.0007747076451778412
1690841617736619800,10.390619873046875,0.00016473466530442238,0.0008125500753521919,0.00024205446243286133
1690841617746659600,10.40065966796875,0.002039866289123893,-0.0006146379746496677,0.00027694180607795715
1690841617756699600,10.41069970703125,-0.000419501680880785,-0.0014646411873400211,-0.0006714817136526108
1690841617766740500,10.420740478515626,0.0011067558079957962,0.0008613637182861567,0.001826828345656395
1690841617776780500,10.430780517578125,-0.0007983394898474216,0.0005989893106743693,-0.000529702752828598
1690841617786820600,10.440820556640626,0.0006698612123727798,0.0024344399571418762,-0.0003510061651468277
1690841617796861700,10.45086181640625,0.0012162001803517342,0.000024542678147554398,0.00040581822395324707
1690841617806901800,10.46090185546875,0.000730705913156271,-0.0015669623389840126,-0.0007859468460083008
1690841617816941800,10.47094189453125,0.0009180651977658272,0.0006604157388210297,0.000705791637301445
1690841617826981600,10.480981689453126,0.000423516146838665,0.002294531324878335,-0.00022125430405139923
1690841617837022500,10.4910224609375,0.0005513844080269337,0.0009846301982179284,0.0009321309626102448
1690841617847062500,10.5010625,-0.0004787263460457325,0.0007300319848582149,0.0005142800509929657
1690841617857102600,10.5111025390625,-0.00025836843997240067,-0.0010967429261654615,-0.0018230564892292023
1690841617867173600,10.521173583984375,0.0008873234037309885,0.0003189935814589262,-0.0008392836898565292
1690841617877213700,10.531213623046876,-0.0006548641249537468,0.0021189337130635977,0.00025289133191108704
1690841617887254800,10.5412548828125,0.000766997691243887,-0.000495225191116333,0.0008560977876186371
1690841617897294600,10.551294677734376,0.000731694046407938,0.00020200840663164854,0.00009598955512046814
1690841617907334700,10.561334716796875,0.0010946830734610558,-0.0007567296270281076,-0.0010009650141000748
1690841617917374700,10.571374755859376,0.0006119082681834698,0.0001946394331753254,-0.0006577558815479279
1690841617927415600,10.58141552734375,0.00098288687877357,0.0008732129354029894,0.0010173730552196503
1690841617937455600,10.59145556640625,-0.000172558706253767,0.00048731500282883644,0.0019678156822919846
1690841617947495700,10.60149560546875,-0.00028814002871513367,0.0014340687775984406,-0.00004073977470397949
1690841617957536800,10.611536865234376,0.0019016799051314592,0.0012606015661731362,0.0014805924147367477
1690841617967576800,10.621576904296875,0.0005953991785645485,0.0002262297784909606,-0.00006803497672080994
1690841617977616600,10.63161669921875,0.00014504417777061462,0.0018206506501883268,-0.0007160864770412445
1690841617987656700,10.64165673828125,0.0005607637576758862,0.00031969312112778425,0.0008141659200191498
1690841617997697500,10.651697509765626,-0.001476803794503212,0.0004133622860535979,0.0014154650270938873
1690841618007768600,10.6617685546875,-0.000905289314687252,0.0028078104369342327,0.0011089351028203964
1690841618017808600,10.67180859375,0.0008797424379736185,0.0008004249539226294,0.00022628530859947205
1690841618027848700,10.6818486328125,-0.00030935928225517273,0.0008078818209469318,0.000779956579208374
1690841618037888500,10.691888427734375,-0.0008430532179772854,-0.0006002923473715782,-0.0008882880210876465
1690841618047929600,10.7019296875,-0.0007628919556736946,-0.0011260001920163631,0.0002568718045949936
1690841618057969700,10.7119697265625,0.00045841699466109276,-0.00008040317334234715,-0.001041904091835022
1690841618068009700,10.722009765625,0.0007199393585324287,0.0020943342242389917,-0.0008826479315757751
1690841618078049500,10.732049560546875,-0.00006802147254347801,-0.0011582160368561745,-0.0006723403930664062
1690841618088090600,10.742090576171876,-0.00039612315595149994,-0.00017258012667298317,-0.00018977560102939606
1690841618098130700,10.752130615234375,0.00003375206142663956,-0.00008954619988799095,-0.001878766342997551
1690841618108170500,10.76217041015625,-0.000607537105679512,0.0014343146467581391,0.0006613563746213913
1690841618118211800,10.7722119140625,0.000684050377458334,0.0015191140118986368,0.0009288564324378967
1690841618128251600,10.782251708984376,-0.001455799676477909,0.0024344422854483128,0.00026732683181762695
1690841618138322700,10.79232275390625,0.0006966055370867252,0.001167408423498273,0.0029162634164094925
1690841618148362800,10.80236279296875,-0.00048530520871281624,-0.001441690605133772,0.0010480564087629318
1690841618158402600,10.812402587890626,0.0005969037301838398,-0.0010681746061891317,0.0003037732094526291
1690841618168443600,10.822443603515625,0.0004280596040189266,0.00009988783858716488,-0.0018565841019153595
1690841618178483700,10.832483642578126,0.0007405932992696762,0.000016980338841676712,-0.001036832109093666
1690841618188523500,10.8425234375,0.0016375461127609015,-0.0003673136234283447,-0.00014280900359153748
1690841618198563600,10.8525634765625,0.0014097604434937239,0.00184315734077245,0.0005611404776573181
1690841618208604700,10.862604736328125,0.000976197887212038,0.0006181031931191683,0.0000242479145526886
1690841618218644700,10.872644775390626,0.0018542695324867964,0.0022288975305855274,0.0007629115134477615
1690841618228684500,10.8826845703125,-0.0008789324201643467,0.0009710866725072265,0.0008907429873943329
1690841618238725600,10.8927255859375,-0.000008297618478536606,-0.0016606338322162628,0.0007457118481397629
1690841618248765700,10.902765625,0.0007403171621263027,0.0006320815300568938,0.00006500817835330963
1690841618258805500,10.912805419921876,-0.0019144187681376934,0.00005252356640994549,-0.0009231250733137131
1690841618268845600,10.922845458984375,-0.0006811092607676983,0.0011377617483958602,0.0014087390154600143
1690841618278916600,10.93291650390625,0.0017267854418605566,0.003918925765901804,-0.001595994457602501
1690841618288956700,10.942956787109376,0.0007731076329946518,-0.00009179487824440002,0.0009417310357093811
1690841618298997800,10.952997802734375,-0.00091926334425807,-0.0012773140333592892,-0.0004471726715564728
1690841618309037600,10.96303759765625,0.0008171177469193935,0.00087984639685601,-0.0004841908812522888
1690841618319077600,10.97307763671875,-0.00012179231271147728,-0.0006753774359822273,0.000026499852538108826
1690841618329118700,10.98311865234375,0.0003778166137635708,-0.0006996123120188713,0.0010214559733867645
1690841618339158500,10.993158447265625,-0.00005136709660291672,0.001438097096979618,-0.00003442913293838501
1690841618349198600,11.003198486328126,-0.0005938531830906868,0.0013209180906414986,0.0004492010921239853
1690841618359238700,11.01323876953125,0.0007030260749161243,-0.000612753676250577,0.0012261196970939636
1690841618369279700,11.02327978515625,-0.000197654590010643,-0.00026840693317353725,-0.0004143882542848587
1690841618379319600,11.033319580078125,0.00022632209584116936,0.0022311045322567225,0.0002952907234430313
1690841618389359600,11.043359619140626,0.0007469700649380684,0.0011967327445745468,-0.00011057592928409576
1690841618399400700,11.053400634765625,0.0009319188538938761,0.0009045464685186744,0.0006519481539726257
1690841618409470500,11.063470458984375,0.000523656141012907,-0.0007732450030744076,0.0005986858159303665
1690841618419511600,11.073511474609376,-0.000842120498418808,-0.0003891400992870331,0.0019101295620203018
1690841618429551600,11.083551513671875,-0.0009068353101611137,-0.0005294887814670801,-0.0002294536679983139
1690841618439591700,11.093591796875,0.001066400669515133,0.00039043650031089783,0.0010867100208997726
1690841618449632800,11.1036328125,0.00004481198266148567,0.0011539647821336985,-0.00042143650352954865
1690841618459672600,11.113672607421876,-0.0002224557101726532,0.0010024439543485641,0.0020284149795770645
1690841618469712600,11.123712646484375,0.000022821128368377686,-0.0011770869605243206,0.0012683495879173279
1690841618479752400,11.13375244140625,0.001043190248310566,-0.0013380744494497776,-0.0011199377477169037
1690841618489793500,11.14379345703125,-0.0001637544482946396,-0.00022726994939148426,-0.0012613516300916672
1690841618499833600,11.15383349609375,-0.0006999797187745571,-0.00048169284127652645,-0.0004963967949151993
1690841618509873700,11.163873779296875,-0.0020685777999460697,-0.0022119483910501003,-0.0011560618877410889
1690841618519913700,11.173913818359376,-0.0007927971892058849,-0.00006164517253637314,-0.00008425116539001465
1690841618529954600,11.18395458984375,-0.00100345304235816,-0.00142678152769804,0.0008603725582361221
1690841618539994600,11.19399462890625,0.00011098943650722504,0.0019391238456591964,-0.00015718117356300354
1690841618550065400,11.2040654296875,-0.0008112629875540733,-0.0007900835480540991,0.00028463639318943024
1690841618560105500,11.21410546875,-0.0001654345542192459,0.00007985066622495651,-0.00010886415839195251
1690841618570145500,11.2241455078125,0.0002918303944170475,-0.00020350958220660686,-0.0001994110643863678
1690841618580180000,11.234179931640625,-0.0005207415670156479,-0.00010997336357831955,-0.00018459558486938477
1690841618590220000,11.244219970703124,0.0010630402248352766,-0.0015134592540562153,0.0016255546361207962
1690841618600260000,11.254260009765625,0.0005151033401489258,-0.0015935278497636318,-0.00010599568486213684
1690841618610301000,11.264301025390624,-0.0008002319373190403,0.0006778821116313338,-0.000009058043360710144
1690841618620341000,11.274341064453125,0.0006585796363651752,-0.0007129290606826544,0.00022602826356887817
1690841618630381000,11.284381103515624,0.0019427556544542313,0.0022679471876472235,-0.0008648019284009933
1690841618640420900,11.2944208984375,-0.00044362060725688934,-0.00042346585541963577,-0.0006288252770900726
1690841618650462000,11.3044619140625,0.0018432359211146832,-0.0006317251827567816,0.0004710610955953598
1690841618660502000,11.314501953125,0.0001808726228773594,-0.0008168409112840891,-0.00009059347212314606
1690841618670542000,11.3245419921875,0.001081553753465414,0.0011999709531664848,0.0008324570953845978
1690841618680613000,11.334613037109374,0.0002377140335738659,-0.0013701326679438353,-0.001306908205151558
1690841618690653200,11.344653076171875,-0.0006770817562937737,0.0005185812478885055,0.0008561126887798309
1690841618700694000,11.354694091796874,0.0003770599141716957,0.0010557955829426646,-0.0011664684861898422
1690841618710733800,11.36473388671875,-0.0011364147067070007,-0.001891258405521512,-0.0027955248951911926
1690841618720774000,11.37477392578125,-0.0007249321788549423,0.0008470654720440507,-0.00005138292908668518
1690841618730814000,11.38481396484375,-0.00023357896134257317,-0.0003886413760483265,-0.0007864143699407578
1690841618740855000,11.39485498046875,-0.0009303339757025242,-0.00018702121451497078,0.0015044715255498886
1690841618750895000,11.40489501953125,0.00022654328495264053,0.00046065961942076683,-0.0010234005749225616
1690841618760935200,11.41493505859375,-0.0001512696035206318,-0.0006317014340311289,0.000032845884561538696
1690841618770976000,11.42497607421875,-0.0002950802445411682,-0.0004109253641217947,-0.0007163006812334061
1690841618781016000,11.43501611328125,-0.0009554238058626652,-0.0003332218620926142,0.0006014704704284668
1690841618791056000,11.445055908203125,0.0008752329740673304,0.0005293760914355516,0.0019066855311393738
1690841618801096000,11.455095947265624,0.002013673773035407,-0.0000896034762263298,0.0010501742362976074
1690841618811167000,11.4651669921875,0.0009886231273412704,-0.0003551207482814789,0.00002325884997844696
1690841618821208000,11.4752080078125,0.00022583501413464546,-0.0018579685129225254,-0.00031973421573638916
1690841618831248100,11.485248046875,0.00025433069095015526,0.001876315800473094,0.00007760897278785706
1690841618841288200,11.4952880859375,-0.0020832433365285397,-0.0017602143343538046,0.00399930402636528
1690841618851328000,11.505327880859374,0.0015216115862131119,0.0015974990092217922,-0.0004199463874101639
1690841618861368800,11.515368896484375,0.0009485359769314528,0.0011464167619124055,0.0002962350845336914
1690841618871409000,11.525408935546874,0.0009679771028459072,0.0007349583320319653,-0.00002787075936794281
1690841618881449000,11.535448974609375,-0.0006938008591532707,0.0009479614673182368,0.0010394267737865448
1690841618891490000,11.545489990234374,0.0011347257532179356,0.00005393836181610823,-0.000176306813955307
1690841618901530000,11.555530029296875,0.0018444005399942398,0.00024619558826088905,0.0007802452892065048
1690841618911570200,11.565570068359374,0.0007501076906919479,-0.0006041517481207848,-0.0016488227993249893
1690841618921610200,11.5756103515625,-0.0009005549363791943,-0.0028319917619228363,-0.000872468575835228
1690841618931651000,11.585651123046874,0.0010605966672301292,-0.00025298655964434147,-0.0010165460407733917
1690841618941691000,11.59569091796875,-0.0007723737508058548,-0.0004914724268019199,0.0007228050380945206
1690841618951762000,11.605761962890625,0.00012830737978219986,0.0016571658197790384,0.0000263899564743042
1690841618961802000,11.615802001953124,0.047863807529211044,-0.22652259469032288,-0.04565995931625366
1690841618971842000,11.625842041015625,0.02407086081802845,-0.005560914985835552,-0.1537827104330063
1690841618981883100,11.635883056640624,0.009540269151329994,-0.02144210785627365,-0.1207783967256546
1690841618991923200,11.645923095703125,-0.01214691624045372,-0.006214953027665615,-0.1084679365158081
1690841619001963000,11.655962890625,-0.023332446813583374,-0.08992952108383179,-0.05253077298402786
1690841619012003000,11.666003173828125,-0.029007375240325928,-0.012137524783611298,-0.0180329829454422
1690841619022044000,11.6760439453125,-0.016988741233944893,-0.023716768249869347,0.02970052883028984
1690841619032084000,11.686083984375,-0.019748307764530182,-0.07873661071062088,0.07129217684268951
1690841619042124000,11.6961240234375,-0.015600543469190598,-0.13454215228557587,0.0823521763086319
1690841619052165000,11.7061650390625,-0.007381230127066374,-0.15370333194732666,0.1075584664940834
1690841619062205200,11.716205078125,-0.00034238677471876144,-0.14656679332256317,0.11653901636600494
1690841619072245200,11.726245361328125,0.00529073178768158,-0.12215492129325867,0.09833551943302155
1690841619082316000,11.73631591796875,0.010419191792607307,-0.10428215563297272,0.10036338120698929
1690841619092355800,11.74635595703125,0.014778787270188332,-0.0628148764371872,0.06663737446069717
