time,seconds_elapsed,z,y,x
1690840702011273500,0.0322734375,-0.9713897705078125,0.05877685546875,-0.0003204345703125
1690840702021344500,0.042344482421875,-0.9721527099609375,0.0575408935546875,-0.001495361328125
1690840702031384600,0.052384521484375,-0.9739227294921875,0.0545196533203125,-0.0010528564453125
1690840702041425400,0.06242529296875,-0.9756927490234375,0.0504608154296875,0.00018310546875
1690840702051465200,0.07246533203125,-0.9771728515625,0.0461578369140625,0.0005340576171875
1690840702061505300,0.08250537109375,-0.9796295166015625,0.040985107421875,0.0030670166015625
1690840702071545300,0.09254541015625,-0.982208251953125,0.0347747802734375,0.0041961669921875
1690840702081586400,0.10258642578125,-0.98321533203125,0.029205322265625,0.0034332275390625
1690840702091626500,0.11262646484375,-0.98529052734375,0.02386474609375,0.003326416015625
1690840702101666600,0.12266650390625,-0.986572265625,0.0197601318359375,0.0022125244140625
1690840702111707400,0.132707275390625,-0.98553466796875,0.0167236328125,0.0013580322265625
1690840702121747500,0.14274755859375,-0.988494873046875,0.015045166015625,0.00177001953125
1690840702131787300,0.152787353515625,-0.98876953125,0.0143585205078125,0.0020294189453125
1690840702141827300,0.162827392578125,-0.988189697265625,0.013458251953125,0.0018768310546875
1690840702151868400,0.172868408203125,-0.9873199462890625,0.0139312744140625,0.001800537109375
1690840702161908500,0.182908447265625,-0.9865264892578125,0.016510009765625,0.0021514892578125
1690840702171979500,0.1929794921875,-0.9859771728515625,0.0193939208984375,0.0015411376953125
1690840702182019600,0.20301953125,-0.9852294921875,0.0233001708984375,0.0019073486328125
1690840702192059400,0.213059326171875,-0.9829864501953125,0.0277862548828125,0.00177001953125
1690840702202100200,0.223100341796875,-0.9815673828125,0.0317230224609375,0.001556396484375
1690840702212140300,0.233140380859375,-0.980133056640625,0.036407470703125,0.0018157958984375
1690840702222180400,0.243180419921875,-0.9789581298828125,0.03985595703125,0.001861572265625
1690840702232220400,0.253220458984375,-0.9770050048828125,0.043060302734375,0.0006256103515625
1690840702242261500,0.263261474609375,-0.9764862060546875,0.046234130859375,0.0009307861328125
1690840702252301600,0.273301513671875,-0.976043701171875,0.048065185546875,0.0008087158203125
1690840702262341400,0.28334130859375,-0.9760284423828125,0.04962158203125,0.001495361328125
1690840702272382500,0.293382568359375,-0.9759368896484375,0.0499420166015625,0.0020751953125
1690840702282422300,0.30342236328125,-0.97576904296875,0.048736572265625,0.001922607421875
1690840702292462300,0.31346240234375,-0.975982666015625,0.0475311279296875,0.002227783203125
1690840702302502400,0.32350244140625,-0.9765777587890625,0.0454864501953125,0.003448486328125
1690840702312543500,0.33354345703125,-0.97735595703125,0.042755126953125,0.002197265625
1690840702322613500,0.343613525390625,-0.9785919189453125,0.0400238037109375,0.002166748046875
1690840702332654600,0.353654541015625,-0.9799346923828125,0.0371246337890625,0.0019073486328125
1690840702342694400,0.3636943359375,-0.98138427734375,0.0339813232421875,0.0013885498046875
1690840702352734200,0.373734130859375,-0.982147216796875,0.0302734375,0.0010986328125
1690840702362775300,0.383775390625,-0.98260498046875,0.02874755859375,0.00054931640625
1690840702372815400,0.3938154296875,-0.9833984375,0.0252227783203125,0.001678466796875
1690840702382855400,0.40385546875,-0.98504638671875,0.0233306884765625,0.0020599365234375
1690840702392895500,0.4138955078125,-0.98419189453125,0.023193359375,0.002166748046875
1690840702402936600,0.4239365234375,-0.9850921630859375,0.0229644775390625,0.0019989013671875
1690840702412976400,0.433976318359375,-0.98504638671875,0.0222930908203125,0.0022125244140625
1690840702423016200,0.44401611328125,-0.9842987060546875,0.023223876953125,0.0029449462890625
1690840702433057300,0.454057373046875,-0.9835205078125,0.02587890625,0.0028076171875
1690840702443097300,0.464097412109375,-0.98382568359375,0.0277557373046875,0.002716064453125
1690840702453137400,0.474137451171875,-0.982208251953125,0.0303802490234375,0.001983642578125
1690840702463177500,0.484177490234375,-0.98040771484375,0.032073974609375,0.0012359619140625
1690840702473248500,0.49424853515625,-0.980224609375,0.03387451171875,0.00079345703125
1690840702483289600,0.50428955078125,-0.98016357421875,0.036712646484375,0.0007781982421875
1690840702493329400,0.514329345703125,-0.9787750244140625,0.039093017578125,0.0009307861328125
1690840702503369200,0.524369140625,-0.978240966796875,0.040557861328125,0.0009765625
1690840702513409300,0.5344091796875,-0.977294921875,0.041412353515625,0.0010833740234375
1690840702523450400,0.544450439453125,-0.978363037109375,0.04180908203125,0.0018463134765625
1690840702533490400,0.554490478515625,-0.977874755859375,0.0431365966796875,0.001068115234375
1690840702543530500,0.564530517578125,-0.978363037109375,0.043060302734375,0.0018768310546875
1690840702553571600,0.574571533203125,-0.978729248046875,0.0419769287109375,0.0018157958984375
1690840702563611400,0.584611328125,-0.9786529541015625,0.041046142578125,0.0025634765625
1690840702573651200,0.594651123046875,-0.9786224365234375,0.0391693115234375,0.0020751953125
1690840702583691300,0.604691162109375,-0.9791412353515625,0.037628173828125,0.001251220703125
1690840702593732400,0.614732421875,-0.9806671142578125,0.0357513427734375,0.001190185546875
1690840702603772400,0.6247724609375,-0.98223876953125,0.03350830078125,0.000823974609375
1690840702613812500,0.6348125,-0.9821014404296875,0.0313873291015625,0.000885009765625
1690840702623883500,0.644883544921875,-0.98199462890625,0.0302276611328125,0.000885009765625
1690840702633923300,0.65492333984375,-0.982330322265625,0.0294952392578125,0.0016632080078125
1690840702643964400,0.66496435546875,-0.9826507568359375,0.0282440185546875,0.002166748046875
1690840702654004200,0.675004150390625,-0.9830474853515625,0.0280609130859375,0.0027618408203125
1690840702664044300,0.685044189453125,-0.983154296875,0.0276947021484375,0.002349853515625
1690840702674084400,0.69508447265625,-0.9832763671875,0.0288848876953125,0.0026702880859375
1690840702684125400,0.70512548828125,-0.9829864501953125,0.029937744140625,0.002471923828125
1690840702694165500,0.71516552734375,-0.9815673828125,0.029510498046875,0.0022735595703125
1690840702704205300,0.725205322265625,-0.9811248779296875,0.030792236328125,0.00244140625
1690840702714246400,0.735246337890625,-0.9801177978515625,0.033233642578125,0.0018768310546875
1690840702724286200,0.7452861328125,-0.9798736572265625,0.0345611572265625,0.00042724609375
1690840702734326300,0.755326171875,-0.9798126220703125,0.0356903076171875,0.00048828125
1690840702744366000,0.765365966796875,-0.979644775390625,0.0372161865234375,0.00189208984375
1690840702754407200,0.7754072265625,-0.9788818359375,0.0379180908203125,0.0018310546875
1690840702764447200,0.785447265625,-0.978240966796875,0.0385589599609375,0.00177001953125
1690840702774518300,0.795518310546875,-0.9781341552734375,0.0393218994140625,0.0017242431640625
1690840702784558300,0.805558349609375,-0.978912353515625,0.039794921875,0.001251220703125
1690840702794598400,0.815598388671875,-0.9788818359375,0.0390167236328125,0.001739501953125
1690840702804639200,0.82563916015625,-0.9797515869140625,0.0383453369140625,0.0020294189453125
1690840702814679000,0.835678955078125,-0.97998046875,0.0368804931640625,0.0022430419921875
1690840702824719000,0.845718994140625,-0.9792633056640625,0.03558349609375,0.0018310546875
1690840702834759200,0.85575927734375,-0.979705810546875,0.03521728515625,0.0015106201171875
1690840702844800300,0.86580029296875,-0.9800567626953125,0.0349884033203125,0.0013427734375
1690840702854840300,0.87584033203125,-0.98077392578125,0.033447265625,0.001007080078125
1690840702864880400,0.88588037109375,-0.9812164306640625,0.032958984375,0.002288818359375
1690840702874921200,0.895921142578125,-0.98040771484375,0.0319976806640625,0.0020599365234375
1690840702884961300,0.905961181640625,-0.98248291015625,0.031402587890625,0.0022125244140625
1690840702895001000,0.9160009765625,-0.98193359375,0.0313568115234375,0.0014495849609375
1690840702905041200,0.926041259765625,-0.9824981689453125,0.030914306640625,0.00115966796875
1690840702915082200,0.936082275390625,-0.981536865234375,0.0303955078125,0.002105712890625
1690840702925122300,0.946122314453125,-0.9809722900390625,0.0307464599609375,0.001861572265625
1690840702935193300,0.956193359375,-0.98089599609375,0.0317230224609375,0.0020751953125
1690840702945233400,0.9662333984375,-0.981109619140625,0.0327301025390625,0.0025787353515625
1690840702955273200,0.976273193359375,-0.9806365966796875,0.03338623046875,0.002227783203125
1690840702965314000,0.98631396484375,-0.9805450439453125,0.0335540771484375,0.0018310546875
1690840702975354000,0.99635400390625,-0.979736328125,0.034912109375,0.002166748046875
1690840702985394200,1.006394287109375,-0.9809417724609375,0.0355682373046875,0.0016326904296875
1690840702995435300,1.016435302734375,-0.98052978515625,0.03564453125,0.0008697509765625
1690840703005475300,1.026475341796875,-0.98095703125,0.0363922119140625,0.0017852783203125
1690840703015515400,1.036515380859375,-0.9798583984375,0.036376953125,0.0017852783203125
1690840703025555500,1.046555419921875,-0.978851318359375,0.035919189453125,0.001708984375
1690840703035596300,1.05659619140625,-0.9792327880859375,0.0364227294921875,0.0021209716796875
1690840703045636000,1.066635986328125,-0.979705810546875,0.0364837646484375,0.0020904541015625
1690840703055676200,1.07667626953125,-0.9792633056640625,0.036590576171875,0.00238037109375
1690840703065717200,1.08671728515625,-0.981170654296875,0.0354461669921875,0.0021514892578125
1690840703075757300,1.09675732421875,-0.981475830078125,0.0344390869140625,0.0019073486328125
1690840703085828400,1.106828369140625,-0.98052978515625,0.034698486328125,0.0029296875
1690840703095868400,1.116868408203125,-0.980255126953125,0.034637451171875,0.001251220703125
1690840703105908200,1.126908203125,-0.9810638427734375,0.0337066650390625,0.0014801025390625
1690840703115948300,1.1369482421875,-0.9816131591796875,0.0326385498046875,0.0012969970703125
1690840703125989000,1.146989013671875,-0.981658935546875,0.0326690673828125,0.0012969970703125
1690840703136029200,1.157029296875,-0.98040771484375,0.032073974609375,0.0010986328125
1690840703146069200,1.1670693359375,-0.980224609375,0.0321197509765625,0.00140380859375
1690840703156110300,1.1771103515625,-0.98101806640625,0.0324859619140625,0.0026397705078125
1690840703166150400,1.187150390625,-0.9804534912109375,0.032257080078125,0.0029449462890625
1690840703176190500,1.1971904296875,-0.9809112548828125,0.0334930419921875,0.00323486328125
1690840703186230300,1.207230224609375,-0.9805450439453125,0.033477783203125,0.0025482177734375
1690840703196271000,1.21727099609375,-0.981475830078125,0.0333404541015625,0.0019989013671875
1690840703206311200,1.227311279296875,-0.980926513671875,0.034423828125,0.0013580322265625
1690840703216351200,1.237351318359375,-0.98065185546875,0.0350189208984375,0.0012664794921875
1690840703226392300,1.247392333984375,-0.980987548828125,0.033935546875,0.0015869140625
1690840703236462300,1.25746240234375,-0.9804840087890625,0.034271240234375,0.0013885498046875
1690840703246503400,1.26750341796875,-0.97955322265625,0.035400390625,0.001434326171875
1690840703256543200,1.277543212890625,-0.980865478515625,0.0354766845703125,0.0009918212890625
1690840703266583300,1.287583251953125,-0.9801788330078125,0.0354461669921875,0.001434326171875
1690840703276623400,1.297623291015625,-0.98126220703125,0.03570556640625,0.0019989013671875
1690840703286664200,1.307664306640625,-0.9804534912109375,0.034942626953125,0.0027618408203125
1690840703296704300,1.317704345703125,-0.9802398681640625,0.034912109375,0.0032501220703125
1690840703306744300,1.327744384765625,-0.98040771484375,0.034393310546875,0.0033721923828125
1690840703316785400,1.337785400390625,-0.981597900390625,0.033416748046875,0.0020751953125
1690840703326825200,1.3478251953125,-0.98175048828125,0.03399658203125,0.0017242431640625
1690840703336865300,1.357865234375,-0.980224609375,0.033355712890625,0.0013885498046875
1690840703346905300,1.3679052734375,-0.979888916015625,0.033447265625,0.0012359619140625
1690840703356946200,1.3779462890625,-0.9805450439453125,0.033477783203125,0.0014190673828125
1690840703366986200,1.387986328125,-0.981292724609375,0.0336456298828125,0.001373291015625
1690840703377026300,1.3980263671875,-0.9813232421875,0.033111572265625,0.0020751953125
1690840703387097300,1.408097412109375,-0.9816741943359375,0.0329132080078125,0.002716064453125
1690840703397137200,1.41813720703125,-0.9813079833984375,0.0328216552734375,0.0019378662109375
1690840703407178200,1.42817822265625,-0.981292724609375,0.032684326171875,0.00115966796875
1690840703417218300,1.43821826171875,-0.9813232421875,0.03338623046875,0.0025634765625
1690840703427258400,1.44825830078125,-0.9809417724609375,0.0334320068359375,0.0026092529296875
1690840703437299200,1.45829931640625,-0.9804534912109375,0.0336456298828125,0.0021514892578125
1690840703447339300,1.46833935546875,-0.981231689453125,0.0338287353515625,0.0014801025390625
1690840703457379300,1.47837939453125,-0.9803924560546875,0.0350341796875,0.0021820068359375
1690840703467419100,1.488419189453125,-0.9801177978515625,0.0342559814453125,0.00128173828125
1690840703477460200,1.498460205078125,-0.981048583984375,0.03448486328125,0.001312255859375
1690840703487500300,1.508500244140625,-0.9803314208984375,0.0351715087890625,0.001220703125
1690840703497540400,1.518540283203125,-0.9809722900390625,0.034423828125,0.0018463134765625
1690840703507581200,1.528581298828125,-0.981048583984375,0.0341949462890625,0.001922607421875
1690840703517621200,1.538621337890625,-0.9791412353515625,0.0350799560546875,0.002593994140625
1690840703527661300,1.548661376953125,-0.980133056640625,0.0340728759765625,0.0014190673828125
1690840703537732400,1.558732421875,-0.9815673828125,0.0340118408203125,0.0019073486328125
1690840703547772200,1.568772216796875,-0.9800567626953125,0.0342559814453125,0.001861572265625
1690840703557812200,1.578812255859375,-0.979766845703125,0.0332183837890625,0.0017547607421875
1690840703567853300,1.588853271484375,-0.98065185546875,0.033599853515625,0.0017547607421875
1690840703577893400,1.598893310546875,-0.9810333251953125,0.0339202880859375,0.0013580322265625
1690840703587933200,1.60893310546875,-0.98114013671875,0.0335845947265625,0.002593994140625
1690840703597974300,1.618974365234375,-0.9817047119140625,0.033050537109375,0.0022125244140625
1690840703608014300,1.629014404296875,-0.9806976318359375,0.0330352783203125,0.0012664794921875
1690840703618054100,1.63905419921875,-0.9809722900390625,0.0334320068359375,0.001434326171875
1690840703628094200,1.64909423828125,-0.9810943603515625,0.0333099365234375,0.0012054443359375
1690840703638135300,1.65913525390625,-0.980682373046875,0.034027099609375,0.0029144287109375
1690840703648175400,1.66917529296875,-0.980865478515625,0.034027099609375,0.001708984375
1690840703658215200,1.679215087890625,-0.980072021484375,0.0341033935546875,0.0008697509765625
1690840703668256300,1.68925634765625,-0.979949951171875,0.03363037109375,0.0014495849609375
1690840703678296300,1.69929638671875,-0.980438232421875,0.0333099365234375,0.0015869140625
1690840703688367400,1.709367431640625,-0.9803924560546875,0.0339813232421875,0.001129150390625
1690840703698407200,1.7194072265625,-0.9809417724609375,0.0345001220703125,0.0012664794921875
1690840703708447200,1.729447265625,-0.9798736572265625,0.0340423583984375,0.0009307861328125
1690840703718481000,1.73948095703125,-0.981048583984375,0.0345611572265625,0.0018768310546875
1690840703728521000,1.74952099609375,-0.98065185546875,0.03466796875,0.0019378662109375
1690840703738560800,1.759560791015625,-0.98065185546875,0.0347747802734375,0.001434326171875
1690840703748600800,1.769600830078125,-0.9810638427734375,0.0345001220703125,0.0012054443359375
1690840703758641700,1.7796416015625,-0.9805450439453125,0.034149169921875,0.0009002685546875
1690840703768681700,1.789681640625,-0.9794158935546875,0.034423828125,0.0008697509765625
1690840703778721800,1.7997216796875,-0.9806365966796875,0.0338134765625,0.0013275146484375
1690840703788761900,1.809761962890625,-0.981353759765625,0.0337677001953125,0.0013580322265625
1690840703798803000,1.819802978515625,-0.98077392578125,0.0330047607421875,0.0015716552734375
1690840703808842800,1.8298427734375,-0.9805908203125,0.0343017578125,0.001739501953125
1690840703818882800,1.8398828125,-0.98089599609375,0.03399658203125,0.00238037109375
1690840703828923600,1.849923583984375,-0.9811859130859375,0.0336761474609375,0.00177001953125
1690840703838993700,1.85999365234375,-0.9807891845703125,0.033905029296875,0.001007080078125
1690840703849034800,1.87003466796875,-0.981231689453125,0.03387451171875,0.0017852783203125
1690840703859074800,1.88007470703125,-0.9812774658203125,0.032989501953125,0.0012969970703125
1690840703869115000,1.890114990234375,-0.980224609375,0.0343475341796875,0.002197265625
1690840703879156000,1.900156005859375,-0.9807891845703125,0.033599853515625,0.002166748046875
1690840703889195800,1.91019580078125,-0.9810943603515625,0.0337371826171875,0.0026702880859375
1690840703899235800,1.92023583984375,-0.980987548828125,0.0341644287109375,0.002471923828125
1690840703909275600,1.930275634765625,-0.9803009033203125,0.034698486328125,0.00164794921875
1690840703919316700,1.940316650390625,-0.9811553955078125,0.0347442626953125,0.002166748046875
1690840703929356800,1.950356689453125,-0.9822540283203125,0.03375244140625,0.002044677734375
1690840703939396900,1.96039697265625,-0.981353759765625,0.0341339111328125,0.0018768310546875
1690840703949438000,1.97043798828125,-0.98040771484375,0.0345458984375,0.0015716552734375
1690840703959477800,1.980477783203125,-0.9810943603515625,0.034912109375,0.00152587890625
1690840703969517800,1.990517822265625,-0.98016357421875,0.03466796875,0.00201416015625
1690840703979557600,2.0005576171875,-0.9808349609375,0.03485107421875,0.00189208984375
1690840703989598700,2.0105986328125,-0.9809722900390625,0.03497314453125,0.00225830078125
1690840703999668700,2.020668701171875,-0.981842041015625,0.0343170166015625,0.0019989013671875
1690840704009709800,2.030709716796875,-0.9810943603515625,0.03466796875,0.003143310546875
1690840704019749600,2.04074951171875,-0.98046875,0.0344085693359375,0.00140380859375
1690840704029789700,2.050789794921875,-0.982025146484375,0.0327301025390625,0.000640869140625
1690840704039830800,2.060830810546875,-0.98077392578125,0.0338134765625,0.0017242431640625
1690840704049870800,2.070870849609375,-0.98040771484375,0.0337066650390625,0.001708984375
1690840704059910700,2.08091064453125,-0.9813995361328125,0.0334930419921875,0.001800537109375
1690840704069950700,2.09095068359375,-0.98028564453125,0.0329742431640625,0.001800537109375
1690840704079991800,2.10099169921875,-0.98065185546875,0.0333099365234375,0.00201416015625
1690840704090031900,2.111031982421875,-0.98077392578125,0.034149169921875,0.0018768310546875
1690840704100071700,2.12107177734375,-0.9807891845703125,0.03424072265625,0.0018463134765625
1690840704110112800,2.13111279296875,-0.9812469482421875,0.03326416015625,0.001678466796875
1690840704120152800,2.14115283203125,-0.9821929931640625,0.0334014892578125,0.0015869140625
1690840704130192600,2.151192626953125,-0.9811248779296875,0.0338592529296875,0.0018157958984375
1690840704140232700,2.161232666015625,-0.9803924560546875,0.0337677001953125,0.001617431640625
1690840704150303700,2.1713037109375,-0.9811859130859375,0.033355712890625,0.0022125244140625
1690840704160344800,2.1813447265625,-0.981597900390625,0.0333251953125,0.0024566650390625
1690840704170384600,2.191384521484375,-0.98138427734375,0.0339202880859375,0.00128173828125
1690840704180424700,2.2014248046875,-0.9808349609375,0.033294677734375,0.0019073486328125
1690840704190464800,2.21146484375,-0.9798736572265625,0.0338287353515625,0.00164794921875
1690840704200505900,2.221505859375,-0.9800262451171875,0.033905029296875,0.00140380859375
1690840704210545700,2.231545654296875,-0.9805908203125,0.03369140625,0.00177001953125
1690840704220585700,2.241585693359375,-0.980377197265625,0.0337982177734375,0.001678466796875
1690840704230626800,2.251626708984375,-0.980316162109375,0.0345458984375,0.0020599365234375
1690840704240667000,2.2616669921875,-0.9802703857421875,0.0339813232421875,0.0013275146484375
1690840704250706700,2.271706787109375,-0.9805755615234375,0.0338592529296875,0.00201416015625
1690840704260746800,2.281746826171875,-0.9811553955078125,0.0341033935546875,0.002838134765625
1690840704270787800,2.291787841796875,-0.9806060791015625,0.0337677001953125,0.00152587890625
1690840704280827600,2.30182763671875,-0.9810791015625,0.0345916748046875,0.00164794921875
1690840704290867700,2.31186767578125,-0.981201171875,0.0334014892578125,0.0022125244140625
1690840704300938800,2.321938720703125,-0.98138427734375,0.03314208984375,0.0011138916015625
1690840704310978600,2.331978515625,-0.98089599609375,0.0336151123046875,0.000946044921875
1690840704321019600,2.34201953125,-0.98138427734375,0.033905029296875,0.0018157958984375
1690840704331059700,2.352059814453125,-0.981597900390625,0.0339813232421875,0.001739501953125
1690840704341099800,2.362099853515625,-0.9808197021484375,0.0334930419921875,0.001373291015625
1690840704351139800,2.372139892578125,-0.98046875,0.0333709716796875,0.0018310546875
1690840704361180700,2.3821806640625,-0.9815216064453125,0.033966064453125,0.00213623046875
1690840704371220700,2.392220703125,-0.980987548828125,0.034271240234375,0.0018463134765625
1690840704381260800,2.4022607421875,-0.9809112548828125,0.033721923828125,0.00201416015625
1690840704391302000,2.412302001953125,-0.9806060791015625,0.0332183837890625,0.000823974609375
1690840704401341700,2.422341796875,-0.9806671142578125,0.0338287353515625,0.00115966796875
1690840704411381800,2.4323818359375,-0.981536865234375,0.0341796875,0.00177001953125
1690840704421421800,2.442421875,-0.98162841796875,0.0335845947265625,0.0015106201171875
1690840704431462700,2.452462646484375,-0.9801177978515625,0.0335540771484375,0.002197265625
1690840704441502700,2.462502685546875,-0.980804443359375,0.0344085693359375,0.0023956298828125
1690840704451573800,2.47257373046875,-0.981048583984375,0.0344390869140625,0.0009307861328125
1690840704461613600,2.482613525390625,-0.98046875,0.0341339111328125,0.0013885498046875
1690840704471653600,2.492653564453125,-0.9813385009765625,0.0332794189453125,0.0015869140625
1690840704481694700,2.50269482421875,-0.980865478515625,0.034332275390625,0.0018463134765625
1690840704491734800,2.51273486328125,-0.980926513671875,0.0340576171875,0.00238037109375
1690840704501774800,2.52277490234375,-0.98089599609375,0.033782958984375,0.0024871826171875
1690840704511815000,2.53281494140625,-0.98187255859375,0.0343170166015625,0.0016937255859375
1690840704521855700,2.542855712890625,-0.98138427734375,0.034332275390625,0.0010528564453125
1690840704531895800,2.552895751953125,-0.9808197021484375,0.0342254638671875,0.001220703125
1690840704541935600,2.562935546875,-0.980804443359375,0.0341339111328125,0.0023651123046875
1690840704551976700,2.572976806640625,-0.980560302734375,0.0345001220703125,0.0019073486328125
1690840704562016800,2.583016845703125,-0.9810333251953125,0.033966064453125,0.001708984375
1690840704572056800,2.593056884765625,-0.9803466796875,0.0337677001953125,0.0021209716796875
1690840704582097000,2.603096923828125,-0.9807586669921875,0.0344085693359375,0.0018157958984375
1690840704592137700,2.6131376953125,-0.9813079833984375,0.0345611572265625,0.0008697509765625
1690840704602208800,2.623208740234375,-0.9808197021484375,0.03399658203125,0.001129150390625
1690840704612248600,2.63324853515625,-0.9808349609375,0.03411865234375,0.002044677734375
1690840704622288600,2.64328857421875,-0.979949951171875,0.03387451171875,0.001068115234375
1690840704632328700,2.65332861328125,-0.98126220703125,0.0337982177734375,0.00146484375
1690840704642369800,2.663369873046875,-0.9801483154296875,0.033599853515625,0.00201416015625
1690840704652409900,2.673409912109375,-0.9806365966796875,0.0337982177734375,0.002166748046875
1690840704662450000,2.683449951171875,-0.98095703125,0.0334930419921875,0.002166748046875
1690840704672490800,2.69349072265625,-0.9810943603515625,0.0337982177734375,0.002197265625
1690840704682530600,2.703530517578125,-0.9815826416015625,0.0337982177734375,0.00140380859375
1690840704692570600,2.713570556640625,-0.981597900390625,0.0338287353515625,0.0021209716796875
1690840704702610700,2.723610595703125,-0.9813232421875,0.0336761474609375,0.001007080078125
1690840704712651800,2.73365185546875,-0.9808349609375,0.0343475341796875,0.0007781982421875
1690840704722687700,2.743687744140625,-0.9809722900390625,0.033966064453125,0.00115966796875
1690840704732727800,2.753727783203125,-0.9812774658203125,0.033966064453125,0.002838134765625
1690840704742768600,2.7637685546875,-0.9813385009765625,0.034027099609375,0.0019989013671875
1690840704752838700,2.773838623046875,-0.981903076171875,0.0331573486328125,0.0013885498046875
1690840704762879500,2.78387939453125,-0.9810943603515625,0.0338287353515625,0.00164794921875
1690840704772919600,2.79391943359375,-0.980865478515625,0.034332275390625,0.0018463134765625
1690840704782959600,2.803959716796875,-0.98199462890625,0.0352020263671875,0.001495361328125
1690840704792999700,2.813999755859375,-0.980865478515625,0.0346221923828125,0.0019378662109375
1690840704803040800,2.824040771484375,-0.980987548828125,0.0334014892578125,0.0016021728515625
1690840704813080800,2.834080810546875,-0.9810028076171875,0.0335235595703125,0.00189208984375
1690840704823121000,2.844120849609375,-0.9804534912109375,0.0342864990234375,0.0019073486328125
1690840704833161700,2.85416162109375,-0.980224609375,0.03411865234375,0.001373291015625
1690840704843201500,2.864201416015625,-0.981201171875,0.0339508056640625,0.0016326904296875
1690840704853241600,2.87424169921875,-0.9814910888671875,0.0337982177734375,0.0024566650390625
1690840704863281700,2.88428173828125,-0.980987548828125,0.0334930419921875,0.0019378662109375
1690840704873322800,2.89432275390625,-0.981353759765625,0.033355712890625,0.00164794921875
1690840704883362800,2.90436279296875,-0.98089599609375,0.0340118408203125,0.0016937255859375
1690840704893403000,2.91440283203125,-0.980865478515625,0.033905029296875,0.001739501953125
1690840704903473700,2.9244736328125,-0.98065185546875,0.03375244140625,0.001312255859375
1690840704913513700,2.934513671875,-0.9814910888671875,0.034149169921875,0.0019378662109375
1690840704923554600,2.944554443359375,-0.98114013671875,0.0342254638671875,0.002166748046875
1690840704933594600,2.9545947265625,-0.9812469482421875,0.0339813232421875,0.0017852783203125
1690840704943634700,2.964634765625,-0.9820098876953125,0.0339202880859375,0.001617431640625
1690840704953674800,2.9746748046875,-0.9813079833984375,0.0337982177734375,0.001922607421875
1690840704963715800,2.9847158203125,-0.9806060791015625,0.03363037109375,0.002197265625
1690840704973756000,2.994755859375,-0.980804443359375,0.033782958984375,0.0017242431640625
1690840704983795700,3.004795654296875,-0.98114013671875,0.033599853515625,0.002197265625
1690840704993836500,3.01483642578125,-0.9813690185546875,0.0337982177734375,0.0015869140625
1690840705003876600,3.024876708984375,-0.981536865234375,0.03424072265625,0.001312255859375
1690840705013916700,3.034916748046875,-0.9814605712890625,0.034454345703125,0.0009765625
1690840705023956700,3.044956787109375,-0.9812164306640625,0.034515380859375,0.0012054443359375
1690840705033997800,3.054997802734375,-0.9816741943359375,0.03399658203125,0.001220703125
1690840705044038000,3.065037841796875,-0.98101806640625,0.0338134765625,0.001678466796875
1690840705054108700,3.075108642578125,-0.9803466796875,0.034088134765625,0.00201416015625
1690840705064148700,3.085148681640625,-0.98089599609375,0.034088134765625,0.002532958984375
1690840705074188800,3.095188720703125,-0.9814453125,0.03448486328125,0.0015106201171875
1690840705084229600,3.105229736328125,-0.98211669921875,0.0344085693359375,0.001617431640625
1690840705094269700,3.115269775390625,-0.980804443359375,0.0345458984375,0.0011138916015625
1690840705104309800,3.125309814453125,-0.98089599609375,0.03424072265625,0.0010986328125
1690840705114350800,3.135350830078125,-0.9806976318359375,0.0342864990234375,0.0014801025390625
1690840705124390700,3.145390625,-0.9809722900390625,0.034637451171875,0.0020599365234375
1690840705134430700,3.1554306640625,-0.9813079833984375,0.0346527099609375,0.00146484375
1690840705144470800,3.165470703125,-0.9807891845703125,0.033935546875,0.0016326904296875
1690840705154511600,3.17551171875,-0.98095703125,0.03387451171875,0.0016937255859375
1690840705164551700,3.1855517578125,-0.9798431396484375,0.0335235595703125,0.0019073486328125
1690840705174591700,3.195591796875,-0.980712890625,0.0340118408203125,0.0023956298828125
1690840705184632800,3.2056328125,-0.9804840087890625,0.033905029296875,0.001312255859375
1690840705194673000,3.2156728515625,-0.9804229736328125,0.033660888671875,0.0011749267578125
1690840705204712700,3.225712646484375,-0.98101806640625,0.033935546875,0.0018463134765625
1690840705214783700,3.23578369140625,-0.9808197021484375,0.034912109375,0.0015869140625
1690840705224823800,3.24582373046875,-0.9802703857421875,0.0337677001953125,0.001007080078125
1690840705234863900,3.25586376953125,-0.980499267578125,0.0336456298828125,0.0012969970703125
1690840705244904700,3.26590478515625,-0.9810333251953125,0.0341339111328125,0.00067138671875
1690840705254944800,3.27594482421875,-0.9812469482421875,0.033935546875,0.000640869140625
1690840705264984600,3.285984619140625,-0.980804443359375,0.0338592529296875,0.00079345703125
1690840705275025700,3.296025634765625,-0.9808807373046875,0.0335540771484375,0.0016937255859375
1690840705285065700,3.306065673828125,-0.9808349609375,0.0338897705078125,0.001739501953125
1690840705295105800,3.316105712890625,-0.980865478515625,0.03424072265625,0.002166748046875
1690840705305145900,3.326145751953125,-0.98016357421875,0.0337982177734375,0.00177001953125
1690840705315186700,3.336186767578125,-0.980316162109375,0.03424072265625,0.0007171630859375
1690840705325226800,3.346226806640625,-0.9802703857421875,0.034423828125,0.0016937255859375
1690840705335266800,3.356266845703125,-0.98101806640625,0.0336761474609375,0.0019073486328125
1690840705345308000,3.366307861328125,-0.98150634765625,0.034027099609375,0.0019683837890625
1690840705355347700,3.37634765625,-0.9807586669921875,0.034088134765625,0.002105712890625
1690840705365418800,3.386418701171875,-0.980072021484375,0.03448486328125,0.0010528564453125
1690840705375458800,3.396458740234375,-0.9809722900390625,0.0339202880859375,0.001861572265625
1690840705385499000,3.406498779296875,-0.981353759765625,0.03411865234375,0.00213623046875
1690840705395539700,3.416539794921875,-0.980987548828125,0.0348358154296875,0.001434326171875
1690840705405579800,3.426579833984375,-0.9812164306640625,0.0338134765625,0.002349853515625
1690840705415619600,3.43661962890625,-0.9809417724609375,0.033721923828125,0.001617431640625
1690840705425659600,3.44665966796875,-0.9806365966796875,0.0345611572265625,0.0015869140625
1690840705435700700,3.45670068359375,-0.9818115234375,0.0335540771484375,0.001617431640625
1690840705445740800,3.46674072265625,-0.9810943603515625,0.0336151123046875,0.0009613037109375
1690840705455780900,3.47678076171875,-0.9810028076171875,0.0347900390625,0.00146484375
1690840705465820700,3.486820556640625,-0.9812164306640625,0.034423828125,0.0013427734375
1690840705475861800,3.49686181640625,-0.981170654296875,0.034027099609375,0.0015716552734375
1690840705485901800,3.50690185546875,-0.98095703125,0.03375244140625,0.00189208984375
1690840705495941600,3.516941650390625,-0.9622344970703125,0.0343017578125,0.0040130615234375
1690840705505982700,3.526982666015625,-0.9806671142578125,0.0385589599609375,-0.032928466796875
1690840705516052700,3.537052734375,-1.0352783203125,0.0073089599609375,0.089385986328125
1690840705526093800,3.54709375,-0.962432861328125,0.0424957275390625,-0.0223388671875
1690840705536134000,3.5571337890625,-0.978790283203125,0.025482177734375,-0.02178955078125
1690840705546173700,3.567173583984375,-0.980560302734375,0.04022216796875,0.010009765625
1690840705556214800,3.57721484375,-0.97381591796875,0.052978515625,-0.005218505859375
1690840705566254600,3.587254638671875,-0.974456787109375,0.039093017578125,-0.014007568359375
1690840705576294700,3.597294677734375,-0.974853515625,0.0396881103515625,-0.00323486328125
1690840705586334700,3.607334716796875,-0.979888916015625,0.039520263671875,0.0001068115234375
1690840705596375800,3.617375732421875,-0.9798126220703125,0.038421630859375,0.0020599365234375
1690840705606416000,3.627415771484375,-0.98046875,0.036285400390625,0.0056304931640625
1690840705616455700,3.63745556640625,-0.98193359375,0.033843994140625,0.007232666015625
1690840705626496800,3.647496826171875,-0.984344482421875,0.03173828125,0.0065765380859375
1690840705636536600,3.65753662109375,-0.98406982421875,0.0303955078125,0.005950927734375
1690840705646576600,3.66757666015625,-0.980072021484375,0.02850341796875,0.0039215087890625
1690840705656616700,3.67761669921875,-0.9868927001953125,0.0307159423828125,0.0021209716796875
1690840705666687700,3.687687744140625,-0.9791717529296875,0.0306549072265625,-0.0010528564453125
1690840705676727800,3.697727783203125,-0.981658935546875,0.03106689453125,-0.0014801025390625
1690840705686769000,3.707768798828125,-0.981842041015625,0.03216552734375,-0.0005950927734375
1690840705696808700,3.71780859375,-0.9803466796875,0.0311431884765625,-0.000885009765625
1690840705706848500,3.7278486328125,-0.9822998046875,0.03167724609375,0.0010986328125
1690840705716874500,3.73787451171875,-0.98211669921875,0.032257080078125,0.001983642578125
1690840705726914600,3.74791455078125,-0.983306884765625,0.032806396484375,0.00323486328125
1690840705736954600,3.75795458984375,-0.9810791015625,0.0338287353515625,0.004547119140625
1690840705746994700,3.76799462890625,-0.9799652099609375,0.03521728515625,0.0044403076171875
1690840705757035800,3.778035888671875,-0.98101806640625,0.0352935791015625,0.003814697265625
1690840705767075600,3.78807568359375,-0.9808197021484375,0.0373687744140625,0.00311279296875
1690840705777115600,3.79811572265625,-0.9780120849609375,0.0385589599609375,0.0017242431640625
1690840705787156500,3.808156494140625,-0.98114013671875,0.0377655029296875,0.000274658203125
1690840705797196500,3.818196533203125,-0.979095458984375,0.037872314453125,-0.0001373291015625
1690840705807236600,3.828236572265625,-0.977783203125,0.0369720458984375,-0.0003814697265625
1690840705817307600,3.8383076171875,-0.981170654296875,0.0370941162109375,0.001007080078125
1690840705827347500,3.848347412109375,-0.9788818359375,0.0361785888671875,0.00189208984375
1690840705837388500,3.858388427734375,-0.9806365966796875,0.03521728515625,0.0025177001953125
1690840705847428600,3.8684287109375,-0.9813079833984375,0.0349578857421875,0.00274658203125
1690840705857468700,3.87846875,-0.981719970703125,0.0343017578125,0.003082275390625
1690840705867508700,3.8885087890625,-0.983612060546875,0.033233642578125,0.0049591064453125
1690840705877549600,3.898549560546875,-0.980133056640625,0.033050537109375,0.0032501220703125
1690840705887589600,3.908589599609375,-0.982208251953125,0.0332794189453125,0.001373291015625
1690840705897629700,3.918629638671875,-0.9821929931640625,0.0330963134765625,0.0013275146484375
1690840705907669500,3.92866943359375,-0.9811859130859375,0.0322418212890625,0.0007171630859375
1690840705917710600,3.938710693359375,-0.9821624755859375,0.0319061279296875,0.0009765625
1690840705927750700,3.948750732421875,-0.9825286865234375,0.032073974609375,0.0004425048828125
1690840705937790700,3.958790771484375,-0.9799957275390625,0.0324249267578125,0.0025177001953125
1690840705947831600,3.96883154296875,-0.98272705078125,0.032684326171875,0.002777099609375
1690840705957871600,3.97887158203125,-0.98272705078125,0.0331573486328125,0.00146484375
1690840705967942700,3.988942626953125,-0.9820098876953125,0.0340423583984375,0.001495361328125
1690840705977982500,3.998982421875,-0.9823150634765625,0.0344085693359375,0.0027923583984375
1690840705988022500,4.0090224609375,-0.9822998046875,0.034881591796875,0.0025787353515625
1690840705998063600,4.019063720703125,-0.980010986328125,0.0349273681640625,0.002044677734375
1690840706008103700,4.029103759765625,-0.9795379638671875,0.0341339111328125,0.001129150390625
1690840706018143700,4.039143798828125,-0.9797515869140625,0.034912109375,0.00146484375
1690840706028183800,4.049183837890625,-0.9807891845703125,0.03582763671875,0.0015106201171875
1690840706038224600,4.059224609375,-0.9794921875,0.03582763671875,0.0018463134765625
1690840706048264700,4.0692646484375,-0.9794464111328125,0.035797119140625,0.001800537109375
1690840706058304500,4.079304443359375,-0.9797210693359375,0.0366363525390625,0.0016021728515625
1690840706068345600,4.089345703125,-0.9796905517578125,0.0361175537109375,0.0016937255859375
1690840706078385700,4.0993857421875,-0.98077392578125,0.0355682373046875,0.002532958984375
1690840706088425700,4.10942578125,-0.9815673828125,0.034820556640625,0.001953125
1690840706098465800,4.1194658203125,-0.9803466796875,0.034515380859375,0.00177001953125
1690840706108506600,4.129506591796875,-0.9813385009765625,0.0337066650390625,0.00146484375
1690840706118576600,4.13957666015625,-0.98089599609375,0.0340728759765625,0.00146484375
1690840706128617500,4.149617431640625,-0.981536865234375,0.033447265625,0.0026702880859375
1690840706138657500,4.159657470703125,-0.980621337890625,0.033447265625,0.002197265625
1690840706148697600,4.169697509765625,-0.9808807373046875,0.0330657958984375,0.001953125
1690840706158738700,4.17973876953125,-0.9831695556640625,0.0328216552734375,0.002655029296875
1690840706168778800,4.18977880859375,-0.98199462890625,0.0328826904296875,0.002044677734375
1690840706178818800,4.19981884765625,-0.981475830078125,0.0332794189453125,0.00213623046875
1690840706188858600,4.209858642578125,-0.9824371337890625,0.0336761474609375,0.0026092529296875
1690840706198899700,4.219899658203125,-0.980255126953125,0.033966064453125,0.002716064453125
1690840706208939500,4.229939453125,-0.9801483154296875,0.03338623046875,0.0012054443359375
1690840706218979600,4.2399794921875,-0.9818572998046875,0.0340118408203125,0.001708984375
1690840706229020700,4.250020751953125,-0.98052978515625,0.0343475341796875,0.00177001953125
1690840706239060700,4.260060791015625,-0.980621337890625,0.0352783203125,0.00177001953125
1690840706249100800,4.270100830078125,-0.9811248779296875,0.035247802734375,0.0019989013671875
1690840706259140600,4.280140625,-0.980255126953125,0.0350341796875,0.0019683837890625
1690840706269211600,4.290211669921875,-0.9806671142578125,0.0359649658203125,0.0008697509765625
1690840706279252500,4.30025244140625,-0.9798583984375,0.0358123779296875,0.001251220703125
1690840706289292500,4.31029248046875,-0.98040771484375,0.035125732421875,0.001007080078125
1690840706299332600,4.32033251953125,-0.9805145263671875,0.0344085693359375,0.002166748046875
1690840706309372700,4.33037255859375,-0.980560302734375,0.0352020263671875,0.001434326171875
1690840706319413800,4.340413818359375,-0.9812774658203125,0.0347137451171875,0.0014801025390625
1690840706329453800,4.350453857421875,-0.9807586669921875,0.034088134765625,0.001251220703125
1690840706339493600,4.36049365234375,-0.9812469482421875,0.03411865234375,0.001708984375
1690840706349534700,4.37053466796875,-0.98150634765625,0.03411865234375,0.0023956298828125
1690840706359574500,4.380574462890625,-0.9818572998046875,0.0335540771484375,0.0023040771484375
1690840706369614600,4.390614501953125,-0.9815216064453125,0.033538818359375,0.0016632080078125
1690840706379654700,4.400654541015625,-0.98065185546875,0.0339202880859375,0.0027008056640625
1690840706389695700,4.41069580078125,-0.9815521240234375,0.033966064453125,0.0013427734375
1690840706399735800,4.42073583984375,-0.9814910888671875,0.0334320068359375,0.0009918212890625
1690840706409775600,4.430775634765625,-0.981109619140625,0.0339508056640625,0.0016632080078125
1690840706419815400,4.4408154296875,-0.9815216064453125,0.0339202880859375,0.0015106201171875
1690840706429886500,4.450886474609375,-0.9809417724609375,0.0341339111328125,0.00189208984375
1690840706439927600,4.460927490234375,-0.9803619384765625,0.033416748046875,0.0012664794921875
1690840706449967600,4.470967529296875,-0.9806365966796875,0.033447265625,0.0012664794921875
1690840706460007700,4.481007568359375,-0.9815521240234375,0.034576416015625,0.001953125
1690840706470047700,4.4910478515625,-0.98052978515625,0.0353851318359375,0.0018463134765625
1690840706480088800,4.5010888671875,-0.98046875,0.03497314453125,0.001220703125
1690840706490128600,4.511128662109375,-0.9808502197265625,0.035614013671875,0.0022430419921875
1690840706500168400,4.52116845703125,-0.98077392578125,0.0348358154296875,0.0019073486328125
1690840706510209500,4.53120947265625,-0.9813079833984375,0.03472900390625,0.0019378662109375
1690840706520249600,4.54124951171875,-0.980621337890625,0.0349578857421875,0.002288818359375
1690840706530289700,4.55128955078125,-0.977996826171875,0.034515380859375,0.0011444091796875
1690840706540329700,4.561329833984375,-0.9833831787109375,0.0355987548828125,0.000762939453125
1690840706550370800,4.571370849609375,-0.980194091796875,0.0343780517578125,0.0016937255859375
1690840706560410600,4.58141064453125,-0.9844970703125,0.0341796875,0.0019073486328125
1690840706570450400,4.591450439453125,-0.9781494140625,0.034027099609375,0.0014190673828125
1690840706580521500,4.601521484375,-0.9806671142578125,0.03326416015625,0.00323486328125
1690840706590561500,4.6115615234375,-0.98077392578125,0.0348052978515625,0.003448486328125
1690840706600602600,4.6216025390625,-0.9789276123046875,0.03387451171875,0.0031280517578125
1690840706610642700,4.631642578125,-0.98419189453125,0.0343780517578125,0.0023040771484375
1690840706620682800,4.641682861328125,-0.9805755615234375,0.033599853515625,0.0009002685546875
1690840706630722600,4.65172265625,-0.9833526611328125,0.0336456298828125,0.0009307861328125
1690840706640763600,4.661763671875,-0.98016357421875,0.0338592529296875,0.0001068115234375
1690840706650803500,4.671803466796875,-0.9824676513671875,0.0339508056640625,-0.0009002685546875
1690840706660843500,4.681843505859375,-0.979400634765625,0.0343170166015625,0.00030517578125
1690840706670884600,4.691884521484375,-0.9810943603515625,0.0347442626953125,0.0012664794921875
1690840706680924700,4.701924560546875,-0.9820556640625,0.034271240234375,0.00299072265625
1690840706690964700,4.71196484375,-0.98016357421875,0.0348968505859375,0.0033416748046875
1690840706701004800,4.7220048828125,-0.9831085205078125,0.0344696044921875,0.0038604736328125
1690840706711045600,4.732045654296875,-0.9806671142578125,0.0348052978515625,0.0036163330078125
1690840706721075000,4.742074951171875,-0.9831085205078125,0.0352020263671875,0.00372314453125
1690840706731146000,4.75214599609375,-0.9798126220703125,0.0342559814453125,0.0020904541015625
1690840706741185800,4.762185791015625,-0.98211669921875,0.0350799560546875,0.0010986328125
1690840706751225900,4.772225830078125,-0.9796142578125,0.0345458984375,0.0003662109375
1690840706761267000,4.782266845703125,-0.9798736572265625,0.0346527099609375,-0.0007171630859375
1690840706771306800,4.792306640625,-0.9806365966796875,0.0338592529296875,0.00006103515625
1690840706781346800,4.802346923828125,-0.98052978515625,0.033203125,0.0009918212890625
1690840706791388000,4.812387939453125,-0.9808807373046875,0.0341339111328125,0.0015716552734375
1690840706801428000,4.822427978515625,-0.980133056640625,0.0343170166015625,0.0036468505859375
1690840706811467800,4.8324677734375,-0.9814910888671875,0.033782958984375,0.0035400390625
1690840706821507800,4.8425078125,-0.98126220703125,0.034912109375,0.0035552978515625
1690840706831549000,4.852548828125,-0.9822998046875,0.0345306396484375,0.0036468505859375
1690840706841588700,4.862588623046875,-0.9818267822265625,0.034027099609375,0.0030059814453125
1690840706851628800,4.87262890625,-0.9818572998046875,0.0340728759765625,0.0013580322265625
1690840706861670000,4.882669921875,-0.98150634765625,0.034393310546875,0.000946044921875
1690840706871709700,4.892709716796875,-0.980743408203125,0.0334014892578125,-0.0001068115234375
1690840706881780700,4.90278076171875,-0.981353759765625,0.033660888671875,-0.000701904296875
1690840706891820800,4.91282080078125,-0.9804534912109375,0.034210205078125,0.000457763671875
1690840706901860900,4.92286083984375,-0.9807586669921875,0.0339813232421875,0.0011444091796875
1690840706911900700,4.932900634765625,-0.982696533203125,0.0339813232421875,0.0020599365234375
1690840706921941800,4.942941650390625,-0.981109619140625,0.0341796875,0.0038604736328125
1690840706931981800,4.95298193359375,-0.9804840087890625,0.034454345703125,0.0041046142578125
1690840706942022000,4.96302197265625,-0.98162841796875,0.0344390869140625,0.00311279296875
1690840706952062700,4.973062744140625,-0.9818267822265625,0.034881591796875,0.0037994384765625
1690840706962102800,4.983102783203125,-0.980865478515625,0.034515380859375,0.001251220703125
1690840706972142800,4.993142822265625,-0.9808807373046875,0.03436279296875,0.0003509521484375
1690840706982182700,5.0031826171875,-0.9806365966796875,0.034088134765625,0.0001678466796875
1690840706992223700,5.0132236328125,-0.9799041748046875,0.03399658203125,-0.0001983642578125
1690840707002263800,5.023263916015625,-0.9801483154296875,0.035400390625,-0.0001068115234375
1690840707012304000,5.033303955078125,-0.9806976318359375,0.0344390869140625,0.0015411376953125
1690840707022344700,5.0433447265625,-0.9813079833984375,0.0344696044921875,0.0020904541015625
1690840707032415000,5.0534150390625,-0.9806976318359375,0.0345001220703125,0.0032806396484375
1690840707042455800,5.063455810546875,-0.981658935546875,0.0343017578125,0.0040740966796875
1690840707052496000,5.073495849609375,-0.9816436767578125,0.0343780517578125,0.0037384033203125
1690840707062535700,5.08353564453125,-0.981689453125,0.03424072265625,0.003173828125
1690840707072575700,5.09357568359375,-0.9813232421875,0.0349578857421875,0.0018463134765625
1690840707082616800,5.103616943359375,-0.9810791015625,0.0345001220703125,0.0010986328125
1690840707092657000,5.113656982421875,-0.9808349609375,0.034393310546875,0.0006561279296875
1690840707102697000,5.123697021484375,-0.980621337890625,0.0344085693359375,0.0003814697265625
1690840707112737800,5.13373779296875,-0.9797210693359375,0.0340576171875,0.0008544921875
1690840707122777900,5.14377783203125,-0.980560302734375,0.034393310546875,0.00128173828125
1690840707132817700,5.153817626953125,-0.9815216064453125,0.033355712890625,0.0020751953125
1690840707142857700,5.163857666015625,-0.9815521240234375,0.0337371826171875,0.0031585693359375
1690840707152898800,5.17389892578125,-0.9814300537109375,0.034423828125,0.0032958984375
1690840707162939000,5.18393896484375,-0.9809112548828125,0.0338134765625,0.003143310546875
1690840707172979000,5.19397900390625,-0.980804443359375,0.0337982177734375,0.0027618408203125
1690840707183050000,5.204050048828125,-0.98126220703125,0.0345001220703125,0.002288818359375
1690840707193089800,5.21408984375,-0.980865478515625,0.0337371826171875,0.000823974609375
1690840707203131000,5.224130859375,-0.97955322265625,0.0334320068359375,0.0009307861328125
1690840707213170700,5.234170654296875,-0.9802398681640625,0.0350494384765625,0.0007476806640625
1690840707223210800,5.244210693359375,-0.9815521240234375,0.0332489013671875,0.0005340576171875
1690840707233251800,5.254251953125,-0.9811553955078125,0.0336456298828125,0.00115966796875
1690840707243292000,5.2642919921875,-0.98114013671875,0.0348358154296875,0.001678466796875
1690840707253332000,5.27433203125,-0.9813232421875,0.0349884033203125,0.0021514892578125
1690840707263372000,5.2843720703125,-0.98199462890625,0.0346832275390625,0.0020751953125
1690840707273412900,5.294412841796875,-0.9810638427734375,0.034393310546875,0.0025634765625
1690840707283452700,5.30445263671875,-0.9803314208984375,0.0345611572265625,0.002685546875
1690840707293492700,5.31449267578125,-0.9803924560546875,0.0338897705078125,0.00177001953125
1690840707303533800,5.324533935546875,-0.981292724609375,0.033935546875,0.0023956298828125
1690840707313574000,5.334573974609375,-0.9808502197265625,0.0347137451171875,0.0014801025390625
1690840707323614000,5.344614013671875,-0.9805450439453125,0.033905029296875,0.0007781982421875
1690840707333685000,5.35468505859375,-0.9818572998046875,0.0345306396484375,0.0012969970703125
1690840707343724800,5.364724853515625,-0.980499267578125,0.034759521484375,0.001708984375
1690840707353764900,5.374764892578125,-0.98077392578125,0.034149169921875,0.001953125
1690840707363805700,5.3848056640625,-0.9811553955078125,0.034088134765625,0.0009918212890625
1690840707373845800,5.394845703125,-0.9811553955078125,0.0342559814453125,0.0016632080078125
1690840707383885800,5.4048857421875,-0.9807586669921875,0.0336456298828125,0.0017852783203125
1690840707393927000,5.414927001953125,-0.9818267822265625,0.0345458984375,0.0010223388671875
1690840707403967000,5.424967041015625,-0.9811859130859375,0.03375244140625,0.001495361328125
1690840707414007000,5.435007080078125,-0.981597900390625,0.033660888671875,0.0010833740234375
1690840707424046800,5.445046875,-0.9824066162109375,0.034271240234375,0.0009613037109375
1690840707434087700,5.455087646484375,-0.9812469482421875,0.034271240234375,0.001800537109375
1690840707444127700,5.465127685546875,-0.9807891845703125,0.0348663330078125,0.0019989013671875
1690840707454167800,5.475167724609375,-0.980377197265625,0.033599853515625,0.00244140625
1690840707464209000,5.485208984375,-0.9806671142578125,0.033538818359375,0.0022735595703125
1690840707474249000,5.4952490234375,-0.9807891845703125,0.03460693359375,0.002227783203125
1690840707484289000,5.5052890625,-0.9819183349609375,0.0341949462890625,0.00250244140625
1690840707494359800,5.51535986328125,-0.980865478515625,0.0344696044921875,0.001739501953125
1690840707504400000,5.52539990234375,-0.9804229736328125,0.0340118408203125,0.0017547607421875
1690840707514440700,5.535440673828125,-0.9806060791015625,0.033355712890625,0.002471923828125
1690840707524480800,5.545480712890625,-0.981353759765625,0.0342559814453125,0.001983642578125
1690840707534520800,5.555520751953125,-0.981475830078125,0.03387451171875,0.0025482177734375
1690840707544561000,5.565560791015625,-0.9807281494140625,0.0345916748046875,0.0020904541015625
1690840707554602000,5.57560205078125,-0.9813232421875,0.0338592529296875,0.001678466796875
1690840707564642000,5.58564208984375,-0.9812469482421875,0.03350830078125,0.001678466796875
1690840707574681900,5.595681884765625,-0.9813690185546875,0.03387451171875,0.0019683837890625
1690840707584722000,5.605721923828125,-0.9804229736328125,0.0345306396484375,0.0015106201171875
1690840707594762800,5.6157626953125,-0.9803924560546875,0.0339202880859375,0.00201416015625
1690840707604802800,5.625802734375,-0.9805450439453125,0.0347900390625,0.001739501953125
1690840707614843000,5.6358427734375,-0.9808807373046875,0.0348663330078125,0.00152587890625
1690840707624884000,5.645884033203125,-0.9812469482421875,0.0351409912109375,0.00146484375
1690840707634924000,5.655924072265625,-0.9816741943359375,0.034820556640625,0.0011138916015625
1690840707644994800,5.665994873046875,-0.980926513671875,0.0346832275390625,0.002716064453125
1690840707655035000,5.676034912109375,-0.98114013671875,0.0343475341796875,0.00250244140625
1690840707665075000,5.686074951171875,-0.981231689453125,0.0347137451171875,0.0018463134765625
1690840707675115800,5.69611572265625,-0.9817047119140625,0.0343017578125,0.0019378662109375
1690840707685155800,5.70615576171875,-0.9810028076171875,0.034637451171875,0.001922607421875
1690840707695196000,5.71619580078125,-0.9812469482421875,0.0340118408203125,0.0025482177734375
1690840707705236000,5.726236083984375,-0.98101806640625,0.0341949462890625,0.0023193359375
1690840707715277000,5.736277099609375,-0.98052978515625,0.0342864990234375,0.00146484375
1690840707725336600,5.746336669921875,-0.9804534912109375,0.034942626953125,0.001068115234375
1690840707735376600,5.756376708984375,-0.980682373046875,0.034759521484375,0.0016937255859375
1690840707745417500,5.76641748046875,-0.98150634765625,0.0347137451171875,0.0016632080078125
1690840707755457500,5.77645751953125,-0.98065185546875,0.0343170166015625,0.002532958984375
1690840707765497600,5.78649755859375,-0.9810943603515625,0.034912109375,0.0019073486328125
1690840707775537700,5.79653759765625,-0.9819793701171875,0.0339813232421875,0.0018157958984375
1690840707785578800,5.806578857421875,-0.982421875,0.0337371826171875,0.0021209716796875
1690840707795648500,5.8166484375,-0.98065185546875,0.0338897705078125,0.0015106201171875
1690840707805689600,5.826689697265625,-0.98065185546875,0.0340423583984375,0.0017242431640625
1690840707815729700,5.836729736328125,-0.9814910888671875,0.034637451171875,0.0013885498046875
1690840707825769700,5.846769775390625,-0.981353759765625,0.0346221923828125,0.001129150390625
1690840707835810600,5.856810546875,-0.9819488525390625,0.0344390869140625,0.0011444091796875
1690840707845850600,5.8668505859375,-0.981964111328125,0.0341644287109375,0.0013275146484375
1690840707855890700,5.876890625,-0.9812469482421875,0.0340728759765625,0.001312255859375
1690840707865930500,5.886930419921875,-0.9809112548828125,0.0345306396484375,0.0008392333984375
1690840707875971600,5.8969716796875,-0.9810943603515625,0.0345001220703125,0.0017242431640625
1690840707886011600,5.90701171875,-0.981353759765625,0.0345611572265625,0.0026092529296875
1690840707896051700,5.9170517578125,-0.980804443359375,0.034149169921875,0.001953125
1690840707906092500,5.927092529296875,-0.9813995361328125,0.0345001220703125,0.0013275146484375
1690840707916132600,5.937132568359375,-0.9808197021484375,0.034576416015625,0.0009918212890625
1690840707926172700,5.947172607421875,-0.9808349609375,0.0345306396484375,0.001861572265625
1690840707936212500,5.95721240234375,-0.980804443359375,0.034515380859375,0.0020751953125
1690840707946283500,5.967283447265625,-0.9812469482421875,0.034332275390625,0.0009307861328125
1690840707956324600,5.97732470703125,-0.98175048828125,0.034332275390625,0.001220703125
1690840707966364700,5.98736474609375,-0.9800262451171875,0.0348052978515625,0.001739501953125
1690840707976404700,5.99740478515625,-0.9806976318359375,0.0342254638671875,0.002349853515625
1690840707986444800,6.00744482421875,-0.9807586669921875,0.0341949462890625,0.00238037109375
1690840707996485600,6.017485595703125,-0.9820556640625,0.0340423583984375,0.002197265625
1690840708006525400,6.027525390625,-0.9808349609375,0.0341339111328125,0.0022125244140625
1690840708016565500,6.0375654296875,-0.9810791015625,0.0344390869140625,0.0020294189453125
1690840708026605600,6.04760546875,-0.9810028076171875,0.0343017578125,0.001800537109375
1690840708036646700,6.057646728515625,-0.9803924560546875,0.0340576171875,0.0012054443359375
1690840708046686700,6.067686767578125,-0.980255126953125,0.034423828125,0.00146484375
1690840708056726800,6.077726806640625,-0.9809417724609375,0.0347137451171875,0.00177001953125
1690840708066767600,6.087767578125,-0.9803009033203125,0.0346832275390625,0.0017242431640625
1690840708076807700,6.0978076171875,-0.9814453125,0.034881591796875,0.00177001953125
1690840708086847500,6.107847412109375,-0.981414794921875,0.034759521484375,0.00250244140625
1690840708096918500,6.11791845703125,-0.980621337890625,0.0346527099609375,0.0018310546875
1690840708106958600,6.12795849609375,-0.9810943603515625,0.034149169921875,0.00152587890625
1690840708116999700,6.137999755859375,-0.9814453125,0.03399658203125,0.002349853515625
1690840708127039700,6.148039794921875,-0.982025146484375,0.0340576171875,0.001739501953125
1690840708137079800,6.158079833984375,-0.9816741943359375,0.0352020263671875,0.001922607421875
1690840708147119600,6.16811962890625,-0.98004150390625,0.0347900390625,0.0018310546875
1690840708157160400,6.178160400390625,-0.9813995361328125,0.0342864990234375,0.0016326904296875
1690840708167200500,6.188200439453125,-0.9810028076171875,0.0339813232421875,0.002044677734375
1690840708177240600,6.198240478515625,-0.98052978515625,0.0333404541015625,0.001312255859375
1690840708187281700,6.20828173828125,-0.981689453125,0.033966064453125,0.0018463134765625
1690840708197321700,6.21832177734375,-0.98077392578125,0.0344085693359375,0.0014495849609375
1690840708207361800,6.22836181640625,-0.9806671142578125,0.033843994140625,0.0016632080078125
1690840708217401900,6.23840185546875,-0.9811859130859375,0.0338287353515625,0.00177001953125
1690840708227442700,6.248442626953125,-0.9815673828125,0.0347900390625,0.001129150390625
1690840708237482500,6.258482421875,-0.9812164306640625,0.034820556640625,0.0013580322265625
1690840708247553500,6.268553466796875,-0.9811859130859375,0.034088134765625,0.001800537109375
1690840708257593600,6.278593505859375,-0.9816131591796875,0.0345916748046875,0.0017852783203125
1690840708267633700,6.288633544921875,-0.981414794921875,0.0350189208984375,0.001617431640625
1690840708277674800,6.2986748046875,-0.98089599609375,0.0339813232421875,0.00225830078125
1690840708287714800,6.30871484375,-0.981201171875,0.0333099365234375,0.0019683837890625
1690840708297754600,6.318754638671875,-0.9815216064453125,0.0333251953125,0.00189208984375
1690840708307794700,6.328794677734375,-0.9811859130859375,0.0341033935546875,0.0015716552734375
1690840708317835500,6.33883544921875,-0.9803619384765625,0.0342559814453125,0.002044677734375
1690840708327875600,6.34887548828125,-0.981231689453125,0.0346221923828125,0.00140380859375
1690840708337915600,6.35891552734375,-0.9815216064453125,0.034271240234375,0.001007080078125
1690840708347956700,6.368956787109375,-0.981903076171875,0.0337066650390625,0.002105712890625
1690840708357996800,6.378996826171875,-0.9810028076171875,0.033935546875,0.0022430419921875
1690840708368036900,6.389036865234375,-0.980712890625,0.0337371826171875,0.0022125244140625
1690840708378076700,6.39907666015625,-0.981903076171875,0.0343170166015625,0.00225830078125
1690840708388117500,6.409117431640625,-0.9814300537109375,0.0338592529296875,0.0019378662109375
1690840708398188500,6.4191884765625,-0.9813385009765625,0.0341644287109375,0.0018463134765625
1690840708408228600,6.429228515625,-0.9813385009765625,0.03411865234375,0.0014495849609375
1690840708418268700,6.4392685546875,-0.980712890625,0.034393310546875,0.0015106201171875
1690840708428308700,6.449308837890625,-0.98095703125,0.0346832275390625,0.0019683837890625
1690840708438349800,6.459349853515625,-0.9817047119140625,0.034637451171875,0.0010986328125
1690840708448389600,6.4693896484375,-0.9810028076171875,0.0341796875,0.0019378662109375
1690840708458429700,6.4794296875,-0.980865478515625,0.033050537109375,0.0015411376953125
1690840708468470500,6.489470458984375,-0.9812164306640625,0.0341033935546875,0.0016937255859375
1690840708478510600,6.499510498046875,-0.9810638427734375,0.034088134765625,0.00244140625
1690840708488550700,6.509550537109375,-0.9812164306640625,0.0339508056640625,0.0019989013671875
1690840708498590700,6.5195908203125,-0.9814453125,0.0338287353515625,0.00146484375
1690840708508631800,6.5296318359375,-0.9809417724609375,0.0342254638671875,0.00164794921875
1690840708518672000,6.539671875,-0.9813995361328125,0.0339813232421875,0.002166748046875
1690840708528711700,6.549711669921875,-0.9814605712890625,0.0335845947265625,0.001708984375
1690840708538751500,6.55975146484375,-0.980438232421875,0.0340728759765625,0.0013275146484375
1690840708548792600,6.56979248046875,-0.9816741943359375,0.0334625244140625,0.0018768310546875
1690840708558863600,6.579863525390625,-0.9816436767578125,0.0340423583984375,0.0025177001953125
1690840708568903700,6.589903564453125,-0.981109619140625,0.03411865234375,0.00250244140625
1690840708578943700,6.59994384765625,-0.980377197265625,0.033966064453125,0.0017547607421875
1690840708588983600,6.609983642578125,-0.9817962646484375,0.0338134765625,0.001861572265625
1690840708599024600,6.620024658203125,-0.982635498046875,0.0350494384765625,0.0018768310546875
1690840708609064700,6.630064697265625,-0.9812774658203125,0.0347442626953125,0.0018768310546875
1690840708619104500,6.6401044921875,-0.9815673828125,0.0341644287109375,0.001800537109375
1690840708629145600,6.6501455078125,-0.98101806640625,0.034027099609375,0.001617431640625
1690840708639185700,6.660185546875,-0.9804534912109375,0.0341949462890625,0.0012054443359375
1690840708649225700,6.670225830078125,-0.98114013671875,0.0349273681640625,0.00177001953125
1690840708659265500,6.680265625,-0.98126220703125,0.0342559814453125,0.0015411376953125
1690840708669306600,6.690306640625,-0.9814605712890625,0.0340728759765625,0.0021514892578125
1690840708679346700,6.7003466796875,-0.979949951171875,0.0337066650390625,0.0016632080078125
1690840708689386500,6.710386474609375,-0.9813995361328125,0.033843994140625,0.001739501953125
1690840708699427600,6.720427490234375,-0.9821014404296875,0.034912109375,0.002197265625
1690840708709497600,6.73049755859375,-0.98077392578125,0.034698486328125,0.0024566650390625
1690840708719523000,6.740523193359375,-0.9817657470703125,0.034637451171875,0.001312255859375
1690840708729563000,6.75056298828125,-0.981414794921875,0.0346527099609375,0.0020751953125
1690840708739603000,6.76060302734375,-0.9802703857421875,0.03485107421875,0.0012969970703125
1690840708749642800,6.770642822265625,-0.9813995361328125,0.0344085693359375,0.0007171630859375
1690840708759684000,6.78068408203125,-0.981781005859375,0.0343475341796875,0.0010223388671875
1690840708769724000,6.790723876953125,-0.9810333251953125,0.0338592529296875,0.0018157958984375
1690840708779764000,6.800763916015625,-0.9815216064453125,0.0343170166015625,0.0026702880859375
1690840708789805000,6.81080517578125,-0.98046875,0.0343017578125,0.0022735595703125
1690840708799844900,6.820844970703125,-0.9813690185546875,0.0341796875,0.0015106201171875
1690840708809885000,6.830885009765625,-0.9804229736328125,0.033905029296875,0.001495361328125
1690840708819925000,6.840925048828125,-0.980804443359375,0.0340118408203125,0.0023651123046875
1690840708829966000,6.850966064453125,-0.9815826416015625,0.0342254638671875,0.00250244140625
1690840708840006000,6.861005859375,-0.9816131591796875,0.0342864990234375,0.002044677734375
1690840708850046000,6.8710458984375,-0.9824066162109375,0.0337982177734375,0.0013580322265625
1690840708860117000,6.881116943359375,-0.981414794921875,0.034423828125,0.000823974609375
1690840708870157000,6.891156982421875,-0.9810943603515625,0.0350494384765625,0.0019989013671875
1690840708880198000,6.901197998046875,-0.981781005859375,0.0341033935546875,0.00146484375
1690840708890238000,6.911238037109375,-0.9817657470703125,0.034637451171875,0.00115966796875
1690840708900277800,6.92127783203125,-0.980804443359375,0.034637451171875,0.002044677734375
1690840708910318800,6.93131884765625,-0.980987548828125,0.0348358154296875,0.002105712890625
1690840708920359000,6.94135888671875,-0.981292724609375,0.0348052978515625,0.00152587890625
1690840708930399000,6.95139892578125,-0.9813232421875,0.034393310546875,0.0018768310546875
1690840708940439000,6.96143896484375,-0.9805908203125,0.0343780517578125,0.0026702880859375
1690840708950480000,6.97147998046875,-0.98162841796875,0.0350189208984375,0.0016021728515625
1690840708960520000,6.98152001953125,-0.9817352294921875,0.0358123779296875,0.001312255859375
1690840708970560000,6.99156005859375,-0.98089599609375,0.034393310546875,0.0018310546875
1690840708980601000,7.00160107421875,-0.981414794921875,0.0341033935546875,0.002410888671875
1690840708990641000,7.011640869140625,-0.9810638427734375,0.0347747802734375,0.0019378662109375
1690840709000681000,7.021680908203125,-0.981048583984375,0.0345611572265625,0.001556396484375
1690840709010752000,7.031751953125,-0.981048583984375,0.03497314453125,0.0017242431640625
1690840709020792000,7.0417919921875,-0.9815521240234375,0.034210205078125,0.0008697509765625
1690840709030832000,7.05183203125,-0.9812469482421875,0.0345458984375,0.0001373291015625
1690840709040873000,7.061873046875,-0.981170654296875,0.0335540771484375,0.0010833740234375
1690840709050912800,7.071912841796875,-0.9811248779296875,0.0342864990234375,0.001251220703125
1690840709060952800,7.081952880859375,-0.980560302734375,0.034698486328125,0.0014190673828125
1690840709070994000,7.091993896484375,-0.98101806640625,0.0338134765625,0.0018768310546875
1690840709081034000,7.102033935546875,-0.9815521240234375,0.0341796875,0.002166748046875
1690840709091074000,7.112073974609375,-0.9813385009765625,0.0338592529296875,0.002838134765625
1690840709101114000,7.122114013671875,-0.981048583984375,0.03466796875,0.0020751953125
1690840709111155000,7.132155029296875,-0.981048583984375,0.0347442626953125,0.0020904541015625
1690840709121195000,7.142195068359375,-0.9817047119140625,0.034576416015625,0.0014190673828125
1690840709131234800,7.15223486328125,-0.9806976318359375,0.033233642578125,0.0011444091796875
1690840709141276000,7.16227587890625,-0.980865478515625,0.0343170166015625,0.0013885498046875
1690840709151316000,7.17231591796875,-0.9803619384765625,0.0348052978515625,0.0012969970703125
1690840709161387000,7.182386962890625,-0.98126220703125,0.033905029296875,0.0012359619140625
1690840709171427000,7.192427001953125,-0.98114013671875,0.035308837890625,0.000823974609375
1690840709181467100,7.202467041015625,-0.9808349609375,0.0349273681640625,0.0017242431640625
1690840709191507000,7.2125068359375,-0.981048583984375,0.0345611572265625,0.0018157958984375
1690840709201547800,7.2225478515625,-0.981201171875,0.0339813232421875,0.001312255859375
1690840709211587800,7.232587890625,-0.97991943359375,0.0345611572265625,0.0010833740234375
1690840709221628000,7.2426279296875,-0.98150634765625,0.034637451171875,0.0017852783203125
1690840709231669000,7.2526689453125,-0.9811553955078125,0.0345458984375,0.0018310546875
1690840709241709000,7.262708984375,-0.98052978515625,0.034576416015625,0.002044677734375
1690840709251749000,7.2727490234375,-0.981414794921875,0.0349578857421875,0.001678466796875
1690840709261789200,7.2827890625,-0.9737701416015625,0.0349273681640625,0.00146484375
1690840709271830000,7.292830078125,-0.9869537353515625,0.022186279296875,-0.0571441650390625
1690840709281869800,7.302869873046875,-1.030303955078125,-0.0003204345703125,0.0723724365234375
1690840709291910000,7.312909912109375,-0.9702301025390625,0.05877685546875,0.0079345703125
1690840709301951000,7.322950927734375,-0.97021484375,0.0379486083984375,-0.0107421875
1690840709312021000,7.33302099609375,-0.9907684326171875,0.0360107421875,0.010894775390625
1690840709322062000,7.34306201171875,-0.981842041015625,0.035491943359375,-0.0049896240234375
1690840709332102100,7.35310205078125,-0.972503662109375,0.044525146484375,0.0232086181640625
1690840709342142000,7.363141845703125,-0.973846435546875,0.071014404296875,0.0039825439453125
1690840709352182800,7.373182861328125,-0.9644317626953125,0.04656982421875,-0.0262603759765625
1690840709362222800,7.383222900390625,-0.971038818359375,0.0415191650390625,-0.0158538818359375
1690840709372263000,7.393262939453125,-0.981536865234375,0.0553131103515625,0.00250244140625
1690840709382303000,7.403302978515625,-0.970184326171875,0.0581207275390625,0.01239013671875
1690840709392344000,7.413343994140625,-0.979461669921875,0.0453033447265625,0.01092529296875
1690840709402384100,7.423384033203125,-0.987640380859375,0.02349853515625,0.0081634521484375
1690840709412424000,7.433423828125,-0.9817047119140625,0.0240478515625,0.0078887939453125
1690840709422465000,7.443465087890625,-0.994171142578125,0.01739501953125,-0.0012359619140625
1690840709432504800,7.4535048828125,-0.9798431396484375,0.02044677734375,-0.0002593994140625
1690840709442545000,7.463544921875,-0.98583984375,0.019744873046875,0.0013885498046875
1690840709452585000,7.4735849609375,-0.9882049560546875,0.0194549560546875,0.000885009765625
1690840709462656000,7.483656005859375,-0.9828338623046875,0.0177764892578125,0.0034637451171875
1690840709472696000,7.493696044921875,-0.98724365234375,0.017364501953125,0.0027008056640625
1690840709482737200,7.503737060546875,-0.9854736328125,0.0181427001953125,0.001953125
1690840709492777000,7.51377685546875,-0.9876251220703125,0.0200347900390625,0.0033721923828125
1690840709502817000,7.523817138671875,-0.9827880859375,0.02276611328125,0.0028076171875
1690840709512857900,7.53385791015625,-0.98431396484375,0.0261993408203125,0.00250244140625
1690840709522898000,7.54389794921875,-0.982879638671875,0.0284423828125,0.00299072265625
1690840709532938000,7.55393798828125,-0.9810943603515625,0.032318115234375,0.0030670166015625
1690840709542978000,7.56397802734375,-0.977691650390625,0.0355224609375,0.0030517578125
1690840709553019100,7.57401904296875,-0.9808349609375,0.03973388671875,0.002410888671875
1690840709563059000,7.584058837890625,-0.977569580078125,0.04156494140625,0.0025482177734375
1690840709573099000,7.59409912109375,-0.975799560546875,0.04351806640625,0.0005645751953125
1690840709583139800,7.604139892578125,-0.979888916015625,0.045074462890625,0.0009765625
1690840709593180000,7.614179931640625,-0.974639892578125,0.044647216796875,0.0013275146484375
1690840709603220000,7.624219970703125,-0.9766387939453125,0.0457916259765625,0.0008392333984375
1690840709613260000,7.634260009765625,-0.9773406982421875,0.0452728271484375,0.0009002685546875
1690840709623331000,7.6443310546875,-0.9778900146484375,0.0440673828125,0.00128173828125
1690840709633372200,7.6543720703125,-0.9778900146484375,0.043426513671875,0.0021820068359375
1690840709643412000,7.664411865234375,-0.97784423828125,0.0408935546875,0.00189208984375
1690840709653452000,7.6744521484375,-0.9803466796875,0.038543701171875,0.0017547607421875
1690840709663491800,7.684491943359375,-0.9799652099609375,0.0358734130859375,0.0019073486328125
1690840709673533000,7.694532958984375,-0.9794921875,0.0330657958984375,0.0017547607421875
1690840709683573000,7.704572998046875,-0.9821929931640625,0.0309906005859375,0.0016937255859375
1690840709693613000,7.714613037109375,-0.98309326171875,0.0293426513671875,0.0009613037109375
1690840709703652900,7.72465283203125,-0.982025146484375,0.0267486572265625,0.0017852783203125
1690840709713694000,7.73469384765625,-0.985076904296875,0.0266876220703125,0.00250244140625
1690840709723713300,7.74471337890625,-0.9847869873046875,0.02557373046875,0.002593994140625
1690840709733753000,7.754753173828125,-0.98370361328125,0.02410888671875,0.002227783203125
1690840709743794200,7.764794189453125,-0.984893798828125,0.0239105224609375,0.00213623046875
1690840709753834200,7.774834228515625,-0.98419189453125,0.0240478515625,0.0024566650390625
1690840709763874300,7.784874267578125,-0.9842529296875,0.026275634765625,0.0031890869140625
1690840709773945300,7.7949453125,-0.9823150634765625,0.0273590087890625,0.0029754638671875
1690840709783985200,7.804985107421875,-0.9826507568359375,0.02813720703125,0.002227783203125
1690840709794026200,7.815026123046875,-0.982208251953125,0.0301666259765625,0.002532958984375
1690840709804066300,7.82506640625,-0.980316162109375,0.0323638916015625,0.0011749267578125
1690840709814106000,7.835106201171875,-0.980072021484375,0.0338134765625,0.001953125
1690840709824146200,7.845146240234375,-0.9801177978515625,0.035400390625,0.00189208984375
1690840709834187300,7.855187255859375,-0.9788665771484375,0.0369110107421875,0.0018463134765625
1690840709844227300,7.865227294921875,-0.979827880859375,0.03857421875,0.00213623046875
1690840709854267100,7.87526708984375,-0.9800872802734375,0.03924560546875,0.002471923828125
1690840709864308200,7.88530810546875,-0.9784698486328125,0.0394287109375,0.002227783203125
1690840709874348300,7.895348388671875,-0.978759765625,0.0397491455078125,0.001678466796875
1690840709884388000,7.90538818359375,-0.978515625,0.0406494140625,0.001617431640625
1690840709894428200,7.91542822265625,-0.979156494140625,0.0392913818359375,0.002105712890625
1690840709904469200,7.92546923828125,-0.979583740234375,0.0382232666015625,0.0018310546875
1690840709914509300,7.93550927734375,-0.9784698486328125,0.0372467041015625,0.002288818359375
1690840709924580400,7.945580322265625,-0.9800872802734375,0.0357818603515625,0.0025787353515625
1690840709934620200,7.9556201171875,-0.979705810546875,0.034576416015625,0.0028076171875
1690840709944660200,7.96566015625,-0.980072021484375,0.0332489013671875,0.001953125
1690840709954701300,7.975701416015625,-0.9817047119140625,0.031646728515625,0.0025177001953125
1690840709964741000,7.9857412109375,-0.9816131591796875,0.0311279296875,0.0019683837890625
1690840709974781200,7.99578125,-0.9815521240234375,0.02984619140625,0.002227783203125
1690840709984821200,8.0058212890625,-0.9827728271484375,0.028778076171875,0.002593994140625
1690840709994862300,8.0158623046875,-0.983367919921875,0.0288848876953125,0.0027923583984375
1690840710004902100,8.025902099609375,-0.9834747314453125,0.02813720703125,0.0028839111328125
1690840710014942200,8.035942138671874,-0.982818603515625,0.02825927734375,0.00238037109375
1690840710024983000,8.045983154296875,-0.982757568359375,0.0281219482421875,0.002777099609375
1690840710035023000,8.056023193359374,-0.98382568359375,0.0289764404296875,0.0028076171875
1690840710045063200,8.066063232421875,-0.9820709228515625,0.0303497314453125,0.002227783203125
1690840710055103200,8.076103271484374,-0.9831695556640625,0.0306854248046875,0.0019989013671875
1690840710065144300,8.086144287109375,-0.9830322265625,0.03125,0.0025482177734375
1690840710075215000,8.096215087890625,-0.9799041748046875,0.0325469970703125,0.0013427734375
1690840710085255200,8.106255126953124,-0.980712890625,0.033721923828125,0.002593994140625
1690840710095295200,8.116295166015625,-0.9803314208984375,0.0351409912109375,0.003173828125
1690840710105335300,8.126335205078124,-0.9792633056640625,0.0361328125,0.0019989013671875
1690840710115376000,8.136376220703125,-0.9802703857421875,0.035858154296875,0.002685546875
1690840710125416200,8.146416259765624,-0.980621337890625,0.03631591796875,0.00238037109375
1690840710135456300,8.156456298828125,-0.97979736328125,0.0360565185546875,0.00250244140625
1690840710145497300,8.166497314453125,-0.9785003662109375,0.037139892578125,0.0016021728515625
1690840710155537200,8.176537109375,-0.979736328125,0.0370941162109375,0.0016326904296875
1690840710165577200,8.1865771484375,-0.9794464111328125,0.036407470703125,0.0027618408203125
1690840710175617300,8.1966171875,-0.980224609375,0.0366973876953125,0.001739501953125
1690840710185658000,8.206658203125,-0.9811859130859375,0.035675048828125,0.0016021728515625
1690840710195698200,8.2166982421875,-0.9815521240234375,0.034454345703125,0.001861572265625
1690840710205738200,8.22673828125,-0.980804443359375,0.0336761474609375,0.0015716552734375
1690840710215778000,8.236778076171875,-0.981048583984375,0.033477783203125,0.0022735595703125
1690840710225849000,8.24684912109375,-0.9806976318359375,0.0328826904296875,0.0025634765625
1690840710235890200,8.25689013671875,-0.981170654296875,0.0313873291015625,0.0029144287109375
1690840710245930200,8.26693017578125,-0.9821014404296875,0.030548095703125,0.00250244140625
1690840710255970300,8.27697021484375,-0.98199462890625,0.0303802490234375,0.00177001953125
1690840710266010400,8.28701025390625,-0.982391357421875,0.0312042236328125,0.0022735595703125
1690840710276051200,8.29705126953125,-0.9811553955078125,0.0309906005859375,0.0019378662109375
1690840710286091300,8.30709130859375,-0.98150634765625,0.030181884765625,0.0019378662109375
1690840710296131000,8.317131103515624,-0.9829559326171875,0.030426025390625,0.0024871826171875
1690840710306172200,8.327172119140625,-0.9818878173828125,0.0306243896484375,0.0027923583984375
1690840710316212200,8.337212158203124,-0.9811553955078125,0.0305328369140625,0.00225830078125
1690840710326252300,8.347252197265625,-0.981292724609375,0.032318115234375,0.001708984375
1690840710336292400,8.357292236328124,-0.9809417724609375,0.03265380859375,0.0026397705078125
1690840710346333200,8.367333251953125,-0.9818115234375,0.032867431640625,0.002471923828125
1690840710356373200,8.377373291015624,-0.9820709228515625,0.0335235595703125,0.00189208984375
1690840710366413000,8.3874130859375,-0.9799041748046875,0.0341033935546875,0.0028839111328125
1690840710376484000,8.397484130859375,-0.9816741943359375,0.034393310546875,0.00225830078125
1690840710386524200,8.407524169921874,-0.9788360595703125,0.0343780517578125,0.0017242431640625
1690840710396565200,8.417565185546875,-0.979766845703125,0.0351104736328125,0.0018463134765625
1690840710406605300,8.427605224609374,-0.97998046875,0.0348052978515625,0.003265380859375
1690840710416645400,8.437645263671875,-0.9848480224609375,0.0352935791015625,0.0024871826171875
1690840710426685400,8.447685546875,-0.976531982421875,0.035003662109375,0.0018768310546875
1690840710436726300,8.457726318359375,-0.9821319580078125,0.0352020263671875,0.002349853515625
1690840710446766000,8.46776611328125,-0.9796295166015625,0.03448486328125,0.00164794921875
1690840710456806100,8.47780615234375,-0.9813079833984375,0.0337677001953125,0.0022735595703125
1690840710466847200,8.48784716796875,-0.9809722900390625,0.033538818359375,0.0020751953125
1690840710476887300,8.49788720703125,-0.980010986328125,0.0329437255859375,0.0020904541015625
1690840710486927400,8.50792724609375,-0.9840850830078125,0.0330047607421875,0.0021209716796875
1690840710496967400,8.517967529296875,-0.9793701171875,0.032440185546875,0.0020294189453125
1690840710507008300,8.52800830078125,-0.9827880859375,0.03173828125,0.0010986328125
1690840710517048000,8.538048095703125,-0.979095458984375,0.0326080322265625,0.0022430419921875
1690840710527119000,8.548119140625,-0.9827880859375,0.03179931640625,0.0027008056640625
1690840710537159200,8.5581591796875,-0.9803314208984375,0.0320587158203125,0.0017852783203125
1690840710547199200,8.56819921875,-0.9819488525390625,0.031494140625,0.0022430419921875
1690840710557240300,8.578240234375,-0.981597900390625,0.0314483642578125,0.0030059814453125
1690840710567280400,8.5882802734375,-0.9804840087890625,0.031646728515625,0.002593994140625
1690840710577320200,8.5983203125,-0.9829864501953125,0.0322723388671875,0.002197265625
1690840710587361300,8.608361328125,-0.980560302734375,0.0329437255859375,0.001922607421875
1690840710597401000,8.618401123046874,-0.9827117919921875,0.033721923828125,0.002716064453125
1690840710607441200,8.628441162109375,-0.9808807373046875,0.0335845947265625,0.003143310546875
1690840710617481200,8.638481201171874,-0.981597900390625,0.0339813232421875,0.00244140625
1690840710627522300,8.648522216796875,-0.9801177978515625,0.0344085693359375,0.0023040771484375
1690840710637562400,8.658562255859374,-0.9797210693359375,0.034332275390625,0.0023345947265625
1690840710647602400,8.6686025390625,-0.9813995361328125,0.0339202880859375,0.00250244140625
1690840710657642200,8.678642333984374,-0.98114013671875,0.033843994140625,0.00299072265625
1690840710667683000,8.68868310546875,-0.9801025390625,0.0340118408203125,0.00274658203125
1690840710677723100,8.69872314453125,-0.9803009033203125,0.0340423583984375,0.0018157958984375
1690840710687794200,8.708794189453124,-0.981842041015625,0.0338592529296875,0.0022125244140625
1690840710697834200,8.718834228515625,-0.98101806640625,0.0343780517578125,0.001617431640625
1690840710707874300,8.728874267578124,-0.98162841796875,0.033782958984375,0.0022735595703125
1690840710717915400,8.738915283203125,-0.9803009033203125,0.03411865234375,0.003021240234375
1690840710727951400,8.748951416015625,-0.98175048828125,0.0343475341796875,0.00323486328125
1690840710737991400,8.758991455078124,-0.980682373046875,0.0326690673828125,0.00274658203125
1690840710748032300,8.7690322265625,-0.980804443359375,0.031890869140625,0.0021209716796875
1690840710758072300,8.779072265625,-0.981170654296875,0.0323944091796875,0.002044677734375
1690840710768112000,8.789112060546875,-0.9801177978515625,0.0323944091796875,0.0021820068359375
1690840710778152200,8.799152099609374,-0.9815521240234375,0.03271484375,0.0026397705078125
1690840710788193300,8.809193359375,-0.9816741943359375,0.0322723388671875,0.0028228759765625
1690840710798233300,8.8192333984375,-0.9802093505859375,0.0317535400390625,0.0024871826171875
1690840710808273400,8.8292734375,-0.9811248779296875,0.03228759765625,0.003173828125
1690840710818314200,8.839314208984375,-0.981781005859375,0.0323944091796875,0.003692626953125
1690840710828354300,8.849354248046875,-0.98114013671875,0.0331878662109375,0.0030517578125
1690840710838425000,8.859425048828125,-0.9807586669921875,0.0330352783203125,0.003448486328125
1690840710848465200,8.869465087890624,-0.9804229736328125,0.033050537109375,0.0032958984375
1690840710858505200,8.879505126953125,-0.981658935546875,0.0327606201171875,0.002105712890625
1690840710868545300,8.889545166015624,-0.9813079833984375,0.032684326171875,0.0016937255859375
1690840710878586400,8.89958642578125,-0.980377197265625,0.0335693359375,0.0015106201171875
1690840710888626400,8.90962646484375,-0.9813690185546875,0.033782958984375,0.0020751953125
1690840710898666200,8.919666259765625,-0.9801788330078125,0.0340728759765625,0.0021820068359375
1690840710908707000,8.92970703125,-0.979522705078125,0.0344085693359375,0.0015869140625
1690840710918747100,8.9397470703125,-0.980072021484375,0.0343017578125,0.0012969970703125
1690840710928787200,8.949787109375,-0.98114013671875,0.0343475341796875,0.0027008056640625
1690840710938827300,8.9598271484375,-0.980499267578125,0.0338287353515625,0.002838134765625
1690840710948868400,8.969868408203125,-0.981719970703125,0.0343780517578125,0.002166748046875
1690840710958908400,8.979908447265625,-0.981231689453125,0.03350830078125,0.00201416015625
1690840710968948500,8.989948486328124,-0.9806060791015625,0.03363037109375,0.00152587890625
1690840710978989300,8.9999892578125,-0.9813385009765625,0.0329132080078125,0.00213623046875
1690840710989059300,9.010059326171875,-0.9808502197265625,0.032440185546875,0.0019378662109375
1690840710999100200,9.02010009765625,-0.981292724609375,0.032745361328125,0.0021514892578125
1690840711009140200,9.03014013671875,-0.9808807373046875,0.03277587890625,0.00128173828125
1690840711019180300,9.04018017578125,-0.98199462890625,0.0324859619140625,0.0014190673828125
1690840711029221400,9.050221435546876,-0.98211669921875,0.033172607421875,0.0016937255859375
1690840711039261400,9.060261474609375,-0.981658935546875,0.0329437255859375,0.002960205078125
1690840711049301200,9.07030126953125,-0.9810791015625,0.0333709716796875,0.0027008056640625
1690840711059341300,9.08034130859375,-0.9804229736328125,0.0326995849609375,0.002655029296875
1690840711069382100,9.090382080078125,-0.98193359375,0.0317535400390625,0.0027618408203125
1690840711079422200,9.100422119140624,-0.9808807373046875,0.0323486328125,0.0026702880859375
1690840711089462300,9.110462158203125,-0.98114013671875,0.032958984375,0.00213623046875
1690840711099503400,9.12050341796875,-0.98193359375,0.0331878662109375,0.001251220703125
1690840711109543400,9.13054345703125,-0.98187255859375,0.032867431640625,0.001983642578125
1690840711119583500,9.14058349609375,-0.9819183349609375,0.033538818359375,0.00213623046875
1690840711129623300,9.150623291015625,-0.9813232421875,0.0340423583984375,0.0013275146484375
1690840711139694300,9.1606943359375,-0.980865478515625,0.0338287353515625,0.001617431640625
1690840711149734100,9.170734130859374,-0.981292724609375,0.0333404541015625,0.0025177001953125
1690840711159775200,9.180775146484375,-0.9812774658203125,0.0334320068359375,0.002471923828125
1690840711169815300,9.190815185546874,-0.9803619384765625,0.03338623046875,0.0029144287109375
1690840711179855400,9.20085546875,-0.9802398681640625,0.033172607421875,0.003143310546875
1690840711189896400,9.210896484375,-0.9796905517578125,0.03363037109375,0.0019683837890625
1690840711199936300,9.220936279296875,-0.9806976318359375,0.0341339111328125,0.001678466796875
1690840711209976300,9.230976318359374,-0.98089599609375,0.0338897705078125,0.0021820068359375
1690840711220016000,9.24101611328125,-0.98101806640625,0.033111572265625,0.0023651123046875
1690840711230057200,9.25105712890625,-0.9815673828125,0.0333404541015625,0.0025634765625
1690840711240097300,9.26109716796875,-0.9821929931640625,0.0331573486328125,0.002410888671875
1690840711250137300,9.271137451171874,-0.980865478515625,0.0332183837890625,0.00177001953125
1690840711260178400,9.281178466796876,-0.980926513671875,0.0332489013671875,0.0027923583984375
1690840711270218500,9.291218505859375,-0.981719970703125,0.033172607421875,0.002593994140625
1690840711280258300,9.30125830078125,-0.9813232421875,0.032958984375,0.002777099609375
1690840711290329300,9.311329345703125,-0.980987548828125,0.0323944091796875,0.002532958984375
1690840711300369200,9.321369140625,-0.98150634765625,0.032562255859375,0.001800537109375
1690840711310409200,9.3314091796875,-0.980560302734375,0.033538818359375,0.0025177001953125
1690840711320450300,9.3414501953125,-0.979827880859375,0.0332183837890625,0.003021240234375
1690840711330490400,9.351490478515625,-0.981170654296875,0.032379150390625,0.0013275146484375
1690840711340530200,9.3615302734375,-0.9819183349609375,0.0326690673828125,0.001861572265625
1690840711350571300,9.3715712890625,-0.981964111328125,0.03314208984375,0.0027618408203125
1690840711360611300,9.381611328125,-0.9804840087890625,0.0330047607421875,0.0023040771484375
1690840711370651100,9.391651123046875,-0.98101806640625,0.0330963134765625,0.002197265625
1690840711380691200,9.401691162109374,-0.981048583984375,0.0330657958984375,0.00274658203125
1690840711390732300,9.411732177734375,-0.982696533203125,0.033050537109375,0.0019378662109375
1690840711400772400,9.4217724609375,-0.981719970703125,0.0337677001953125,0.00213623046875
1690840711410812400,9.4318125,-0.981170654296875,0.034271240234375,0.0027008056640625
1690840711420853500,9.441853515625,-0.9814605712890625,0.0337371826171875,0.0030364990234375
1690840711430893000,9.45189306640625,-0.9806976318359375,0.0329742431640625,0.0025787353515625
1690840711440964000,9.461964111328125,-0.9816436767578125,0.03326416015625,0.0019378662109375
1690840711451004200,9.472004150390624,-0.981353759765625,0.0331573486328125,0.0022125244140625
1690840711461044200,9.482044189453125,-0.98046875,0.033203125,0.0029296875
1690840711471085300,9.492085205078125,-0.98138427734375,0.032928466796875,0.0030975341796875
1690840711481125400,9.50212548828125,-0.9808807373046875,0.033538818359375,0.00311279296875
1690840711491165200,9.512165283203124,-0.9803314208984375,0.03338623046875,0.002532958984375
1690840711501205200,9.522205322265625,-0.981201171875,0.0333099365234375,0.0023956298828125
1690840711511246000,9.53224609375,-0.98114013671875,0.0334014892578125,0.002777099609375
1690840711521286100,9.5422861328125,-0.9810638427734375,0.032989501953125,0.0025177001953125
1690840711531326200,9.552326171875,-0.980499267578125,0.0323944091796875,0.0021209716796875
1690840711541367300,9.5623671875,-0.9808197021484375,0.0326080322265625,0.0018157958984375
1690840711551407400,9.572407470703125,-0.980926513671875,0.0331878662109375,0.0023956298828125
1690840711561447200,9.582447265625,-0.9813079833984375,0.0336761474609375,0.0029449462890625
1690840711571487200,9.5924873046875,-0.98101806640625,0.0333404541015625,0.002197265625
1690840711581528000,9.602528076171875,-0.9811248779296875,0.0331878662109375,0.00238037109375
1690840711591568100,9.612568115234374,-0.9811553955078125,0.0326385498046875,0.0029754638671875
1690840711601639200,9.62263916015625,-0.980926513671875,0.0325775146484375,0.0020294189453125
1690840711611679200,9.63267919921875,-0.9808807373046875,0.032989501953125,0.001800537109375
1690840711621719300,9.64271923828125,-0.980560302734375,0.0331878662109375,0.0017852783203125
1690840711631760400,9.652760498046876,-0.9806976318359375,0.0331878662109375,0.001495361328125
1690840711641800200,9.66280029296875,-0.98065185546875,0.033050537109375,0.0018463134765625
1690840711651840300,9.67284033203125,-0.9813079833984375,0.0339813232421875,0.0027618408203125
1690840711661880300,9.68288037109375,-0.9809112548828125,0.033966064453125,0.0025177001953125
1690840711671921200,9.692921142578125,-0.980743408203125,0.0339813232421875,0.0026702880859375
1690840711681961200,9.702961181640624,-0.980712890625,0.03338623046875,0.0033416748046875
1690840711692001300,9.713001220703125,-0.9817352294921875,0.0332489013671875,0.00299072265625
1690840711702042400,9.72304248046875,-0.9818115234375,0.033203125,0.003021240234375
1690840711712082200,9.733082275390625,-0.9808807373046875,0.0338592529296875,0.0029449462890625
1690840711722131000,9.743130859375,-0.9803466796875,0.03326416015625,0.0028228759765625
1690840711732171000,9.7531708984375,-0.9810333251953125,0.033355712890625,0.002166748046875
1690840711742212000,9.763212158203125,-0.9815521240234375,0.0329742431640625,0.0023956298828125
1690840711752283100,9.773283203125,-0.9815216064453125,0.0332794189453125,0.001922607421875
1690840711762323000,9.783322998046875,-0.9810943603515625,0.0337371826171875,0.0027313232421875
1690840711772363000,9.793363037109375,-0.9807281494140625,0.0329742431640625,0.001983642578125
1690840711782403000,9.803403076171875,-0.9814910888671875,0.03228759765625,0.0023345947265625
1690840711792444000,9.81344384765625,-0.9806671142578125,0.0329132080078125,0.001861572265625
1690840711802484000,9.82348388671875,-0.9822998046875,0.032623291015625,0.002777099609375
1690840711812524000,9.83352392578125,-0.9814910888671875,0.0330352783203125,0.003204345703125
1690840711822564000,9.843564208984375,-0.9809417724609375,0.032196044921875,0.00213623046875
1690840711832605200,9.853605224609375,-0.9818572998046875,0.032684326171875,0.0024261474609375
1690840711842645000,9.86364501953125,-0.9811553955078125,0.03363037109375,0.0018157958984375
1690840711852685000,9.87368505859375,-0.9808197021484375,0.03369140625,0.0023040771484375
1690840711862726000,9.883725830078125,-0.9817962646484375,0.03228759765625,0.00311279296875
1690840711872766000,9.893765869140625,-0.981201171875,0.033294677734375,0.0027618408203125
1690840711882806000,9.903805908203125,-0.98162841796875,0.0336456298828125,0.00238037109375
1690840711892846000,9.91384619140625,-0.9819793701171875,0.0333709716796875,0.00189208984375
1690840711902916900,9.923916748046874,-0.9808502197265625,0.034088134765625,0.0020599365234375
1690840711912958000,9.9339580078125,-0.980987548828125,0.0327301025390625,0.0020751953125
1690840711922998000,9.943998046875,-0.9808807373046875,0.033660888671875,0.00213623046875
1690840711933038000,9.9540380859375,-0.9804840087890625,0.0336761474609375,0.0024871826171875
1690840711943078100,9.964078125,-0.98101806640625,0.03240966796875,0.0027923583984375
1690840711953119000,9.974118896484375,-0.9807891845703125,0.0326385498046875,0.00225830078125
1690840711963159000,9.984158935546875,-0.9805755615234375,0.033355712890625,0.0031280517578125
1690840711973198800,9.99419873046875,-0.9810028076171875,0.0331268310546875,0.0032196044921875
1690840711983240200,10.004240234375,-0.9805145263671875,0.0330810546875,0.0031890869140625
1690840711993280000,10.014280029296875,-0.9806976318359375,0.0331878662109375,0.0027008056640625
1690840712003320000,10.024320068359375,-0.9815673828125,0.0330963134765625,0.0027008056640625
1690840712013360000,10.034360107421875,-0.9809112548828125,0.032867431640625,0.002685546875
1690840712023401000,10.04440087890625,-0.980865478515625,0.033599853515625,0.002197265625
1690840712033441000,10.05444091796875,-0.9810943603515625,0.0333251953125,0.0027313232421875
1690840712043481000,10.064481201171875,-0.9805908203125,0.032989501953125,0.0027923583984375
1690840712053551900,10.0745517578125,-0.9801483154296875,0.032379150390625,0.002655029296875
1690840712063592000,10.084592041015625,-0.9813385009765625,0.0327301025390625,0.0026397705078125
1690840712073633000,10.094633056640625,-0.9808349609375,0.033233642578125,0.00225830078125
1690840712083673000,10.104673095703125,-0.9810028076171875,0.0331878662109375,0.002227783203125
1690840712093713200,10.114713134765625,-0.9812774658203125,0.033172607421875,0.0027008056640625
1690840712103753200,10.124753173828125,-0.9810791015625,0.033050537109375,0.0023040771484375
1690840712113794000,10.1347939453125,-0.98077392578125,0.03289794921875,0.0020751953125
1690840712123833900,10.144833740234375,-0.9801025390625,0.0325164794921875,0.0025482177734375
1690840712133874000,10.1548740234375,-0.98089599609375,0.032989501953125,0.0024871826171875
1690840712143915000,10.1649150390625,-0.9815673828125,0.03387451171875,0.00225830078125
1690840712153955000,10.174955078125,-0.9810791015625,0.0330047607421875,0.0031890869140625
1690840712163995100,10.1849951171875,-0.9807281494140625,0.0331878662109375,0.0018310546875
1690840712174035200,10.19503515625,-0.9810638427734375,0.0333709716796875,0.002532958984375
1690840712184076000,10.205075927734375,-0.9796142578125,0.033203125,0.0024261474609375
1690840712194116000,10.2151162109375,-0.98138427734375,0.033203125,0.0022430419921875
1690840712204187000,10.225186767578125,-0.9814605712890625,0.0330657958984375,0.0025482177734375
1690840712214227000,10.23522705078125,-0.9805908203125,0.0334014892578125,0.00250244140625
1690840712224267000,10.24526708984375,-0.98065185546875,0.0332489013671875,0.002410888671875
1690840712234308000,10.25530810546875,-0.981109619140625,0.0328369140625,0.0024871826171875
1690840712244348200,10.26534814453125,-0.981292724609375,0.0328369140625,0.00189208984375
1690840712254388000,10.275387939453125,-0.98089599609375,0.03387451171875,0.0025634765625
1690840712264429000,10.285428955078125,-0.9809112548828125,0.0334320068359375,0.0023040771484375
1690840712274468900,10.29546875,-0.981048583984375,0.0328216552734375,0.00250244140625
1690840712284509000,10.305509033203125,-0.98095703125,0.0331573486328125,0.0025787353515625
1690840712294549000,10.315549072265625,-0.9819488525390625,0.0320587158203125,0.0027618408203125
1690840712304590000,10.325590087890625,-0.981048583984375,0.032989501953125,0.001922607421875
1690840712314630100,10.335630126953125,-0.980316162109375,0.0337066650390625,0.0021209716796875
1690840712324670000,10.345669921875,-0.9814300537109375,0.0330657958984375,0.0023040771484375
1690840712334710000,10.3557099609375,-0.9815673828125,0.0326690673828125,0.0027313232421875
1690840712344751000,10.365751220703125,-0.98065185546875,0.03289794921875,0.001617431640625
1690840712354822000,10.37582177734375,-0.98065185546875,0.0331268310546875,0.0019073486328125
1690840712364862000,10.385862060546875,-0.9808807373046875,0.03314208984375,0.00250244140625
1690840712374902000,10.395902099609375,-0.9812469482421875,0.03375244140625,0.002471923828125
1690840712384942000,10.405942138671875,-0.981658935546875,0.034576416015625,0.0020904541015625
1690840712394983200,10.415983154296875,-0.980194091796875,0.033599853515625,0.0021209716796875
1690840712405023000,10.42602294921875,-0.9797515869140625,0.0330352783203125,0.0029144287109375
1690840712415062800,10.436062744140624,-0.9816741943359375,0.0328369140625,0.002197265625
1690840712425104000,10.446103759765625,-0.9817047119140625,0.0328521728515625,0.0023193359375
1690840712435144000,10.45614404296875,-0.9808807373046875,0.0324249267578125,0.0030975341796875
1690840712445184000,10.46618408203125,-0.9809722900390625,0.0328369140625,0.0030364990234375
1690840712455224000,10.47622412109375,-0.9802093505859375,0.033294677734375,0.0022125244140625
1690840712465265200,10.48626513671875,-0.9810943603515625,0.03289794921875,0.00286865234375
1690840712475305000,10.496304931640625,-0.9813995361328125,0.03314208984375,0.0026092529296875
1690840712485345000,10.506344970703125,-0.981536865234375,0.0338287353515625,0.0018768310546875
1690840712495386000,10.51638623046875,-0.98052978515625,0.0329437255859375,0.0023345947265625
1690840712505455900,10.526455810546874,-0.980499267578125,0.032745361328125,0.002471923828125
1690840712515497000,10.5364970703125,-0.981201171875,0.0327911376953125,0.0022735595703125
1690840712525537000,10.546537109375,-0.9804534912109375,0.0326995849609375,0.002593994140625
1690840712535577000,10.5565771484375,-0.980560302734375,0.03289794921875,0.003662109375
1690840712545617200,10.5666171875,-0.980133056640625,0.032745361328125,0.00213623046875
1690840712555658000,10.576657958984375,-0.9810943603515625,0.033416748046875,0.002532958984375
1690840712565697800,10.58669775390625,-0.9807586669921875,0.0333099365234375,0.00177001953125
1690840712575737900,10.59673779296875,-0.9815673828125,0.0331573486328125,0.0027008056640625
1690840712585779000,10.606779052734375,-0.9814605712890625,0.0334930419921875,0.00323486328125
1690840712595819000,10.616819091796875,-0.980621337890625,0.0322113037109375,0.0025177001953125
1690840712605859000,10.626859130859375,-0.9809417724609375,0.03271484375,0.00115966796875
1690840712615899100,10.636899169921875,-0.979248046875,0.0329132080078125,0.001983642578125
1690840712625940000,10.64693994140625,-0.98016357421875,0.0325164794921875,0.0031280517578125
1690840712635979800,10.656979736328125,-0.9805755615234375,0.0328369140625,0.0026092529296875
1690840712646019800,10.667019775390624,-0.9811859130859375,0.032989501953125,0.001678466796875
1690840712656061000,10.67706103515625,-0.9813079833984375,0.032989501953125,0.0013885498046875
1690840712666131000,10.687130859375,-0.9810028076171875,0.0325469970703125,0.0018463134765625
1690840712676172000,10.697172119140625,-0.9818878173828125,0.0324249267578125,0.002349853515625
1690840712686212000,10.707212158203125,-0.9809722900390625,0.033355712890625,0.00201416015625
1690840712696252200,10.717252197265625,-0.9810028076171875,0.032867431640625,0.002410888671875
1690840712706293000,10.72729296875,-0.9812469482421875,0.0329437255859375,0.001800537109375
1690840712716332800,10.737332763671875,-0.9806365966796875,0.0328521728515625,0.0020751953125
1690840712726358000,10.74735791015625,-0.9813690185546875,0.032928466796875,0.0023193359375
1690840712736398000,10.757398193359375,-0.9814300537109375,0.0335845947265625,0.0019073486328125
1690840712746439000,10.76743896484375,-0.981048583984375,0.0328826904296875,0.0031585693359375
1690840712756478700,10.777478759765625,-0.9809112548828125,0.032806396484375,0.0026092529296875
1690840712766518800,10.787518798828126,-0.9813690185546875,0.032440185546875,0.0030670166015625
1690840712776558800,10.797558837890625,-0.98095703125,0.0326995849609375,0.0020751953125
1690840712786600000,10.807599853515624,-0.98089599609375,0.0326385498046875,0.002532958984375
1690840712796640000,10.817639892578125,-0.9810638427734375,0.0326385498046875,0.0026397705078125
1690840712806680000,10.82768017578125,-0.98126220703125,0.0326690673828125,0.0023040771484375
1690840712816751000,10.837751220703124,-0.9821319580078125,0.0335845947265625,0.0019989013671875
1690840712826791000,10.847791015625,-0.9816131591796875,0.033935546875,0.0028228759765625
1690840712836831700,10.857831787109374,-0.958709716796875,0.03363037109375,0.002349853515625
1690840712846871800,10.867871826171875,-0.9517822265625,0.04107666015625,-0.0593414306640625
1690840712856912000,10.877911865234376,-1.01336669921875,0.0637054443359375,0.038970947265625
1690840712866953000,10.887952880859375,-0.9620208740234375,0.0013580322265625,0.028411865234375
1690840712876993000,10.897992919921874,-1.0031890869140625,0.022216796875,0.0202484130859375
1690840712887033000,10.908033203125,-1.0003509521484375,0.034912109375,0.0403900146484375
1690840712897073000,10.918072998046876,-0.988983154296875,0.0159454345703125,0.0167999267578125
1690840712907113700,10.92811376953125,-0.9934539794921875,0.0152587890625,0.0153961181640625
1690840712917153800,10.93815380859375,-0.9754791259765625,0.0272979736328125,-0.01300048828125
1690840712927193900,10.94819384765625,-0.9795379638671875,0.028717041015625,-0.029815673828125
1690840712937235000,10.95823486328125,-0.970306396484375,0.0299835205078125,-0.025482177734375
1690840712947275000,10.96827490234375,-0.9769744873046875,0.030914306640625,-0.0238494873046875
1690840712957315000,10.978315185546874,-0.9731597900390625,0.0360260009765625,-0.0172882080078125
1690840712967385900,10.9883857421875,-0.9807891845703125,0.039764404296875,-0.0029144287109375
1690840712977426000,10.998426025390625,-0.9749755859375,0.043121337890625,0.001861572265625
1690840712987466000,11.008466064453126,-0.978607177734375,0.042205810546875,-0.000701904296875
1690840712997506800,11.0185068359375,-0.9835662841796875,0.046722412109375,0.00537109375
1690840713007547000,11.028546875,-0.975555419921875,0.04583740234375,0.0107421875
1690840713017587000,11.0385869140625,-0.986724853515625,0.045928955078125,0.02398681640625
1690840713027628000,11.0486279296875,-0.9843292236328125,0.043914794921875,0.0269317626953125
1690840713037668000,11.058668212890625,-0.982879638671875,0.0413818359375,0.0187225341796875
1690840713047708000,11.0687080078125,-0.98101806640625,0.042724609375,0.01324462890625
1690840713057748000,11.078748046875,-0.9812774658203125,0.041259765625,0.0030059814453125
1690840713067788800,11.088788818359374,-0.979278564453125,0.0398101806640625,-0.002471923828125
1690840713077828900,11.098828857421875,-0.97564697265625,0.0375518798828125,-0.0088043212890625
1690840713087869000,11.108868896484376,-0.9765167236328125,0.03509521484375,-0.0128631591796875
1690840713097910000,11.118909912109375,-0.9782562255859375,0.03338623046875,-0.0095672607421875
1690840713107950000,11.1289501953125,-0.97906494140625,0.0319366455078125,-0.0060577392578125
1690840713118020900,11.139020751953124,-0.977386474609375,0.0311126708984375,-0.0043487548828125
1690840713128061000,11.14906103515625,-0.9849853515625,0.0281982421875,-0.006744384765625
1690840713138100700,11.159100830078126,-0.980010986328125,0.026885986328125,-0.0029754638671875
1690840713148141800,11.169141845703125,-0.9829254150390625,0.0259246826171875,0.003662109375
1690840713158182000,11.179181884765624,-0.98785400390625,0.026214599609375,0.0082855224609375
1690840713168222000,11.189221923828125,-0.9864349365234375,0.0259246826171875,0.013458251953125
1690840713178262000,11.199261962890626,-0.9873046875,0.026702880859375,0.01287841796875
1690840713188303000,11.20930322265625,-0.9856414794921875,0.026580810546875,0.0123138427734375
1690840713198343000,11.219343017578124,-0.9857635498046875,0.0280609130859375,0.0098114013671875
1690840713208382700,11.2293828125,-0.98370361328125,0.028594970703125,0.0049896240234375
1690840713218423800,11.239423828125,-0.9810943603515625,0.0289306640625,0.000244140625
1690840713228463900,11.2494638671875,-0.98162841796875,0.0298004150390625,-0.00408935546875
1690840713238504000,11.25950390625,-0.9805755615234375,0.0316619873046875,-0.0052337646484375
1690840713248544000,11.2695439453125,-0.9786529541015625,0.0328369140625,-0.0016937255859375
1690840713258585000,11.279585205078124,-0.9804534912109375,0.035430908203125,-0.0031280517578125
1690840713268654800,11.28965478515625,-0.9781341552734375,0.036224365234375,-0.004058837890625
1690840713278696000,11.299696044921875,-0.97686767578125,0.0369415283203125,-0.00152587890625
1690840713288735700,11.30973583984375,-0.9791259765625,0.0379180908203125,-0.00238037109375
1690840713298775800,11.31977587890625,-0.9795379638671875,0.0388031005859375,0.0030517578125
1690840713308817000,11.32981689453125,-0.981719970703125,0.039337158203125,0.0080413818359375
1690840713318857000,11.33985693359375,-0.9815216064453125,0.040252685546875,0.009490966796875
1690840713328897000,11.34989697265625,-0.9802398681640625,0.039459228515625,0.0088348388671875
1690840713338936800,11.359936767578125,-0.9814453125,0.039276123046875,0.0059814453125
1690840713348978000,11.36997802734375,-0.9804229736328125,0.03826904296875,0.0040130615234375
1690840713359017700,11.380017822265625,-0.980010986328125,0.038116455078125,0.0016326904296875
1690840713369057800,11.390057861328126,-0.9793853759765625,0.037139892578125,0.0003662109375
1690840713379099000,11.400098876953125,-0.9786529541015625,0.0357666015625,0.000732421875
1690840713389139000,11.410138916015624,-0.9803009033203125,0.0347900390625,-0.0009765625
1690840713399179000,11.420178955078125,-0.980712890625,0.0333709716796875,-0.0033721923828125
1690840713409218800,11.43021875,-0.9804229736328125,0.0327301025390625,-0.003265380859375
1690840713419289900,11.440289794921876,-0.9816741943359375,0.032623291015625,-0.0017852783203125
1690840713429330000,11.450329833984375,-0.981842041015625,0.031158447265625,0.00189208984375
1690840713439370800,11.460370849609374,-0.9836578369140625,0.0308074951171875,0.0032196044921875
1690840713449410800,11.470410888671875,-0.9835052490234375,0.03045654296875,0.004638671875
1690840713459451000,11.480450927734376,-0.9825897216796875,0.0292816162109375,0.0045623779296875
1690840713469492000,11.490491943359375,-0.983306884765625,0.0294952392578125,0.005523681640625
1690840713479531800,11.50053173828125,-0.98406982421875,0.0297698974609375,0.0062408447265625
1690840713489571800,11.51057177734375,-0.9828948974609375,0.0306854248046875,0.00494384765625
1690840713499612000,11.52061181640625,-0.9833221435546875,0.03076171875,0.0033721923828125
1690840713509652700,11.53065283203125,-0.9821929931640625,0.0305633544921875,0.0016021728515625
1690840713519692800,11.54069287109375,-0.9824981689453125,0.0312652587890625,0.0003204345703125
1690840713529732900,11.55073291015625,-0.980560302734375,0.032470703125,0.000091552734375
1690840713539774000,11.56077392578125,-0.980072021484375,0.032073974609375,-0.00030517578125
1690840713549814000,11.57081396484375,-0.981170654296875,0.032867431640625,-0.0000152587890625
1690840713559853800,11.580853759765626,-0.9798736572265625,0.035308837890625,0.0008392333984375
1690840713569924900,11.5909248046875,-0.9811553955078125,0.0350189208984375,0.0018310546875
1690840713579965000,11.60096484375,-0.9811859130859375,0.0349884033203125,0.002288818359375
1690840713590005800,11.611005859375,-0.9796295166015625,0.036163330078125,0.0036163330078125
1690840713600045800,11.6210458984375,-0.9815521240234375,0.03729248046875,0.00482177734375
1690840713610086000,11.6310859375,-0.9810028076171875,0.0375213623046875,0.004302978515625
1690840713620125700,11.641125732421875,-0.9798736572265625,0.03778076171875,0.0035400390625
1690840713630166800,11.651166748046874,-0.97998046875,0.03704833984375,0.00299072265625
1690840713640206800,11.661206787109375,-0.97918701171875,0.0366973876953125,0.0029754638671875
1690840713650247000,11.671246826171876,-0.9802398681640625,0.035675048828125,0.0022430419921875
1690840713660287700,11.681287841796875,-0.9811248779296875,0.035186767578125,0.0016326904296875
1690840713670327800,11.691327880859374,-0.9798736572265625,0.0355987548828125,0.0010833740234375
1690840713680367900,11.701367919921875,-0.98016357421875,0.034698486328125,0.0001983642578125
1690840713690408000,11.711407958984376,-0.980621337890625,0.0336151123046875,0.0008087158203125
1690840713700449000,11.721448974609375,-0.9802398681640625,0.0335693359375,0.0011444091796875
1690840713710488800,11.73148876953125,-0.981719970703125,0.033294677734375,0.001678466796875
1690840713720529000,11.74152880859375,-0.98211669921875,0.0325469970703125,0.00323486328125
1690840713730596000,11.75159619140625,-0.981781005859375,0.03240966796875,0.0033721923828125
1690840713740636200,11.76163623046875,-0.9822235107421875,0.031646728515625,0.0039215087890625
1690840713750677000,11.771677001953124,-0.9823760986328125,0.0317840576171875,0.0034942626953125
1690840713760717000,11.781717041015625,-0.9831390380859375,0.0319671630859375,0.0037078857421875
1690840713770757000,11.791757080078124,-0.9820404052734375,0.031402587890625,0.003173828125
1690840713780797000,11.801796875,-0.98138427734375,0.031341552734375,0.0018310546875
1690840713790838000,11.811838134765624,-0.981964111328125,0.032135009765625,0.0009307861328125
1690840713800878000,11.821878173828125,-0.9824676513671875,0.0328369140625,0.0018463134765625
1690840713810918100,11.831918212890624,-0.981353759765625,0.0323944091796875,0.001861572265625
1690840713820959000,11.841958984375,-0.9816131591796875,0.032806396484375,0.0015716552734375
1690840713830999000,11.8519990234375,-0.98138427734375,0.03369140625,0.001678466796875
1690840713841039000,11.8620390625,-0.980926513671875,0.033447265625,0.0019073486328125
1690840713851079000,11.872078857421876,-0.9817657470703125,0.034332275390625,0.0022125244140625
1690840713861120000,11.8821201171875,-0.981689453125,0.034423828125,0.002899169921875
1690840713871160000,11.89216015625,-0.9813385009765625,0.034759521484375,0.00250244140625
1690840713881231000,11.902231201171874,-0.9794921875,0.0348358154296875,0.0027008056640625
1690840713891271200,11.912271240234375,-0.979705810546875,0.034576416015625,0.0025787353515625
1690840713901311200,11.922311279296874,-0.980194091796875,0.035125732421875,0.0024871826171875
1690840713911352000,11.93235205078125,-0.98077392578125,0.0352783203125,0.0021209716796875
1690840713921392000,11.94239208984375,-0.98114013671875,0.035400390625,0.0013580322265625
1690840713931432000,11.952431884765625,-0.980987548828125,0.036102294921875,0.0009613037109375
1690840713941472000,11.962471923828126,-0.9804840087890625,0.0355987548828125,0.0008087158203125
1690840713951513000,11.97251318359375,-0.980560302734375,0.034820556640625,0.000823974609375
1690840713961553200,11.98255322265625,-0.9802093505859375,0.03363037109375,0.0016937255859375
1690840713971593200,11.99259326171875,-0.980072021484375,0.033843994140625,0.0016632080078125
1690840713981634000,12.002634033203124,-0.982025146484375,0.033782958984375,0.000823974609375
1690840713991674000,12.012674072265625,-0.98114013671875,0.0328369140625,0.002105712890625
1690840714001714000,12.0227138671875,-0.981719970703125,0.032623291015625,0.0026702880859375
1690840714011754000,12.03275390625,-0.981475830078125,0.032867431640625,0.0019378662109375
1690840714021795000,12.042795166015624,-0.9813232421875,0.0325469970703125,0.0023345947265625
1690840714031866000,12.0528662109375,-0.9808349609375,0.0321807861328125,0.003265380859375
1690840714041906200,12.06290625,-0.9809417724609375,0.032867431640625,0.00274658203125
1690840714051946200,12.0729462890625,-0.980926513671875,0.03289794921875,0.002105712890625
1690840714061986300,12.082986328125,-0.981292724609375,0.03338623046875,0.00152587890625
1690840714072027100,12.093027099609374,-0.9825592041015625,0.033111572265625,0.00238037109375
1690840714082067000,12.10306689453125,-0.981353759765625,0.0328521728515625,0.00164794921875
1690840714092107000,12.11310693359375,-0.9802093505859375,0.032745361328125,0.0022735595703125
1690840714102148000,12.123148193359375,-0.9803314208984375,0.033355712890625,0.0019378662109375
1690840714112188200,12.133188232421874,-0.9811248779296875,0.033935546875,0.0023193359375
1690840714122228200,12.143228271484375,-0.981719970703125,0.033660888671875,0.001220703125
1690840714132268300,12.153268310546874,-0.9813995361328125,0.033477783203125,0.0020904541015625
1690840714142309000,12.16330908203125,-0.9806976318359375,0.034210205078125,0.002166748046875
1690840714152349000,12.173348876953124,-0.980438232421875,0.0342254638671875,0.003143310546875
1690840714162389000,12.183388916015625,-0.98126220703125,0.0345916748046875,0.002593994140625
1690840714172430000,12.19343017578125,-0.9816741943359375,0.03436279296875,0.002593994140625
1690840714182500000,12.2035,-0.9799957275390625,0.0351715087890625,0.00177001953125
1690840714192541200,12.213541259765625,-0.9804229736328125,0.03387451171875,0.0022430419921875
1690840714202581200,12.223581298828124,-0.9807281494140625,0.033843994140625,0.0026702880859375
1690840714212621000,12.23362109375,-0.9806976318359375,0.03460693359375,0.001861572265625
1690840714222661000,12.2436611328125,-0.979766845703125,0.0347900390625,0.0016326904296875
1690840714232702000,12.253701904296875,-0.9813385009765625,0.034515380859375,0.0017242431640625
1690840714242742000,12.263741943359374,-0.9814910888671875,0.0342254638671875,0.00177001953125
1690840714252782000,12.273781982421875,-0.980926513671875,0.0343780517578125,0.002532958984375
1690840714262823200,12.2838232421875,-0.9816741943359375,0.033660888671875,0.001190185546875
1690840714272863200,12.29386328125,-0.981842041015625,0.0343780517578125,0.002288818359375
1690840714282903300,12.3039033203125,-0.981292724609375,0.03466796875,0.0024261474609375
1690840714292943000,12.313943115234375,-0.98138427734375,0.033172607421875,0.0026397705078125
1690840714302984000,12.32398388671875,-0.9821929931640625,0.032501220703125,0.002899169921875
1690840714313024000,12.33402392578125,-0.980987548828125,0.0333251953125,0.0023345947265625
1690840714323064000,12.34406396484375,-0.9809112548828125,0.0322723388671875,0.002471923828125
1690840714333135000,12.354135009765624,-0.980865478515625,0.0320281982421875,0.003082275390625
1690840714343175200,12.364175048828125,-0.981658935546875,0.032501220703125,0.002105712890625
1690840714353216300,12.37421630859375,-0.98162841796875,0.034149169921875,0.001922607421875
1690840714363256000,12.384256103515625,-0.981048583984375,0.033355712890625,0.001983642578125
1690840714373296000,12.394296142578124,-0.9810791015625,0.0333251953125,0.0018463134765625
1690840714383337000,12.4043369140625,-0.9807891845703125,0.0331878662109375,0.0026092529296875
1690840714393377000,12.414376953125,-0.98126220703125,0.033477783203125,0.00177001953125
1690840714403417000,12.4244169921875,-0.980987548828125,0.0334625244140625,0.00250244140625
1690840714413457200,12.43445703125,-0.97979736328125,0.03289794921875,0.001617431640625
1690840714423498200,12.444498291015625,-0.9809417724609375,0.0337982177734375,0.0019989013671875
1690840714433538300,12.454538330078124,-0.9822540283203125,0.0330963134765625,0.002777099609375
1690840714443578000,12.464578125,-0.9814453125,0.0341339111328125,0.00164794921875
1690840714453618200,12.4746181640625,-0.98016357421875,0.0348358154296875,0.00201416015625
1690840714463659000,12.484658935546875,-0.980712890625,0.0343017578125,0.00238037109375
1690840714473699000,12.494698974609374,-0.9806976318359375,0.0347137451171875,0.0020294189453125
1690840714483770000,12.50477001953125,-0.980682373046875,0.034332275390625,0.0025177001953125
1690840714493810200,12.51481005859375,-0.98065185546875,0.03350830078125,0.0023345947265625
1690840714503850000,12.52485009765625,-0.9810638427734375,0.0340423583984375,0.0024871826171875
1690840714513891000,12.53489111328125,-0.9811553955078125,0.03448486328125,0.002197265625
1690840714523931100,12.54493115234375,-0.98101806640625,0.034454345703125,0.0015106201171875
1690840714533971000,12.554970947265625,-0.980743408203125,0.0345001220703125,0.002288818359375
1690840714544012000,12.565011962890624,-0.9812774658203125,0.033905029296875,0.0028228759765625
1690840714554052000,12.575052001953125,-0.9814453125,0.0340118408203125,0.002899169921875
1690840714564092200,12.585092041015624,-0.9811859130859375,0.0341796875,0.0025634765625
1690840714574132200,12.59513232421875,-0.980712890625,0.034271240234375,0.0024871826171875
1690840714584173300,12.60517333984375,-0.9806671142578125,0.0332183837890625,0.002471923828125
1690840714594213000,12.615213134765625,-0.980560302734375,0.033477783203125,0.001739501953125
1690840714604253000,12.6252529296875,-0.9824676513671875,0.033660888671875,0.0020599365234375
1690840714614294000,12.6352939453125,-0.9823455810546875,0.0330352783203125,0.00311279296875
1690840714624334000,12.645333984375,-0.9813385009765625,0.032989501953125,0.0023651123046875
1690840714634374100,12.6553740234375,-0.98095703125,0.0331573486328125,0.00189208984375
1690840714644445200,12.665445068359375,-0.981781005859375,0.033538818359375,0.0021209716796875
1690840714654485000,12.675485107421874,-0.98095703125,0.033111572265625,0.0015716552734375
1690840714664525000,12.685525146484375,-0.9818267822265625,0.03363037109375,0.002227783203125
1690840714674566100,12.695566162109374,-0.9812774658203125,0.0333404541015625,0.0015411376953125
1690840714684606000,12.70560595703125,-0.98150634765625,0.0330963134765625,0.001312255859375
1690840714694646000,12.71564599609375,-0.981475830078125,0.0339813232421875,0.002166748046875
1690840714704687000,12.72568701171875,-0.98065185546875,0.03314208984375,0.0020751953125
1690840714714727200,12.73572705078125,-0.981231689453125,0.03387451171875,0.0019073486328125
1690840714724751400,12.74575146484375,-0.981170654296875,0.03436279296875,0.002044677734375
1690840714734791200,12.755791259765624,-0.98126220703125,0.0340728759765625,0.00250244140625
1690840714744832300,12.765832275390625,-0.9808502197265625,0.03399658203125,0.002655029296875
1690840714754872300,12.775872314453125,-0.980804443359375,0.0334625244140625,0.0015411376953125
1690840714764912400,12.785912353515625,-0.9817352294921875,0.0332183837890625,0.0015716552734375
1690840714774953500,12.795953369140625,-0.9815521240234375,0.033355712890625,0.002227783203125
1690840714784993500,12.80599365234375,-0.98095703125,0.0338287353515625,0.0029144287109375
1690840714795064600,12.816064697265626,-0.9807891845703125,0.0339508056640625,0.002105712890625
1690840714805104000,12.826104248046875,-0.9811859130859375,0.03350830078125,0.0018310546875
1690840714815144200,12.836144287109375,-0.981109619140625,0.034332275390625,0.0017547607421875
1690840714825185300,12.846185302734375,-0.9811248779296875,0.0330657958984375,0.001678466796875
1690840714835225300,12.856225341796875,-0.9820404052734375,0.03363037109375,0.002532958984375
1690840714845265400,12.866265380859375,-0.98211669921875,0.0335693359375,0.0023193359375
1690840714855305500,12.876305419921875,-0.9808502197265625,0.0328216552734375,0.0016632080078125
1690840714865346300,12.88634619140625,-0.9814300537109375,0.0340576171875,0.002349853515625
1690840714875386000,12.89638623046875,-0.9806060791015625,0.0340728759765625,0.001983642578125
1690840714885426200,12.90642626953125,-0.9807891845703125,0.0331268310546875,0.001678466796875
1690840714895467300,12.91646728515625,-0.9809112548828125,0.033477783203125,0.002349853515625
1690840714905507300,12.92650732421875,-0.9813690185546875,0.0337066650390625,0.0027618408203125
1690840714915547400,12.93654736328125,-0.982666015625,0.0330657958984375,0.0013427734375
1690840714925587500,12.94658740234375,-0.9812469482421875,0.03375244140625,0.0009613037109375
1690840714935628300,12.956628173828125,-0.9804534912109375,0.0333404541015625,0.00146484375
1690840714945698300,12.9666982421875,-0.9803619384765625,0.0333099365234375,0.0020751953125
1690840714955739100,12.9767392578125,-0.981048583984375,0.0338897705078125,0.0020904541015625
1690840714965779200,12.986779296875,-0.981201171875,0.0333709716796875,0.0011749267578125
1690840714975819300,12.9968193359375,-0.980194091796875,0.0337677001953125,0.0015106201171875
1690840714985860400,13.0068603515625,-0.9805145263671875,0.033416748046875,0.0021820068359375
1690840714995900400,13.016900390625,-0.9806060791015625,0.0343475341796875,0.0022735595703125
1690840715005940500,13.0269404296875,-0.9818267822265625,0.0341796875,0.002288818359375
1690840715015980300,13.036980224609374,-0.9811248779296875,0.0337371826171875,0.00140380859375
1690840715026021000,13.047021240234375,-0.9805755615234375,0.0345458984375,0.0024871826171875
1690840715036061200,13.057061279296875,-0.9811859130859375,0.034515380859375,0.0019989013671875
1690840715046101200,13.067101318359375,-0.981903076171875,0.0335235595703125,0.0012359619140625
