time,seconds_elapsed,z,y,x
1690840702013287400,0.034287353515625,-0.0051628039218485355,-0.0035446672700345516,0.04962987080216408
1690840702023328300,0.044328369140625,-0.0046512107364833355,0.005257079843431711,0.07923756539821625
1690840702033368300,0.054368408203125,-0.007419832982122898,0.005789179354906082,0.10015696287155151
1690840702043408400,0.064408447265625,-0.005596899427473545,0.00842544250190258,0.11795779317617416
1690840702053479400,0.0744794921875,-0.004318848252296448,0.008972988463938236,0.12812334299087524
1690840702063519500,0.08451953125,-0.004936701618134975,0.0026442527305334806,0.12620054185390472
1690840702073560600,0.094560546875,-0.007099188398569822,-0.0019648801535367966,0.11938019096851349
1690840702083600400,0.104600341796875,-0.004222441930323839,-0.004064516630023718,0.10547183454036713
1690840702093640400,0.114640380859375,-0.005244030617177486,-0.003920439630746841,0.08699055761098862
1690840702103680300,0.12468017578125,-0.004891428165137768,-0.0052291168831288815,0.061416223645210266
1690840702113721300,0.134721435546875,-0.004679706413298845,-0.002983273006975651,0.03105219267308712
1690840702123761400,0.144761474609375,-0.002977680414915085,-0.0034794199746102095,0.0025161546654999256
1690840702133801500,0.154801513671875,-0.004929511342197657,-0.00027297402266412973,-0.027646807953715324
1690840702143842600,0.164842529296875,-0.005991845857352018,0.0024053670931607485,-0.055759936571121216
1690840702153882400,0.17488232421875,-0.0059963734820485115,-0.0016450346447527409,-0.08441714942455292
1690840702163922400,0.18492236328125,-0.004982774145901203,-0.002150236163288355,-0.10408671945333481
1690840702173962200,0.194962158203125,-0.004567321389913559,-0.003826962551102042,-0.11964357644319534
1690840702184003300,0.20500341796875,-0.00509835546836257,-0.00487278588116169,-0.12746022641658783
1690840702194043400,0.21504345703125,-0.0030338731594383717,-0.007416104432195425,-0.1312887817621231
1690840702204114400,0.225114501953125,-0.0034533210564404726,-0.006071740761399269,-0.12896490097045898
1690840702214154500,0.235154541015625,-0.0032890038564801216,-0.0065170214511454105,-0.12124280631542206
1690840702224194300,0.2451943359375,-0.00455640209838748,-0.004021373111754656,-0.10690993815660477
1690840702234235400,0.2552353515625,-0.004982774145901203,-0.003992611076682806,-0.08891522139310837
1690840702244275500,0.265275390625,-0.004461327567696571,-0.002576608443632722,-0.06951622664928436
1690840702254315300,0.275315185546875,-0.0038045919500291348,-0.001502555445767939,-0.04796219989657402
1690840702264355300,0.285355224609375,-0.003251187037676573,-0.0006631271098740399,-0.02539989911019802
1690840702274396400,0.295396484375,-0.0037497307639569044,0.0009123989730142057,-0.0017747305100783706
1690840702284436500,0.3054365234375,-0.004487692844122648,-0.0009502158500254154,0.01744610257446766
1690840702294476300,0.315476318359375,-0.00583871454000473,-0.0006138586322776973,0.03497076779603958
1690840702304517400,0.325517333984375,-0.005197957623749971,-0.003025350859388709,0.045950181782245636
1690840702314557400,0.335557373046875,-0.005572930909693241,-0.00330311874859035,0.056605223566293716
1690840702324597200,0.34559716796875,-0.00586587842553854,-0.002772350562736392,0.06051980331540108
1690840702334637300,0.35563720703125,-0.006125270389020443,-0.0015646071406081319,0.06190198287367821
1690840702344678400,0.365678466796875,-0.004043743945658207,-0.003209375310689211,0.05503608658909798
1690840702354748400,0.37574853515625,-0.005517004523426294,-0.0004500742070376873,0.04565936326980591
1690840702364789500,0.38578955078125,-0.00555135915055871,0.00012064119800925255,0.03393293172121048
1690840702374829300,0.395829345703125,-0.0046354979276657104,-0.00010226538870483637,0.019102588295936584
1690840702384869400,0.405869384765625,-0.005591040477156639,0.002147573046386242,0.0024370586033910513
1690840702394910200,0.41591015625,-0.004733502399176359,0.0024770060554146767,-0.014369618147611618
1690840702404950300,0.4259501953125,-0.002415487077087164,-0.0002644518972374499,-0.0308066476136446
1690840702414990300,0.435990234375,-0.004232828039675951,-0.00279046013019979,-0.04565989598631859
1690840702425030400,0.446030517578125,-0.006449909880757332,-0.003721501212567091,-0.059912070631980896
1690840702435071500,0.456071533203125,-0.004911401774734259,-0.00333161442540586,-0.07014819234609604
1690840702445111300,0.466111328125,-0.004471447318792343,-0.005602225661277771,-0.07718293368816376
1690840702455151400,0.4761513671875,-0.005253085400909185,-0.006167348474264145,-0.08217743039131165
1690840702465192200,0.486192138671875,-0.004230164922773838,-0.00452897185459733,-0.08139552175998688
1690840702475232300,0.496232177734375,-0.0025875272694975138,-0.0024109596852213144,-0.07616933435201645
1690840702485272300,0.506272216796875,-0.0037502634804695845,-0.0027561055030673742,-0.06833858042955399
1690840702495312400,0.5163125,-0.005447496194392443,-0.001648230361752212,-0.058691807091236115
1690840702505383400,0.526383544921875,-0.005480785388499498,-0.00017337177996523678,-0.04893665015697479
1690840702515424500,0.536424560546875,-0.004640824627131224,-0.0008319715270772576,-0.034805119037628174
1690840702525464300,0.54646435546875,-0.004815261345356703,-0.001669269404374063,-0.02321850322186947
1690840702535504400,0.55650439453125,-0.004966795444488525,-0.0010655306978151202,-0.00914396345615387
1690840702545544400,0.56654443359375,-0.0041095237247645855,-0.0004655205411836505,0.0019409117521718144
1690840702555585300,0.576585205078125,-0.005645635072141886,-0.002835201332345605,0.009474728256464005
1690840702565625300,0.586625244140625,-0.0057471017353236675,-0.0032559807877987623,0.014660702086985111
1690840702575665400,0.59666552734375,-0.004877046681940556,-0.0037942056078463793,0.022835008800029755
1690840702585706500,0.60670654296875,-0.004028297495096922,-0.003187004942446947,0.024227574467658997
1690840702595746300,0.616746337890625,-0.005587311927229166,-0.0019289276096969843,0.023004384711384773
1690840702605786400,0.626786376953125,-0.0049161952920258045,-0.0012924320762977004,0.01853799819946289
1690840702615826400,0.636826416015625,-0.004834969062358141,-0.0007765777409076691,0.014420217834413052
1690840702625867300,0.6468671875,-0.004266117699444294,-0.00007962851668708026,0.005111671518534422
1690840702635907300,0.6569072265625,-0.004759601317346096,0.0017366473330184817,-0.00384427304379642
1690840702645947400,0.666947509765625,-0.0038543930277228355,0.0010178601369261742,-0.011813249439001083
1690840702656018400,0.677018310546875,-0.005498628597706556,-0.001573928166180849,-0.02485794574022293
1690840702666058200,0.687058349609375,-0.005115665961056948,-0.002626675646752119,-0.031321436166763306
1690840702676099300,0.697099365234375,-0.0046240463852882385,-0.002237321576103568,-0.03852182626724243
1690840702686139400,0.707139404296875,-0.0038091193418949842,-0.0051566786132752895,-0.045993588864803314
1690840702696179500,0.717179443359375,-0.004275172483175993,-0.004315386060625315,-0.05016995966434479
1690840702706219500,0.727219482421875,-0.004977447912096977,-0.0019350528018549085,-0.050209373235702515
1690840702716260000,0.737260009765625,-0.0033920682035386562,-0.001475391210988164,-0.05182191729545593
1690840702726300200,0.747300048828125,-0.005441104527562857,-0.0033816818613559008,-0.05136944726109505
1690840702736340200,0.75734033203125,-0.0037433390971273184,-0.0033864756114780903,-0.04681890457868576
1690840702746381300,0.76738134765625,-0.005133242812007666,-0.0014924354618415236,-0.0419439896941185
1690840702756421400,0.77742138671875,-0.0038695731200277805,-0.0005065332516096532,-0.035779036581516266
1690840702766461400,0.78746142578125,-0.004168113227933645,-0.0011614045361056924,-0.029150428250432014
1690840702776501200,0.797501220703125,-0.004320180043578148,-0.00002902845517382957,-0.02279985509812832
1690840702786542000,0.8075419921875,-0.005503688473254442,-0.0035779569298028946,-0.015454057604074478
1690840702796582100,0.81758203125,-0.0049462891183793545,-0.001832787413150072,-0.008958075195550919
1690840702806653200,0.827653076171875,-0.003355316584929824,0.00017683389887679368,-0.005604356061667204
1690840702816693200,0.837693359375,-0.004794755019247532,-0.002147839404642582,0.0010029464028775692
1690840702826733300,0.8477333984375,-0.0030929953791201115,-0.0018157431622967124,0.0024261397775262594
1690840702836774400,0.8577744140625,-0.004566522315144539,-0.0031313446816056967,0.002823483431711793
1690840702846814200,0.867814208984375,-0.003817375050857663,-0.0022184131667017937,0.0032256206031888723
1690840702856854300,0.877854248046875,-0.005558283533900976,-0.0013129384024068713,-0.00042876892257481813
1690840702866894300,0.887894287109375,-0.004758269991725683,-0.002686064224690199,-0.0033931334037333727
1690840702876935200,0.89793505859375,-0.005772135220468044,-0.00282082031480968,-0.009346630424261093
1690840702886975200,0.907975341796875,-0.004181695636361837,-0.0021371867042034864,-0.014390656724572182
1690840702897015300,0.918015380859375,-0.0038160434924066067,0.00011371697473805398,-0.018507903441786766
1690840702907056400,0.928056396484375,-0.004291950259357691,-0.0008993495139293373,-0.022768961265683174
1690840702917096400,0.938096435546875,-0.005179848056286573,-0.0009555422002449632,-0.027232686057686806
1690840702927136300,0.94813623046875,-0.0054999603889882565,-0.0019150790758430958,-0.033180855214595795
1690840702937176300,0.95817626953125,-0.004948685877025127,-0.0010010822443291545,-0.033119071274995804
1690840702947217200,0.968217041015625,-0.005350556690245867,-0.0006466155173256993,-0.03641686215996742
1690840702957288200,0.9782880859375,-0.0054674698039889336,-0.0028213527984917164,-0.037579067051410675
1690840702967328300,0.988328369140625,-0.0060115535743534565,-0.003216299694031477,-0.03716973960399628
1690840702977368300,0.998368408203125,-0.003832288784906268,-0.0032141690608114004,-0.036565203219652176
1690840702987408100,1.008408203125,-0.004304200876504183,-0.003567304229363799,-0.03399418666958809
1690840702997449200,1.01844921875,-0.005404885392636061,-0.003148122690618038,-0.03196565434336662
1690840703007489300,1.0284892578125,-0.005013933405280113,-0.0014881744282320142,-0.026669960469007492
1690840703017529300,1.038529296875,-0.005566805601119995,-0.0009230516152456403,-0.021195566281676292
1690840703027570200,1.048570068359375,-0.00478277076035738,-0.0008839031797833741,-0.01642983965575695
1690840703037610200,1.0586103515625,-0.0052046156488358974,-0.00042290997225791216,-0.013856426812708378
1690840703047650300,1.068650390625,-0.0041036647744476795,-0.002150768879801035,-0.01125345379114151
1690840703057690000,1.078690185546875,-0.005679457448422909,-0.002728142309933901,-0.010486463084816933
1690840703067731200,1.088731201171875,-0.004899417515844107,-0.002641589380800724,-0.00751890242099762
1690840703077771300,1.098771240234375,-0.005730057135224342,-0.004466387443244457,-0.008926383219659328
1690840703087811300,1.108811279296875,-0.004203266929835081,-0.002293780678883195,-0.008769256994128227
1690840703097852200,1.11885205078125,-0.002796585438773036,-0.0028013791888952255,-0.009472597390413284
1690840703107922400,1.12892236328125,-0.006053365301340818,-0.0035633095540106297,-0.009285377338528633
1690840703117963300,1.13896337890625,-0.00424321461468935,-0.0028634308837354183,-0.013937386684119701
1690840703128003300,1.14900341796875,-0.005408880300819874,0.0006831008358858526,-0.015242602676153183
1690840703138043100,1.159043212890625,-0.005593703594058752,-0.001675128354690969,-0.01888340897858143
1690840703148083200,1.169083251953125,-0.00452684098854661,-0.0005755090969614685,-0.022907447069883347
1690840703158124300,1.179124267578125,-0.004603540059179068,-0.00004900216299574822,-0.024233967065811157
1690840703168164400,1.189164306640625,-0.005717540625482798,-0.0006165218073874712,-0.02641855739057064
1690840703178204400,1.199204345703125,-0.005435245577245951,-0.0011001517996191978,-0.02756345085799694
1690840703188245200,1.209245361328125,-0.005053082015365362,-0.0037587855476886034,-0.030233802273869514
1690840703198285300,1.219285400390625,-0.0031017838045954704,-0.006724747829139233,-0.029944317415356636
1690840703208325000,1.2293251953125,-0.005176119972020388,-0.0035326832439750433,-0.02858290821313858
1690840703218365200,1.239365234375,-0.005408347584307194,-0.002624545246362686,-0.029694512486457825
1690840703228406300,1.24940625,-0.003224022686481476,-0.004201669245958328,-0.029224464669823647
1690840703238446300,1.2594462890625,-0.002636529505252838,-0.0009606021922081709,-0.025245435535907745
1690840703248486400,1.269486328125,-0.004481567535549402,-0.00018908442871179432,-0.023417973890900612
1690840703258527200,1.27952734375,-0.004605670925229788,-0.000024767397917457856,-0.02124057337641716
1690840703268597200,1.28959716796875,-0.00361763802357018,-0.002514823107048869,-0.019663715735077858
1690840703278638300,1.299638427734375,-0.006040049251168966,0.0014498248929157853,-0.01782240718603134
1690840703288678100,1.30967822265625,-0.006475476082414389,-0.001913214917294681,-0.014992531388998032
1690840703298718200,1.31971826171875,-0.004551874939352274,-0.002665824256837368,-0.01357306633144617
1690840703308759300,1.32975927734375,-0.004854942671954632,-0.004420847166329622,-0.0142356613650918
1690840703318799400,1.33979931640625,-0.0041156490333378315,-0.0017054883064702153,-0.012593822553753853
1690840703328839400,1.34983935546875,-0.005065065808594227,-0.003055444685742259,-0.01181990746408701
1690840703338879200,1.359879150390625,-0.005092496518045664,-0.004520982038229704,-0.013858824037015438
1690840703348920300,1.36992041015625,-0.003724697045981884,-0.002130528911948204,-0.014064153656363487
1690840703358960000,1.379960205078125,-0.004579039290547371,-0.0037286917213350534,-0.018214689567685127
1690840703369000200,1.390000244140625,-0.004150004126131535,-0.0010303769959136844,-0.016926253214478493
1690840703379040300,1.400040283203125,-0.0030722226947546005,-0.0010266485624015331,-0.01908261515200138
1690840703389081300,1.410081298828125,-0.005367334932088852,-0.002665291540324688,-0.022055234760046005
1690840703399121400,1.420121337890625,-0.0057401773519814014,-0.0020152139477431774,-0.02117506042122841
1690840703409161200,1.4301611328125,-0.005329251755028963,-0.003308977698907256,-0.02460308000445366
1690840703419232300,1.440232177734375,-0.005108475685119629,-0.002773415995761752,-0.025163942947983742
1690840703429272000,1.45027197265625,-0.003591006388887763,-0.0023214775137603283,-0.023605993017554283
1690840703439313200,1.460313232421875,-0.0036756948102265596,-0.0007241134881041944,-0.025552764534950256
1690840703449353200,1.470353271484375,-0.0057407100684940815,-0.0038029940333217382,-0.024085095152258873
1690840703459393300,1.480393310546875,-0.005558549892157316,-0.0019291938515380025,-0.026513366028666496
1690840703469434400,1.490434326171875,-0.004131894558668137,-0.003847468877211213,-0.023764718323946
1690840703479474400,1.500474365234375,-0.005588643718510866,-0.0017963021527975798,-0.025021463632583618
1690840703489514200,1.51051416015625,-0.0038434739690274,-0.0012034825049340725,-0.02130528911948204
1690840703499554000,1.520553955078125,-0.005025651305913925,0.0003134540456812829,-0.020927120000123978
1690840703509595100,1.53059521484375,-0.005228051450103521,-0.0017329188995063305,-0.018269818276166916
1690840703519635200,1.54063525390625,-0.003567304229363799,-0.0024080302100628614,-0.020198212936520576
1690840703529675300,1.55067529296875,-0.0057132793590426445,-0.001651426195167005,-0.017247164621949196
1690840703539716400,1.56071630859375,-0.004572913981974125,-0.0026051041204482317,-0.014608769677579403
1690840703549756400,1.57075634765625,-0.004548945464193821,-0.003165699541568756,-0.015856461599469185
1690840703559796200,1.580796142578125,-0.003855191869661212,-0.0012500877492129803,-0.017640246078372
1690840703569867300,1.5908671875,-0.006797718815505505,-0.0020580908749252558,-0.01720242202281952
1690840703579907000,1.600906982421875,-0.004055461846292019,-0.0006823018775321543,-0.01943654753267765
1690840703589947100,1.610947021484375,-0.0036791570018976927,-0.002031991956755519,-0.017313210293650627
1690840703599988200,1.62098828125,-0.005604888778179884,0.00011691277177305892,-0.020770525559782982
1690840703610028300,1.6310283203125,-0.005347361322492361,-0.0006631271098740399,-0.01895451545715332
1690840703620068400,1.641068359375,-0.005489573813974857,-0.0016945693641901016,-0.021820876747369766
1690840703630109200,1.651109130859375,-0.006384662352502346,-0.00003009372085216455,-0.019596870988607407
1690840703640149200,1.661149169921875,-0.005712214391678572,-0.0024114924017339945,-0.02261822670698166
1690840703650189000,1.67118896484375,-0.006699714343994856,-0.0030959248542785645,-0.022955382242798805
1690840703660229000,1.68122900390625,-0.005558816250413656,-0.002600044244900346,-0.022877352312207222
1690840703670270200,1.691270263671875,-0.004029096569865942,-0.0026636936236172915,-0.023874172940850258
1690840703680310300,1.701310302734375,-0.0036514601670205593,-0.0003081277245655656,-0.02370772697031498
1690840703690350300,1.711350341796875,-0.005663478281348944,-0.0018796591321006417,-0.02310531958937645
1690840703700391200,1.72139111328125,-0.004780107643455267,-0.0013464941876009107,-0.02261955849826336
1690840703710431200,1.73143115234375,-0.005690376274287701,-0.004319114610552788,-0.022775620222091675
1690840703720494800,1.741494873046875,-0.005218463949859142,-0.0010287790792062879,-0.022825952619314194
1690840703730535000,1.751534912109375,-0.003020290983840823,-0.00290417717769742,-0.01979367807507515
1690840703740574700,1.76157470703125,-0.004720719531178474,-0.0019022959750145674,-0.01853187195956707
1690840703750615800,1.77161572265625,-0.005022455472499132,-0.0021813951898366213,-0.019883692264556885
1690840703760655600,1.781655517578125,-0.005133509170264006,-0.0031132353469729424,-0.019516443833708763
1690840703770695700,1.79169580078125,-0.004043743945658207,-0.0007866977830417454,-0.01920325495302677
1690840703780735700,1.80173583984375,-0.0049375006929039955,-0.0032373385038226843,-0.01768711768090725
1690840703790776800,1.81177685546875,-0.0037729002069681883,-0.004050135146826506,-0.01950659044086933
1690840703800817000,1.82181689453125,-0.003610979998484254,-0.0028964539524167776,-0.018210429698228836
1690840703810856700,1.831856689453125,-0.004321245010942221,-0.0023763386998325586,-0.01949487254023552
1690840703820897800,1.841897705078125,-0.004746019374579191,-0.0018897791160270572,-0.021193169057369232
1690840703830937900,1.851937744140625,-0.004235491156578064,-0.001461010193452239,-0.020362263545393944
1690840703840977700,1.861977783203125,-0.004709267523139715,-0.0038104509003460407,-0.021412614732980728
1690840703851017700,1.872017822265625,-0.005024053156375885,-0.003728159237653017,-0.020197946578264236
1690840703861058800,1.882058837890625,-0.006556968670338392,0.00025033715064637363,-0.023183615878224373
1690840703871128800,1.89212890625,-0.003763579297810793,-0.00014274542627390474,-0.0199782345443964
1690840703881170000,1.902169921875,-0.00446958327665925,-0.0023007048293948174,-0.02196415513753891
1690840703891209700,1.912209716796875,-0.005060538649559021,-0.0032344090286642313,-0.020975589752197266
1690840703901249500,1.92224951171875,-0.004067711997777224,-0.002192846732214093,-0.022899722680449486
1690840703911290600,1.93229052734375,-0.005114334635436535,-0.0035127094015479088,-0.022519158199429512
1690840703921330700,1.94233056640625,-0.004850681405514479,-0.0010301107540726662,-0.021345501765608788
1690840703931370800,1.952370849609375,-0.005602758377790451,-0.004092479590326548,-0.020892499014735222
1690840703941410800,1.962410888671875,-0.004719920456409454,-0.0018953717080876231,-0.021460285410284996
1690840703951452000,1.972451904296875,-0.005632319487631321,-0.0010820423485711217,-0.019352126866579056
1690840703961491700,1.98249169921875,-0.0027079021092504263,-0.0020903151016682386,-0.01894572749733925
1690840703971531800,1.99253173828125,-0.004850681405514479,-0.0010428938549011946,-0.018787270411849022
1690840703981572900,2.00257275390625,-0.00472631212323904,-0.0027715517207980156,-0.019110577180981636
1690840703991612700,2.01261279296875,-0.005747634451836348,-0.0018708707066252828,-0.02076333574950695
1690840704001652700,2.02265283203125,-0.0038011297583580017,-0.0019536949694156647,-0.02160116657614708
1690840704011692800,2.03269287109375,-0.004345746245235205,-0.0020088222809135914,-0.019586218520998955
1690840704021763800,2.042763916015625,-0.003921238239854574,-0.0026879284996539354,-0.01877288892865181
1690840704031804000,2.052803955078125,-0.004270378965884447,-0.0021438447292894125,-0.02034628391265869
1690840704041844700,2.0628447265625,-0.003885019337758422,-0.0007792409160174429,-0.019626164808869362
1690840704051884500,2.072884521484375,-0.005606486462056637,-0.0005179848521947861,-0.01722133159637451
1690840704061924600,2.082924560546875,-0.005584915168583393,0.0023102923296391964,-0.02056785859167576
1690840704071965700,2.092965576171875,-0.003787015099078417,0.00029108350281603634,-0.018330005928874016
1690840704082005800,2.103005859375,-0.003945473115891218,-0.0015784555580466986,-0.019220300018787384
1690840704092045800,2.1130458984375,-0.00446851784363389,-0.0011909656459465623,-0.020781178027391434
1690840704102086000,2.1230859375,-0.005300223361700773,-0.0016919062472879887,-0.02135322615504265
1690840704112126700,2.133126708984375,-0.005329518113285303,-0.0024647556710988283,-0.022098377346992493
1690840704122166800,2.143166748046875,-0.0043654534965753555,-0.002688727341592312,-0.022877352312207222
1690840704132206600,2.15320654296875,-0.003983023576438427,-0.003181145992130041,-0.021438712254166603
1690840704142247700,2.16324755859375,-0.0038991342298686504,-0.002912166528403759,-0.020308999344706535
1690840704152287700,2.173287841796875,-0.00552312983199954,-0.0037057886365801096,-0.019119631499052048
1690840704162327800,2.183327880859375,-0.0037758296821266413,-0.0012452941155061126,-0.019872240722179413
1690840704172398800,2.19339892578125,-0.0029526466969400644,-0.00490314606577158,-0.021268270909786224
1690840704182439000,2.20343896484375,-0.003939347807317972,-0.0021880532149225473,-0.022594258189201355
1690840704192479700,2.213479736328125,-0.004473578184843063,-0.0012295814231038094,-0.021073592826724052
1690840704202519600,2.22351953125,-0.004591023549437523,-0.0026495789643377066,-0.021677331998944283
1690840704212559600,2.2335595703125,-0.004899683874100447,-0.002058623591437936,-0.020297547802329063
1690840704222599700,2.243599609375,-0.005727127660065889,-0.0001699096756055951,-0.02171541564166546
1690840704232640800,2.253640869140625,-0.005331914871931076,0.0004929511342197657,-0.017711086198687553
1690840704242680800,2.263680908203125,-0.0030043120495975018,-0.0012210593558847904,-0.01986478455364704
1690840704252721000,2.273720947265625,-0.004801679402589798,-0.0026133600622415543,-0.01908021792769432
1690840704262761700,2.28376171875,-0.005694104824215174,-0.0024258734192699194,-0.01997637189924717
1690840704272801800,2.2938017578125,-0.005359345115721226,-0.0009859022684395313,-0.020490627735853195
1690840704282841600,2.303841552734375,-0.0057132793590426445,-0.0020447750575840473,-0.018763834610581398
1690840704292881700,2.313881591796875,-0.003748931922018528,-0.0009108011145144701,-0.020676249638199806
1690840704302922800,2.3239228515625,-0.00501047121360898,-0.003421362955123186,-0.020018715411424637
1690840704312962800,2.333962890625,-0.004614192992448807,-0.0009350358741357923,-0.02117878757417202
1690840704323003000,2.3440029296875,-0.006198240909725428,-0.001787779969163239,-0.020954284816980362
1690840704333074000,2.354073974609375,-0.00404507527127862,-0.0008623315370641649,-0.021045364439487457
1690840704343113700,2.36411376953125,-0.004267715383321047,-0.0030032468494027853,-0.022296782582998276
1690840704353154600,2.374154541015625,-0.00507092522457242,-0.002020274056121707,-0.021324729546904564
1690840704363194600,2.384194580078125,-0.004535097163170576,-0.0025808694772422314,-0.020306870341300964
1690840704373234700,2.394234619140625,-0.003780623432248831,-0.0012889700010418892,-0.021689848974347115
1690840704383274800,2.404274658203125,-0.004004328977316618,-0.0018775284988805652,-0.0213572196662426
1690840704393315800,2.41431591796875,-0.005617672111839056,-0.0024530377704650164,-0.021894114091992378
1690840704403356000,2.42435595703125,-0.0067966533824801445,-0.0027838023379445076,-0.0199273694306612
1690840704413395700,2.434395751953125,-0.004826446995139122,-0.0023848607670515776,-0.0200437493622303
1690840704423436500,2.4444365234375,-0.0052171326242387295,-0.0019001654582098126,-0.021029118448495865
1690840704433476600,2.4544765625,-0.0046450854279100895,-0.002776345470920205,-0.020849088206887245
1690840704443516700,2.4645166015625,-0.005482915788888931,-0.005615807604044676,-0.01992150954902172
1690840704453556700,2.474556640625,-0.005116731394082308,-0.002740126335993409,-0.020540961995720863
1690840704463597800,2.484597900390625,-0.003921238239854574,-0.0005315669695846736,-0.02112925425171852
1690840704473638000,2.494637939453125,-0.003721767570823431,-0.004856806714087725,-0.019040536135435104
1690840704483709000,2.504708984375,-0.0046629286371171474,0.0010463559301570058,-0.020378774031996727
1690840704493748700,2.514748779296875,-0.004159324802458286,-0.001975799212232232,-0.020136693492531776
1690840704503788800,2.524788818359375,-0.005094361025840044,-0.002697515767067671,-0.02093857154250145
1690840704513829600,2.53482958984375,-0.004098604898899794,-0.00250496924854815,-0.021197430789470673
1690840704523869700,2.54486962890625,-0.004312190227210522,-0.0012737899087369442,-0.019826434552669525
1690840704533909800,2.55490966796875,-0.006602775305509567,-0.0014223942998796701,-0.020316457375884056
1690840704543949800,2.56494970703125,-0.004877046681940556,-0.0026106967125087976,-0.021225659176707268
1690840704553991000,2.574990966796875,-0.005096491426229477,-0.0028072381392121315,-0.020326044410467148
1690840704564030700,2.58503076171875,-0.0046610645949840546,-0.0017808558186516166,-0.021331122145056725
1690840704574070800,2.59507080078125,-0.0037230991292744875,-0.003930559381842613,-0.018926020711660385
1690840704584111600,2.605111572265625,-0.005289570428431034,-0.00398621940985322,-0.02124030701816082
1690840704594151700,2.615151611328125,-0.005305283237248659,-0.0021723404061049223,-0.020681576803326607
1690840704604191700,2.625191650390625,-0.005613943561911583,-0.0025720810517668724,-0.02407524175941944
1690840704614231800,2.635231689453125,-0.0038874163292348385,-0.0013709953054785728,-0.021199828013777733
1690840704624273000,2.64527294921875,-0.004917260725051165,-0.004044010303914547,-0.02183898538351059
1690840704634344000,2.655343994140625,-0.005511678289622068,-0.002412024885416031,-0.01985466480255127
1690840704644383700,2.6653837890625,-0.004765460267663002,-0.0010546117555350065,-0.020927386358380318
1690840704654423800,2.675423828125,-0.004983573220670223,-0.002596848411485553,-0.020916467532515526
1690840704664464000,2.6854638671875,-0.005488774739205837,-0.00012650014832615852,-0.01847967505455017
1690840704674504700,2.695504638671875,-0.003793140407651663,-0.003296993440017104,-0.019103121012449265
1690840704684544800,2.705544677734375,-0.0036493295338004827,-0.003805657150223851,-0.021284248679876328
1690840704694584800,2.715584716796875,-0.004505269695073366,0.0012636699248105288,-0.021507954224944115
1690840704704626000,2.7256259765625,-0.005600893869996071,-0.0024341291282325983,-0.02130262553691864
1690840704714665700,2.735665771484375,-0.005102350376546383,-0.0008024104172363877,-0.019113773480057716
1690840704724701700,2.74570166015625,-0.004730839282274246,-0.0040884846821427345,-0.021037640050053596
1690840704734741800,2.75574169921875,-0.0056861150078475475,-0.003340669209137559,-0.0225583054125309
1690840704744782600,2.765782470703125,-0.003897003596648574,-0.002457032445818186,-0.02058064192533493
1690840704754822700,2.77582275390625,-0.002665291540324688,-0.0018895127577707171,-0.021388912573456764
1690840704764862700,2.78586279296875,-0.004294081125408411,-0.003227484878152609,-0.02022670768201351
1690840704774903800,2.79590380859375,-0.005230181850492954,0.000362988852430135,-0.020266389474272728
1690840704784973600,2.8059736328125,-0.005291700828820467,-0.0020578245166689157,-0.020058663561940193
1690840704795014700,2.8160146484375,-0.0049643986858427525,-0.00033156355493701994,-0.020425112918019295
1690840704805054700,2.8260546875,-0.00657694274559617,-0.001668736687861383,-0.02117346227169037
1690840704815094800,2.8360947265625,-0.004394215997308493,-0.0034298852551728487,-0.020686635747551918
1690840704825134800,2.846134765625,-0.00421258807182312,-0.0007755124825052917,-0.01990792714059353
1690840704835175700,2.85617578125,-0.0041617220267653465,0.0009440905996598303,-0.020018981769680977
1690840704845215700,2.8662158203125,-0.004668521229177713,-0.0008940231637097895,-0.02051273174583912
1690840704855255600,2.876255615234375,-0.006837932392954826,-0.002118544653058052,-0.022966569289565086
1690840704865296600,2.886296630859375,-0.004739894066005945,-0.0009326389990746975,-0.01895078830420971
1690840704875336700,2.896336669921875,-0.0038075214251875877,-0.0018546254141256213,-0.02178146131336689
1690840704885376800,2.906376708984375,-0.004132160916924477,-0.003612311789765954,-0.01913641020655632
1690840704895416800,2.916416748046875,-0.0027411917690187693,-0.0022072279825806618,-0.02142779342830181
1690840704905457700,2.926457763671875,-0.00544323492795229,-0.0008982842555269599,-0.019594740122556686
1690840704915497700,2.936497802734375,-0.005119128152728081,-0.00033875409280881286,-0.018758773803710938
1690840704925537800,2.946537841796875,-0.004053064621984959,0.0012056130217388272,-0.020323380827903748
1690840704935608600,2.956608642578125,-0.003997138235718012,-0.0011299792677164078,-0.021694377064704895
1690840704945648600,2.966648681640625,-0.0037947380915284157,-0.00242214510217309,-0.0213572196662426
1690840704955689700,2.976689697265625,-0.002749181119725108,-0.001386441639624536,-0.019515644758939743
1690840704965729800,2.986729736328125,-0.004415787290781736,-0.0010583401890471578,-0.018859175965189934
1690840704975769900,2.996769775390625,-0.006630738265812397,-0.0021523667965084314,-0.01895078830420971
1690840704985810000,3.006809814453125,-0.0051771849393844604,-0.0009813748765736818,-0.019298596307635307
1690840704995850800,3.016850830078125,-0.003955326974391937,-0.0019044264918193221,-0.02022244781255722
1690840705005890600,3.026890625,-0.004095409065485001,-0.0011270497925579548,-0.019881296902894974
1690840705015930600,3.0369306640625,-0.005825398489832878,-0.0037947380915284157,-0.021340442821383476
1690840705025971700,3.0469716796875,-0.003780623432248831,-0.0023286680225282907,-0.022251775488257408
1690840705036011800,3.05701171875,-0.004164917394518852,-0.002814695006236434,-0.020256536081433296
1690840705046051800,3.0670517578125,-0.004602741450071335,-0.0008767126128077507,-0.019707124680280685
1690840705056092000,3.077091796875,-0.003567037871107459,0.0010191916953772306,-0.021640580147504807
1690840705066132700,3.0871328125,-0.00552206439897418,-0.004605670925229788,-0.021326594054698944
1690840705076172800,3.0971728515625,-0.003754524514079094,-0.0019744676537811756,-0.019767578691244125
1690840705086243600,3.10724365234375,-0.005088502075523138,-0.0029885992407798767,-0.020111126825213432
1690840705096283600,3.11728369140625,-0.005972671322524548,-0.0035326832439750433,-0.021335382014513016
1690840705106323700,3.12732373046875,-0.004750812891870737,-0.0016903083305805922,-0.020144948735833168
1690840705116364800,3.13736474609375,-0.004325772635638714,-0.0022509037517011166,-0.019814183935523033
1690840705126404900,3.14740478515625,-0.004756938200443983,-0.002773682354018092,-0.018793128430843353
1690840705136445000,3.15744482421875,-0.005246693734079599,-0.0001715075777610764,-0.020101273432374
1690840705146485800,3.16748583984375,-0.004284759983420372,-0.0025811356026679277,-0.020709805190563202
1690840705156525600,3.177525634765625,-0.0030330740846693516,-0.003643736941739917,-0.020376911386847496
1690840705166565600,3.187565673828125,-0.004230164922773838,-0.0024626250378787518,-0.021580392494797707
1690840705176605700,3.197605712890625,-0.0057444386184215546,-0.0019507654942572117,-0.02063470520079136
1690840705186646800,3.207646728515625,-0.003938815090805292,-0.0030213561840355396,-0.021412082016468048
1690840705196686800,3.217686767578125,-0.006678408943116665,-0.0007483482477255166,-0.019898340106010437
1690840705206727000,3.227726806640625,-0.004327636677771807,-0.003933222498744726,-0.02057957649230957
1690840705216767700,3.237767822265625,-0.0037939392495900393,-0.002627474721521139,-0.019153188914060593
1690840705226807800,3.247807861328125,-0.003478088416159153,-0.0007038734620437026,-0.021078120917081833
1690840705236878600,3.257878662109375,-0.005409945268183947,0.0015310513554140925,-0.016686568036675453
1690840705246918700,3.267918701171875,-0.005386509466916323,-0.0021486382465809584,-0.02183791995048523
1690840705256958700,3.277958740234375,-0.004525243304669857,-0.002428004052489996,-0.021218203008174896
1690840705266998800,3.287998779296875,-0.0054730623960494995,-0.0023156185634434223,-0.022783342748880386
1690840705277039900,3.298039794921875,-0.004163586068898439,-0.000800279900431633,-0.017887121066451073
1690840705287080000,3.308079833984375,-0.004043211229145527,-0.002273540711030364,-0.01998302899301052
1690840705297119700,3.31811962890625,-0.004289020784199238,-0.0017427726415917277,-0.021647771820425987
1690840705307160600,3.32816064453125,-0.0031459920573979616,-0.002013349672779441,-0.022844063118100166
1690840705317200600,3.33820068359375,-0.0046607982367277145,-0.0020642161834985018,-0.021278124302625656
1690840705327240700,3.34824072265625,-0.0038693067617714405,-0.002537193475291133,-0.020482372492551804
1690840705337280800,3.35828076171875,-0.003982757218182087,-0.0016527577536180615,-0.02004295028746128
1690840705347321900,3.36832177734375,-0.0054669370874762535,-0.0012005530297756195,-0.020677581429481506
1690840705357362000,3.37836181640625,-0.005360410548746586,-0.0027438548859208822,-0.020328175276517868
1690840705367401500,3.3884013671875,-0.0037646444980055094,-0.002039981307461858,-0.020172912627458572
1690840705377442600,3.398442626953125,-0.005216067191213369,-0.00020639497961383313,-0.0220352616161108
1690840705387482600,3.408482666015625,-0.00404534162953496,-0.0024780714884400368,-0.018750784918665886
1690840705397553700,3.4185537109375,-0.005466138012707233,-0.0028847360517829657,-0.020833643153309822
1690840705407593700,3.42859375,-0.00449887802824378,-0.0007004113867878914,-0.019628828391432762
1690840705417633800,3.4386337890625,-0.005084773525595665,-0.0017361147329211235,-0.021041635423898697
1690840705427675000,3.4486748046875,-0.005678658373653889,-0.003382214577868581,-0.022300511598587036
1690840705437714700,3.458714599609375,-0.0044083306565880775,-0.002659965306520462,-0.01877022534608841
1690840705447754500,3.46875439453125,-0.004314054735004902,-0.00036698358599096537,-0.020410733297467232
1690840705457794600,3.478794677734375,-0.0038400120101869106,-0.001431182725355029,-0.021704763174057007
1690840705467835600,3.488835693359375,-0.006511695217341185,-0.0014114753575995564,-0.021410217508673668
1690840705477875700,3.498875732421875,-0.004444282967597246,-0.002288188086822629,-0.020320983603596687
1690840705487915800,3.508915771484375,-0.004343083128333092,-0.0010032127611339092,-0.019299129024147987
1690840705497955800,3.518955810546875,-0.02761831134557724,0.008678975515067577,0.02900448627769947
1690840705507996700,3.52899658203125,-0.012078766711056232,-0.08895090967416763,-0.0708848237991333
1690840705518036500,3.539036376953125,-0.02376977726817131,-0.031439147889614105,-0.06653295457363129
1690840705528076500,3.54907666015625,-0.006619819439947605,-0.03416809067130089,-0.06940597295761108
1690840705538117600,3.55911767578125,0.01079991739243269,-0.12468361109495163,-0.0861937403678894
1690840705548187600,3.569187744140625,0.015846341848373413,-0.051245611160993576,-0.03514121100306511
1690840705558228700,3.579228759765625,0.01894919015467167,-0.005225388333201408,-0.012822055257856846
1690840705568268800,3.589268798828125,0.01248276885598898,0.011489941738545895,-0.0016937704058364034
1690840705578308900,3.599308837890625,0.0034234935883432627,0.023926105350255966,0.0051928977482020855
1690840705588349700,3.609349609375,-0.011159177869558334,0.022889869287610054,0.007656588219106197
1690840705598389500,3.619389404296875,-0.019779296591877937,0.020327109843492508,0.005088502075523138
1690840705608429600,3.6294296875,-0.022479476407170296,0.014961904846131802,0.007110107224434614
1690840705618469600,3.6394697265625,-0.01955932006239891,0.0020991035271435976,0.004801945760846138
1690840705628510700,3.6495107421875,-0.00984224397689104,-0.011112039908766747,0.0035872780717909336
1690840705638550800,3.65955078125,0.0004772384709212929,-0.0211271233856678,-0.004776113200932741
1690840705648590800,3.6695908203125,0.0056919739581644535,-0.01878327503800392,-0.008657404221594334
1690840705658631700,3.679631591796875,0.007002515718340874,-0.019216304644942284,-0.01601385325193405
1690840705668671500,3.68967138671875,0.0028602350503206253,-0.010539459995925426,-0.021888786926865578
1690840705678711600,3.699711669921875,-0.0015840481501072645,-0.004063717555254698,-0.029375199228525162
1690840705688751600,3.709751708984375,-0.009917345829308033,0.008410795591771603,-0.032343026250600815
1690840705698822700,3.71982275390625,-0.012612731195986271,0.011834555305540562,-0.038599323481321335
1690840705708862700,3.72986279296875,-0.01366201601922512,0.011720571666955948,-0.04078338295221329
1690840705718888400,3.739888427734375,-0.009897105395793915,0.008163654245436192,-0.04135835915803909
1690840705728928500,3.749928466796875,-0.004522047471255064,0.0003888215287588537,-0.04141881316900253
1690840705738968600,3.759968505859375,-0.0008341020438820124,-0.0035489285364747047,-0.04071760177612305
1690840705749009700,3.770009765625,0.0013012205017730594,-0.010523481294512749,-0.03604188933968544
1690840705759049700,3.7800498046875,0.0010314423125237226,-0.013128052465617657,-0.034265030175447464
1690840705769089800,3.79008984375,-0.0025545042008161545,-0.012165852822363377,-0.02858850173652172
1690840705779129900,3.8001298828125,-0.005666940473020077,-0.006854710169136524,-0.0279216468334198
1690840705789170700,3.810170654296875,-0.008784436620771885,-0.0014077469240874052,-0.02070128358900547
1690840705799210500,3.82021044921875,-0.00945289060473442,0.0025044367648661137,-0.017433052882552147
1690840705809250600,3.83025048828125,-0.008830775506794453,0.004595017991960049,-0.012916597537696362
1690840705819291600,3.840291748046875,-0.007297061383724213,0.003102849004790187,-0.0086041409522295
1690840705829331700,3.850331787109375,-0.003572630463168025,0.00583631731569767,-0.0057313889265060425
1690840705839371800,3.860371826171875,-0.0008567389450035989,-0.0013406352372840047,-0.004266384057700634
1690840705849442800,3.87044287109375,-0.000993625377304852,-0.00022503710351884365,-0.004751878324896097
1690840705859482600,3.880482666015625,-0.0029459886718541384,-0.006845921743661165,-0.005885852500796318
1690840705869523500,3.8905234375,-0.0038836877793073654,-0.00515854312106967,-0.00681263254955411
1690840705879563500,3.9005634765625,-0.006363889668136835,-0.006982275750488043,-0.008474444970488548
1690840705889603600,3.910603515625,-0.008358864113688469,-0.005568137392401695,-0.01377946138381958
1690840705899643600,3.9206435546875,-0.007715177722275257,-0.002100435085594654,-0.01512861903756857
1690840705909684700,3.930684814453125,-0.006490922532975674,-0.0014700648607686162,-0.02052471600472927
1690840705919724800,3.940724853515625,-0.004226170480251312,0.0032900692895054817,-0.02249705232679844
1690840705929764900,3.950764892578125,-0.0027332021854817867,0.002008023438975215,-0.025795644149184227
1690840705939805700,3.9608056640625,-0.0022977753542363644,-0.0017712684348225594,-0.030466029420495033
1690840705949845500,3.970845458984375,-0.0015576828736811876,-0.0018455706303939223,-0.03062981367111206
1690840705959885600,3.980885498046875,-0.005586512852460146,-0.0019587550777941942,-0.03187617287039757
1690840705969925600,3.990925537109375,-0.005786249879747629,-0.0015425028977915645,-0.03188469633460045
1690840705979966700,4.000966796875,-0.006813697516918182,-0.005583849735558033,-0.032227445393800735
1690840705990006800,4.0110068359375,-0.005853627808392048,-0.002948385663330555,-0.030956851318478584
1690840706000077800,4.021077880859375,-0.005311941262334585,-0.00008788431296125054,-0.02899942733347416
1690840706010117600,4.03111767578125,-0.0038093857001513243,-0.0028959212359040976,-0.02563665434718132
1690840706020157700,4.04115771484375,-0.0033875408116728067,-0.0016021577175706625,-0.024404674768447876
1690840706030198500,4.051198486328125,-0.002635730430483818,-0.003038134193047881,-0.022937007248401642
1690840706040238600,4.061238525390625,-0.00284958234988153,-0.0016556872287765145,-0.01896010898053646
1690840706050278700,4.071278564453125,-0.0029973878990858793,0.00011238539445912465,-0.016200274229049683
1690840706060318700,4.081318603515625,-0.004278634674847126,-0.002508697798475623,-0.014419951476156712
1690840706070359800,4.09135986328125,-0.006083458662033081,-0.0014650048688054085,-0.01540345698595047
1690840706080400000,4.10139990234375,-0.005819539539515972,-0.0027835359796881676,-0.012018579989671707
1690840706090439700,4.111439697265625,-0.005166532471776009,-0.0006018743733875453,-0.010960238985717297
1690840706100480500,4.12148046875,-0.005578789860010147,0.0002287655370309949,-0.008702411316335201
1690840706110520600,4.1315205078125,-0.003826163476333022,-0.0036882117856293917,-0.013529923744499683
1690840706120560600,4.141560546875,-0.0031784826423972845,-0.0006514092092402279,-0.014878282323479652
1690840706130600700,4.1516005859375,-0.004187021870166063,-0.0018767296569421887,-0.016408002004027367
1690840706140641800,4.161641845703125,-0.0037417414132505655,-0.002281530061736703,-0.019026421010494232
1690840706150711600,4.171711669921875,-0.005658951122313738,0.001287904684431851,-0.01786821335554123
1690840706160752600,4.181752685546875,-0.006469883490353823,-0.0000023968450477696024,-0.022176941856741905
1690840706170792700,4.191792724609375,-0.004804076161235571,-0.003180346917361021,-0.021940985694527626
1690840706180832500,4.20183251953125,-0.003584881080314517,-0.002226402750238776,-0.024335699155926704
1690840706190873600,4.21187353515625,-0.004025634378194809,-0.0014679343439638615,-0.025709623470902443
1690840706200913700,4.22191357421875,-0.006312756799161434,-0.004230164922773838,-0.02696610428392887
1690840706210953700,4.23195361328125,-0.005363073665648699,0.0007866977830417454,-0.025654762983322144
1690840706220993500,4.24199365234375,-0.0037862160243093967,-0.0019443739438429475,-0.02671869657933712
1690840706231034600,4.25203466796875,-0.0038661109283566475,-0.003897269954904914,-0.02634691819548607
1690840706241074700,4.26207470703125,-0.0028517129831016064,-0.0027510453946888447,-0.026376480236649513
1690840706251114500,4.272114501953125,-0.005139101762324572,-0.004605138208717108,-0.024638233706355095
1690840706261155600,4.282155517578125,-0.004367584362626076,-0.0025249430909752846,-0.02201555296778679
1690840706271195600,4.292195556640625,-0.004662129562348127,-0.0025867284275591373,-0.020366257056593895
1690840706281235700,4.302235595703125,-0.005131112411618233,-0.003585147438570857,-0.020311396569013596
1690840706291275800,4.31227587890625,-0.004927114117890596,-0.0013486248208209872,-0.01883494108915329
1690840706301346600,4.3223466796875,-0.004249606281518936,0.0025297366082668304,-0.0174450371414423
1690840706311387600,4.3323876953125,-0.004347078036516905,-0.003242132253944874,-0.017310546711087227
1690840706321427500,4.342427490234375,-0.004089816473424435,-0.0008713863207958639,-0.015387478284537792
1690840706331467500,4.352467529296875,-0.004052798729389906,0.00038642468280158937,-0.013508351519703865
1690840706341507600,4.362507568359375,-0.0054128747433424,-0.0020660804584622383,-0.014694257639348507
1690840706351548700,4.372548583984375,-0.005252019967883825,0.00115421402733773,-0.015080415643751621
1690840706361588700,4.382588623046875,-0.005718073341995478,-0.0008159925346262753,-0.01606019213795662
1690840706371628500,4.392628662109375,-0.005219529382884502,-0.0015608787070959806,-0.01757819391787052
1690840706381669600,4.402669677734375,-0.00523737259209156,-0.0021616879384964705,-0.017825867980718613
1690840706391709400,4.41270947265625,-0.0031731564085930586,-0.004546282347291708,-0.01937716081738472
1690840706401749500,4.42274951171875,-0.003832288784906268,-0.0034237599465996027,-0.021650167182087898
1690840706411789600,4.43278955078125,-0.0038690404035151005,-0.003899933071807027,-0.021733257919549942
1690840706421830700,4.44283056640625,-0.005759884603321552,-0.0013544837711378932,-0.02153591811656952
1690840706431870700,4.45287060546875,-0.005682386923581362,-0.0009374326909892261,-0.026013225317001343
1690840706441910800,4.462910888671875,-0.005397694651037455,-0.0012293151812627912,-0.024336498230695724
1690840706451981600,4.472981689453125,-0.004500209353864193,-0.0004519384237937629,-0.022888004779815674
1690840706462021600,4.483021728515625,-0.003855990944430232,0.00005858954318682663,-0.024415859952569008
1690840706472062500,4.4930625,-0.00529702752828598,-0.004866394214332104,-0.02544996701180935
1690840706482102500,4.5031025390625,-0.003313771216198802,-0.0026530411560088396,-0.0222091656178236
1690840706492142600,4.513142578125,-0.004591822158545256,-0.0028360001742839813,-0.024768728762865067
1690840706502182700,4.5231826171875,-0.004190484061837196,0.0003099919413216412,-0.02183898538351059
1690840706512223700,4.5332236328125,-0.0057473680935800076,-0.0020189424976706505,-0.021559087559580803
1690840706522263600,4.543263671875,-0.003969175275415182,-0.003127083647996187,-0.02051512897014618
1690840706532303600,4.5533037109375,-0.005564142484217882,-0.0026261431630700827,-0.018026670441031456
1690840706542344400,4.563344482421875,-0.00574843306094408,-0.0010815097484737635,-0.019572902470827103
1690840706552384500,4.573384521484375,-0.005274390336126089,-0.0007107976707629859,-0.017584320157766342
1690840706562424600,4.583424560546875,-0.003769438248127699,0.000006924218723725062,-0.018079934641718864
1690840706572464600,4.593464599609375,-0.003082076320424676,-0.0011680624447762966,-0.01625460386276245
1690840706582505700,4.603505615234375,-0.003428287338465452,0.0000697748182574287,-0.01691346988081932
1690840706592545800,4.6135458984375,-0.002808836055919528,-0.001044225413352251,-0.01660693995654583
1690840706602585600,4.623585693359375,-0.0043992758728563786,-0.004151069093495607,-0.01624022237956524
1690840706612656600,4.63365673828125,-0.003947337158024311,-0.007580954115837812,-0.01763651706278324
1690840706622696700,4.64369677734375,-0.005379585549235344,-0.00878177396953106,-0.019244534894824028
1690840706632737500,4.653737548828125,-0.0065535069443285465,-0.005343899130821228,-0.01877422071993351
1690840706642777600,4.663777587890625,-0.004758003633469343,-0.0037670412566512823,-0.020472517237067223
1690840706652817700,4.673817626953125,-0.003667971817776561,-0.001169394003227353,-0.0222613625228405
1690840706662857500,4.683857421875,-0.006359628401696682,0.0005898901727050543,-0.021556157618761063
1690840706672898600,4.693898681640625,-0.005105279851704836,0.003626959165558219,-0.021285314112901688
1690840706682938600,4.703938720703125,-0.004593686666339636,0.0029710223898291588,-0.021582523360848427
1690840706692978700,4.713978759765625,-0.0036669063847512007,-0.00039521310827694833,-0.02100887894630432
1690840706703019500,4.72401953125,-0.0051625375635921955,-0.0011518171522766352,-0.023362314328551292
1690840706713059600,4.7340595703125,-0.005275722127407789,-0.005416869651526213,-0.022420087829232216
1690840706723088600,4.744088623046875,-0.006268282420933247,-0.00660543842241168,-0.023427028208971024
1690840706733128700,4.754128662109375,-0.00564084155485034,-0.011004447937011719,-0.02238546684384346
1690840706743169800,4.764169677734375,-0.003180613275617361,-0.008096275851130486,-0.019890883937478065
1690840706753209900,4.7742099609375,-0.005005677696317434,-0.002892192918807268,-0.020617660135030746
1690840706763281000,4.784281005859375,-0.003667971817776561,0.0008892294717952609,-0.018724951893091202
1690840706773321000,4.794321044921875,-0.0059510995633900166,0.0023366576060652733,-0.018510300666093826
1690840706783361000,4.804361083984375,-0.005316734779626131,0.0031182952225208282,-0.019704729318618774
1690840706793401900,4.81440185546875,-0.0032855418976396322,0.006150037981569767,-0.018694592639803886
1690840706803441700,4.824441650390625,-0.005093828309327364,0.0019473034190014005,-0.017893247306346893
1690840706813481700,4.834481689453125,-0.005002215504646301,0.0008602010202594101,-0.01901417039334774
1690840706823522800,4.844522705078125,-0.005230448208749294,-0.004677043296396732,-0.01902375929057598
1690840706833563000,4.85456298828125,-0.004834436345845461,-0.009272860363125801,-0.02046958915889263
1690840706843603000,4.86460302734375,-0.0073042516596615314,-0.00917219277471304,-0.01901576854288578
1690840706853643000,4.87464306640625,-0.004569451790302992,-0.005054146982729435,-0.019344935193657875
1690840706863683800,4.884683837890625,-0.003930825740098953,-0.0033907366450875998,-0.020495422184467316
1690840706873723600,4.8947236328125,-0.004441353492438793,-0.001014398061670363,-0.02040114626288414
1690840706883763700,4.904763671875,-0.0057316552847623825,0.00196408131159842,-0.01991485245525837
1690840706893804800,4.9148046875,-0.004758269991725683,0.003097256412729621,-0.022171614691615105
1690840706903844900,4.924844970703125,-0.004803011193871498,0.00430153775960207,-0.021630194038152695
1690840706913916000,4.934916015625,-0.0038432078436017036,0.004142014309763908,-0.021378524601459503
1690840706923956000,4.9449560546875,-0.004717523697763681,-0.0018932411912828684,-0.022889070212841034
1690840706933995800,4.954995849609375,-0.004073305055499077,-0.006432333029806614,-0.01985413208603859
1690840706944035800,4.965035888671875,-0.004541222471743822,-0.007536479737609625,-0.022181734442710876
1690840706954076700,4.97507666015625,-0.004941229242831469,-0.007333812769502401,-0.0214775949716568
1690840706964116700,4.98511669921875,-0.0049313753843307495,-0.007244863547384739,-0.021317539736628532
1690840706974156800,4.99515673828125,-0.00475534051656723,-0.006477872841060162,-0.019780362024903297
1690840706984198000,5.005197998046875,-0.006045641843229532,-0.0013819142477586865,-0.02004747837781906
1690840706994238000,5.015238037109375,-0.005359877832233906,-0.0004727110790554434,-0.020422184839844704
1690840707004278000,5.025278076171875,-0.0044256411492824554,0.005089034326374531,-0.02033829502761364
1690840707014317800,5.03531787109375,-0.0042131207883358,0.005389172583818436,-0.021634455770254135
1690840707024358700,5.045358642578125,-0.003960919566452503,0.0009515474666841328,-0.020649883896112442
1690840707034398700,5.055398681640625,-0.0036008600145578384,-0.0006178533658385277,-0.02094602771103382
1690840707044438800,5.065438720703125,-0.003862116253003478,-0.0052024852484464645,-0.02112099714577198
1690840707054480000,5.07547998046875,-0.005404885392636061,-0.009118663147091866,-0.018733739852905273
1690840707064550000,5.0855498046875,-0.005345230456441641,-0.007280017249286175,-0.017941981554031372
1690840707074591000,5.095591064453125,-0.005072789266705513,-0.007791344076395035,-0.02052684687077999
1690840707084630800,5.105630859375,-0.004765992984175682,-0.004202734678983688,-0.01727672480046749
1690840707094670800,5.1156708984375,-0.004567321389913559,0.00021385183208622038,-0.018101505935192108
1690840707104711000,5.1257109375,-0.00498037738725543,0.0019768644124269485,-0.01901443675160408
1690840707114751700,5.135751708984375,-0.004167846869677305,0.001243696198798716,-0.023498667404055595
1690840707124791800,5.145791748046875,-0.004083424806594849,0.0032461269292980433,-0.02112073078751564
1690840707134831900,5.155831787109375,-0.003955326974391937,-0.0005033374181948602,-0.021581457927823067
1690840707144873000,5.165873046875,-0.003561711637303233,-0.0013510215794667602,-0.02285977639257908
1690840707154913000,5.1759130859375,-0.004512992687523365,-0.0033899378031492233,-0.022288793697953224
1690840707164952800,5.185952880859375,-0.0057252636179327965,-0.005375057924538851,-0.02275431528687477
1690840707174993000,5.195992919921875,-0.004551608581095934,-0.005572131834924221,-0.021076256409287453
1690840707185033700,5.20603369140625,-0.0046725161373615265,-0.005402222275733948,-0.021522602066397667
1690840707195073800,5.21607373046875,-0.0054490938782691956,-0.005239502992480993,-0.02184617705643177
1690840707205113900,5.22611376953125,-0.002868490759283304,-0.002032258315011859,-0.020201673731207848
1690840707215185000,5.236184814453125,-0.005363340023905039,0.0014048174489289522,-0.021572403609752655
1690840707225224700,5.246224609375,-0.004406199790537357,0.0006093312404118478,-0.021522868424654007
1690840707235265800,5.256265869140625,-0.005563343409448862,0.0003531351685523987,-0.022480275481939316
1690840707245305900,5.266305908203125,-0.0031795480754226446,-0.0024956483393907547,-0.021087707951664925
1690840707255346000,5.276345947265625,-0.004625644534826279,-0.0013366405619308352,-0.020011791959404945
1690840707265386800,5.28638671875,-0.004568652715533972,-0.0034972631838172674,-0.0190780870616436
1690840707275426800,5.2964267578125,-0.0046538738533854485,-0.004537227563560009,-0.01882774941623211
1690840707285467000,5.306466796875,-0.003707919269800186,-0.004512459971010685,-0.01974387653172016
1690840707295507000,5.3165068359375,-0.004503937903791666,-0.0024740765802562237,-0.01913214847445488
1690840707305548000,5.326548095703125,-0.005773200653493404,-0.0037614486645907164,-0.020661335438489914
1690840707315587800,5.336587890625,-0.0031790153589099646,0.0005845638806931674,-0.01889060065150261
1690840707325628000,5.3466279296875,-0.004560663364827633,-0.0019044264918193221,-0.02057718113064766
1690840707335668700,5.356668701171875,-0.004830707795917988,0.0003051982494071126,-0.021950040012598038
1690840707345708800,5.366708740234375,-0.0035960664972662926,0.00014381069922819734,-0.020617393776774406
1690840707355748900,5.376748779296875,-0.0038306908681988716,-0.00014700648898724467,-0.022758575156331062
1690840707365820000,5.38681982421875,-0.00370099488645792,-0.0003014698449987918,-0.020487697795033455
1690840707375859700,5.396859619140625,-0.0054424358531832695,-0.0027691549621522427,-0.022844595834612846
1690840707385899800,5.406899658203125,-0.005563876125961542,-0.0018383801216259599,-0.020365193486213684
1690840707395940900,5.41694091796875,-0.005344697739928961,-0.003667971817776561,-0.022896526381373405
1690840707405981000,5.42698095703125,-0.004067179746925831,-0.0037497307639569044,-0.021924739703536034
1690840707416021000,5.43702099609375,-0.0029531794134527445,-0.002959304489195347,-0.019725501537322998
1690840707426061800,5.447061767578125,-0.004002997186034918,0.000023968450477696024,-0.02094576135277748
1690840707436102000,5.457101806640625,-0.0027268105186522007,-0.0017923073610290885,-0.021040836349129677
1690840707446142000,5.467141845703125,-0.00538357999175787,-0.0019137475173920393,-0.02190236933529377
1690840707456181800,5.477181640625,-0.003977963700890541,-0.00264744833111763,-0.02185017056763172
1690840707466222800,5.487222900390625,-0.004190750420093536,-0.0013582120882347226,-0.019722837954759598
1690840707476263000,5.497262939453125,-0.004477039910852909,-0.00011185276525793597,-0.020769193768501282
1690840707486303000,5.507302978515625,-0.00669385539367795,-0.003569967346265912,-0.019871974363923073
1690840707496343800,5.51734375,-0.006569485645741224,-0.0000010652644277797663,-0.020136160776019096
1690840707506384000,5.5273837890625,-0.005450425669550896,-0.000681236619129777,-0.02039235644042492
1690840707516455000,5.537454833984375,-0.005378520116209984,-0.0010396981379017234,-0.020244818180799484
1690840707526494700,5.54749462890625,-0.005390770733356476,0.00015952334797475487,-0.020294087007641792
1690840707536534800,5.55753466796875,-0.004005926661193371,-0.005891178734600544,-0.019839484244585037
1690840707546576000,5.567575927734375,-0.004977447912096977,-0.0010897654574364424,-0.020657874643802643
1690840707556616000,5.577615966796875,-0.0054637412540614605,-0.004252269398421049,-0.019933227449655533
1690840707566656000,5.587656005859375,-0.004405933897942305,-0.002463690238073468,-0.020841365680098534
1690840707576695800,5.59769580078125,-0.003757720347493887,-0.0036506610922515392,-0.021587051451206207
1690840707586737000,5.60773681640625,-0.005278385244309902,-0.0043678502552211285,-0.019159313291311264
1690840707596776700,5.617776611328125,-0.0037436054553836584,-0.0022146848496049643,-0.01991804875433445
1690840707606816800,5.627816650390625,-0.00577799417078495,-0.003939347807317972,-0.019456522539258003
1690840707616856800,5.63785693359375,-0.005512743256986141,-0.0015419702976942062,-0.0210027527064085
1690840707626898000,5.64789794921875,-0.004441353492438793,-0.0016431703697890043,-0.019779829308390617
1690840707636938000,5.65793798828125,-0.005540973041206598,-0.000441818410763517,-0.020849088206887245
1690840707646977800,5.667977783203125,-0.004479437135159969,-0.0036695697344839573,-0.022724486887454987
1690840707657019000,5.678018798828125,-0.005271194502711296,-0.0033220271579921246,-0.02159317582845688
1690840707667059000,5.688058837890625,-0.005352953914552927,-0.0029518476221710443,-0.0217772014439106
1690840707677129700,5.698129638671875,-0.00350472005084157,-0.002748914761468768,-0.021921543404459953
1690840707687169800,5.708169677734375,-0.005389971658587456,-0.0041430797427892685,-0.020424315705895424
1690840707697209900,5.7182099609375,-0.003537210635840893,-0.004923386033624411,-0.019173694774508476
1690840707707251000,5.7282509765625,-0.003683418035507202,-0.0035752938129007816,-0.020234698429703712
1690840707717290800,5.738290771484375,-0.004268248099833727,0.00035686357296071947,-0.01878220960497856
1690840707727350800,5.748350830078125,-0.004477306269109249,-0.002811765531077981,-0.021832061931490898
1690840707737390600,5.758390625,-0.005537244491279125,-0.00008335694292327389,-0.021409684792160988
1690840707747431400,5.768431396484375,-0.006833671126514673,-0.0021917815320193768,-0.019820043817162514
1690840707757471500,5.778471435546875,-0.004964132327586412,-0.002749447477981448,-0.020290890708565712
1690840707767511600,5.788511474609375,-0.004204066004604101,-0.0033683660440146923,-0.01998649165034294
1690840707777552600,5.798552734375,-0.004443750716745853,-0.004395014606416225,-0.021625665947794914
1690840707787592700,5.8085927734375,-0.003727892879396677,-0.002216815249994397,-0.0201614610850811
1690840707797632800,5.8186328125,-0.005080245900899172,-0.0020841897930949926,-0.020053602755069733
1690840707807672800,5.8286728515625,-0.004171042703092098,-0.0022807312197983265,-0.021831529214978218
1690840707817713700,5.838713623046875,-0.005302620120346546,-0.0034969968255609274,-0.021166536957025528
1690840707827783700,5.84878369140625,-0.004037884995341301,-0.0012532835826277733,-0.019760122522711754
1690840707837824500,5.858824462890625,-0.005375057924538851,-0.0011475561186671257,-0.020566260442137718
1690840707847864600,5.868864501953125,-0.004640824627131224,-0.0020636834669858217,-0.020498350262641907
1690840707857904600,5.878904541015625,-0.0020010992884635925,0.0006362291751429439,-0.02058570273220539
1690840707867945700,5.88894580078125,-0.0041521345265209675,0.00034967303508892655,-0.01930711790919304
1690840707877985800,5.89898583984375,-0.005406483076512814,-0.003936151973903179,-0.021253889426589012
1690840707888025600,5.909025634765625,-0.005951365921646357,-0.0036911412607878447,-0.022485068067908287
1690840707898065700,5.919065673828125,-0.005013134330511093,-0.003967577591538429,-0.01918860897421837
1690840707908106500,5.9291064453125,-0.0038272286765277386,-0.0035001926589757204,-0.020626448094844818
1690840707918146600,5.939146484375,-0.003437075763940811,-0.0036128442734479904,-0.020314592868089676
1690840707928186600,5.9491865234375,-0.005164402071386576,-0.0032711606472730637,-0.019886888563632965
1690840707938227700,5.959227783203125,-0.0036509274505078793,-0.0018698053900152445,-0.021458953619003296
1690840707948267800,5.969267822265625,-0.0045572011731565,-0.0011238539591431618,-0.019965453073382378
1690840707958307800,5.979307861328125,-0.004055461846292019,-0.001273257308639586,-0.021146031096577644
1690840707968347600,5.98934765625,-0.005950034596025944,-0.002292981604114175,-0.01979394443333149
1690840707978418700,5.999418701171875,-0.0055228634737432,-0.0001395496365148574,-0.02015000954270363
1690840707988459500,6.00945947265625,-0.005259742960333824,-0.0007848335662856698,-0.023000923916697502
1690840707998499600,6.01949951171875,-0.004460528492927551,-0.003973436541855335,-0.02275511436164379
1690840708008539600,6.02953955078125,-0.0057249972596764565,-0.0036642432678490877,-0.01991352066397667
1690840708018579700,6.039579833984375,-0.0037923413328826427,-0.003816842334344983,-0.020914070308208466
1690840708028620800,6.049620849609375,-0.00299259414896369,-0.0032487902790308,-0.02063017711043358
1690840708038660600,6.05966064453125,-0.0037470676470547915,-0.0008753810543566942,-0.021033113822340965
1690840708048700700,6.06970068359375,-0.004382497631013393,-0.0013789847726002336,-0.020563598722219467
1690840708058741500,6.079741455078125,-0.005535912699997425,-0.002186188939958811,-0.020057065412402153
1690840708068781600,6.089781494140625,-0.004192880820482969,0.0006090649403631687,-0.019894879311323166
1690840708078821600,6.099821533203125,-0.005568137392401695,-0.000030360035452758893,-0.02123231813311577
1690840708088861700,6.10986181640625,-0.003421096596866846,-0.0020516992080956697,-0.020001139491796494
1690840708098902800,6.11990283203125,-0.006421147845685482,-0.0023409186396747828,-0.020004067569971085
1690840708108942800,6.12994287109375,-0.003826696192845702,-0.0018788601737469435,-0.019827499985694885
1690840708118982700,6.139982666015625,-0.0019182749092578888,-0.003216033335775137,-0.020302342250943184
1690840708129053700,6.1500537109375,-0.0038165762089192867,-0.0011198592837899923,-0.02172287181019783
1690840708139093800,6.16009375,-0.004259992390871048,-0.0027979169972240925,-0.02016465738415718
1690840708149134600,6.170134521484375,-0.004578240215778351,-0.0010391654213890433,-0.02268294245004654
1690840708159174700,6.180174560546875,-0.005593703594058752,-0.0002372876479057595,-0.021872807294130325
1690840708169214700,6.190214599609375,-0.003820837242528796,-0.0016354472609236836,-0.018765166401863098
1690840708179254500,6.200254638671875,-0.0038280277512967587,-0.0035092474427074194,-0.02057425118982792
1690840708189295600,6.210295654296875,-0.004108458757400513,-0.005556419026106596,-0.02136627584695816
1690840708199335700,6.220335693359375,-0.005072789266705513,-0.0024919197894632816,-0.02052897773683071
1690840708209375700,6.230375732421875,-0.005116198677569628,-0.002671683207154274,-0.020506873726844788
1690840708219416600,6.24041650390625,-0.004547081422060728,-0.0032767534721642733,-0.019962256774306297
1690840708229456600,6.25045654296875,-0.004473045468330383,-0.0005107942852191627,-0.01931697316467762
1690840708239496700,6.26049658203125,-0.004205397795885801,-0.0004524710529949516,-0.019414709880948067
1690840708249536800,6.270536865234375,-0.005422728601843119,-0.0024951156228780746,-0.021685320883989334
1690840708259577900,6.280577880859375,-0.005688512232154608,-0.0031188279390335083,-0.019934026524424553
1690840708269617700,6.29061767578125,-0.004740160424262285,-0.0016887104138731956,-0.019784091040492058
1690840708279688700,6.300688720703125,-0.004041346721351147,-0.0008777778712101281,-0.01883920095860958
1690840708289728800,6.310728759765625,-0.006315154023468494,-0.0017339842161163688,-0.020614463835954666
1690840708299768600,6.3207685546875,-0.004221909213811159,-0.002144909929484129,-0.019938021898269653
1690840708309809700,6.3308095703125,-0.0038157771341502666,-0.0013278521364554763,-0.020169982686638832
1690840708319849700,6.340849609375,-0.003369963960722089,-0.0018945727497339249,-0.02153884805738926
1690840708329889500,6.3508896484375,-0.0039880839176476,-0.001350488979369402,-0.020434968173503876
1690840708339929600,6.3609296875,-0.00301762786693871,-0.0030269487760961056,-0.019872240722179413
1690840708349970700,6.370970703125,-0.0029614351224154234,-0.00005912217602599412,-0.021797440946102142
1690840708360010500,6.381010498046875,-0.0038256309926509857,-0.005234709475189447,-0.021856829524040222
1690840708370050600,6.391050537109375,-0.0027598338201642036,-0.002290318487212062,-0.019463978707790375
1690840708380091600,6.401091552734375,-0.004493019077926874,-0.0030929953791201115,-0.02015826478600502
1690840708390131700,6.411131591796875,-0.005197957623749971,-0.0011459582019597292,-0.020790765061974525
1690840708400171500,6.421171630859375,-0.005014199763536453,-0.002311091171577573,-0.02021312527358532
1690840708410211600,6.431211669921875,-0.004259992390871048,-0.0015158712631091475,-0.020772656425833702
1690840708420252700,6.441252685546875,-0.006413424387574196,-0.003457049373537302,-0.021093301475048065
1690840708430323700,6.45132373046875,-0.005407282151281834,-0.0026522420812398195,-0.020976388826966286
1690840708440363500,6.461363525390625,-0.0051683965139091015,-0.002549976808950305,-0.018863702192902565
1690840708450403600,6.471403564453125,-0.004449076950550079,-0.0037382792215794325,-0.01992976665496826
1690840708460443600,6.481443603515625,-0.005134041886776686,-0.0006908240029588342,-0.0203942209482193
1690840708470484700,6.491484619140625,-0.003887682454660535,-0.002376604825258255,-0.02178332582116127
1690840708480524500,6.501524658203125,-0.005349758081138134,-0.0032977922819554806,-0.020893830806016922
1690840708490564600,6.511564697265625,-0.004924184642732143,-0.004193413536995649,-0.020021112635731697
1690840708500605700,6.521605712890625,-0.004435760900378227,-0.001365668955259025,-0.021143900230526924
1690840708510645500,6.5316455078125,-0.004838431254029274,-0.0006900250446051359,-0.019886089488863945
1690840708520685600,6.541685546875,-0.004022172186523676,-0.0037388119380921125,-0.020074374973773956
1690840708530725600,6.5517255859375,-0.005047223065048456,-0.0029917950741946697,-0.02177613601088524
1690840708540766700,6.5617666015625,-0.004120708908885717,-0.0028543761000037193,-0.02183525823056698
1690840708550806500,6.571806640625,-0.003983023576438427,-0.00016192019393201917,-0.020009927451610565
1690840708560846600,6.5818466796875,-0.004860268905758858,-0.0027651600539684296,-0.020134562626481056
1690840708570887700,6.5918876953125,-0.0054696002043783665,-0.0007422229973599315,-0.021746041253209114
1690840708580957700,6.601957763671875,-0.004963066894561052,-0.002628007438033819,-0.021567342802882195
1690840708590998500,6.61199853515625,-0.004712729714810848,-0.0024058998096734285,-0.01937955617904663
1690840708601038600,6.62203857421875,-0.0033603766933083534,-0.0018530274974182248,-0.021561218425631523
1690840708611078700,6.63207861328125,-0.006625944748520851,-0.0034165694378316402,-0.021400097757577896
1690840708621118500,6.642118408203125,-0.0049026133492589,-0.003019758267328143,-0.020686902105808258
1690840708631159600,6.65215966796875,-0.003707120195031166,-0.00310577847994864,-0.02147945947945118
1690840708641199600,6.66219970703125,-0.005447229836136103,0.0004820321628358215,-0.021375330165028572
1690840708651239700,6.67223974609375,-0.005003014579415321,-0.000910268456209451,-0.020671190693974495
1690840708661280500,6.682280517578125,-0.00475587323307991,-0.0009017463307827711,-0.019583022221922874
1690840708671320600,6.692320556640625,-0.005360676907002926,-0.0011733887949958444,-0.01932309754192829
1690840708681360600,6.702360595703125,-0.004752144683152437,0.000011451592399680521,-0.02064695581793785
1690840708691400400,6.712400390625,-0.004752144683152437,-0.0033742249943315983,-0.01944187469780445
1690840708701441500,6.722441650390625,-0.005480785388499498,-0.0035334820859134197,-0.02178678847849369
1690840708711481600,6.732481689453125,-0.004472246393561363,-0.0020120181143283844,-0.019296199083328247
1690840708721505800,6.742505859375,-0.005635781679302454,-0.0025712819769978523,-0.022720225155353546
1690840708731547000,6.752546875,-0.002953711897134781,-0.005708219483494759,-0.02046719193458557
1690840708741617000,6.762616943359375,-0.0051739891059696674,-0.002019208623096347,-0.020677315071225166
1690840708751658000,6.772657958984375,-0.005829393398016691,-0.0016490293201059103,-0.01948581635951996
1690840708761698000,6.782697998046875,-0.004241084214299917,0.00016591492749284953,-0.022007564082741737
1690840708771738000,6.792738037109375,-0.004728975240141153,-0.002046372974291444,-0.02171941101551056
1690840708781778000,6.80277783203125,-0.005008340813219547,-0.0017936390358954668,-0.018282601609826088
1690840708791818800,6.81281884765625,-0.0043806335888803005,-0.0011299792677164078,-0.018983278423547745
1690840708801858800,6.82285888671875,-0.004540956113487482,-0.00199337606318295,-0.02263074368238449
1690840708811899000,6.83289892578125,-0.004983306862413883,-0.001811748486943543,-0.02008982188999653
1690840708821940000,6.84293994140625,-0.006450176239013672,-0.00293267285451293,-0.021819278597831726
1690840708831980000,6.85297998046875,-0.005676794331520796,-0.005577990785241127,-0.01938168704509735
1690840708842020000,6.86302001953125,-0.0033595776185393333,-0.0016503608785569668,-0.020738568156957626
1690840708852060200,6.87306005859375,-0.00561021501198411,-0.003233610186725855,-0.01985306665301323
1690840708862101000,6.88310107421875,-0.002703907433897257,-0.0044176517985761166,-0.020261328667402267
1690840708872140800,6.893140869140625,-0.0068094367161393166,-0.0009635316673666239,-0.0204570721834898
1690840708882180900,6.903180908203125,-0.004598480183631182,-0.001127316034398973,-0.021980132907629013
1690840708892252000,6.913251953125,-0.005046956706792116,-0.002582201035693288,-0.02082272432744503
1690840708902292000,6.9232919921875,-0.0035060516092926264,-0.002724946476519108,-0.02075028605759144
1690840708912333000,6.9333330078125,-0.004625910893082619,-0.002112419344484806,-0.020265324041247368
1690840708922373000,6.943373046875,-0.004763063509017229,-0.0007243797881528735,-0.020350279286503792
1690840708932413000,6.953412841796875,-0.004249339923262596,-0.0020088222809135914,-0.02064136229455471
1690840708942453800,6.963453857421875,-0.005702094174921513,-0.0005113269435241818,-0.019470904022455215
1690840708952493800,6.973493896484375,-0.0057585532777011395,-0.0018905780743807554,-0.02063923142850399
1690840708962534000,6.983533935546875,-0.004191549029201269,-0.0016487629618495703,-0.019526297226548195
1690840708972574000,6.993573974609375,-0.004799016285687685,0.0006322344415821135,-0.020795293152332306
1690840708982615000,7.003614990234375,-0.004027232062071562,-0.0016612798208370805,-0.02118304930627346
1690840708992655000,7.013655029296875,-0.004580903332680464,-0.0023957795929163694,-0.020661069080233574
1690840709002695200,7.023695068359375,-0.005760417319834232,-0.0010689928894862533,-0.02058064192533493
1690840709012736000,7.033736083984375,-0.0051771849393844604,-0.0023489079903811216,-0.018927885219454765
1690840709022775800,7.04377587890625,-0.0046727824956178665,-0.002516687149181962,-0.019212841987609863
1690840709032815900,7.05381591796875,-0.00484162662178278,-0.0028605014085769653,-0.021262411028146744
1690840709042887000,7.063886962890625,-0.006363623309880495,-0.0023299995809793472,-0.01918860897421837
1690840709052927000,7.073927001953125,-0.005585447885096073,-0.0036543896421790123,-0.020267987623810768
1690840709062967000,7.083967041015625,-0.004477572627365589,-0.0030684941448271275,-0.021138574928045273
1690840709073008000,7.094008056640625,-0.004043211229145527,-0.0008474178612232208,-0.0198658499866724
1690840709083048000,7.1040478515625,-0.005302087403833866,-0.0020216056145727634,-0.02002697065472603
1690840709093088000,7.114087890625,-0.004114317707717419,-0.004924451000988483,-0.01997184380888939
1690840709103128800,7.12412890625,-0.004773982334882021,-0.0027324033435434103,-0.021587584167718887
1690840709113169000,7.1341689453125,-0.004554005339741707,-0.0008040083339437842,-0.02238200418651104
1690840709123209000,7.144208984375,-0.004256530199199915,-0.001799764228053391,-0.02039981447160244
1690840709133249000,7.1542490234375,-0.004252802114933729,-0.0024748756550252438,-0.021141771227121353
1690840709143290000,7.1642900390625,-0.0029225528705865145,0.000322775129461661,-0.021763352677226067
1690840709153330000,7.174329833984375,-0.004573978949338198,-0.0023435817565768957,-0.021472269669175148
1690840709163370000,7.184369873046875,-0.005028580781072378,-0.0022093583829700947,-0.02034495212137699
1690840709173410800,7.194410888671875,-0.0035265579354017973,-0.0037015276029706,-0.0216554943472147
1690840709183451000,7.204450927734375,-0.004601143300533295,-0.002891660202294588,-0.01954866759479046
1690840709193522000,7.21452197265625,-0.004333761986345053,0.000984570593573153,-0.02034468576312065
1690840709203562000,7.22456201171875,-0.0041609229519963264,-0.003576092654839158,-0.021385716274380684
1690840709213602000,7.23460205078125,-0.005216599907726049,-0.0034378746058791876,-0.0207526832818985
1690840709223643100,7.24464306640625,-0.0057436395436525345,-0.002769421087577939,-0.02178465761244297
1690840709233683000,7.254682861328125,-0.00418489146977663,-0.0008306399104185402,-0.020262394100427628
1690840709243723000,7.264722900390625,-0.0046445527113974094,-0.0015592807903885841,-0.020661601796746254
1690840709253763000,7.27476318359375,-0.003727093804627657,-0.0000881506348378025,-0.019843745976686478
1690840709263804000,7.284803955078125,-0.03271427005529404,-0.2127056121826172,-0.08445549756288528
1690840709273844000,7.294843994140625,-0.0008703210623934865,0.08552289009094238,-0.10830223560333252
1690840709283884000,7.304884033203125,-0.03701367601752281,-0.08041681349277496,-0.0676746517419815
1690840709293923800,7.314923828125,-0.01272777933627367,-0.06276857852935791,-0.08852986246347427
1690840709303965000,7.32496484375,0.004299673717468977,-0.002317482838407159,-0.08996611088514328
1690840709314005000,7.3350048828125,0.022969231009483337,-0.04938779026269913,-0.08710134774446487
1690840709324045000,7.345045166015625,0.027290210127830505,-0.09704878181219101,-0.05459054186940193
1690840709334086000,7.3550859375,0.01780296489596367,-0.04110429435968399,0.007467237301170826
1690840709344156000,7.365156005859375,0.012686766684055328,-0.010427340865135193,0.03150732442736626
1690840709354197000,7.375197021484375,0.005628590937703848,0.054172955453395844,0.03605387359857559
1690840709364237000,7.385237060546875,-0.004547081422060728,0.07070665806531906,0.07569955289363861
1690840709374276900,7.39527685546875,-0.012366654351353645,0.03494733199477196,0.10418818891048431
1690840709384318000,7.40531787109375,-0.01829937845468521,0.057432930916547775,0.1107960194349289
1690840709394358000,7.41535791015625,-0.015162440948188305,0.014852449297904968,0.10787453502416611
1690840709404398000,7.425398193359375,-0.009630522690713406,-0.0017904432024806738,0.09164682775735855
1690840709414438000,7.43543798828125,-0.0013986921403557062,-0.012977584265172482,0.06624160706996918
1690840709424479000,7.44547900390625,0.004923119675368071,-0.013577594421803951,0.052927929908037186
1690840709434519000,7.45551904296875,0.0051654670387506485,-0.005123655777424574,0.030521424487233162
1690840709444558800,7.465558837890625,0.00017097493400797248,0.004853078629821539,0.008778044953942299
1690840709454600000,7.475599853515625,-0.005947371479123831,0.004959871061146259,-0.016109194606542587
1690840709464640000,7.485639892578125,-0.011302188970148563,0.0024977787397801876,-0.03588210046291351
1690840709474680000,7.49568017578125,-0.012208462692797184,0.009259544312953949,-0.054182812571525574
1690840709484719900,7.505719970703125,-0.01161324605345726,-0.0005467469454742968,-0.07757441699504852
1690840709494791000,7.515791015625,-0.00615243474021554,0.0005811017472296953,-0.09297308325767517
1690840709504831000,7.5258310546875,-0.0013068130938336253,-0.0031672974582761526,-0.10236258804798126
1690840709514872000,7.5358720703125,-0.0000798948312876746,-0.006608367897570133,-0.10793658345937729
1690840709524911900,7.545911865234375,0.0003126551164314151,-0.006502906791865826,-0.1111781895160675
1690840709534952000,7.555951904296875,-0.0026546388398855925,-0.004869323689490557,-0.10666705667972565
1690840709544993000,7.565992919921875,-0.004863464739173651,-0.004567321389913559,-0.09998518973588943
1690840709555033000,7.576033203125,-0.006927680689841509,-0.003465571440756321,-0.08918020874261856
1690840709565073000,7.586072998046875,-0.009318400174379349,-0.0012389025650918484,-0.07342681288719177
1690840709575113000,7.596113037109375,-0.009552759118378162,-0.003323358716443181,-0.059593021869659424
1690840709585154000,7.606154052734375,-0.007002515718340874,-0.0006018743733875453,-0.04170083999633789
1690840709595193900,7.61619384765625,-0.0054823835380375385,-0.0016522251535207033,-0.021329790353775024
1690840709605234000,7.62623388671875,-0.0037670412566512823,0.0009451558580622077,-0.0060416474007070065
1690840709615275000,7.63627490234375,-0.000059921123465755954,-0.003576359013095498,0.008234228007495403
1690840709625315000,7.646315185546875,-0.002692189533263445,-0.0006186523241922259,0.023197198286652565
1690840709635355000,7.65635498046875,-0.0030242856591939926,0.0002769687562249601,0.03532150387763977
1690840709645426000,7.666426025390625,-0.005356948357075453,-0.0032988577149808407,0.044131241738796234
1690840709655466000,7.676466064453125,-0.007919708266854286,-0.0023164174053817987,0.04553819075226784
1690840709665507000,7.686507080078125,-0.007999070920050144,-0.0016421051695942879,0.04399701952934265
1690840709675547000,7.696546875,-0.008005994372069836,-0.0009544769418425858,0.04265478625893593
1690840709685587000,7.7065869140625,-0.007708253338932991,-0.0014034858904778957,0.03778732568025589
1690840709695627000,7.716626953125,-0.004296211525797844,0.001112668658606708,0.0275605209171772
1690840709705668000,7.726668212890625,-0.002633333671838045,0.002635996788740158,0.017459949478507042
1690840709715708000,7.7367080078125,-0.004234426189213991,-0.00004367584188003093,0.004707403481006622
1690840709725727200,7.746727294921875,-0.0035872780717909336,-0.0003158508916385472,-0.00818203017115593
1690840709735767000,7.75676708984375,-0.004780374001711607,-0.004365986213088036,-0.023027021437883377
1690840709745808100,7.76680810546875,-0.004997687879949808,-0.001056476030498743,-0.03417128697037697
1690840709755848200,7.77684814453125,-0.005597165785729885,-0.0027076357509940863,-0.04477439448237419
1690840709765888300,7.78688818359375,-0.006020075641572475,-0.0017504957504570484,-0.05325017124414444
1690840709775929000,7.79692919921875,-0.004908205941319466,-0.00026791400159709156,-0.06408204883337021
1690840709785969200,7.80696923828125,-0.0035236284602433443,-0.006339654792100191,-0.06865149736404419
1690840709796009200,7.81700927734375,-0.0038722362369298935,-0.005250954534858465,-0.06914817541837692
1690840709806080000,7.827080078125,-0.0031790153589099646,-0.005074120592325926,-0.06925177574157715
1690840709816120000,7.8371201171875,-0.0032623722217977047,-0.003930559381842613,-0.06507007777690887
1690840709826161200,7.8471611328125,-0.005155080929398537,-0.0015638081822544336,-0.060328852385282516
1690840709836201200,7.857201171875,-0.005634449888020754,-0.0038482677191495895,-0.05360144376754761
1690840709846241300,7.8672412109375,-0.004379302263259888,-0.004192880820482969,-0.04290725290775299
1690840709856281300,7.87728125,-0.005135373678058386,-0.0015140071045607328,-0.0341249480843544
1690840709866322200,7.887322265625,-0.005517270881682634,-0.0007555388147011399,-0.02347549796104431
1690840709876362200,7.8973623046875,-0.005528456065803766,0.00002663161103555467,-0.014009824953973293
1690840709886402000,7.907402099609375,-0.004570250865072012,-0.004326305352151394,-0.005542570725083351
1690840709896443100,7.917443115234375,-0.005066397599875927,0.00022077605535741895,0.0024578312877565622
1690840709906483200,7.927483154296875,-0.0017387778498232365,-0.0004932174342684448,0.006847253534942865
1690840709916523300,7.937523193359375,-0.006364422384649515,-0.0004780374001711607,0.014365890063345432
1690840709926563300,7.947563232421875,-0.003945739474147558,0.0003448793722782284,0.014855911023914814
1690840709936604200,7.957604248046875,-0.0057138120755553246,-0.0007009439868852496,0.015914252027869225
1690840709946644200,7.967644287109375,-0.003992877434939146,-0.00515801040455699,0.011996208690106869
1690840709956715000,7.977715087890625,-0.004310592543333769,0.00018455706594977528,0.01107688620686531
1690840709966755000,7.987755126953125,-0.00501047121360898,-0.0007262440049089491,0.007254450581967831
1690840709976795100,7.997795166015625,-0.0030059099663048983,-0.0013760552974417806,-0.00010253170330543071
1690840709986836200,8.007836181640625,-0.0046325684525072575,-0.002225337317213416,-0.0070251524448394775
1690840709996876300,8.017876220703124,-0.0055180699564516544,-0.0017595505341887474,-0.013925136998295784
1690840710006916400,8.027916259765625,-0.006347644608467817,-0.0034903388004750013,-0.021198762580752373
1690840710016956400,8.037956298828124,-0.0038695731200277805,-0.0011403656098991632,-0.02888704091310501
1690840710026997200,8.047997314453125,-0.003913515247404575,-0.00321816373616457,-0.03572310879826546
1690840710037037000,8.058037109375,-0.00498011102899909,-0.0020746025256812572,-0.041064079850912094
1690840710047077000,8.0680771484375,-0.004670917987823486,-0.0014508900931105018,-0.04313841462135315
1690840710057118200,8.0781181640625,-0.004285292699933052,-0.0031792817171663046,-0.04638933762907982
1690840710067158300,8.088158203125,-0.003834951901808381,-0.0014096111990511417,-0.047215983271598816
1690840710077198300,8.0981982421875,-0.005290902219712734,-0.0020008329302072525,-0.04626709595322609
1690840710087238400,8.10823828125,-0.003970507066696882,-0.0037023264449089766,-0.04367797076702118
1690840710097279200,8.118279296875,-0.005199822131544352,-0.005645635072141886,-0.04212135449051857
1690840710107350000,8.12835009765625,-0.0048919604159891605,-0.0011619371362030506,-0.036786243319511414
1690840710117390000,8.13839013671875,-0.0036461339332163334,-0.0035752938129007816,-0.02954564243555069
1690840710127430100,8.14843017578125,-0.004299407359212637,-0.004954278469085693,-0.026578348129987717
1690840710137470200,8.15847021484375,-0.005319131538271904,-0.0002556634717620909,-0.022942334413528442
1690840710147511300,8.16851123046875,-0.005392368417233229,-0.0009190568816848099,-0.016226107254624367
1690840710157551400,8.17855126953125,-0.003906058380380273,-0.0011057445080950856,-0.010412161238491535
1690840710167591400,8.18859130859375,-0.003936684690415859,-0.004432565066963434,-0.00700837466865778
1690840710177632300,8.19863232421875,-0.004613926634192467,-0.0010229201288893819,-0.003379817819222808
1690840710187672000,8.208672119140624,-0.005726595409214497,0.00018269284919369966,-0.0031281490810215473
1690840710197712100,8.218712158203125,-0.005021123681217432,-0.002460494404658675,-0.0028503811918199062
1690840710207752200,8.228752197265624,-0.006332198157906532,-0.0014564828015863895,-0.0017041567480191588
1690840710217793300,8.238793212890625,-0.005044027231633663,-0.0015598133904859424,-0.004598213825374842
1690840710227833300,8.248833251953124,-0.005250155925750732,-0.0015941682504490018,-0.005335377063602209
1690840710237873400,8.258873291015625,-0.004957740660756826,-0.0024487765040248632,-0.008699748665094376
1690840710247913200,8.268913330078124,-0.005516738165169954,-0.0002972087822854519,-0.01155625469982624
1690840710257984300,8.278984375,-0.005405684467405081,-0.0030863373540341854,-0.015723302960395813
1690840710268025000,8.289025146484375,-0.0036935380194336176,-0.0036730316933244467,-0.021399831399321556
1690840710278065200,8.299065185546874,-0.005014732480049133,-0.002323608146980405,-0.024881381541490555
1690840710288105200,8.309105224609375,-0.004764661658555269,-0.00192226970102638,-0.02636156603693962
1690840710298145300,8.319145263671874,-0.005274656694382429,-0.002400573343038559,-0.029874276369810104
1690840710308186400,8.329186279296875,-0.0046842340379953384,-0.0020295949652791023,-0.033115874975919724
1690840710318226200,8.33922607421875,-0.004612328484654427,0.00006311691686278209,-0.03689436987042427
1690840710328266200,8.349266357421875,-0.006739661563187838,-0.004851746838539839,-0.03382321074604988
1690840710338307000,8.35930712890625,-0.002808836055919528,-0.0009675264009274542,-0.03297339752316475
1690840710348347100,8.36934716796875,-0.0025784724857658148,-0.0009701895760372281,-0.03317393362522125
1690840710358387200,8.37938720703125,-0.005556685384362936,0.00022690132027491927,-0.03163409233093262
1690840710368427300,8.38942724609375,-0.005118329077959061,-0.004997954238206148,-0.02912406250834465
1690840710378468400,8.39946826171875,-0.003534547286108136,0.0005635248962789774,-0.025424400344491005
1690840710388508400,8.40950830078125,-0.005766542628407478,-0.0014152037911117077,-0.02383582480251789
1690840710398548200,8.41954833984375,-0.006725813262164593,-0.0015603461069986224,-0.022112758830189705
1690840710408619300,8.429619384765624,-0.004199272487312555,-0.0035329493694007397,-0.01678909920156002
1690840710418659300,8.439659423828125,-0.004595284350216389,0.00027324032271280885,-0.01575286313891411
1690840710428700200,8.4497001953125,-0.0046213832683861256,-0.0036762275267392397,-0.013481453992426395
1690840710438740200,8.459740234375,-0.004861067980527878,-0.0009355684742331505,-0.011324027553200722
1690840710448780300,8.4697802734375,-0.004734301473945379,-0.0028660940006375313,-0.010787400417029858
1690840710458820000,8.479820068359375,-0.004589425399899483,-0.00025752768851816654,-0.008065915666520596
1690840710468861200,8.489861083984374,-0.005517270881682634,-0.0012916331179440022,-0.008243015967309475
1690840710478901200,8.4999013671875,-0.0015763250412419438,-0.0008191883680410683,-0.00956927053630352
1690840710488941300,8.50994140625,-0.0041457428596913815,-0.0027654264122247696,-0.011997806839644909
1690840710498982100,8.519982177734375,-0.004199006129056215,-0.0009614011505618691,-0.013018330559134483
1690840710509022200,8.530022216796874,-0.005178516730666161,-0.0035808864049613476,-0.017297230660915375
1690840710519062300,8.540062255859375,-0.005309277679771185,-0.004323375876992941,-0.01907755434513092
1690840710529102300,8.550102294921874,-0.004315119702368975,0.0003174488083459437,-0.021821675822138786
1690840710539143400,8.560143310546875,-0.0049313753843307495,-0.00012303804396651685,-0.02436073310673237
1690840710549183200,8.570183349609374,-0.005004345905035734,-0.00012436961696948856,-0.026132268831133842
1690840710559254300,8.580254150390624,-0.0026170883793383837,-0.004521514754742384,-0.027039339765906334
1690840710569294300,8.59029443359375,-0.0049095372669398785,-0.0036844832357019186,-0.0269466619938612
1690840710579334100,8.600334228515624,-0.005222458858042955,-0.0030802120454609394,-0.028681978583335876
1690840710589375200,8.610375244140625,-0.004314587451517582,-0.0026490462478250265,-0.026373017579317093
1690840710599415300,8.620415283203124,-0.0026461167726665735,-0.0015211976133286953,-0.02906893566250801
1690840710609455000,8.630455078125,-0.005726329050958157,-0.0031997880432754755,-0.029253758490085602
1690840710619496200,8.64049609375,-0.003912716172635555,-0.004040548112243414,-0.027696076780557632
1690840710629536300,8.650536376953125,-0.00387356779538095,-0.0021728731226176023,-0.026336265727877617
1690840710639576300,8.660576416015624,-0.005218463949859142,-0.004865328781306744,-0.02587980031967163
1690840710649616100,8.6706162109375,-0.006779342889785767,-0.0028192223981022835,-0.021331919357180595
1690840710659657200,8.6806572265625,-0.005766276270151138,-0.003281813347712159,-0.021257085725665092
1690840710669697300,8.690697265625,-0.005805158521980047,-0.0009110674145631492,-0.0167896319180727
1690840710679737300,8.7007373046875,-0.004239486064761877,-0.003222158644348383,-0.017351560294628143
1690840710689778400,8.7107783203125,-0.006206230726093054,-0.004372377879917622,-0.017136642709374428
1690840710699818200,8.720818359375,-0.005636047571897507,-0.001698564155958593,-0.013425261713564396
1690840710709889300,8.73088916015625,-0.004125769250094891,-0.001657018787227571,-0.015262043103575706
1690840710719929300,8.740929443359375,-0.0043707797303795815,-0.0011369034182280302,-0.01531717088073492
1690840710729965300,8.75096533203125,-0.005791576579213142,-0.0037531929556280375,-0.013962953351438046
1690840710740005400,8.76100537109375,-0.0047055394388735294,-0.004429901950061321,-0.01607324182987213
1690840710750046200,8.771046142578125,-0.0038549257442355156,0.0006468818173743784,-0.01576884277164936
1690840710760086300,8.781086181640624,-0.004747617058455944,-0.0035931370221078396,-0.017798172309994698
1690840710770126300,8.791126220703125,-0.0041587925516068935,-0.000696150294970721,-0.019270634278655052
1690840710780167400,8.80116748046875,-0.0054855793714523315,-0.0009627327090129256,-0.019570505246520042
1690840710790207200,8.811207275390625,-0.006727410946041346,-0.0026261431630700827,-0.020597420632839203
1690840710800247300,8.821247314453124,-0.0038093857001513243,-0.0016852483386173844,-0.021855231374502182
1690840710810287400,8.831287353515625,-0.0037148434203118086,-0.0008862999966368079,-0.025074992328882217
1690840710820328200,8.841328125,-0.0046267095021903515,-0.0014285196084529161,-0.02305365353822708
1690840710830368300,8.8513681640625,-0.004025900736451149,-0.004308195784687996,-0.026319755241274834
1690840710840408300,8.861408203125,-0.004483964294195175,-0.0025268071331083775,-0.0270108450204134
1690840710850449400,8.871449462890626,-0.005672266706824303,-0.004395014606416225,-0.026729881763458252
1690840710860489500,8.881489501953125,-0.005385976750403643,-0.0020988371688872576,-0.025380989536643028
1690840710870560300,8.891560302734375,-0.004138818476349115,-0.0027116306591778994,-0.026691798120737076
1690840710880600300,8.901600341796875,-0.005178516730666161,-0.005378520116209984,-0.026039322838187218
1690840710890640400,8.911640380859374,-0.003736148588359356,-0.001141963410191238,-0.02153458632528782
1690840710900680200,8.92168017578125,-0.004326038993895054,-0.0009499495499767363,-0.018908176571130753
1690840710910721300,8.93172119140625,-0.0049582733772695065,-0.0001459412305848673,-0.0193763617426157
1690840710920761300,8.94176123046875,-0.0051721250638365746,0.0013004215434193611,-0.01938355155289173
1690840710930801200,8.95180126953125,-0.005559614859521389,-0.0002495381922926754,-0.01823386549949646
1690840710940842200,8.96184228515625,-0.004443484358489513,-0.002886067610234022,-0.016890833154320717
1690840710950882300,8.97188232421875,-0.005075985100120306,-0.003026682650670409,-0.017039969563484192
1690840710960922400,8.98192236328125,-0.003931092098355293,-0.003867176128551364,-0.019108446314930916
1690840710970962200,8.991962158203124,-0.004275172483175993,-0.002895655110478401,-0.016865266487002373
1690840710981003300,9.002003173828125,-0.004766259342432022,-0.0036157737486064434,-0.0172591470181942
1690840710991043300,9.012043212890624,-0.0040852888487279415,-0.0008974852971732616,-0.017068998888134956
1690840711001083400,9.02208349609375,-0.004855209030210972,-0.0015872439835220575,-0.01709110289812088
1690840711011124500,9.03212451171875,-0.0037081853952258825,-0.002602973720058799,-0.01781335100531578
1690840711021194200,9.0421943359375,-0.005706089083105326,-0.0016386429779231548,-0.018541991710662842
1690840711031235300,9.0522353515625,-0.002802444389089942,-0.004661597311496735,-0.02058437094092369
1690840711041275100,9.062275146484374,-0.0026841999497264624,-0.002784334821626544,-0.01918967254459858
1690840711051315200,9.072315185546875,-0.005312207154929638,-0.0008215851848945022,-0.02383449301123619
1690840711061356300,9.082356201171875,-0.0026612968649715185,-0.0020988371688872576,-0.02400094084441662
1690840711071396400,9.092396240234375,-0.00532605592161417,-0.0028221518732607365,-0.023128755390644073
1690840711081436200,9.102436279296874,-0.005592105444520712,-0.0030655646696686745,-0.02261902578175068
1690840711091476200,9.112476318359375,-0.004510595928877592,-0.0028575719334185123,-0.022493591532111168
1690840711101517300,9.122517333984375,-0.003967044875025749,-0.004514590837061405,-0.022416092455387115
1690840711111557000,9.13255712890625,-0.0037859496660530567,-0.0013640711549669504,-0.020963871851563454
1690840711121597200,9.14259716796875,-0.004159324802458286,0.00022556974727194756,-0.02213486284017563
1690840711131638300,9.15263818359375,-0.005263737868517637,-0.001740375766530633,-0.023749804124236107
1690840711141678300,9.16267822265625,-0.005281581077724695,0.00021784658019896597,-0.020504210144281387
1690840711151718400,9.172718505859375,-0.004313522018492222,-0.0010926949325948954,-0.021871743723750114
1690840711161758200,9.18275830078125,-0.004308195784687996,-0.0030152308754622936,-0.01925012655556202
1690840711171829200,9.192829345703124,-0.0057164751924574375,-0.003349990351125598,-0.019157448783516884
1690840711181869300,9.202869384765625,-0.005286374595016241,-0.004289819858968258,-0.018306568264961243
1690840711191910100,9.21291015625,-0.005754558369517326,-0.0019981698133051395,-0.01871270127594471
1690840711201950200,9.2229501953125,-0.0037955371662974358,-0.0046392264775931835,-0.019277557730674744
1690840711211990300,9.232990234375,-0.005049619823694229,-0.0015819176333025098,-0.01907462440431118
1690840711222031400,9.24303125,-0.004252269398421049,-0.0021438447292894125,-0.018097776919603348
1690840711232071200,9.2530712890625,-0.004223241005092859,-0.003245860803872347,-0.017355287447571754
1690840711242111200,9.263111328125,-0.005023520905524492,0.00005752427750849165,-0.017715614289045334
1690840711252151300,9.2731513671875,-0.004344148561358452,-0.00017683389887679368,-0.018310030922293663
1690840711262192000,9.283192138671875,-0.005033640656620264,-0.0006359628750942647,-0.01907782070338726
1690840711272232200,9.293232177734374,-0.004738828632980585,-0.0018959043081849813,-0.020363595336675644
1690840711282272300,9.303272216796875,-0.005350024439394474,-0.0020703414920717478,-0.01996944658458233
1690840711292313300,9.313313232421875,-0.003431216813623905,-0.0024951156228780746,-0.020180901512503624
1690840711302353200,9.323353271484375,-0.0051878378726542,-0.002298840554431081,-0.018919095396995544
1690840711312393200,9.333393310546874,-0.0041284323669970036,-0.0013185309944674373,-0.021736986935138702
1690840711322464300,9.34346435546875,-0.003790477057918906,-0.0008434231276623905,-0.020969729870557785
1690840711332504300,9.35350439453125,-0.0038578552193939686,-0.0016911072889342904,-0.02232980728149414
1690840711342545200,9.363545166015625,-0.005179848056286573,-0.0020807278342545033,-0.022188926115632057
1690840711352585200,9.373585205078125,-0.003908987622708082,-0.0007632619817741215,-0.019957728683948517
1690840711362625300,9.383625244140624,-0.003724697045981884,-0.0026517093647271395,-0.021869879215955734
1690840711372665000,9.3936650390625,-0.0029321403708308935,-0.0037955371662974358,-0.02262594923377037
1690840711382706200,9.4037060546875,-0.0042144525796175,-0.0005366269615478814,-0.022429142147302628
1690840711392746200,9.413746337890625,-0.003418167121708393,-0.004658401478081942,-0.021828332915902138
1690840711402786300,9.423786376953124,-0.0032314795535057783,-0.0033875408116728067,-0.019878633320331573
1690840711412826400,9.433826416015625,-0.004857339430600405,-0.0015164038632065058,-0.021643776446580887
1690840711422867200,9.4438671875,-0.004985437728464603,-0.0026075011119246483,-0.020559336990118027
1690840711432907300,9.4539072265625,-0.0037294907961040735,-0.0023963123094290495,-0.01908288151025772
1690840711442947000,9.463947021484374,-0.004581169690936804,-0.0013126720441505313,-0.020659739151597023
1690840711452988200,9.47398828125,-0.0049428269267082214,-0.0014527543680742383,-0.020305804908275604
1690840711463028200,9.4840283203125,-0.004117513541132212,-0.00007776429993100464,-0.018244517967104912
1690840711473099300,9.494099365234375,-0.00430100504308939,-0.0025161546654999256,-0.01972976326942444
1690840711483139300,9.504139404296875,-0.0031108383554965258,-0.0013579458463937044,-0.021518342196941376
1690840711493179400,9.514179443359374,-0.0038037928752601147,-0.0014383733505383134,-0.017613613978028297
1690840711503220200,9.52422021484375,-0.004223241005092859,0.0002490055630914867,-0.019160645082592964
1690840711513260300,9.53426025390625,-0.005131645128130913,-0.0009009473724290729,-0.019524699077010155
1690840711523300000,9.544300048828125,-0.0036783581599593163,-0.0022530341520905495,-0.019712718203663826
1690840711533340200,9.554340087890624,-0.004786499310284853,0.00013795174891129136,-0.019216571003198624
1690840711543381200,9.56438134765625,-0.005452822428196669,-0.0048890309408307076,-0.021831529214978218
1690840711553421300,9.57442138671875,-0.005496231839060783,-0.0008277104352600873,-0.02148079127073288
1690840711563461400,9.58446142578125,-0.003945739474147558,-0.0021899172570556402,-0.022894663736224174
1690840711573502200,9.594502197265625,-0.00452737370505929,-0.000811997801065445,-0.021764151751995087
1690840711583542300,9.604542236328125,-0.004490089602768421,-0.002829076023772359,-0.02382197603583336
1690840711593582000,9.61458203125,-0.0046661244705319405,-0.003084206720814109,-0.02196468785405159
1690840711603622100,9.6246220703125,-0.0041457428596913815,-0.0019912454299628735,-0.02219771407544613
1690840711613663200,9.634663330078125,-0.003877029987052083,-0.002692722249776125,-0.021083448082208633
1690840711623733200,9.644733154296874,-0.005066131241619587,-0.0012578109744936228,-0.022070415318012238
1690840711633774300,9.6547744140625,-0.004494883120059967,-0.0030421288684010506,-0.020057065412402153
1690840711643814400,9.664814453125,-0.0038192393258213997,-0.0017273263074457645,-0.020319385454058647
1690840711653854500,9.6748544921875,-0.0041188448667526245,-0.0015393070643767715,-0.020124442875385284
1690840711663895300,9.684895263671875,-0.00421232171356678,-0.0024980450980365276,-0.01896357163786888
1690840711673935000,9.69493505859375,-0.004507400095462799,-0.004650411661714315,-0.01986744813621044
1690840711683975200,9.70497509765625,-0.004269846249371767,-0.001440237509086728,-0.021943381056189537
1690840711694015200,9.71501513671875,-0.002853044541552663,-0.0013781858142465353,-0.021881330758333206
1690840711704056300,9.725056396484375,-0.004064516630023718,-0.0029087045695632696,-0.021693311631679535
1690840711714096400,9.735096435546875,-0.003323092358186841,-0.0026996464002877474,-0.018868762999773026
1690840711724145000,9.745144775390624,-0.006164152640849352,-0.001856223214417696,-0.019751867279410362
1690840711734186000,9.75518603515625,-0.005044293589890003,-0.0016823188634589314,-0.020166520029306412
1690840711744226000,9.76522607421875,-0.0036970002111047506,-0.0026282735634595156,-0.020749753341078758
1690840711754266000,9.77526611328125,-0.005754558369517326,-0.0024506407789885998,-0.020532172173261642
1690840711764306200,9.78530615234375,-0.004116714466363192,-0.0020900487434118986,-0.020556140691041946
1690840711774377200,9.795377197265625,-0.0038013961166143417,-0.003179814200848341,-0.02105308696627617
1690840711784418000,9.80541796875,-0.0059753344394266605,-0.0011534150689840317,-0.019099391996860504
1690840711794457900,9.815457763671875,-0.004488757811486721,0.00005619269722956233,-0.02052365057170391
1690840711804498000,9.825497802734375,-0.003871171036735177,-0.00276063266210258,-0.021263742819428444
1690840711814538000,9.8355380859375,-0.004850681405514479,-0.0008769789128564298,-0.022231535986065865
1690840711824579000,9.8455791015625,-0.004065581597387791,-0.0029459886718541384,-0.02178625576198101
1690840711834619100,9.855619140625,-0.0041308291256427765,-0.00390259618870914,-0.022854182869195938
1690840711844659200,9.8656591796875,-0.003409378696233034,-0.003748931922018528,-0.02136840485036373
1690840711854699000,9.875698974609374,-0.004561196081340313,-0.002311091171577573,-0.021755095571279526
1690840711864739800,9.88573974609375,-0.00401498144492507,-0.0016223976854234934,-0.020507140085101128
1690840711874780000,9.89577978515625,-0.00424135010689497,-0.0034386736806482077,-0.023687219247221947
1690840711884820000,9.905820068359375,-0.004332696553319693,-0.00213585514575243,-0.022603845223784447
1690840711894861000,9.915861083984375,-0.004815794061869383,-0.001207477180287242,-0.021870145574212074
1690840711904901000,9.925901123046875,-0.0031196267809718847,-0.000060986389144090936,-0.02015267312526703
1690840711914941200,9.935941162109375,-0.005683718249201775,-0.002332396572455764,-0.020413130521774292
1690840711924981000,9.94598095703125,-0.0038948729634284973,-0.002686064224690199,-0.021143900230526924
1690840711935052000,9.956052001953125,-0.005147890187799931,-0.0018365158466622233,-0.020065853372216225
1690840711945092900,9.9660927734375,-0.006508233025670052,-0.0027166905347257853,-0.02081979438662529
1690840711955133000,9.9761328125,-0.00675164582207799,-0.0014543522847816348,-0.017969945445656776
1690840711965173000,9.986173095703125,-0.005028048064559698,-0.0018998990999534726,-0.019695142284035683
1690840711975213000,9.996213134765625,-0.0057156761176884174,-0.0005123922019265592,-0.02069409377872944
1690840711985254100,10.006254150390625,-0.004269579891115427,-0.002633600030094385,-0.0214214026927948
1690840711995294200,10.016294189453125,-0.004453071393072605,-0.0012096078135073185,-0.019879698753356934
1690840712005334000,10.026333984375,-0.0046365633606910706,-0.003665042342618108,-0.022831546142697334
1690840712015374800,10.036374755859375,-0.0043502734042704105,-0.002266349969431758,-0.020116986706852913
1690840712025415000,10.046414794921875,-0.0046631949953734875,-0.002551840851083398,-0.02046772465109825
1690840712035455000,10.056455078125,-0.0037563887890428305,-0.0003094593121204525,-0.02070421352982521
1690840712045495000,10.0664951171875,-0.004993427079170942,-0.004841360729187727,-0.01924852840602398
1690840712055536000,10.0765361328125,-0.0039041941054165363,-0.001207477180287242,-0.019153188914060593
1690840712065576200,10.086576171875,-0.0054757255129516125,-0.003132942598313093,-0.020835507661104202
1690840712075616000,10.096615966796875,-0.007220362313091755,-0.0034136399626731873,-0.021565746515989304
1690840712085687000,10.10668701171875,-0.004326571244746447,-0.0020330571569502354,-0.022170016542077065
1690840712095726800,10.116726806640624,-0.005570001434534788,-0.0004090615548193455,-0.022946860641241074
1690840712105768000,10.126767822265625,-0.004637895151972771,-0.0015049523208290339,-0.022671757265925407
1690840712115808000,10.13680810546875,-0.0057068876922130585,-0.0009108011145144701,-0.019943879917263985
1690840712125848000,10.14684814453125,-0.004444282967597246,-0.0029025792609900236,-0.01956571266055107
1690840712135888100,10.15688818359375,-0.0037880802992731333,-0.002176867797970772,-0.021401429548859596
1690840712145929200,10.16692919921875,-0.00487225316464901,-0.0011704593198373914,-0.020252274349331856
1690840712155969000,10.176968994140625,-0.004886367823928595,-0.0022746059112250805,-0.019821375608444214
1690840712166008800,10.1870087890625,-0.005241101142019033,0.0005259743193164468,-0.020187027752399445
1690840712176050000,10.1970498046875,-0.003740143496543169,-0.0008093346259556711,-0.019894080236554146
1690840712186090000,10.207090087890625,-0.0048916940577328205,-0.0019462381023913622,-0.021374797448515892
1690840712196130000,10.217130126953125,-0.0041734399273991585,-0.00019414443522691727,-0.020597953349351883
1690840712206170000,10.227170166015625,-0.005567338317632675,-0.0016399745363742113,-0.020066386088728905
1690840712216211200,10.237211181640625,-0.005602225661277771,-0.002338521648198366,-0.02028023824095726
1690840712226251000,10.2472509765625,-0.0044317664578557014,-0.001258343574590981,-0.020324712619185448
1690840712236322000,10.257322021484375,-0.0034815503749996424,-0.0007368966471403837,-0.020551348105072975
1690840712246361900,10.26736181640625,-0.004731904715299606,-0.0006804376607760787,-0.019930299371480942
1690840712256402000,10.27740185546875,-0.005619536153972149,-0.0022354573011398315,-0.020434435456991196
1690840712266443000,10.287443115234375,-0.005034173373132944,-0.001936917076818645,-0.019512448459863663
1690840712276483000,10.297483154296875,-0.0038948729634284973,-0.0013068130938336253,-0.019947076216340065
1690840712286523100,10.307523193359375,-0.004867193289101124,-0.0016591493040323257,-0.019294869154691696
1690840712296564200,10.317564208984376,-0.005072256550192833,-0.0027856663800776005,-0.01998595893383026
1690840712306604000,10.32760400390625,-0.004445348400622606,-0.0013321131700649858,-0.019633622840046883
1690840712316643800,10.337643798828125,-0.004935103934258223,-0.002235191175714135,-0.021587051451206207
1690840712326684000,10.347683837890624,-0.004817658569663763,-0.003320162883028388,-0.022790798917412758
1690840712336725000,10.35772509765625,-0.00501153664663434,-0.0016881778137758374,-0.021814484149217606
1690840712346765000,10.36776513671875,-0.0046602655202150345,-0.0009944243356585503,-0.019534019753336906
1690840712356805000,10.37780517578125,-0.005095692351460457,-0.0023284016642719507,-0.02064082957804203
1690840712366845000,10.387844970703124,-0.003939880523830652,-0.003355316584929824,-0.020485566928982735
1690840712376886000,10.397885986328125,-0.0046570696868002415,-0.0007422229973599315,-0.02064748853445053
1690840712386957000,10.40795703125,-0.0032671659719198942,-0.001457814360037446,-0.01865784078836441
1690840712396996900,10.417996826171875,-0.004237355664372444,-0.0019097528420388699,-0.01998595893383026
1690840712407037000,10.428036865234375,-0.005542038008570671,-0.00415319949388504,-0.021218203008174896
1690840712417077000,10.438076904296874,-0.005643771030008793,-0.0015893745003268123,-0.02178891934454441
1690840712427118000,10.4481181640625,-0.004674380179494619,-0.0024615598376840353,-0.021340709179639816
1690840712437158100,10.458158203125,-0.004003796260803938,-0.0021877868566662073,-0.018975555896759033
1690840712447198000,10.468197998046875,-0.004233094397932291,-0.0010703244479373097,-0.020788636058568954
1690840712457239000,10.478239013671875,-0.004051999654620886,-0.002567020943388343,-0.020263193175196648
1690840712467278800,10.48827880859375,-0.00455666845664382,-0.0018546254141256213,-0.019708722829818726
1690840712477319000,10.49831884765625,-0.002828276949003339,-0.0017172062071040273,-0.01962403580546379
1690840712487359000,10.50835888671875,-0.003668237943202257,-0.0024607607629150152,-0.020740432664752007
1690840712497400000,10.518400146484375,-0.005656553898006678,-0.0035715652629733086,-0.020733773708343506
1690840712507440000,10.528440185546875,-0.0047058057971298695,-0.002001631772145629,-0.02047012187540531
1690840712517480000,10.53847998046875,-0.004463724326342344,-0.004256530199199915,-0.01984933763742447
1690840712527520800,10.548520751953125,-0.00566933723166585,-0.002213885774835944,-0.02135349251329899
1690840712537591000,10.558591064453125,-0.0044197821989655495,-0.0029768813401460648,-0.01990766078233719
1690840712547631900,10.5686318359375,-0.004640824627131224,-0.0025901903863996267,-0.018381137400865555
1690840712557672000,10.578671875,-0.00509808911010623,-0.0031766186002641916,-0.0201039370149374
1690840712567712000,10.5887119140625,-0.004603806417435408,-0.0018341189716011286,-0.0208115391433239
1690840712577752000,10.598751953125,-0.005447229836136103,-0.0011997540714219213,-0.02267495170235634
1690840712587793200,10.608793212890625,-0.004689027555286884,-0.0030474551022052765,-0.021269602701067924
1690840712597833000,10.6188330078125,-0.00529622845351696,-0.0020724718924611807,-0.021201159805059433
1690840712607873000,10.628873046875,-0.00404534162953496,-0.00013209278404247016,-0.021645640954375267
1690840712617913900,10.638913818359375,-0.005005411338061094,-0.0020783308427780867,-0.020311396569013596
1690840712627954000,10.648953857421875,-0.005361475981771946,-0.0022391858510673046,-0.019811788573861122
1690840712637994000,10.658993896484375,-0.005373992491513491,-0.0027047062758356333,-0.02009275183081627
1690840712648034000,10.669033935546874,-0.005277586169540882,-0.0014234596164897084,-0.020660271868109703
1690840712658075100,10.6790751953125,-0.004688761197030544,-0.0007994809420779347,-0.020412065088748932
1690840712668115000,10.689114990234375,-0.0051987566985189915,-0.002701244316995144,-0.021766548976302147
1690840712678155000,10.699155029296875,-0.006134325172752142,-0.0023821976501494646,-0.019763851538300514
1690840712688226000,10.70922607421875,-0.003829092951491475,-0.004709533881396055,-0.02184457890689373
1690840712698266000,10.71926611328125,-0.0038514635525643826,-0.00029587719473056495,-0.019778497517108917
1690840712708307000,10.729306884765625,-0.005360144190490246,-0.0025939189363271,-0.02111620455980301
1690840712718347000,10.739346923828125,-0.00541394017636776,-0.0025659557431936264,-0.020205402746796608
1690840712728372000,10.7493720703125,-0.005134041886776686,-0.0014226606581360102,-0.020249877125024796
1690840712738412800,10.759412841796875,-0.003796602366492152,-0.0023611586075276136,-0.01696300506591797
1690840712748452900,10.769452880859374,-0.004550809506326914,-0.00047697214176878333,-0.02184697613120079
1690840712758493000,10.779492919921875,-0.004367318004369736,-0.0038274950347840786,-0.021456023678183556
1690840712768533000,10.789532958984376,-0.005757487844675779,-0.0020040287636220455,-0.020678114145994186
1690840712778574000,10.799573974609375,-0.004261856433004141,-0.004048004746437073,-0.021100224927067757
1690840712788614000,10.80961376953125,-0.004536961205303669,-0.0024897893890738487,-0.020108729600906372
1690840712798654000,10.819654052734375,-0.0049196574836969376,-0.0018442390719428658,-0.02171461656689644
1690840712808694800,10.82969482421875,-0.0034549187403172255,-0.0020266654901206493,-0.01901949755847454
1690840712818734800,10.83973486328125,-0.006700779777020216,-0.0014439659425988793,-0.02045281045138836
1690840712828775000,10.84977490234375,-0.00424401368945837,-0.0002442118711769581,-0.022792663425207138
1690840712838815000,10.85981494140625,-0.0018301242962479591,0.43573710322380066,-0.004760134033858776
1690840712848885800,10.8698857421875,0.05410371348261833,0.08100403845310211,0.06205245107412338
1690840712858925800,10.87992578125,0.014869759790599346,-0.036008067429065704,0.045339252799749374
1690840712868967000,10.889966796875,-0.0035808864049613476,-0.020185695961117744,-0.006569752003997564
1690840712879007000,10.900007080078124,-0.014071344397962093,-0.08494498580694199,-0.01221698522567749
1690840712889046800,10.910046875,-0.027785558253526688,-0.1035333126783371,-0.04908818379044533
1690840712899088000,10.920087890625,-0.03044525720179081,-0.1179058626294136,-0.07648997753858566
1690840712909128000,10.9301279296875,-0.027349065989255905,-0.11078696697950363,-0.08656951040029526
1690840712919168000,10.94016796875,-0.01997104473412037,-0.060791976749897,-0.09580668807029724
1690840712929207800,10.950207763671875,-0.010448379442095757,-0.017709221690893173,-0.09592945873737335
1690840712939249000,10.960248779296874,0.0039278962649405,0.023317573592066765,-0.0971933975815773
1690840712949289000,10.9702890625,0.014087855815887451,0.05589309334754944,-0.09141699969768524
1690840712959328800,10.980328857421876,0.019542807713150978,0.06709807366132736,-0.08096195757389069
1690840712969369900,10.990369873046875,0.020107664167881012,0.06500723212957382,-0.06701391935348511
1690840712979410000,11.000409912109374,0.013451360166072845,0.07483189553022385,-0.05973044037818909
1690840712989450000,11.010449951171875,0.0016040218761190772,0.07462017238140106,-0.04589531943202019
1690840712999520800,11.020520751953125,-0.008530370891094208,0.066452257335186,-0.029799707233905792
1690840713009560800,11.030560791015626,-0.014798653312027454,0.0345182940363884,-0.018811238929629326
1690840713019601000,11.040600830078125,-0.01756727509200573,-0.01079672109335661,-0.003829359309747815
1690840713029642000,11.05064208984375,-0.012620720081031322,-0.047456465661525726,0.004926315508782864
1690840713039681800,11.060681884765625,-0.009185775183141232,-0.06538379937410355,0.017833592370152473
1690840713049721900,11.070721923828126,-0.0059873186983168125,-0.07354772090911865,0.028806081041693687
1690840713059763000,11.080762939453125,-0.002374208066612482,-0.06712257862091064,0.03466823324561119
1690840713069803000,11.090802978515624,-0.0019497001776471734,-0.05051031336188316,0.03910372778773308
1690840713079842800,11.1008427734375,-0.0028807413764297962,-0.02576421946287155,0.03930266574025154
1690840713089883000,11.1108828125,-0.006875749211758375,-0.004049869254231453,0.038665901869535446
1690840713099924000,11.120924072265625,-0.005739378277212381,0.01149766519665718,0.03453534096479416
1690840713109963800,11.1309638671875,-0.006144179031252861,0.023134879767894745,0.0302569717168808
1690840713120003800,11.14100390625,-0.005589708685874939,0.03804298862814903,0.02274712361395359
1690840713130045000,11.151044921875,-0.006418218370527029,0.047392550855875015,0.014146978035569191
1690840713140085000,11.1610849609375,-0.004068511072546244,0.0481419637799263,0.0041063278913497925
1690840713150155800,11.17115576171875,-0.002115348819643259,0.03585227206349373,-0.007956726476550102
1690840713160195800,11.18119580078125,-0.0022029669489711523,0.017977934330701828,-0.015596536919474602
1690840713170236000,11.19123583984375,-0.0016421051695942879,-0.0007898935582488775,-0.02659059874713421
1690840713180277000,11.201277099609374,-0.003704457078129053,-0.02208905667066574,-0.03386102616786957
1690840713190316800,11.21131689453125,-0.005917277652770281,-0.038833681493997574,-0.04669613391160965
1690840713200356900,11.22135693359375,-0.005842708982527256,-0.040162600576877594,-0.053336724638938904
1690840713210396700,11.231396728515625,-0.0076025258749723434,-0.04026886075735092,-0.056948237121105194
1690840713220437800,11.241437744140624,-0.0057132793590426445,-0.024526381865143776,-0.061162956058979034
1690840713230477800,11.251477783203125,-0.005437375977635384,-0.01684689149260521,-0.06372438371181488
1690840713240518000,11.261517822265626,-0.002847185591235757,-0.008489358238875866,-0.06633374840021133
1690840713250559000,11.27155908203125,-0.002495914464816451,-0.0013811152894049883,-0.062485747039318085
1690840713260598800,11.281598876953124,-0.003668770659714937,0.008185758255422115,-0.06007452309131622
1690840713270638800,11.291638916015625,-0.0029547770973294973,0.01728125289082527,-0.055864863097667694
1690840713280679000,11.301678955078126,-0.0039278962649405,0.02870621345937252,-0.04946501925587654
1690840713290720000,11.311719970703125,-0.004710066597908735,0.027820445597171783,-0.041361819952726364
1690840713300789800,11.321789794921875,-0.005172924138605595,0.02010180614888668,-0.03362853452563286
1690840713310830800,11.331830810546874,-0.004136155359447002,0.005122323986142874,-0.02484489604830742
1690840713320871000,11.341870849609375,-0.005821936298161745,-0.007890413515269756,-0.01720588468015194
1690840713330911000,11.351910888671876,-0.003073554253205657,-0.018427742645144463,-0.010803645476698875
1690840713340951800,11.361951904296875,-0.004140949342399836,-0.020926320925354958,-0.0030011162161827087
1690840713350992000,11.371991943359374,-0.0038341530598700047,-0.023311713710427284,0.0029294772539287806
1690840713361031700,11.38203173828125,-0.005091697443276644,-0.019625099375844002,0.006052832584828138
1690840713371071700,11.39207177734375,-0.004292749334126711,-0.01560878660529852,0.010179666802287102
1690840713381112800,11.40211279296875,-0.005197425372898579,-0.012259862385690212,0.013020993210375309
1690840713391153000,11.41215283203125,-0.004859469830989838,-0.0015395734226331115,0.011299259960651398
1690840713401193000,11.42219287109375,-0.002966495230793953,0.006124737672507763,0.009501892141997814
1690840713411233800,11.43223388671875,-0.0038029940333217382,0.015272163785994053,0.008313057012856007
1690840713421273900,11.44227392578125,-0.003727093804627657,0.015809323638677597,0.004310592543333769
1690840713431314000,11.45231396484375,-0.004728176165372133,0.014533136039972305,-0.0015904398169368505
1690840713441353700,11.462353759765625,-0.0047028763219714165,0.010249707847833633,-0.006731938570737839
1690840713451424800,11.4724248046875,-0.0051923650316894054,0.0056986319832503796,-0.010763698257505894
1690840713461465900,11.4824658203125,-0.003969974350184202,0.0012594088912010193,-0.01715129055082798
1690840713471506000,11.492505859375,-0.006551908794790506,-0.0062829297967255116,-0.021152423694729805
1690840713481546000,11.5025458984375,-0.005076517816632986,-0.013076920062303543,-0.02798902429640293
1690840713491586000,11.5125859375,-0.0057321880012750626,-0.018799254670739174,-0.033608559519052505
1690840713501627000,11.522626953125,-0.0038932752795517445,-0.015526761300861835,-0.03675295412540436
1690840713511666700,11.532666748046875,-0.005006742663681507,-0.012599681504070759,-0.04215970262885094
1690840713521706800,11.542706787109376,-0.004125769250094891,-0.00577719509601593,-0.04258474335074425
1690840713531746800,11.552746826171875,-0.004465055651962757,-0.0043295007199049,-0.04381272941827774
1690840713541788000,11.562787841796874,-0.0054573495872318745,0.0009108011145144701,-0.04645990952849388
1690840713551828000,11.572827880859375,-0.0038429414853453636,0.003454119898378849,-0.04375307261943817
1690840713561868000,11.582867919921876,-0.006695453077554703,0.007638745009899139,-0.04030294716358185
1690840713571908900,11.592908935546875,-0.004613127559423447,0.008775915019214153,-0.03752686828374863
1690840713581949000,11.602948974609374,-0.005874666851013899,0.0052267201244831085,-0.03560113534331322
1690840713591988700,11.61298876953125,-0.004795021377503872,-0.00020133497309871018,-0.030420489609241486
1690840713602059800,11.623059814453125,-0.004032824654132128,-0.0015622102655470371,-0.02780073881149292
1690840713612099800,11.633099853515626,-0.005601959303021431,-0.005065864883363247,-0.021503161638975143
1690840713622141000,11.643140869140625,-0.006841128226369619,-0.00839854497462511,-0.018267953768372536
1690840713632181000,11.653180908203124,-0.004995024763047695,-0.009215869009494781,-0.01338557992130518
1690840713642221000,11.663220947265625,-0.004750280175358057,-0.00996448379009962,-0.009882192127406597
1690840713652260900,11.6732607421875,-0.0038123151753097773,-0.007672034204006195,-0.006937001831829548
1690840713662301700,11.6833017578125,-0.004575577098876238,-0.0038434739690274,-0.004816859494894743
1690840713672341800,11.693341796875,-0.0037289580795913935,-0.0008617989369668067,-0.002712962217628956
