time,seconds_elapsed,z,y,x
1690838592541060900,0.035060791015625,-0.99884033203125,-0.03424072265625,0.0030975341796875
1690838592551101000,0.045100830078125,-0.9971923828125,-0.0323944091796875,0.0045928955078125
1690838592561111000,0.055111083984375,-0.99176025390625,-0.0227813720703125,0.005096435546875
1690838592571150800,0.06515087890625,-0.986083984375,-0.008636474609375,0.0042266845703125
1690838592581191700,0.075191650390625,-0.9796295166015625,0.00787353515625,0.002685546875
1690838592591231700,0.085231689453125,-0.9743804931640625,0.0248260498046875,-0.0005035400390625
1690838592601271800,0.095271728515625,-0.967437744140625,0.035308837890625,-0.0001983642578125
1690838592611342800,0.1053427734375,-0.963348388671875,0.041046142578125,0.0003662109375
1690838592621383000,0.1153828125,-0.9609527587890625,0.044464111328125,-0.000762939453125
1690838592631424000,0.125424072265625,-0.96063232421875,0.045440673828125,-0.00189208984375
1690838592641464000,0.135464111328125,-0.9625091552734375,0.0436553955078125,-0.0026397705078125
1690838592651503900,0.14550390625,-0.9637451171875,0.03717041015625,-0.00341796875
1690838592661544700,0.155544677734375,-0.9681243896484375,0.0296630859375,-0.00341796875
1690838592671584800,0.165584716796875,-0.9721832275390625,0.0185089111328125,-0.0009002685546875
1690838592681624800,0.175624755859375,-0.9785003662109375,0.005462646484375,0.0023651123046875
1690838592691665000,0.185664794921875,-0.982757568359375,-0.006195068359375,0.0056304931640625
1690838592701706000,0.1957060546875,-0.9866943359375,-0.0140838623046875,0.006561279296875
1690838592711746000,0.20574609375,-0.98638916015625,-0.0174713134765625,0.00482177734375
1690838592721791700,0.215791748046875,-0.9839630126953125,-0.014801025390625,0.0026397705078125
1690838592731832800,0.225832763671875,-0.9826202392578125,-0.0087890625,-0.000335693359375
1690838592741873000,0.235872802734375,-0.9784698486328125,0.0011444091796875,-0.001251220703125
1690838592751913000,0.245912841796875,-0.974822998046875,0.0124053955078125,-0.000091552734375
1690838592761952800,0.255952880859375,-0.972198486328125,0.0223236083984375,0.001739501953125
1690838592771993900,0.265993896484375,-0.9700469970703125,0.02911376953125,0.00225830078125
1690838592782033700,0.27603369140625,-0.9686431884765625,0.033721923828125,0.0020294189453125
1690838592792104700,0.286104736328125,-0.96771240234375,0.03570556640625,0.0015106201171875
1690838592802144800,0.296144775390625,-0.9674224853515625,0.0332489013671875,-0.000030517578125
1690838592812184800,0.306184814453125,-0.9687347412109375,0.0303497314453125,-0.001495361328125
1690838592822226000,0.316225830078125,-0.971832275390625,0.023956298828125,-0.0028076171875
1690838592832265700,0.326265625,-0.973846435546875,0.0166015625,-0.0023345947265625
1690838592842305500,0.336305419921875,-0.977081298828125,0.008514404296875,0.0008697509765625
1690838592852345600,0.346345703125,-0.97998046875,0.0012054443359375,0.0026092529296875
1690838592862386700,0.35638671875,-0.982757568359375,-0.00360107421875,0.00469970703125
1690838592872426800,0.3664267578125,-0.9834136962890625,-0.004974365234375,0.005462646484375
1690838592882466800,0.376466796875,-0.98345947265625,-0.0034942626953125,0.00360107421875
1690838592892508000,0.3865078125,-0.98138427734375,0.0010223388671875,0.0020599365234375
1690838592902547700,0.396547607421875,-0.978790283203125,0.0068206787109375,-0.0006103515625
1690838592912587500,0.40658740234375,-0.9756317138671875,0.01416015625,-0.001312255859375
1690838592922627600,0.416627685546875,-0.973419189453125,0.019989013671875,-0.000274658203125
1690838592932668700,0.426668701171875,-0.9718475341796875,0.0234832763671875,0.0002899169921875
1690838592942708700,0.436708740234375,-0.97210693359375,0.026397705078125,0.0014495849609375
1690838592952748800,0.446748779296875,-0.9728851318359375,0.02685546875,0.00213623046875
1690838592962819800,0.45681982421875,-0.9735870361328125,0.0249481201171875,0.000823974609375
1690838592972860000,0.46685986328125,-0.97314453125,0.021728515625,0.000396728515625
1690838592982900700,0.476900634765625,-0.9762420654296875,0.01678466796875,-0.0003662109375
1690838592992940500,0.4869404296875,-0.9758758544921875,0.0118865966796875,-0.00030517578125
1690838593002980600,0.496980712890625,-0.9797210693359375,0.006866455078125,0.000732421875
1690838593013020700,0.507020751953125,-0.9794921875,0.003143310546875,0.0012054443359375
1690838593023061800,0.517061767578125,-0.9820404052734375,0.00244140625,0.0027618408203125
1690838593033101800,0.527101806640625,-0.9802703857421875,0.003570556640625,0.0019073486328125
1690838593043142000,0.537141845703125,-0.98065185546875,0.0066375732421875,0.0028533935546875
1690838593053182700,0.5471826171875,-0.97845458984375,0.0099029541015625,0.0021514892578125
1690838593063222500,0.557222412109375,-0.9766693115234375,0.013427734375,0.0010528564453125
1690838593073262600,0.5672626953125,-0.9765167236328125,0.0176849365234375,-0.000030517578125
1690838593083302700,0.577302734375,-0.9734344482421875,0.0202178955078125,-0.0010833740234375
1690838593093343700,0.58734375,-0.9761505126953125,0.021484375,-0.00146484375
1690838593103383800,0.5973837890625,-0.9740447998046875,0.0218505859375,-0.000885009765625
1690838593113424000,0.607423828125,-0.9747467041015625,0.0207061767578125,0.0011749267578125
1690838593123464700,0.617464599609375,-0.975799560546875,0.018463134765625,0.0012054443359375
1690838593133504800,0.6275048828125,-0.9770660400390625,0.015838623046875,0.0014495849609375
1690838593143575600,0.637575439453125,-0.97821044921875,0.0123291015625,0.0023956298828125
1690838593153615600,0.64761572265625,-0.9792327880859375,0.010101318359375,0.0021820068359375
1690838593163655700,0.65765576171875,-0.980316162109375,0.0075836181640625,0.0017242431640625
1690838593173696800,0.66769677734375,-0.9797515869140625,0.0062408447265625,0.00103759765625
1690838593183736800,0.67773681640625,-0.979461669921875,0.0079803466796875,0.0006866455078125
1690838593193777000,0.68777685546875,-0.9787750244140625,0.0105133056640625,0.00140380859375
1690838593203816700,0.697816650390625,-0.9782562255859375,0.011505126953125,0.001312255859375
1690838593213857500,0.707857421875,-0.9774017333984375,0.0141754150390625,0.0008392333984375
1690838593223897600,0.717897705078125,-0.9769439697265625,0.0170135498046875,0.0014801025390625
1690838593233937700,0.727937744140625,-0.97674560546875,0.0174407958984375,0.001739501953125
1690838593243978800,0.737978759765625,-0.9759521484375,0.0184478759765625,0.0000152587890625
1690838593254018800,0.748018798828125,-0.975799560546875,0.0186004638671875,0.001007080078125
1690838593264059000,0.758058837890625,-0.97613525390625,0.0170440673828125,0.0012969970703125
1690838593274099000,0.768098876953125,-0.9779205322265625,0.0155792236328125,0.0001678466796875
1690838593284139800,0.778139892578125,-0.977996826171875,0.013885498046875,0.0005950927734375
1690838593294179600,0.7881796875,-0.9785614013671875,0.01171875,0.001007080078125
1690838593304219600,0.7982197265625,-0.97967529296875,0.0111236572265625,0.00164794921875
1690838593314290700,0.808290771484375,-0.9799041748046875,0.010284423828125,0.0009613037109375
1690838593324330800,0.818330810546875,-0.9783172607421875,0.01007080078125,0.0015106201171875
1690838593334371800,0.828371826171875,-0.979644775390625,0.0107879638671875,0.0011444091796875
1690838593344412000,0.838411865234375,-0.9791259765625,0.0131072998046875,0.001068115234375
1690838593354451700,0.84845166015625,-0.97821044921875,0.014312744140625,0.0006866455078125
1690838593364491800,0.85849169921875,-0.9778594970703125,0.015533447265625,0.0009613037109375
1690838593374532600,0.86853271484375,-0.9768218994140625,0.01654052734375,0.0010528564453125
1690838593384572700,0.87857275390625,-0.9782562255859375,0.016998291015625,0.0010528564453125
1690838593394612700,0.88861279296875,-0.977386474609375,0.0163421630859375,0.0017242431640625
1690838593404653800,0.89865380859375,-0.9774932861328125,0.0152130126953125,0.001434326171875
1690838593414694000,0.90869384765625,-0.979339599609375,0.0146331787109375,0.0008544921875
1690838593424734000,0.91873388671875,-0.9790802001953125,0.013092041015625,0.0014495849609375
1690838593434773800,0.928773681640625,-0.9796905517578125,0.012359619140625,0.00201416015625
1690838593444814600,0.938814697265625,-0.9782562255859375,0.0114898681640625,0.0011138916015625
1690838593454854700,0.948854736328125,-0.97991943359375,0.0110015869140625,0.0006256103515625
1690838593464894700,0.958894775390625,-0.979766845703125,0.0117950439453125,0.0001678466796875
1690838593474935800,0.968935791015625,-0.97930908203125,0.0121307373046875,0.00067138671875
1690838593484975900,0.978975830078125,-0.9791107177734375,0.0131378173828125,0.0010833740234375
1690838593495047000,0.989046875,-0.979339599609375,0.0148468017578125,0.00115966796875
1690838593505086700,0.999086669921875,-0.9772491455078125,0.0149383544921875,0.0011444091796875
1690838593515126800,1.009126708984375,-0.9777069091796875,0.01513671875,0.0009918212890625
1690838593525166800,1.019166748046875,-0.9789276123046875,0.01580810546875,0.0016326904296875
1690838593535207700,1.029207763671875,-0.978302001953125,0.0159454345703125,0.0007171630859375
1690838593545247700,1.039247802734375,-0.9788055419921875,0.0146331787109375,0.0013427734375
1690838593555287800,1.049287841796875,-0.9794464111328125,0.01458740234375,0.001373291015625
1690838593565329000,1.059328857421875,-0.9788360595703125,0.0129241943359375,0.0013885498046875
1690838593575368700,1.06936865234375,-0.978668212890625,0.0128021240234375,0.0014495849609375
1690838593585408800,1.07940869140625,-0.979766845703125,0.011505126953125,0.0018310546875
1690838593595448800,1.08944873046875,-0.9799957275390625,0.01171875,0.00054931640625
1690838593605489700,1.09948974609375,-0.9799041748046875,0.0115203857421875,-0.0001068115234375
1690838593615529700,1.10952978515625,-0.9794464111328125,0.0117950439453125,0.000091552734375
1690838593625569800,1.11956982421875,-0.9803466796875,0.012603759765625,-0.0009307861328125
1690838593635611000,1.12961083984375,-0.9793853759765625,0.0138092041015625,-0.0001373291015625
1690838593645651000,1.13965087890625,-0.9787139892578125,0.014312744140625,0.0003204345703125
1690838593655690800,1.149690673828125,-0.97894287109375,0.0157470703125,0.0027313232421875
1690838593665761800,1.15976171875,-0.9790802001953125,0.0159912109375,0.0036468505859375
1690838593675801900,1.1698017578125,-0.9790496826171875,0.0161895751953125,0.0044403076171875
1690838593685842700,1.1798427734375,-0.9793243408203125,0.0151519775390625,0.0040435791015625
1690838593695882800,1.1898828125,-0.97900390625,0.0142974853515625,0.0016326904296875
1690838593705922800,1.1999228515625,-0.9783782958984375,0.0128021240234375,0.00006103515625
1690838593715962600,1.209962646484375,-0.979217529296875,0.012542724609375,-0.0009918212890625
1690838593725994800,1.219994873046875,-0.979095458984375,0.0115509033203125,-0.00164794921875
1690838593736034800,1.230034912109375,-0.9795074462890625,0.01220703125,-0.000457763671875
1690838593746075000,1.240074951171875,-0.9799041748046875,0.0129547119140625,0.0002288818359375
1690838593756116000,1.250115966796875,-0.9804229736328125,0.0136871337890625,0.001495361328125
1690838593766156000,1.260156005859375,-0.97955322265625,0.0137481689453125,0.002838134765625
1690838593776195800,1.27019580078125,-0.978912353515625,0.0145721435546875,0.0030975341796875
1690838593786236000,1.28023583984375,-0.978973388671875,0.0154571533203125,0.002685546875
1690838593796276700,1.29027685546875,-0.9785003662109375,0.01513671875,0.0013885498046875
1690838593806316800,1.30031689453125,-0.979644775390625,0.0139923095703125,0.00030517578125
1690838593816356900,1.31035693359375,-0.978546142578125,0.01348876953125,-0.0001983642578125
1690838593826397000,1.32039697265625,-0.97857666015625,0.0130767822265625,-0.0012664794921875
1690838593836468000,1.330468017578125,-0.9800872802734375,0.01348876953125,-0.0008392333984375
1690838593846509000,1.340509033203125,-0.9802398681640625,0.01275634765625,0.0006103515625
1690838593856548900,1.350548828125,-0.980255126953125,0.012908935546875,0.0016326904296875
1690838593866589000,1.3605888671875,-0.980438232421875,0.01287841796875,0.00177001953125
1690838593876629000,1.37062890625,-0.980499267578125,0.013671875,0.001953125
1690838593886669800,1.380669921875,-0.9809417724609375,0.0146331787109375,0.0024871826171875
1690838593896710000,1.3907099609375,-0.979095458984375,0.0146636962890625,0.0027923583984375
1690838593906750000,1.40075,-0.9789276123046875,0.0139312744140625,0.0014801025390625
1690838593916791000,1.410791015625,-0.9796142578125,0.0136260986328125,0.0007476806640625
1690838593926830800,1.420830810546875,-0.979156494140625,0.0132904052734375,0.000213623046875
1690838593936871000,1.430870849609375,-0.9795379638671875,0.013275146484375,-0.0007781982421875
1690838593946911000,1.440910888671875,-0.9793701171875,0.0146026611328125,-0.0006561279296875
1690838593956951800,1.450951904296875,-0.9804229736328125,0.0142059326171875,-0.001129150390625
1690838593966992000,1.460991943359375,-0.97998046875,0.013427734375,0.00006103515625
1690838593977032000,1.471031982421875,-0.9801483154296875,0.0132293701171875,0.000762939453125
1690838593987073000,1.481072998046875,-0.97943115234375,0.014373779296875,0.0016021728515625
1690838593997113000,1.491113037109375,-0.9798736572265625,0.01397705078125,0.0017547607421875
1690838594007153000,1.50115283203125,-0.979522705078125,0.0138702392578125,0.0029754638671875
1690838594017224000,1.511223876953125,-0.9797210693359375,0.0142822265625,0.0027618408203125
1690838594027264000,1.521263916015625,-0.9796142578125,0.0141754150390625,0.0021514892578125
1690838594037303800,1.5313037109375,-0.9799652099609375,0.0142364501953125,0.0020599365234375
1690838594047345000,1.541344970703125,-0.9803009033203125,0.014129638671875,0.001129150390625
1690838594057385000,1.551385009765625,-0.97998046875,0.0136260986328125,0.000213623046875
1690838594067424800,1.5614248046875,-0.980255126953125,0.012969970703125,0.0006561279296875
1690838594077465900,1.5714658203125,-0.98016357421875,0.01312255859375,-0.000762939453125
1690838594087506000,1.581505859375,-0.9809417724609375,0.0136566162109375,0.000091552734375
1690838594097546000,1.5915458984375,-0.9800567626953125,0.012481689453125,0.0006561279296875
1690838594107585800,1.601585693359375,-0.9798583984375,0.0127105712890625,0.0018768310546875
1690838594117627000,1.611626953125,-0.9803314208984375,0.013336181640625,0.00244140625
1690838594127667000,1.6216669921875,-0.9805450439453125,0.012908935546875,0.00286865234375
1690838594137707000,1.63170703125,-0.9812469482421875,0.0137176513671875,0.002197265625
1690838594147748000,1.641748046875,-0.980560302734375,0.01434326171875,0.0016326904296875
1690838594157788000,1.651787841796875,-0.9805450439453125,0.01519775390625,0.0007476806640625
1690838594167828000,1.661827880859375,-0.9801177978515625,0.01519775390625,-0.0001678466796875
1690838594177867800,1.67186767578125,-0.9794464111328125,0.0155792236328125,-0.0010986328125
1690838594187938800,1.681938720703125,-0.9794158935546875,0.0151214599609375,0.00079345703125
1690838594197980000,1.69197998046875,-0.9791412353515625,0.015350341796875,0.00067138671875
1690838594208020000,1.70202001953125,-0.9791107177734375,0.0151824951171875,0.0007476806640625
1690838594218059800,1.712059814453125,-0.981109619140625,0.0142669677734375,0.0014801025390625
1690838594228099800,1.722099853515625,-0.9812164306640625,0.0130615234375,0.001861572265625
1690838594238141000,1.732140869140625,-0.9803619384765625,0.01202392578125,0.002471923828125
1690838594248181000,1.742180908203125,-0.9814910888671875,0.01123046875,0.001708984375
1690838594258220800,1.752220703125,-0.9810943603515625,0.010711669921875,0.0012969970703125
1690838594268260900,1.7622607421875,-0.98138427734375,0.0116119384765625,0.0006561279296875
1690838594278302000,1.772302001953125,-0.9810638427734375,0.01336669921875,0.000396728515625
1690838594288342000,1.782342041015625,-0.980377197265625,0.0133819580078125,0.00042724609375
1690838594298381800,1.7923818359375,-0.978759765625,0.014129638671875,0.0009613037109375
1690838594308423000,1.8024228515625,-0.97991943359375,0.0146636962890625,0.00018310546875
1690838594318463000,1.812462890625,-0.980010986328125,0.015625,0.0009002685546875
1690838594328502800,1.822502685546875,-0.9802398681640625,0.0147552490234375,0.00177001953125
1690838594338542800,1.83254296875,-0.979400634765625,0.013519287109375,0.0018463134765625
1690838594348584000,1.842583984375,-0.9793853759765625,0.012908935546875,0.0013427734375
1690838594358624000,1.8526240234375,-0.9794921875,0.0133819580078125,0.0015869140625
1690838594368694800,1.86269482421875,-0.9794921875,0.012786865234375,0.001922607421875
1690838594378734800,1.87273486328125,-0.98095703125,0.012451171875,0.0013275146484375
1690838594388775000,1.88277490234375,-0.9813079833984375,0.01348876953125,0.001312255859375
1690838594398815700,1.892815673828125,-0.981109619140625,0.0137176513671875,0.0017852783203125
1690838594408855800,1.902855712890625,-0.9800567626953125,0.0142669677734375,0.0009002685546875
1690838594418896000,1.912895751953125,-0.9793701171875,0.0148773193359375,0.0011749267578125
1690838594428937000,1.92293701171875,-0.9802093505859375,0.015106201171875,0.0007171630859375
1690838594438976800,1.932976806640625,-0.979888916015625,0.0152435302734375,0.0003662109375
1690838594449016800,1.943016845703125,-0.978759765625,0.0140380859375,0.000823974609375
1690838594459057000,1.953056884765625,-0.980377197265625,0.01409912109375,0.0008697509765625
1690838594469097700,1.96309765625,-0.98046875,0.0136871337890625,0.001373291015625
1690838594479137800,1.9731376953125,-0.9808349609375,0.01275634765625,0.00146484375
1690838594489177900,1.983177734375,-0.9816436767578125,0.0123291015625,0.001861572265625
1690838594499219000,1.993218994140625,-0.9814300537109375,0.0127410888671875,0.001495361328125
1690838594509259000,2.003259033203125,-0.980987548828125,0.0128631591796875,0.0016632080078125
1690838594519298800,2.013298828125,-0.9795684814453125,0.013427734375,0.0009765625
1690838594529339000,2.0233388671875,-0.9802398681640625,0.0133514404296875,0.0012969970703125
1690838594539410000,2.033409912109375,-0.9801177978515625,0.013336181640625,0.0010833740234375
1690838594549450000,2.043449951171875,-0.98028564453125,0.0145111083984375,0.001007080078125
1690838594559490800,2.05349072265625,-0.980499267578125,0.0146942138671875,0.0006256103515625
1690838594569531000,2.06353076171875,-0.980712890625,0.01434326171875,0.001983642578125
1690838594579570700,2.07357080078125,-0.9805908203125,0.014892578125,0.0019378662109375
1690838594589611800,2.08361181640625,-0.980865478515625,0.013946533203125,0.00213623046875
1690838594599651800,2.09365185546875,-0.9819793701171875,0.0142822265625,0.0016326904296875
1690838594609692000,2.10369189453125,-0.980926513671875,0.0139007568359375,0.001739501953125
1690838594619732000,2.11373193359375,-0.9805450439453125,0.0133819580078125,0.001129150390625
1690838594629772800,2.123772705078125,-0.9810791015625,0.0138397216796875,0.0000152587890625
1690838594639812900,2.133812744140625,-0.98138427734375,0.013763427734375,0
1690838594649853000,2.14385302734375,-0.98089599609375,0.0138702392578125,0.0008544921875
1690838594659894000,2.15389404296875,-0.9803924560546875,0.013458251953125,0.0006866455078125
1690838594669933800,2.163933837890625,-0.980438232421875,0.013763427734375,0.0019989013671875
1690838594679974000,2.173973876953125,-0.9809417724609375,0.013519287109375,0.001861572265625
1690838594690014000,2.184013916015625,-0.9804229736328125,0.013458251953125,0.0019989013671875
1690838594700054800,2.1940546875,-0.9809417724609375,0.0131988525390625,0.0010223388671875
1690838594710125800,2.204125732421875,-0.9804534912109375,0.012939453125,0.0013275146484375
1690838594720166000,2.214165771484375,-0.9795684814453125,0.014434814453125,0.00128173828125
1690838594730208300,2.224208251953125,-0.9803314208984375,0.0138702392578125,0.0007476806640625
1690838594740248300,2.234248291015625,-0.9803924560546875,0.0129547119140625,0.0006561279296875
1690838594750289200,2.2442890625,-0.9808502197265625,0.013153076171875,0.000152587890625
1690838594760329200,2.2543291015625,-0.98126220703125,0.01336669921875,-0.0004730224609375
1690838594770369000,2.264369140625,-0.9810791015625,0.0135345458984375,0.0011444091796875
1690838594780409000,2.2744091796875,-0.9818878173828125,0.01312255859375,0.00152587890625
1690838594790450200,2.2844501953125,-0.9820556640625,0.0131072998046875,0.001068115234375
1690838594800490200,2.294490234375,-0.980712890625,0.013946533203125,0.0013885498046875
1690838594810530300,2.3045302734375,-0.9799957275390625,0.0149993896484375,0.000823974609375
1690838594820571100,2.314571044921875,-0.9815826416015625,0.0145416259765625,0.0003204345703125
1690838594830611200,2.324611083984375,-0.981170654296875,0.01446533203125,0.0004425048828125
1690838594840651000,2.334651123046875,-0.9808807373046875,0.0142822265625,0.000244140625
1690838594850691000,2.344691162109375,-0.9804229736328125,0.0142364501953125,0.000640869140625
1690838594860732200,2.354732177734375,-0.980224609375,0.013824462890625,0.000518798828125
1690838594870772200,2.364772216796875,-0.9799041748046875,0.0130462646484375,0.0006866455078125
1690838594880812300,2.374812255859375,-0.980224609375,0.01287841796875,0.0015869140625
1690838594890883300,2.38488330078125,-0.981536865234375,0.0129547119140625,0.0013580322265625
1690838594900923100,2.394923095703125,-0.981658935546875,0.012725830078125,0.0012969970703125
1690838594910964200,2.404964111328125,-0.98126220703125,0.013092041015625,0.0016021728515625
1690838594921004000,2.415004150390625,-0.9806671142578125,0.01336669921875,0.00067138671875
1690838594931044000,2.425044189453125,-0.9809722900390625,0.0133514404296875,0.000762939453125
1690838594941085200,2.435085205078125,-0.9812469482421875,0.0140228271484375,0.001190185546875
1690838594951125200,2.445125244140625,-0.980194091796875,0.014678955078125,0.001129150390625
1690838594961165300,2.455165283203125,-0.980438232421875,0.0146636962890625,0.00067138671875
1690838594971205000,2.465205078125,-0.9807891845703125,0.0142059326171875,0.000885009765625
1690838594981246200,2.47524609375,-0.9802703857421875,0.013458251953125,0.0014190673828125
1690838594991286000,2.4852861328125,-0.98114013671875,0.01324462890625,0.001861572265625
1690838595001326000,2.495326171875,-0.98162841796875,0.0133056640625,0.0015869140625
1690838595011367200,2.5053671875,-0.9818115234375,0.0130767822265625,0.0015411376953125
1690838595021407200,2.5154072265625,-0.981536865234375,0.0130462646484375,0.0001068115234375
1690838595031447300,2.525447265625,-0.9808807373046875,0.0128936767578125,-0.0001678466796875
1690838595041487000,2.535487060546875,-0.9813079833984375,0.0141754150390625,0.0004425048828125
1690838595051528200,2.545528076171875,-0.9811248779296875,0.0140838623046875,0.00054931640625
1690838595061598000,2.555597900390625,-0.98077392578125,0.0139923095703125,0.0001373291015625
1690838595071639000,2.56563916015625,-0.980133056640625,0.013702392578125,0.000030517578125
1690838595081679000,2.57567919921875,-0.98101806640625,0.013671875,0.0003204345703125
1690838595091719200,2.58571923828125,-0.9800567626953125,0.0135040283203125,0.0001373291015625
1690838595101760300,2.59576025390625,-0.9795989990234375,0.0132904052734375,0.0002593994140625
1690838595111800300,2.60580029296875,-0.98065185546875,0.0133056640625,0.0012969970703125
1690838595121840000,2.615840087890625,-0.981048583984375,0.0128021240234375,0.001434326171875
1690838595131880000,2.6258798828125,-0.981842041015625,0.0123291015625,0.0012664794921875
1690838595141921000,2.635921142578125,-0.9817962646484375,0.012664794921875,0.0018157958984375
1690838595151961000,2.645961181640625,-0.9803466796875,0.0136566162109375,0.0013885498046875
1690838595162001200,2.656001220703125,-0.98089599609375,0.014434814453125,0.0011138916015625
1690838595172042200,2.666042236328125,-0.9807891845703125,0.0148468017578125,0.00164794921875
1690838595182082300,2.676082275390625,-0.9807586669921875,0.0140228271484375,0.0005035400390625
1690838595192122000,2.6861220703125,-0.980499267578125,0.0136260986328125,0.0011749267578125
1690838595202162000,2.696161865234375,-0.9806976318359375,0.0140838623046875,0.000946044921875
1690838595212203000,2.706203125,-0.9810791015625,0.0145263671875,0.0006256103515625
1690838595222243000,2.7162431640625,-0.981719970703125,0.0141143798828125,0.0015716552734375
1690838595232314000,2.726314208984375,-0.9811553955078125,0.01373291015625,0.0019073486328125
1690838595242354200,2.736354248046875,-0.9813079833984375,0.012603759765625,0.001495361328125
1690838595252394200,2.746394287109375,-0.9804534912109375,0.013427734375,0.001373291015625
1690838595262435000,2.75643505859375,-0.980438232421875,0.0129547119140625,0.0002288818359375
1690838595272475100,2.76647509765625,-0.9810333251953125,0.012481689453125,0.000091552734375
1690838595282515000,2.776514892578125,-0.981201171875,0.012481689453125,0.000640869140625
1690838595292555000,2.786554931640625,-0.9809112548828125,0.012237548828125,0.0005950927734375
1690838595302596000,2.79659619140625,-0.98077392578125,0.0130157470703125,0.0003204345703125
1690838595312636200,2.80663623046875,-0.9809112548828125,0.014190673828125,0.000823974609375
1690838595322676200,2.81667626953125,-0.9804229736328125,0.0150299072265625,0.0013580322265625
1690838595332717000,2.826717041015625,-0.9810638427734375,0.0155487060546875,0.00213623046875
1690838595342757000,2.836757080078125,-0.9815216064453125,0.0146942138671875,0.00152587890625
1690838595352797000,2.846796875,-0.9805755615234375,0.01531982421875,0.00146484375
1690838595362837000,2.8568369140625,-0.980926513671875,0.0146942138671875,0.0013580322265625
1690838595372878000,2.866878173828125,-0.9810791015625,0.013580322265625,0.00006103515625
1690838595382918100,2.876918212890625,-0.980712890625,0.0126190185546875,0.000244140625
1690838595392958200,2.886958251953125,-0.9818267822265625,0.0115814208984375,0.0002288818359375
1690838595402999000,2.8969990234375,-0.981536865234375,0.0115509033203125,0.0003509521484375
1690838595413069300,2.9070693359375,-0.98175048828125,0.0118408203125,0.0018157958984375
1690838595423110100,2.917110107421875,-0.9825897216796875,0.011962890625,0.0022735595703125
1690838595433150000,2.92714990234375,-0.9817962646484375,0.01409912109375,0.0029449462890625
1690838595443190000,2.93718994140625,-0.981292724609375,0.014556884765625,0.002593994140625
1690838595453231000,2.947231201171875,-0.9802093505859375,0.0152587890625,0.001678466796875
1690838595463271200,2.957271240234375,-0.980072021484375,0.0154266357421875,0.0003204345703125
1690838595473311200,2.967311279296875,-0.98065185546875,0.0164947509765625,0.00030517578125
1690838595483351300,2.977351318359375,-0.9801788330078125,0.01568603515625,0.0009918212890625
1690838595493392100,2.98739208984375,-0.979949951171875,0.014923095703125,0.00030517578125
1690838595503432000,2.997431884765625,-0.9810791015625,0.0142059326171875,0.0013580322265625
1690838595513472000,3.007471923828125,-0.9809417724609375,0.0129852294921875,0.0010223388671875
1690838595523513000,3.01751318359375,-0.980621337890625,0.011627197265625,0.0005950927734375
1690838595533553200,3.02755322265625,-0.9818115234375,0.0118865966796875,0.0009307861328125
1690838595543593200,3.03759326171875,-0.9821624755859375,0.012420654296875,0.00030517578125
1690838595553633300,3.04763330078125,-0.981964111328125,0.01202392578125,0.0008697509765625
1690838595563674000,3.057674072265625,-0.98175048828125,0.0123748779296875,0.000396728515625
1690838595573714000,3.0677138671875,-0.98114013671875,0.01397705078125,0.0010528564453125
1690838595583785000,3.077784912109375,-0.9813690185546875,0.0144500732421875,0.00164794921875
1690838595593825000,3.087824951171875,-0.981353759765625,0.0153656005859375,0.00164794921875
1690838595603865000,3.097864990234375,-0.980865478515625,0.016021728515625,0.00164794921875
1690838595613906200,3.10790625,-0.9805908203125,0.0158233642578125,0.000732421875
1690838595623946200,3.1179462890625,-0.98052978515625,0.0165863037109375,0.001434326171875
1690838595633986300,3.127986328125,-0.9812164306640625,0.015228271484375,0.000457763671875
1690838595644026000,3.138026123046875,-0.9812774658203125,0.0147857666015625,0.000274658203125
1690838595654067000,3.14806689453125,-0.981201171875,0.01397705078125,-0.0005035400390625
1690838595664107000,3.15810693359375,-0.9806671142578125,0.0124969482421875,0.00054931640625
1690838595674147000,3.16814697265625,-0.980499267578125,0.0111236572265625,0.0014495849609375
1690838595684188200,3.178188232421875,-0.9817657470703125,0.010772705078125,0.0011444091796875
1690838595694228200,3.188228271484375,-0.9816131591796875,0.0113983154296875,0.0008392333984375
1690838595704268300,3.198268310546875,-0.982513427734375,0.0113525390625,0.001678466796875
1690838595714308000,3.20830810546875,-0.982666015625,0.012115478515625,0.001678466796875
1690838595724347100,3.21834716796875,-0.98114013671875,0.013092041015625,0.0015106201171875
1690838595734387000,3.228386962890625,-0.981109619140625,0.013824462890625,0.0009918212890625
1690838595744427000,3.238427001953125,-0.981719970703125,0.0157470703125,0.0011138916015625
1690838595754498000,3.248498046875,-0.980224609375,0.0159912109375,0.0010986328125
1690838595764538000,3.2585380859375,-0.97979736328125,0.0165557861328125,0.0012359619140625
1690838595774579000,3.268578857421875,-0.9806365966796875,0.0157623291015625,0.001678466796875
1690838595784619000,3.278618896484375,-0.9811553955078125,0.0161285400390625,0.0015869140625
1690838595794658800,3.288658935546875,-0.9821929931640625,0.015716552734375,0.0014190673828125
1690838595804699000,3.298698974609375,-0.9811248779296875,0.01446533203125,0.002105712890625
1690838595814740000,3.308739990234375,-0.9820709228515625,0.0125274658203125,0.0019683837890625
1690838595824780000,3.318780029296875,-0.98150634765625,0.01129150390625,0.001953125
1690838595834820000,3.328820068359375,-0.9812469482421875,0.011260986328125,0.0005645751953125
1690838595844861000,3.33886083984375,-0.981292724609375,0.0118255615234375,0.000579833984375
1690838595854901000,3.34890087890625,-0.981842041015625,0.0121002197265625,0.00067138671875
1690838595864941000,3.358941162109375,-0.9807891845703125,0.0122222900390625,0.0004425048828125
1690838595874980900,3.36898095703125,-0.980499267578125,0.0128326416015625,0.001129150390625
1690838595885022000,3.37902197265625,-0.980865478515625,0.01361083984375,0.0009307861328125
1690838595895062000,3.38906201171875,-0.9808349609375,0.0152587890625,0.00079345703125
1690838595905102000,3.39910205078125,-0.9807891845703125,0.0152587890625,0.0012359619140625
1690838595915143000,3.409142822265625,-0.980987548828125,0.0146331787109375,0.0008392333984375
1690838595925183000,3.419182861328125,-0.98101806640625,0.0142364501953125,0.0008392333984375
1690838595935254000,3.42925390625,-0.9808349609375,0.0145111083984375,0.000640869140625
1690838595945293800,3.4392939453125,-0.9810943603515625,0.0133819580078125,0.0018157958984375
1690838595955334000,3.449333984375,-0.9818878173828125,0.012908935546875,0.000732421875
1690838595965375000,3.459375,-0.98236083984375,0.013092041015625,0.0014495849609375
1690838595975415000,3.4694150390625,-0.9827117919921875,0.0133209228515625,0.0010528564453125
1690838595985455000,3.479455078125,-0.982391357421875,0.01300048828125,0.0006103515625
1690838595995495200,3.4894951171875,-0.9808197021484375,0.013885498046875,0.00054931640625
1690838596005536000,3.499535888671875,-0.9815216064453125,0.013885498046875,0.0001983642578125
1690838596015576000,3.509576171875,-0.98114013671875,0.0150299072265625,0.0001068115234375
1690838596025616000,3.519615966796875,-0.980712890625,0.0152435302734375,0.0005035400390625
1690838596035657000,3.529656982421875,-0.9803009033203125,0.01531982421875,0.001068115234375
1690838596045697000,3.539697021484375,-0.9806060791015625,0.01507568359375,0.0012359619140625
1690838596055737000,3.549737060546875,-0.9814910888671875,0.0149078369140625,0.001556396484375
1690838596065777200,3.559777099609375,-0.9812774658203125,0.013824462890625,0.0013885498046875
1690838596075818000,3.56981787109375,-0.981170654296875,0.013092041015625,0.0009765625
1690838596085858000,3.579858154296875,-0.9825897216796875,0.0127716064453125,0.000030517578125
1690838596095897900,3.58989794921875,-0.9818878173828125,0.01177978515625,0.001007080078125
1690838596105969000,3.599968994140625,-0.9812774658203125,0.0125732421875,0.0007476806640625
1690838596116009000,3.610009033203125,-0.98175048828125,0.0125579833984375,0.0011444091796875
1690838596126050000,3.620050048828125,-0.9816436767578125,0.012298583984375,0.001373291015625
1690838596136090000,3.630090087890625,-0.9811248779296875,0.0128326416015625,0.0010833740234375
1690838596146130200,3.640130126953125,-0.9819488525390625,0.013763427734375,0.00103759765625
1690838596156170000,3.650169921875,-0.981353759765625,0.0146636962890625,0.0017242431640625
1690838596166210800,3.6602109375,-0.980804443359375,0.0151214599609375,0.00115966796875
1690838596176251000,3.6702509765625,-0.980926513671875,0.0155181884765625,0.001739501953125
1690838596186291000,3.680291015625,-0.9813079833984375,0.01531982421875,0.0016632080078125
1690838596196332000,3.69033203125,-0.9808807373046875,0.014251708984375,0.0015106201171875
1690838596206372000,3.7003720703125,-0.9806976318359375,0.0143585205078125,0.0008544921875
1690838596216412200,3.710412109375,-0.9810943603515625,0.0141754150390625,0.00115966796875
1690838596226452200,3.7204521484375,-0.982086181640625,0.0133056640625,0.000762939453125
1690838596236493000,3.7304931640625,-0.9824066162109375,0.01239013671875,0.0003204345703125
1690838596246532900,3.740532958984375,-0.981201171875,0.0128326416015625,0.000030517578125
1690838596256573000,3.750572998046875,-0.980712890625,0.012298583984375,0.00042724609375
1690838596266614000,3.760614013671875,-0.9815673828125,0.0129547119140625,0.00128173828125
1690838596276684000,3.77068408203125,-0.9821014404296875,0.0137176513671875,0.001220703125
1690838596286725000,3.78072509765625,-0.9816131591796875,0.014251708984375,0.000762939453125
1690838596296765200,3.79076513671875,-0.981231689453125,0.0141143798828125,0.0005035400390625
1690838596306805000,3.800804931640625,-0.9812469482421875,0.0142364501953125,0.0011749267578125
1690838596316845000,3.810844970703125,-0.98138427734375,0.0144500732421875,0.0015106201171875
1690838596326886000,3.820885986328125,-0.981658935546875,0.0139923095703125,0.0008392333984375
1690838596336926000,3.830926025390625,-0.98150634765625,0.01416015625,0.0009002685546875
1690838596346966000,3.840966064453125,-0.9813232421875,0.0145111083984375,0.0020294189453125
1690838596357007000,3.851007080078125,-0.9828338623046875,0.0140228271484375,0.0006866455078125
1690838596367047200,3.861047119140625,-0.9821014404296875,0.0135498046875,0.0013580322265625
1690838596377087200,3.871087158203125,-0.981292724609375,0.013458251953125,0.0011444091796875
1690838596387127000,3.881126953125,-0.981231689453125,0.0142669677734375,0.0009307861328125
1690838596397167900,3.89116796875,-0.9820556640625,0.0127105712890625,0.0006103515625
1690838596407208000,3.9012080078125,-0.981414794921875,0.01373291015625,0.001373291015625
1690838596417248000,3.911248046875,-0.9820556640625,0.014007568359375,0.0013275146484375
1690838596427289000,3.9212890625,-0.9810333251953125,0.0139617919921875,-0.0001220703125
1690838596437329200,3.9313291015625,-0.982391357421875,0.0141754150390625,0.00042724609375
1690838596447400200,3.941400146484375,-0.9824676513671875,0.0139923095703125,0.000640869140625
1690838596457440000,3.95143994140625,-0.9815826416015625,0.013397216796875,0.0012664794921875
1690838596467480000,3.96147998046875,-0.9812164306640625,0.0135345458984375,0.00152587890625
1690838596477521000,3.97152099609375,-0.98077392578125,0.0142974853515625,0.00048828125
1690838596487561000,3.98156103515625,-0.981658935546875,0.0139312744140625,0.0004425048828125
1690838596497601000,3.99160107421875,-0.98150634765625,0.0127716064453125,0.0007781982421875
1690838596507641000,4.00164111328125,-0.98095703125,0.013427734375,0.0010528564453125
1690838596517682200,4.01168212890625,-0.981719970703125,0.0136871337890625,0.001739501953125
1690838596527722200,4.02172216796875,-0.981292724609375,0.0134429931640625,0.0016632080078125
1690838596537762000,4.031761962890625,-0.9828033447265625,0.0139617919921875,0.0012054443359375
1690838596547803000,4.041802978515625,-0.9825439453125,0.01287841796875,0.000274658203125
1690838596557843000,4.051843017578125,-0.9825286865234375,0.01434326171875,0.0011444091796875
1690838596567883000,4.061883056640625,-0.9813690185546875,0.014678955078125,0.0012969970703125
1690838596577923000,4.071923095703125,-0.981170654296875,0.0144500732421875,0.0008087158203125
1690838596587964200,4.081964111328125,-0.981048583984375,0.014495849609375,0.0014190673828125
1690838596598004200,4.092004150390625,-0.98126220703125,0.01397705078125,0.0008544921875
1690838596608044000,4.1020439453125,-0.9818572998046875,0.0128936767578125,0.00079345703125
1690838596618083800,4.112083740234375,-0.9818267822265625,0.01434326171875,0.00067138671875
1690838596628155000,4.12215478515625,-0.9827880859375,0.0139617919921875,0.0012969970703125
1690838596638196000,4.132196044921875,-0.98223876953125,0.0138092041015625,0.000457763671875
1690838596648236000,4.142236083984375,-0.981719970703125,0.013580322265625,0.000762939453125
1690838596658276000,4.152276123046875,-0.9830169677734375,0.013702392578125,0.0005645751953125
1690838596668316200,4.162316162109375,-0.9820404052734375,0.014251708984375,0.0015716552734375
1690838596678357200,4.172357177734375,-0.9819793701171875,0.0138092041015625,0.0009002685546875
1690838596688397000,4.18239697265625,-0.98114013671875,0.013916015625,0.000274658203125
1690838596698436900,4.192436767578125,-0.9815216064453125,0.0137939453125,0.001800537109375
1690838596708478000,4.20247802734375,-0.9813232421875,0.0144805908203125,0.0006866455078125
1690838596718518000,4.21251806640625,-0.9807281494140625,0.01422119140625,0.000823974609375
1690838596728534300,4.2225341796875,-0.9813079833984375,0.014312744140625,0.00103759765625
1690838596738574300,4.23257421875,-0.981414794921875,0.0148773193359375,0.0008544921875
1690838596748615200,4.242615234375,-0.98199462890625,0.0138092041015625,0.00128173828125
1690838596758655200,4.2526552734375,-0.98187255859375,0.013458251953125,0.001678466796875
1690838596768695300,4.2626953125,-0.9810028076171875,0.013427734375,0.0006256103515625
1690838596778736400,4.272736328125,-0.981170654296875,0.012664794921875,0.0008697509765625
1690838596788776400,4.2827763671875,-0.981597900390625,0.0133819580078125,0.0010528564453125
1690838596798847200,4.29284716796875,-0.9813079833984375,0.0126495361328125,0.001007080078125
1690838596808887300,4.30288720703125,-0.980987548828125,0.013671875,0.001495361328125
1690838596818927400,4.31292724609375,-0.98077392578125,0.0134124755859375,0.0013580322265625
1690838596828967400,4.322967529296875,-0.981201171875,0.014007568359375,0.0005950927734375
1690838596839008300,4.33300830078125,-0.981109619140625,0.014007568359375,0.0008392333984375
1690838596849048300,4.34304833984375,-0.9812164306640625,0.013824462890625,0.000732421875
1690838596859088100,4.353088134765625,-0.9821319580078125,0.01385498046875,0.0015869140625
1690838596869129500,4.36312939453125,-0.9817352294921875,0.013946533203125,0.0010223388671875
1690838596879169300,4.373169189453125,-0.9814300537109375,0.0144195556640625,0.0010223388671875
1690838596889209300,4.383209228515625,-0.9810943603515625,0.013214111328125,0.0012054443359375
1690838596899249400,4.39324951171875,-0.9814453125,0.0133514404296875,0.0011749267578125
1690838596909290200,4.403290283203125,-0.9816131591796875,0.013275146484375,0.000518798828125
1690838596919330300,4.413330322265625,-0.981109619140625,0.0131378173828125,0.00054931640625
1690838596929370400,4.423370361328125,-0.981292724609375,0.01318359375,0.000091552734375
1690838596939411500,4.433411376953125,-0.9820098876953125,0.0136566162109375,0.00079345703125
1690838596949451300,4.443451171875,-0.98114013671875,0.0133819580078125,0.001312255859375
1690838596959491300,4.4534912109375,-0.975433349609375,0.0118408203125,0.0000457763671875
1690838596969562400,4.463562255859375,-0.9891357421875,-0.0303192138671875,-0.0120086669921875
1690838596979602400,4.4736025390625,-1.036407470703125,0.0102691650390625,0.079864501953125
1690838596989643300,4.483643310546875,-0.9486846923828125,0.0356903076171875,-0.040771484375
1690838596999683300,4.493683349609375,-0.9648284912109375,0.0226593017578125,-0.031036376953125
1690838597009723100,4.50372314453125,-0.9773406982421875,0.0435333251953125,-0.017333984375
1690838597019763200,4.51376318359375,-0.9663238525390625,0.0330963134765625,-0.003082275390625
1690838597029804300,4.52380419921875,-0.97314453125,0.038726806640625,-0.0025787353515625
1690838597039844400,4.53384423828125,-0.9758758544921875,0.0318603515625,0.0120391845703125
1690838597049884400,4.543884521484375,-0.9850311279296875,0.01898193359375,0.016021728515625
1690838597059925200,4.55392529296875,-0.9886932373046875,0.0068359375,0.015289306640625
1690838597069965300,4.56396533203125,-0.988250732421875,-0.0043182373046875,0.0069580078125
1690838597080005400,4.57400537109375,-0.9897308349609375,-0.011871337890625,-0.0021514892578125
1690838597090045200,4.584045166015625,-0.990264892578125,-0.0135955810546875,-0.008270263671875
1690838597100086300,4.594086181640625,-0.98583984375,-0.0100555419921875,-0.00836181640625
1690838597110126300,4.604126220703125,-0.9840545654296875,-0.0028076171875,-0.0044708251953125
1690838597120166400,4.61416650390625,-0.9879608154296875,0.0076446533203125,0.0021209716796875
1690838597130206500,4.62420654296875,-0.980072021484375,0.017974853515625,0.0069122314453125
1690838597140247300,4.634247314453125,-0.97857666015625,0.0255889892578125,0.009246826171875
1690838597150318300,4.644318359375,-0.9804840087890625,0.029388427734375,0.00701904296875
1690838597160358100,4.654358154296875,-0.9757537841796875,0.031097412109375,0.00274658203125
1690838597170398200,4.664398193359375,-0.9739837646484375,0.031768798828125,-0.0023345947265625
1690838597180438300,4.674438232421875,-0.97393798828125,0.0290374755859375,-0.0062408447265625
1690838597190479400,4.684479248046875,-0.9757080078125,0.025726318359375,-0.00762939453125
1690838597200519400,4.69451953125,-0.9784088134765625,0.020599365234375,-0.0051422119140625
1690838597210559500,4.7045595703125,-0.9794769287109375,0.0151519775390625,-0.0003662109375
1690838597220600300,4.714600341796875,-0.98614501953125,0.00885009765625,0.0041046142578125
1690838597230640400,4.724640380859375,-0.9891357421875,0.002685546875,0.007598876953125
1690838597240680200,4.73468017578125,-0.98651123046875,-0.000518798828125,0.009033203125
1690838597250720300,4.74472021484375,-0.989898681640625,-0.000885009765625,0.0058746337890625
1690838597260761300,4.75476123046875,-0.9870452880859375,0.0007476806640625,0.0013580322265625
1690838597270801400,4.764801513671875,-0.982666015625,0.0045623779296875,-0.0019378662109375
1690838597280841500,4.774841552734375,-0.98236083984375,0.0113067626953125,-0.0034027099609375
1690838597290882300,4.78488232421875,-0.980194091796875,0.0160064697265625,-0.0021820068359375
1690838597300922400,4.79492236328125,-0.9791412353515625,0.021697998046875,-0.00018310546875
1690838597310962200,4.804962158203125,-0.9782562255859375,0.0245208740234375,0.00250244140625
1690838597321033200,4.815033203125,-0.9787139892578125,0.0248260498046875,0.00341796875
1690838597331073300,4.8250732421875,-0.978851318359375,0.0251312255859375,0.00244140625
1690838597341113300,4.83511328125,-0.977752685546875,0.022552490234375,0.00140380859375
1690838597351154400,4.845154541015625,-0.9795989990234375,0.0197906494140625,0.0001068115234375
1690838597361194500,4.855194580078125,-0.982025146484375,0.016448974609375,-0.0019683837890625
1690838597371234300,4.865234375,-0.980316162109375,0.012176513671875,-0.001373291015625
1690838597381275400,4.875275390625,-0.983245849609375,0.007965087890625,0.00140380859375
1690838597391315200,4.885315185546875,-0.9857177734375,0.0055694580078125,0.003173828125
1690838597401355300,4.895355224609375,-0.985687255859375,0.0039215087890625,0.003387451171875
1690838597411395300,4.905395263671875,-0.986846923828125,0.0055694580078125,0.004302978515625
1690838597421436400,4.9154365234375,-0.98583984375,0.007965087890625,0.0022125244140625
1690838597431476500,4.9254765625,-0.9822235107421875,0.0111846923828125,0.000732421875
1690838597441516300,4.935516357421875,-0.9798583984375,0.014984130859375,-0.001068115234375
1690838597451557400,4.945557373046875,-0.979400634765625,0.0171661376953125,-0.0004119873046875
1690838597461597200,4.95559716796875,-0.9806365966796875,0.018829345703125,0.0004730224609375
1690838597471637200,4.96563720703125,-0.9797515869140625,0.0204620361328125,0.00250244140625
1690838597481677300,4.97567724609375,-0.9798126220703125,0.0204315185546875,0.0034942626953125
1690838597491748400,4.985748291015625,-0.9813232421875,0.019287109375,0.002960205078125
1690838597501789400,4.99578955078125,-0.9795684814453125,0.0177001953125,0.0018157958984375
1690838597511829500,5.00582958984375,-0.98175048828125,0.0156707763671875,-0.0010833740234375
1690838597521869000,5.015869140625,-0.9833526611328125,0.0127716064453125,-0.002716064453125
1690838597531909000,5.0259091796875,-0.9817352294921875,0.0103759765625,-0.0015869140625
1690838597541950200,5.0359501953125,-0.982025146484375,0.0091552734375,-0.00018310546875
1690838597551990300,5.045990234375,-0.9839324951171875,0.009368896484375,0.001373291015625
1690838597562030300,5.0560302734375,-0.9843597412109375,0.0103759765625,0.0038909912109375
1690838597572071400,5.066071533203125,-0.983673095703125,0.011260986328125,0.005157470703125
1690838597582111200,5.076111328125,-0.9814605712890625,0.012542724609375,0.004150390625
1690838597592151300,5.0861513671875,-0.980072021484375,0.015289306640625,0.0023040771484375
1690838597602191000,5.096191162109375,-0.9802703857421875,0.0155181884765625,0.0000457763671875
1690838597612232200,5.106232177734375,-0.979827880859375,0.0169219970703125,-0.0006561279296875
1690838597622272300,5.116272216796875,-0.980224609375,0.0178375244140625,-0.00091552734375
1690838597632312300,5.126312255859375,-0.9814605712890625,0.017791748046875,-0.0008087158203125
1690838597642352400,5.136352294921875,-0.9808502197265625,0.016387939453125,0.0001068115234375
1690838597652393200,5.146393310546875,-0.982208251953125,0.0155487060546875,0.0019683837890625
1690838597662433300,5.156433349609375,-0.9814300537109375,0.0149993896484375,0.0023956298828125
1690838597672504000,5.166504150390625,-0.982391357421875,0.013031005859375,0.0017242431640625
1690838597682544000,5.176544189453125,-0.9819793701171875,0.0117645263671875,0.0029296875
1690838597692584200,5.186584228515625,-0.9821319580078125,0.010345458984375,0.0020751953125
1690838597702625300,5.196625244140625,-0.982391357421875,0.011138916015625,0.0015716552734375
1690838597712665300,5.206665283203125,-0.9827117919921875,0.012176513671875,0.0010528564453125
1690838597722705400,5.216705322265625,-0.9818267822265625,0.013458251953125,0.000701904296875
1690838597732749800,5.226749755859375,-0.9821014404296875,0.01397705078125,0.0004425048828125
1690838597742790000,5.236789794921875,-0.9810638427734375,0.0143890380859375,0.000701904296875
1690838597752829700,5.24682958984375,-0.980133056640625,0.015960693359375,0.000579833984375
1690838597762869800,5.256869873046875,-0.9817962646484375,0.01666259765625,0.0007171630859375
1690838597772910800,5.266910888671875,-0.9805908203125,0.017486572265625,0.00225830078125
1690838597782951000,5.276950927734375,-0.980316162109375,0.0170135498046875,0.003204345703125
1690838597792991000,5.286990966796875,-0.9815521240234375,0.0146331787109375,0.002899169921875
1690838597803031800,5.29703173828125,-0.9815673828125,0.0131683349609375,0.0019378662109375
1690838597813072000,5.30707177734375,-0.982421875,0.0135498046875,0.0003509521484375
1690838597823111700,5.317111572265625,-0.9827117919921875,0.012176513671875,0.00006103515625
1690838597833151700,5.32715185546875,-0.982208251953125,0.012420654296875,0.000274658203125
1690838597843222800,5.337222900390625,-0.981231689453125,0.01318359375,-0.000396728515625
1690838597853262800,5.347262939453125,-0.982177734375,0.0131988525390625,0.00079345703125
1690838597863304000,5.357303955078125,-0.9825592041015625,0.0128936767578125,0.0014801025390625
1690838597873344000,5.367343994140625,-0.982025146484375,0.013763427734375,0.0008544921875
1690838597883384000,5.377384033203125,-0.981658935546875,0.015167236328125,0.001251220703125
1690838597893425000,5.3874248046875,-0.9808197021484375,0.0155792236328125,0.000946044921875
1690838597903464700,5.397464599609375,-0.97979736328125,0.0152587890625,0.0018463134765625
1690838597913504800,5.4075048828125,-0.9805145263671875,0.015289306640625,0.001739501953125
1690838597923544800,5.417544921875,-0.9806060791015625,0.01513671875,0.0020904541015625
1690838597933586000,5.4275859375,-0.9815216064453125,0.0142669677734375,0.0025177001953125
1690838597943626000,5.4376259765625,-0.9810943603515625,0.013763427734375,0.001251220703125
1690838597953666000,5.447666015625,-0.9835968017578125,0.0130767822265625,0.001220703125
1690838597963707000,5.457706787109375,-0.9810943603515625,0.0129852294921875,-0.0001678466796875
1690838597973746700,5.46774658203125,-0.9835357666015625,0.014068603515625,-0.000518798828125
1690838597983786800,5.477786865234375,-0.9814453125,0.0139923095703125,-0.0008544921875
1690838597993826800,5.487826904296875,-0.981842041015625,0.013916015625,-0.000152587890625
1690838598003868000,5.497867919921875,-0.9817657470703125,0.0142669677734375,0.0011444091796875
1690838598013939000,5.50793896484375,-0.9823455810546875,0.014923095703125,0.0017852783203125
1690838598023979000,5.51797900390625,-0.980865478515625,0.01531982421875,0.00146484375
1690838598034019000,5.52801904296875,-0.980926513671875,0.014556884765625,0.0013427734375
1690838598044059000,5.538058837890625,-0.9819183349609375,0.01397705078125,0.0014495849609375
1690838598054099700,5.548099609375,-0.98089599609375,0.014068603515625,0.0002899169921875
1690838598064139800,5.558139892578125,-0.97998046875,0.0149688720703125,-0.000396728515625
1690838598074179800,5.568179931640625,-0.981964111328125,0.014068603515625,0.0004425048828125
1690838598084221000,5.578220947265625,-0.9815673828125,0.014739990234375,0.0010223388671875
1690838598094261000,5.588260986328125,-0.9815673828125,0.014678955078125,0.0019073486328125
1690838598104301000,5.598301025390625,-0.9818115234375,0.014617919921875,0.001953125
1690838598114340900,5.6083408203125,-0.980804443359375,0.014984130859375,0.00152587890625
1690838598124381700,5.618381591796875,-0.9813232421875,0.0145111083984375,0.0016021728515625
1690838598134421800,5.628421875,-0.9807891845703125,0.0139312744140625,0.0009918212890625
1690838598144461800,5.6384619140625,-0.9813232421875,0.01434326171875,0.0006256103515625
1690838598154502000,5.648501953125,-0.9814605712890625,0.0138702392578125,0.0001983642578125
1690838598164543000,5.65854296875,-0.981536865234375,0.0139923095703125,0.00018310546875
1690838598174583000,5.6685830078125,-0.9818878173828125,0.013397216796875,0.001190185546875
1690838598184622800,5.678622802734375,-0.9813232421875,0.0148773193359375,0.00079345703125
1690838598194694000,5.68869384765625,-0.9826507568359375,0.0148773193359375,0.000762939453125
1690838598204734000,5.69873388671875,-0.9798126220703125,0.0148162841796875,0.0001068115234375
1690838598214774800,5.70877490234375,-0.982635498046875,0.01434326171875,0.0009307861328125
1690838598224814800,5.71881494140625,-0.9807891845703125,0.01416015625,0.001953125
1690838598234855000,5.72885498046875,-0.9804534912109375,0.0140533447265625,0.0010528564453125
1690838598244896000,5.73889599609375,-0.98187255859375,0.0141143798828125,0.002349853515625
1690838598254936000,5.74893603515625,-0.98065185546875,0.0137176513671875,0.0015411376953125
1690838598264976000,5.758975830078125,-0.9822845458984375,0.0142059326171875,0.001708984375
1690838598275016000,5.769015869140625,-0.9822540283203125,0.01495361328125,0.0013580322265625
1690838598285056800,5.779056884765625,-0.982269287109375,0.0137481689453125,0.0008087158203125
1690838598295096800,5.789096923828125,-0.9815826416015625,0.014007568359375,0.000335693359375
1690838598305137000,5.799136962890625,-0.9824676513671875,0.0142669677734375,-0.0000152587890625
1690838598315178000,5.809177978515625,-0.9798736572265625,0.0141448974609375,0.001251220703125
1690838598325218000,5.819218017578125,-0.9830322265625,0.0140838623046875,0.0014495849609375
1690838598335257900,5.8292578125,-0.9807891845703125,0.014404296875,0.000762939453125
1690838598345298000,5.8392978515625,-0.9839630126953125,0.014739990234375,0.00128173828125
1690838598355338800,5.8493388671875,-0.9789276123046875,0.0137176513671875,0.0013580322265625
1690838598365409000,5.859408935546875,-0.98333740234375,0.014190673828125,0.0017547607421875
1690838598375449900,5.869449951171875,-0.978515625,0.0140838623046875,0.0016632080078125
1690838598385490000,5.879489990234375,-0.985687255859375,0.0137481689453125,0.0016632080078125
1690838598395530000,5.889530029296875,-0.9832000732421875,0.014556884765625,0.0004730224609375
1690838598405571000,5.899571044921875,-0.9727020263671875,0.0136566162109375,0.0006866455078125
1690838598415611000,5.90961083984375,-0.9932403564453125,0.0147857666015625,0.0005035400390625
1690838598425651000,5.91965087890625,-0.9750823974609375,0.0138397216796875,-0.000091552734375
1690838598435690800,5.929690673828125,-0.9819183349609375,0.015289306640625,0.0005340576171875
1690838598445731800,5.93973193359375,-0.9837646484375,0.0145263671875,0.00103759765625
1690838598455772000,5.94977197265625,-0.9774932861328125,0.0139312744140625,0.0010986328125
1690838598465812000,5.95981201171875,-0.9853057861328125,0.015106201171875,0.001922607421875
1690838598475853000,5.96985302734375,-0.97869873046875,0.0140533447265625,0.001678466796875
1690838598485892900,5.979892822265625,-0.9812164306640625,0.0137176513671875,0.0009002685546875
1690838598495933000,5.989932861328125,-0.985870361328125,0.0142364501953125,0.0013427734375
1690838598505972700,5.99997265625,-0.97735595703125,0.0144805908203125,0.000823974609375
1690838598516013800,6.010013916015625,-0.9821014404296875,0.014862060546875,0.0009002685546875
1690838598526054000,6.020053955078125,-0.9837799072265625,0.0139312744140625,0.0009307861328125
1690838598536125000,6.030125,-0.9785614013671875,0.01409912109375,0.00030517578125
1690838598546165000,6.0401650390625,-0.982696533203125,0.0143585205078125,0.0006866455078125
1690838598556204800,6.050204833984375,-0.9829559326171875,0.0146331787109375,0.0013885498046875
1690838598566246000,6.060245849609375,-0.979522705078125,0.0145416259765625,0.0015869140625
1690838598576286000,6.070285888671875,-0.980682373046875,0.01446533203125,0.0011138916015625
1690838598586325800,6.08032568359375,-0.9834442138671875,0.0135345458984375,0.000579833984375
1690838598596365800,6.09036572265625,-0.9766387939453125,0.013153076171875,0.000579833984375
1690838598606407000,6.100406982421875,-0.9887542724609375,0.01446533203125,0.0010833740234375
1690838598616447000,6.110447021484375,-0.975250244140625,0.01324462890625,0.0008544921875
1690838598626486800,6.12048681640625,-0.9841156005859375,0.0141143798828125,0.001556396484375
1690838598636527900,6.13052783203125,-0.98284912109375,0.0142974853515625,0.0010986328125
1690838598646568000,6.14056787109375,-0.9781951904296875,0.01409912109375,0.000823974609375
1690838598656607700,6.150607666015625,-0.9846649169921875,0.014739990234375,0.001312255859375
1690838598666647800,6.160647705078125,-0.9804229736328125,0.013519287109375,0.0003662109375
1690838598676689000,6.17068896484375,-0.9780731201171875,0.0140838623046875,0.0013427734375
1690838598686729000,6.18072900390625,-0.986175537109375,0.01336669921875,0.0020294189453125
1690838598696769000,6.19076904296875,-0.977783203125,0.013702392578125,0.0014495849609375
1690838598706810000,6.20081005859375,-0.98345947265625,0.013885498046875,0.0012359619140625
1690838598716880000,6.2108798828125,-0.9832611083984375,0.0139312744140625,0.00115966796875
1690838598726915300,6.220915283203125,-0.9802703857421875,0.014129638671875,0.0015411376953125
1690838598736955400,6.230955322265625,-0.9824981689453125,0.014190673828125,0.0014801025390625
1690838598746995200,6.2409951171875,-0.9816436767578125,0.014984130859375,0.00091552734375
1690838598757036300,6.251036376953125,-0.9804534912109375,0.015167236328125,0.000152587890625
1690838598767076400,6.261076416015625,-0.982177734375,0.014984130859375,0.000396728515625
1690838598777116400,6.271116455078125,-0.9810791015625,0.014617919921875,0.0019989013671875
1690838598787156200,6.28115625,-0.9817047119140625,0.013916015625,0.001861572265625
1690838598797197300,6.291197265625,-0.9821929931640625,0.0144500732421875,0.0016632080078125
1690838598807237400,6.3012373046875,-0.9802093505859375,0.013702392578125,0.0007781982421875
1690838598817277200,6.311277099609375,-0.9839630126953125,0.0146026611328125,0.00103759765625
1690838598827318300,6.321318359375,-0.982940673828125,0.0152587890625,0.000823974609375
1690838598837358300,6.3313583984375,-0.979827880859375,0.0147705078125,0.0004730224609375
1690838598847398400,6.3413984375,-0.9845733642578125,0.014068603515625,0.0014190673828125
1690838598857438200,6.351438232421875,-0.9802703857421875,0.013824462890625,0.000579833984375
1690838598867479300,6.361479248046875,-0.980682373046875,0.0131988525390625,0.0006103515625
1690838598877519400,6.371519287109375,-0.9830780029296875,0.013702392578125,0.00042724609375
1690838598887590400,6.38159033203125,-0.9805145263671875,0.01397705078125,0.000946044921875
1690838598897630200,6.391630126953125,-0.9827423095703125,0.0139312744140625,0.00115966796875
1690838598907670300,6.401670166015625,-0.9796295166015625,0.0141448974609375,0.00103759765625
1690838598917711400,6.41171142578125,-0.980926513671875,0.013763427734375,0.0009765625
1690838598927751400,6.42175146484375,-0.9824371337890625,0.014801025390625,0.0010986328125
1690838598937791200,6.431791259765625,-0.9798736572265625,0.014923095703125,0.001068115234375
1690838598947831300,6.441831298828125,-0.98291015625,0.01470947265625,0.000946044921875
1690838598957872400,6.451872314453125,-0.981842041015625,0.014434814453125,0.0015106201171875
1690838598967912200,6.461912109375,-0.981414794921875,0.013885498046875,0.000274658203125
1690838598977952300,6.4719521484375,-0.9823760986328125,0.0140838623046875,0.0005950927734375
1690838598987993300,6.481993408203125,-0.9816131591796875,0.013946533203125,0.0010528564453125
1690838598998033400,6.492033447265625,-0.9805755615234375,0.013946533203125,0.0007781982421875
1690838599008073200,6.5020732421875,-0.9821929931640625,0.0146331787109375,0.0014495849609375
1690838599018113300,6.51211328125,-0.981475830078125,0.01416015625,0.0016937255859375
1690838599028154400,6.522154296875,-0.982391357421875,0.0134735107421875,0.0016326904296875
1690838599038194400,6.5321943359375,-0.9822845458984375,0.0140228271484375,0.0004425048828125
1690838599048234200,6.542234130859375,-0.9813690185546875,0.0140228271484375,0.000732421875
1690838599058305300,6.55230517578125,-0.9819793701171875,0.0149078369140625,0.000457763671875
1690838599068345300,6.562345458984375,-0.980133056640625,0.0149993896484375,-0.0003204345703125
1690838599078386400,6.572386474609375,-0.9806976318359375,0.0146942138671875,0.001007080078125
1690838599088426200,6.58242626953125,-0.9829254150390625,0.0147705078125,0.0012359619140625
1690838599098466300,6.59246630859375,-0.98052978515625,0.014251708984375,0.0020294189453125
1690838599108506000,6.602506103515625,-0.983184814453125,0.014190673828125,0.00323486328125
1690838599118547200,6.612547119140625,-0.982086181640625,0.0130767822265625,0.0029144287109375
1690838599128587300,6.622587158203125,-0.981353759765625,0.0132293701171875,0.00238037109375
1690838599138627300,6.63262744140625,-0.98150634765625,0.0135955810546875,0.0015106201171875
1690838599148668400,6.64266845703125,-0.9813385009765625,0.0142364501953125,0.00054931640625
1690838599158708200,6.652708251953125,-0.9805755615234375,0.0140838623046875,-0.0001983642578125
1690838599168748300,6.662748291015625,-0.980438232421875,0.0145111083984375,-0.0006866455078125
1690838599178788000,6.6727880859375,-0.9806976318359375,0.014617919921875,0.0002593994140625
1690838599188829200,6.6828291015625,-0.98065185546875,0.0148468017578125,-0.0001220703125
1690838599198869200,6.692869140625,-0.980804443359375,0.0148162841796875,0.0016021728515625
1690838599208909300,6.702909423828125,-0.9807891845703125,0.0150146484375,0.0023040771484375
1690838599218950100,6.7129501953125,-0.982269287109375,0.0145416259765625,0.00152587890625
1690838599228990200,6.722990234375,-0.981658935546875,0.0153350830078125,0.001708984375
1690838599239061200,6.733061279296875,-0.9804534912109375,0.015411376953125,0.00115966796875
1690838599249101300,6.743101318359375,-0.9823150634765625,0.014404296875,0.0005340576171875
1690838599259141000,6.75314111328125,-0.9814910888671875,0.0140228271484375,-0.00030517578125
1690838599269182200,6.76318212890625,-0.9819488525390625,0.0143890380859375,0.00048828125
1690838599279222300,6.77322216796875,-0.9812164306640625,0.0143890380859375,0.0005035400390625
1690838599289262300,6.783262451171875,-0.980865478515625,0.013458251953125,0.0003204345703125
1690838599299302400,6.793302490234375,-0.98162841796875,0.014801025390625,0.0006561279296875
1690838599309343200,6.80334326171875,-0.9810333251953125,0.0142974853515625,0.0015106201171875
1690838599319383300,6.81338330078125,-0.9817047119140625,0.01348876953125,0.0014801025390625
1690838599329423000,6.823423095703125,-0.9819183349609375,0.01397705078125,0.0018157958984375
1690838599339464200,6.833464111328125,-0.98126220703125,0.0148162841796875,0.0012054443359375
1690838599349504300,6.843504150390625,-0.9814453125,0.0150909423828125,0.002044677734375
1690838599359544300,6.85354443359375,-0.982177734375,0.0147552490234375,0.00146484375
1690838599369584400,6.86358447265625,-0.9820556640625,0.0148162841796875,0.0004425048828125
1690838599379625200,6.873625244140625,-0.9811859130859375,0.0147552490234375,0.0006561279296875
1690838599389665300,6.883665283203125,-0.9811248779296875,0.013885498046875,0.00164794921875
1690838599399705300,6.893705322265625,-0.98138427734375,0.0133056640625,0.000701904296875
1690838599409776000,6.903776123046875,-0.9813079833984375,0.0139312744140625,0.0006256103515625
1690838599419816200,6.913816162109375,-0.9822998046875,0.014068603515625,0.000152587890625
1690838599429857300,6.923857177734375,-0.9826812744140625,0.0143585205078125,0.000946044921875
1690838599439897300,6.9338974609375,-0.9818878173828125,0.0140380859375,0.0011749267578125
1690838599449937400,6.9439375,-0.9813232421875,0.0139923095703125,0.00189208984375
1690838599459977500,6.9539775390625,-0.98223876953125,0.014739990234375,0.002197265625
1690838599470018300,6.964018310546875,-0.98199462890625,0.015167236328125,0.001068115234375
1690838599480058000,6.97405810546875,-0.9806365966796875,0.0152130126953125,0.000762939453125
1690838599490098200,6.98409814453125,-0.9814605712890625,0.01556396484375,0.0008087158203125
1690838599500139300,6.99413916015625,-0.980712890625,0.0150146484375,0.0007476806640625
1690838599510179300,7.004179443359375,-0.9810638427734375,0.0152130126953125,-0.0004730224609375
1690838599520219400,7.014219482421875,-0.9805908203125,0.013671875,-0.000579833984375
1690838599530259500,7.024259521484375,-0.982330322265625,0.012725830078125,0.00079345703125
1690838599540300300,7.03430029296875,-0.9819488525390625,0.0131988525390625,0.00054931640625
1690838599550340400,7.04434033203125,-0.9810028076171875,0.0129547119140625,0.000946044921875
1690838599560380200,7.054380126953125,-0.98236083984375,0.012603759765625,0.00189208984375
1690838599570421200,7.064421142578125,-0.982330322265625,0.013427734375,0.0024566650390625
1690838599580491300,7.0744912109375,-0.9817962646484375,0.014129638671875,0.002532958984375
1690838599590532400,7.084532470703125,-0.982086181640625,0.01495361328125,0.001251220703125
1690838599600572400,7.094572509765625,-0.9803009033203125,0.0150299072265625,0.0002288818359375
1690838599610612500,7.104612548828125,-0.980804443359375,0.0153961181640625,0.0005950927734375
1690838599620652300,7.11465234375,-0.9811859130859375,0.0155029296875,0.0012969970703125
1690838599630693000,7.124693115234375,-0.981597900390625,0.0149688720703125,0.001220703125
1690838599640733200,7.134733154296875,-0.9814910888671875,0.0138092041015625,-0.0001220703125
1690838599650773200,7.144773193359375,-0.9820556640625,0.0138092041015625,0.0013580322265625
1690838599660814300,7.154814453125,-0.9818572998046875,0.0142822265625,0.001861572265625
1690838599670854400,7.1648544921875,-0.9817657470703125,0.013885498046875,0.0017852783203125
1690838599680894500,7.17489453125,-0.98236083984375,0.0130767822265625,0.001007080078125
1690838599690934300,7.184934326171875,-0.9821624755859375,0.012908935546875,-0.00018310546875
1690838599700975400,7.194975341796875,-0.9813079833984375,0.0146636962890625,0.0002288818359375
1690838599711015200,7.20501513671875,-0.981658935546875,0.01422119140625,0.002044677734375
1690838599721055200,7.21505517578125,-0.982025146484375,0.014556884765625,0.0021820068359375
1690838599731090700,7.225090576171875,-0.98126220703125,0.01556396484375,0.00262451171875
1690838599741130800,7.235130859375,-0.9810943603515625,0.016143798828125,0.002960205078125
1690838599751170800,7.2451708984375,-0.9812774658203125,0.01611328125,0.0011444091796875
1690838599761241900,7.255241943359375,-0.9805450439453125,0.0157318115234375,0.0009002685546875
1690838599771281700,7.26528173828125,-0.9807586669921875,0.0154571533203125,0.0006866455078125
1690838599781322800,7.27532275390625,-0.9812164306640625,0.015045166015625,0.000091552734375
1690838599791362800,7.28536279296875,-0.9801177978515625,0.01318359375,0.0000762939453125
1690838599801403000,7.29540283203125,-0.981201171875,0.0120391845703125,0.00018310546875
1690838599811443000,7.30544287109375,-0.981689453125,0.01226806640625,0.000579833984375
1690838599821483800,7.31548388671875,-0.9825286865234375,0.011627197265625,0.0009918212890625
1690838599831523800,7.32552392578125,-0.9831085205078125,0.0116119384765625,0.00189208984375
1690838599841563600,7.335563720703125,-0.9820098876953125,0.01214599609375,0.0024261474609375
1690838599851604700,7.345604736328125,-0.981414794921875,0.013916015625,0.00225830078125
1690838599861644800,7.355644775390625,-0.9820709228515625,0.0147247314453125,0.0024566650390625
1690838599871684900,7.365684814453125,-0.981536865234375,0.015380859375,0.0012054443359375
1690838599881725000,7.375724853515625,-0.981536865234375,0.0160675048828125,-0.000091552734375
1690838599891765800,7.385765869140625,-0.98040771484375,0.016357421875,0.0001678466796875
1690838599901805800,7.395805908203125,-0.9794769287109375,0.016204833984375,-0.0006256103515625
1690838599911845600,7.405845703125,-0.97979736328125,0.015533447265625,-0.0004425048828125
1690838599921886700,7.41588671875,-0.9814910888671875,0.015472412109375,0.0002593994140625
1690838599931956700,7.425956787109375,-0.9821929931640625,0.014373779296875,-0.000030517578125
1690838599941997800,7.435997802734375,-0.982086181640625,0.013519287109375,0.0014495849609375
1690838599952038000,7.446037841796875,-0.98297119140625,0.012939453125,0.0026702880859375
1690838599962078000,7.456077880859375,-0.9828338623046875,0.0121917724609375,0.0018157958984375
1690838599972118000,7.466117919921875,-0.9817352294921875,0.0125274658203125,0.0020294189453125
1690838599982158800,7.476158935546875,-0.98187255859375,0.0132598876953125,0.0014801025390625
1690838599992198700,7.48619873046875,-0.98187255859375,0.0137176513671875,0.0009002685546875
1690838600002238700,7.49623876953125,-0.981109619140625,0.0141143798828125,-0.00018310546875
1690838600012279800,7.50627978515625,-0.981475830078125,0.0146942138671875,-0.001129150390625
1690838600022319900,7.51631982421875,-0.9813995361328125,0.014404296875,-0.0005340576171875
1690838600032360000,7.52635986328125,-0.981048583984375,0.0157928466796875,0.00054931640625
1690838600042400000,7.53639990234375,-0.9808197021484375,0.015533447265625,0.00115966796875
1690838600052440800,7.54644091796875,-0.9810791015625,0.015594482421875,0.0013580322265625
1690838600062480600,7.556480712890625,-0.981414794921875,0.01507568359375,0.0021209716796875
1690838600072520700,7.566520751953125,-0.9810333251953125,0.0151214599609375,0.002044677734375
1690838600082561800,7.576561767578125,-0.980865478515625,0.0140533447265625,0.0018157958984375
1690838600092601900,7.586601806640625,-0.9822235107421875,0.013458251953125,0.001373291015625
1690838600102673000,7.5966728515625,-0.9814605712890625,0.0136871337890625,0.000457763671875
1690838600112713000,7.606712890625,-0.98187255859375,0.0134735107421875,0.0001068115234375
1690838600122753000,7.6167529296875,-0.98199462890625,0.0137939453125,0.0001373291015625
1690838600132792800,7.626792724609375,-0.982086181640625,0.0130157470703125,0.001129150390625
1690838600142833700,7.636833740234375,-0.9817962646484375,0.013397216796875,0.0015106201171875
1690838600152873700,7.646873779296875,-0.9816436767578125,0.012908935546875,0.000518798828125
1690838600162913800,7.656913818359375,-0.9818878173828125,0.01348876953125,0.001190185546875
1690838600172955000,7.666954833984375,-0.9822845458984375,0.0145721435546875,0.0016021728515625
1690838600182995000,7.676994873046875,-0.98187255859375,0.0150909423828125,0.002197265625
1690838600193035000,7.687034912109375,-0.9814300537109375,0.0148773193359375,0.001861572265625
1690838600203074800,7.69707470703125,-0.9813385009765625,0.0147552490234375,0.0013885498046875
1690838600213115600,7.70711572265625,-0.98223876953125,0.0146026611328125,0.000701904296875
1690838600223155700,7.71715576171875,-0.9822845458984375,0.01409912109375,0.0009613037109375
1690838600233195800,7.72719580078125,-0.9818115234375,0.014556884765625,0.0009307861328125
1690838600243236900,7.73723681640625,-0.9822845458984375,0.0151214599609375,0.0009918212890625
1690838600253277000,7.74727685546875,-0.9810943603515625,0.0142669677734375,0.0011444091796875
1690838600263317000,7.75731689453125,-0.9816741943359375,0.01422119140625,0.001312255859375
1690838600273356800,7.767356689453125,-0.9826507568359375,0.014404296875,0.0013580322265625
1690838600283427800,7.777427734375,-0.9824676513671875,0.0137481689453125,0.0012969970703125
1690838600293468700,7.78746875,-0.9817047119140625,0.01422119140625,0.0017242431640625
1690838600303508700,7.7975087890625,-0.9813690185546875,0.0135650634765625,0.0018157958984375
1690838600313548800,7.807548828125,-0.9814453125,0.013702392578125,0.0012664794921875
1690838600323588900,7.8175888671875,-0.9824066162109375,0.0138702392578125,0.001739501953125
1690838600333630000,7.8276298828125,-0.9810638427734375,0.0138397216796875,0.000274658203125
1690838600343670000,7.837669921875,-0.9817352294921875,0.0147705078125,0.0007171630859375
1690838600353709800,7.847709716796875,-0.9809112548828125,0.0142974853515625,0.0007171630859375
1690838600363750700,7.857750732421875,-0.9805450439453125,0.0149078369140625,0.000762939453125
1690838600373790700,7.867790771484375,-0.9814910888671875,0.0144805908203125,0.0006256103515625
1690838600383830800,7.877830810546875,-0.981964111328125,0.0135955810546875,0.001373291015625
1690838600393870800,7.887870849609375,-0.9815826416015625,0.0139312744140625,0.0021209716796875
1690838600403912000,7.897911865234375,-0.981658935546875,0.0141754150390625,0.0022125244140625
1690838600413952000,7.907951904296875,-0.9811248779296875,0.0133209228515625,0.0026397705078125
1690838600423991800,7.91799169921875,-0.982574462890625,0.0142822265625,0.0021820068359375
1690838600434033000,7.928032958984375,-0.9817657470703125,0.014190673828125,0.0014495849609375
1690838600444072700,7.93807275390625,-0.9814605712890625,0.0142059326171875,0.000823974609375
1690838600454143700,7.948143798828125,-0.980682373046875,0.0146331787109375,0.000213623046875
1690838600464183800,7.958183837890625,-0.9814605712890625,0.014923095703125,-0.000091552734375
1690838600474223900,7.968223876953125,-0.9813232421875,0.0138092041015625,0.0000762939453125
1690838600484264000,7.978263916015625,-0.981964111328125,0.0141143798828125,0.001373291015625
1690838600494304800,7.9883046875,-0.9815826416015625,0.0145416259765625,0.0013580322265625
1690838600504344600,7.998344482421875,-0.982421875,0.014678955078125,0.00140380859375
1690838600514384600,8.008384521484375,-0.9807586669921875,0.014404296875,0.00146484375
1690838600524425700,8.01842578125,-0.9806671142578125,0.01422119140625,0.00091552734375
1690838600534465800,8.0284658203125,-0.9813232421875,0.014312744140625,0.001068115234375
1690838600544505900,8.038505859375,-0.981903076171875,0.0149993896484375,0.0009002685546875
1690838600554546000,8.0485458984375,-0.9817047119140625,0.013824462890625,0.0001373291015625
1690838600564586800,8.058586669921874,-0.9815673828125,0.0140533447265625,0.00018310546875
1690838600574626600,8.06862646484375,-0.9816741943359375,0.0138397216796875,0.0009918212890625
1690838600584666600,8.07866650390625,-0.9821929931640625,0.0132293701171875,0.00048828125
1690838600594707700,8.088707763671875,-0.9823150634765625,0.01397705078125,0.00054931640625
1690838600604747800,8.098747802734374,-0.982086181640625,0.0142974853515625,0.0014495849609375
1690838600614787800,8.108787841796875,-0.9810638427734375,0.0145263671875,0.00152587890625
1690838600624828000,8.118827880859374,-0.981689453125,0.0150146484375,0.001739501953125
1690838600634899000,8.12889892578125,-0.98126220703125,0.0153045654296875,0.00152587890625
1690838600644938800,8.138938720703125,-0.9813232421875,0.0149993896484375,0.0012359619140625
1690838600654979600,8.1489794921875,-0.9818572998046875,0.0141448974609375,0.000732421875
1690838600665019600,8.15901953125,-0.98126220703125,0.0146331787109375,0.0006561279296875
1690838600675059700,8.169059814453124,-0.981597900390625,0.0140380859375,0.0011138916015625
1690838600685100800,8.179100830078125,-0.982513427734375,0.0139312744140625,0.0011138916015625
1690838600695140900,8.189140869140624,-0.981201171875,0.0139312744140625,0.0008544921875
1690838600705181000,8.199180908203125,-0.9826812744140625,0.014312744140625,0.0012359619140625
1690838600715220700,8.209220703125,-0.9827423095703125,0.0142364501953125,0.0014190673828125
1690838600725261600,8.219261474609375,-0.9818572998046875,0.0144500732421875,0.0011444091796875
1690838600735279900,8.22927978515625,-0.98126220703125,0.0145111083984375,0.00091552734375
1690838600745320000,8.23931982421875,-0.9804840087890625,0.0146942138671875,0.0006103515625
1690838600755360800,8.24936083984375,-0.9808349609375,0.014617919921875,0.001129150390625
1690838600765400600,8.259400634765624,-0.9817352294921875,0.0139007568359375,0.0013580322265625
1690838600775440600,8.269440673828125,-0.9821319580078125,0.0149993896484375,0.0008392333984375
1690838600785480700,8.279480712890624,-0.9818878173828125,0.01470947265625,0.000823974609375
1690838600795521800,8.289521728515625,-0.9821319580078125,0.0138702392578125,0.00067138671875
1690838600805592800,8.2995927734375,-0.98272705078125,0.01348876953125,0.0011444091796875
1690838600815633000,8.3096328125,-0.981903076171875,0.0139312744140625,0.001617431640625
1690838600825673000,8.3196728515625,-0.980926513671875,0.01397705078125,0.0010986328125
1690838600835712800,8.329712646484374,-0.98150634765625,0.014617919921875,0.0012664794921875
1690838600845753600,8.339753662109375,-0.9817962646484375,0.015228271484375,0.0012359619140625
1690838600855793700,8.349793701171874,-0.9805908203125,0.0144805908203125,0.0015869140625
1690838600865833700,8.359833740234375,-0.982574462890625,0.0147705078125,0.001312255859375
1690838600875874800,8.369874755859374,-0.9821624755859375,0.0140228271484375,0.001495361328125
1690838600885915000,8.379914794921875,-0.9813995361328125,0.014068603515625,0.00146484375
1690838600895955000,8.389954833984374,-0.981536865234375,0.015228271484375,0.00067138671875
1690838600905994800,8.399994873046875,-0.982025146484375,0.01483154296875,0.0003204345703125
1690838600916035600,8.41003564453125,-0.9819488525390625,0.014251708984375,0.0013427734375
1690838600926075600,8.42007568359375,-0.9813690185546875,0.0134735107421875,0.000152587890625
1690838600936115700,8.43011572265625,-0.981842041015625,0.0139312744140625,0.000823974609375
1690838600946155800,8.44015576171875,-0.983062744140625,0.0138397216796875,0.0009002685546875
1690838600956196900,8.45019677734375,-0.9826202392578125,0.0143585205078125,0.00054931640625
1690838600966237000,8.46023681640625,-0.982147216796875,0.014373779296875,0.0010528564453125
1690838600976308000,8.470307861328125,-0.981964111328125,0.0151214599609375,0.001739501953125
1690838600986347800,8.48034765625,-0.9812774658203125,0.0140838623046875,0.0006561279296875
1690838600996387800,8.490387939453125,-0.9822845458984375,0.0135040283203125,0.0001068115234375
1690838601006428700,8.5004287109375,-0.980682373046875,0.014556884765625,0.0007171630859375
1690838601016468700,8.51046875,-0.9821624755859375,0.0149688720703125,0.0010223388671875
1690838601026508800,8.5205087890625,-0.9821929931640625,0.0145263671875,0.0014495849609375
1690838601036550000,8.5305498046875,-0.9806671142578125,0.0147552490234375,0.0009002685546875
1690838601046590000,8.54058984375,-0.98101806640625,0.0143890380859375,0.00140380859375
1690838601056629800,8.550629638671875,-0.9818267822265625,0.014801025390625,0.0010223388671875
1690838601066669800,8.560669921875,-0.9810791015625,0.01361083984375,0.0013427734375
1690838601076710700,8.570710693359375,-0.9814453125,0.01416015625,0.001068115234375
1690838601086750700,8.580750732421874,-0.9814453125,0.0146331787109375,0.000274658203125
1690838601096790800,8.590790771484375,-0.9816741943359375,0.013885498046875,0.0005035400390625
1690838601106832000,8.600831787109374,-0.9814300537109375,0.01348876953125,0.0002899169921875
1690838601116872000,8.610871826171875,-0.9805755615234375,0.01336669921875,0.001068115234375
1690838601126911700,8.620911865234374,-0.98175048828125,0.0137481689453125,0.0015716552734375
1690838601136951800,8.630951904296875,-0.981597900390625,0.014739990234375,0.0009765625
1690838601146992600,8.64099267578125,-0.98126220703125,0.0146331787109375,0.0013427734375
1690838601157062700,8.651062744140624,-0.9819793701171875,0.0145721435546875,0.00177001953125
1690838601167103700,8.661103759765625,-0.9810333251953125,0.0147247314453125,0.001708984375
1690838601177143800,8.671143798828124,-0.98077392578125,0.0139923095703125,0.00152587890625
1690838601187183900,8.681183837890625,-0.981292724609375,0.0139617919921875,0.000946044921875
1690838601197225000,8.691224853515624,-0.98052978515625,0.0149078369140625,0.0005950927734375
1690838601207264800,8.7012646484375,-0.98162841796875,0.0143280029296875,0.000396728515625
1690838601217304800,8.711304931640624,-0.9808502197265625,0.0143890380859375,0.0010986328125
1690838601227344600,8.7213447265625,-0.980926513671875,0.01373291015625,0.0011138916015625
1690838601237385700,8.7313857421875,-0.982452392578125,0.0136871337890625,0.0015716552734375
1690838601247425800,8.74142578125,-0.9820098876953125,0.013946533203125,0.0009002685546875
1690838601257465900,8.7514658203125,-0.9818267822265625,0.0140228271484375,0.000701904296875
1690838601267507000,8.7615068359375,-0.981201171875,0.014495849609375,0.0011749267578125
1690838601277546800,8.771546630859374,-0.981231689453125,0.014617919921875,0.0009613037109375
1690838601287586800,8.7815869140625,-0.981719970703125,0.0149688720703125,0.0007171630859375
1690838601297626600,8.791626708984374,-0.9807586669921875,0.0146331787109375,0.001373291015625
1690838601307667700,8.801667724609375,-0.980499267578125,0.0151824951171875,0.0009613037109375
1690838601317707800,8.811707763671874,-0.981231689453125,0.014251708984375,0.001190185546875
1690838601327778800,8.82177880859375,-0.9825439453125,0.0139923095703125,0.0017242431640625
1690838601337819000,8.83181884765625,-0.9817962646484375,0.014129638671875,0.0017547607421875
1690838601347858700,8.841858642578124,-0.981964111328125,0.013702392578125,0.0018768310546875
1690838601357899800,8.851899658203125,-0.9818572998046875,0.0138702392578125,0.0013580322265625
1690838601367939600,8.861939697265624,-0.981964111328125,0.0149383544921875,0.001251220703125
1690838601377979600,8.871979736328125,-0.9824066162109375,0.014739990234375,0.00177001953125
1690838601388020700,8.882020751953124,-0.9820709228515625,0.0143280029296875,0.0006256103515625
1690838601398060800,8.892060791015625,-0.981414794921875,0.01361083984375,0.001373291015625
1690838601408100900,8.902100830078124,-0.98095703125,0.0147705078125,0.0016632080078125
1690838601418140700,8.912140625,-0.9810028076171875,0.01422119140625,0.000732421875
1690838601428181800,8.922181640625,-0.9805908203125,0.015106201171875,0.0009918212890625
1690838601438221600,8.9322216796875,-0.9814605712890625,0.014862060546875,0.001220703125
1690838601448261600,8.94226171875,-0.9818572998046875,0.0148162841796875,0.000885009765625
1690838601458301700,8.9523017578125,-0.9813385009765625,0.0146484375,0.0011749267578125
1690838601468342800,8.9623427734375,-0.9822235107421875,0.0144500732421875,0.00115966796875
1690838601478382800,8.9723828125,-0.9809112548828125,0.0143890380859375,0.0016632080078125
1690838601488423000,8.9824228515625,-0.981689453125,0.0141754150390625,0.0012359619140625
1690838601498463700,8.992463623046875,-0.9819183349609375,0.014617919921875,0.0017852783203125
1690838601508533800,9.00253369140625,-0.9815673828125,0.014251708984375,0.0012054443359375
1690838601518574600,9.01257470703125,-0.98193359375,0.014495849609375,0.0017852783203125
1690838601528614700,9.02261474609375,-0.9821014404296875,0.014739990234375,0.0014495849609375
1690838601538654700,9.03265478515625,-0.9812164306640625,0.01483154296875,0.001312255859375
1690838601548695800,9.04269580078125,-0.9814453125,0.0144805908203125,0.0011749267578125
1690838601558736000,9.05273583984375,-0.9819183349609375,0.01409912109375,0.0012969970703125
1690838601568775700,9.062775634765625,-0.9817657470703125,0.0145721435546875,0.0010223388671875
1690838601578815700,9.072815673828124,-0.9808349609375,0.013702392578125,0.00067138671875
1690838601588856600,9.082856689453125,-0.9810943603515625,0.01422119140625,0.0010986328125
1690838601598896600,9.092896728515624,-0.982330322265625,0.0139007568359375,0.0008087158203125
1690838601608936700,9.102936767578125,-0.9810791015625,0.0133514404296875,0.0008544921875
1690838601618977800,9.112977783203124,-0.9814605712890625,0.013916015625,0.000640869140625
1690838601629017900,9.123017822265625,-0.9814605712890625,0.01422119140625,0.0010528564453125
1690838601639058000,9.133057861328124,-0.9813232421875,0.0146026611328125,0.0012359619140625
1690838601649097700,9.14309765625,-0.9814453125,0.01385498046875,0.0015106201171875
1690838601659138600,9.153138671875,-0.982330322265625,0.0140533447265625,0.001678466796875
1690838601669178600,9.1631787109375,-0.982818603515625,0.0142822265625,0.0003662109375
1690838601679249700,9.173249755859375,-0.9819183349609375,0.0141448974609375,0.000030517578125
1690838601689289700,9.183289794921874,-0.98089599609375,0.0146636962890625,0.0011138916015625
1690838601699329800,9.193329833984375,-0.9811859130859375,0.0144805908203125,0.001129150390625
1690838601709371000,9.203370849609374,-0.9815216064453125,0.01458740234375,0.00115966796875
1690838601719410700,9.21341064453125,-0.9812469482421875,0.0143890380859375,0.001678466796875
1690838601729458400,9.22345849609375,-0.980987548828125,0.01446533203125,0.0015716552734375
1690838601739498500,9.23349853515625,-0.980987548828125,0.01458740234375,0.0009002685546875
1690838601749539300,9.243539306640624,-0.9813232421875,0.0133514404296875,0.000946044921875
1690838601759579400,9.253579345703125,-0.9813995361328125,0.01348876953125,0.000213623046875
1690838601769619500,9.263619384765626,-0.9815673828125,0.013397216796875,0.001373291015625
1690838601779660500,9.27366064453125,-0.98193359375,0.013916015625,0.00079345703125
1690838601789700400,9.283700439453124,-0.9818267822265625,0.013916015625,0.00128173828125
1690838601799740400,9.293740478515625,-0.9815826416015625,0.0139617919921875,0.0009002685546875
1690838601809780500,9.303780517578126,-0.98175048828125,0.015167236328125,0.001434326171875
1690838601819821300,9.3138212890625,-0.981781005859375,0.0146484375,0.0012664794921875
1690838601829861400,9.323861328125,-0.9808349609375,0.014556884765625,0.0001678466796875
1690838601839901400,9.3339013671875,-0.9808349609375,0.0142364501953125,0.001129150390625
1690838601849972500,9.343972412109375,-0.9821319580078125,0.0149078369140625,0.000946044921875
1690838601860012300,9.35401220703125,-0.982208251953125,0.0150604248046875,-0.000244140625
1690838601870053400,9.364053466796875,-0.98162841796875,0.014068603515625,0.0000762939453125
1690838601880093400,9.374093505859374,-0.9814300537109375,0.013946533203125,0.000518798828125
1690838601890133500,9.384133544921875,-0.9815521240234375,0.013671875,0.0015716552734375
1690838601900174300,9.39417431640625,-0.9813079833984375,0.0140533447265625,0.0013427734375
1690838601910214400,9.40421435546875,-0.98175048828125,0.0142364501953125,0.0013885498046875
1690838601920254500,9.41425439453125,-0.9814453125,0.013763427734375,0.001220703125
1690838601930294300,9.424294189453125,-0.981048583984375,0.0133209228515625,0.000701904296875
1690838601940335400,9.43433544921875,-0.9818267822265625,0.01385498046875,0.00164794921875
1690838601950375400,9.44437548828125,-0.9818267822265625,0.0137939453125,0.00079345703125
1690838601960415500,9.45441552734375,-0.9818878173828125,0.0144805908203125,0.00146484375
1690838601970455300,9.464455322265625,-0.980987548828125,0.014190673828125,0.0018157958984375
1690838601980496400,9.474496337890624,-0.9812469482421875,0.0145111083984375,0.0012664794921875
1690838601990536400,9.484536376953125,-0.981658935546875,0.01422119140625,0.001434326171875
1690838602000576500,9.494576416015626,-0.9816131591796875,0.014404296875,0.0009002685546875
1690838602010617600,9.50461767578125,-0.98095703125,0.014678955078125,0.0006256103515625
1690838602020657400,9.514657470703124,-0.9810333251953125,0.013824462890625,0.0015106201171875
1690838602030728400,9.524728515625,-0.9809722900390625,0.0137176513671875,0.001220703125
1690838602040768500,9.5347685546875,-0.9815673828125,0.0135955810546875,0.000518798828125
1690838602050808300,9.544808349609376,-0.98260498046875,0.0143890380859375,0.0012969970703125
1690838602060849400,9.554849365234375,-0.9818115234375,0.015167236328125,0.00128173828125
1690838602070889500,9.564889404296874,-0.981719970703125,0.014678955078125,0.0010528564453125
1690838602080929300,9.57492919921875,-0.9825439453125,0.0142974853515625,0.0007171630859375
1690838602090969300,9.58496923828125,-0.9817047119140625,0.0142059326171875,0.00164794921875
1690838602101010400,9.595010498046875,-0.980743408203125,0.014007568359375,0.0015106201171875
1690838602111050200,9.60505029296875,-0.981170654296875,0.01361083984375,0.000396728515625
1690838602121090300,9.61509033203125,-0.981048583984375,0.013427734375,0.001312255859375
1690838602131131400,9.62513134765625,-0.98187255859375,0.014373779296875,0.0013275146484375
1690838602141171500,9.63517138671875,-0.98223876953125,0.01446533203125,0.001007080078125
1690838602151211500,9.64521142578125,-0.981964111328125,0.014801025390625,0.0011749267578125
1690838602161251300,9.655251220703125,-0.9815521240234375,0.0146484375,0.00128173828125
1690838602171292400,9.66529248046875,-0.981781005859375,0.0141754150390625,0.0010986328125
1690838602181332200,9.675332275390625,-0.9820556640625,0.0148468017578125,0.0016632080078125
1690838602191372300,9.685372314453126,-0.98193359375,0.0145111083984375,0.001617431640625
1690838602201443300,9.695443359375,-0.98162841796875,0.0143280029296875,0.00103759765625
1690838602211483400,9.7054833984375,-0.981109619140625,0.0142974853515625,0.0008087158203125
1690838602221524500,9.7155244140625,-0.9813232421875,0.0146484375,0.001129150390625
1690838602231564300,9.725564208984375,-0.980987548828125,0.0139312744140625,0.0015716552734375
1690838602241604400,9.735604248046876,-0.9811553955078125,0.0140380859375,0.0015411376953125
1690838602251644400,9.74564453125,-0.9824981689453125,0.01422119140625,0.0006103515625
1690838602261685200,9.755685302734374,-0.9817657470703125,0.0141143798828125,0.0008544921875
1690838602271725300,9.765725341796875,-0.980926513671875,0.014129638671875,0.0005035400390625
1690838602281765400,9.775765380859376,-0.981292724609375,0.0133514404296875,0.00115966796875
1690838602291806500,9.785806396484375,-0.9817047119140625,0.0148773193359375,0.0007476806640625
1690838602301846300,9.79584619140625,-0.9821319580078125,0.0155487060546875,0.00079345703125
1690838602311886300,9.80588623046875,-0.98077392578125,0.0145111083984375,0.001129150390625
1690838602321926400,9.815926513671876,-0.9821319580078125,0.014801025390625,0.001373291015625
1690838602331967200,9.82596728515625,-0.9815216064453125,0.0145416259765625,0.0011749267578125
1690838602342007300,9.83600732421875,-0.982086181640625,0.01397705078125,0.0017242431640625
1690838602352047400,9.84604736328125,-0.981964111328125,0.0138092041015625,0.0013580322265625
1690838602362088400,9.85608837890625,-0.982025146484375,0.0137786865234375,0.000823974609375
1690838602372128500,9.86612841796875,-0.9826202392578125,0.0143585205078125,0.0015716552734375
1690838602382199300,9.87619921875,-0.981903076171875,0.0137786865234375,0.0008392333984375
1690838602392239400,9.8862392578125,-0.981597900390625,0.0146484375,0.0009613037109375
1690838602402279400,9.896279541015625,-0.9820404052734375,0.0145111083984375,0.000091552734375
1690838602412320300,9.9063203125,-0.9819793701171875,0.0139007568359375,0.00115966796875
1690838602422360300,9.9163603515625,-0.982208251953125,0.014556884765625,0.0015411376953125
1690838602432400400,9.926400390625,-0.9815673828125,0.014556884765625,0.00042724609375
1690838602442440200,9.936440185546875,-0.980316162109375,0.0143890380859375,0.0006256103515625
1690838602452481300,9.946481201171874,-0.9795074462890625,0.01470947265625,0.0007476806640625
1690838602462521300,9.956521240234375,-0.9802398681640625,0.0142974853515625,0.0013275146484375
1690838602472561400,9.9665615234375,-0.981231689453125,0.0139312744140625,0.0013275146484375
1690838602482601500,9.9766015625,-0.982757568359375,0.01348876953125,0.0016326904296875
1690838602492642300,9.986642333984374,-0.9799346923828125,0.0136871337890625,0.000885009765625
1690838602502682400,9.996682373046875,-0.9879608154296875,-0.0113372802734375,-0.0292510986328125
1690838602512722400,10.006722412109376,-1.009979248046875,0.029693603515625,0.0211944580078125
1690838602522763500,10.016763427734375,-0.9817352294921875,0.0134124755859375,0.049102783203125
1690838602532803300,10.02680322265625,-0.9721221923828125,-0.009033203125,-0.0262908935546875
1690838602542843400,10.036843505859375,-1.0056304931640625,0.0228271484375,0.0213470458984375
1690838602552914400,10.04691455078125,-0.967926025390625,0.015045166015625,0.0061492919921875
1690838602562954500,10.05695458984375,-0.9841156005859375,0.021514892578125,-0.0143280029296875
1690838602572995300,10.066995361328125,-0.9716644287109375,0.02459716796875,-0.013458251953125
1690838602583035400,10.077035400390624,-0.97369384765625,0.0301971435546875,-0.0157623291015625
1690838602593075200,10.0870751953125,-0.9723358154296875,0.0301513671875,-0.0124664306640625
1690838602603115300,10.097115234375,-0.9750823974609375,0.0308380126953125,-0.005859375
1690838602613156400,10.10715625,-0.9764251708984375,0.025115966796875,-0.0015106201171875
1690838602623196400,10.117196533203124,-0.9846649169921875,0.0234832763671875,0.0064239501953125
1690838602633236500,10.127236572265625,-0.97991943359375,0.019134521484375,0.012176513671875
1690838602643277300,10.13727734375,-0.9862213134765625,0.01312255859375,0.01422119140625
1690838602653317400,10.1473173828125,-0.9873809814453125,0.0070648193359375,0.0102386474609375
1690838602663357400,10.157357421875,-0.9881744384765625,0.0012969970703125,0.003387451171875
1690838602673397200,10.167397216796875,-0.98175048828125,0.000091552734375,-0.0036468505859375
1690838602683438300,10.177438232421874,-0.9886474609375,-0.0001373291015625,-0.0065460205078125
1690838602693478400,10.187478515625,-0.9797821044921875,0.0030364990234375,-0.0073394775390625
1690838602703518500,10.1975185546875,-0.9843597412109375,0.0079345703125,-0.0046844482421875
1690838602713559300,10.207559326171875,-0.9820098876953125,0.0122528076171875,0.0001373291015625
1690838602723629600,10.217629638671875,-0.9823455810546875,0.0172576904296875,0.0045928955078125
1690838602733669600,10.227669677734376,-0.9824066162109375,0.0217437744140625,0.006256103515625
1690838602743709400,10.23770947265625,-0.9794158935546875,0.0237579345703125,0.005462646484375
1690838602753749500,10.24774951171875,-0.9796295166015625,0.0248870849609375,0.00408935546875
1690838602763789600,10.25778955078125,-0.9788360595703125,0.0257720947265625,0.0008697509765625
1690838602773830700,10.26783056640625,-0.9740142822265625,0.0249481201171875,-0.0021514892578125
1690838602783870700,10.27787060546875,-0.9804229736328125,0.0239105224609375,-0.003997802734375
1690838602793910800,10.287910888671876,-0.977508544921875,0.0216522216796875,-0.00555419921875
1690838602803951600,10.29795166015625,-0.9792633056640625,0.019287109375,-0.0041961669921875
1690838602813991400,10.307991455078126,-0.981292724609375,0.0159912109375,-0.0026702880859375
1690838602824031500,10.318031494140625,-0.9823760986328125,0.013153076171875,0.0011444091796875
1690838602834071600,10.328071533203126,-0.982940673828125,0.01055908203125,0.0039520263671875
1690838602844112600,10.338112548828125,-0.9849090576171875,0.007965087890625,0.005401611328125
1690838602854152700,10.348152587890626,-0.9847869873046875,0.007476806640625,0.0045166015625
1690838602864192800,10.35819287109375,-0.9839630126953125,0.0082244873046875,0.0026397705078125
1690838602874233600,10.368233642578126,-0.9831695556640625,0.0089263916015625,0.001251220703125
1690838602884273400,10.3782734375,-0.98291015625,0.0110931396484375,0.000244140625
1690838602894313500,10.3883134765625,-0.982818603515625,0.0132293701171875,-0.0001220703125
1690838602904384500,10.398384521484376,-0.9801483154296875,0.016845703125,-0.0001068115234375
1690838602914424600,10.408424560546875,-0.9797821044921875,0.018768310546875,0.00048828125
1690838602924464600,10.418464599609376,-0.981109619140625,0.020111083984375,0.0008087158203125
1690838602934505700,10.428505615234375,-0.9778900146484375,0.021209716796875,0.0016021728515625
1690838602944545800,10.4385458984375,-0.9806365966796875,0.0215911865234375,0.000732421875
1690838602954585600,10.448585693359375,-0.97967529296875,0.0211334228515625,0.000091552734375
1690838602964626400,10.45862646484375,-0.9798126220703125,0.01947021484375,-0.0010833740234375
1690838602974666500,10.46866650390625,-0.9799041748046875,0.0176849365234375,-0.0019378662109375
1690838602984706600,10.47870654296875,-0.981536865234375,0.01641845703125,-0.0012054443359375
1690838602994746600,10.48874658203125,-0.982696533203125,0.0150146484375,0.0004119873046875
1690838603004787700,10.49878759765625,-0.982574462890625,0.0142974853515625,0.0022735595703125
1690838603014827800,10.508827880859375,-0.9842376708984375,0.013519287109375,0.0040130615234375
1690838603024867600,10.51886767578125,-0.985321044921875,0.012481689453125,0.0037384033203125
1690838603034908400,10.528908447265625,-0.9833984375,0.010894775390625,0.00286865234375
1690838603044948500,10.538948486328126,-0.9822998046875,0.010894775390625,0.000274658203125
1690838603054988500,10.548988525390625,-0.9830169677734375,0.0120086669921875,-0.001617431640625
1690838603065028600,10.559028564453126,-0.9825592041015625,0.014251708984375,-0.00311279296875
1690838603075099600,10.569099609375,-0.980133056640625,0.0151519775390625,-0.0023345947265625
1690838603085140700,10.579140625,-0.9802703857421875,0.0173187255859375,-0.00152587890625
1690838603095180800,10.589180908203126,-0.9794158935546875,0.017852783203125,0.00054931640625
1690838603105220600,10.599220703125,-0.9807281494140625,0.0187530517578125,0.0023193359375
1690838603115260700,10.6092607421875,-0.981353759765625,0.019927978515625,0.0032806396484375
1690838603125301500,10.619301513671875,-0.98236083984375,0.019866943359375,0.0029754638671875
1690838603135341600,10.629341552734376,-0.98101806640625,0.0186767578125,0.00274658203125
1690838603145381600,10.639381591796875,-0.979217529296875,0.0168609619140625,0.0003814697265625
1690838603155422700,10.649422607421876,-0.9810791015625,0.015655517578125,-0.00177001953125
1690838603165462800,10.659462890625,-0.980804443359375,0.014892578125,-0.00238037109375
1690838603175502600,10.669502685546876,-0.98101806640625,0.0135955810546875,-0.00164794921875
1690838603185542700,10.679542724609375,-0.98309326171875,0.013092041015625,-0.0017547607421875
1690838603195583500,10.68958349609375,-0.9826507568359375,0.0138092041015625,0.0003509521484375
1690838603205623600,10.69962353515625,-0.9832000732421875,0.0137786865234375,0.002105712890625
1690838603215663600,10.70966357421875,-0.9828948974609375,0.0135040283203125,0.0035552978515625
1690838603225704700,10.71970458984375,-0.9835357666015625,0.01409912109375,0.00396728515625
1690838603235744800,10.729744873046876,-0.983001708984375,0.0147247314453125,0.0028228759765625
1690838603245784600,10.73978466796875,-0.9818878173828125,0.01580810546875,0.001007080078125
1690838603255855600,10.749855712890625,-0.980377197265625,0.016021728515625,-0.00048828125
1690838603265895700,10.759895751953126,-0.980621337890625,0.01666259765625,-0.001739501953125
1690838603275935700,10.769935791015625,-0.9795379638671875,0.0170135498046875,-0.001190185546875
1690838603285976600,10.7799765625,-0.980133056640625,0.01715087890625,-0.001220703125
1690838603296016600,10.7900166015625,-0.9814300537109375,0.016998291015625,-0.0003814697265625
1690838603306056700,10.800056640625,-0.9799346923828125,0.016448974609375,0.001068115234375
1690838603316097800,10.810097900390625,-0.981536865234375,0.016326904296875,0.0018157958984375
1690838603326137600,10.8201376953125,-0.982391357421875,0.0156097412109375,0.001861572265625
1690838603336177700,10.830177734375,-0.9822998046875,0.0155792236328125,0.0018768310546875
1690838603346217700,10.8402177734375,-0.98187255859375,0.0153045654296875,0.0012054443359375
1690838603356258600,10.850258544921875,-0.98187255859375,0.0146331787109375,0.00048828125
1690838603366298600,10.860298583984376,-0.982208251953125,0.0140533447265625,-0.00042724609375
1690838603376338700,10.870338623046875,-0.9817962646484375,0.013885498046875,0.0004425048828125
1690838603386379800,10.8803798828125,-0.9813232421875,0.01422119140625,0.001068115234375
1690838603396419600,10.890419677734375,-0.98193359375,0.015045166015625,0.00115966796875
1690838603406459600,10.900459716796876,-0.982025146484375,0.0155181884765625,0.001434326171875
1690838603416499700,10.910499755859375,-0.98150634765625,0.0162200927734375,0.0020751953125
1690838603426570800,10.92057080078125,-0.981964111328125,0.0158233642578125,0.00152587890625
1690838603436610800,10.93061083984375,-0.9807891845703125,0.0164337158203125,0.0019683837890625
1690838603446651600,10.940651611328125,-0.98101806640625,0.0160980224609375,0.000091552734375
1690838603456691700,10.950691650390626,-0.981048583984375,0.0155487060546875,-0.001068115234375
1690838603466731500,10.9607314453125,-0.9801025390625,0.016815185546875,-0.0001373291015625
1690838603476772600,10.970772705078126,-0.9803619384765625,0.015716552734375,0.000152587890625
1690838603486812700,10.980812744140625,-0.9819488525390625,0.016693115234375,0.0003204345703125
1690838603496852700,10.990852783203126,-0.9813079833984375,0.016876220703125,0.0008544921875
1690838603506892800,11.000892822265625,-0.9814300537109375,0.0153045654296875,0.0012969970703125
1690838603516933600,11.01093359375,-0.9815521240234375,0.01458740234375,0.0011749267578125
1690838603526973700,11.0209736328125,-0.9828033447265625,0.0144500732421875,0.0008697509765625
1690838603537013500,11.031013427734376,-0.9826812744140625,0.0146484375,0.0012054443359375
1690838603547054600,11.0410546875,-0.9811248779296875,0.01470947265625,0.000152587890625
1690838603557094700,11.0510947265625,-0.9810028076171875,0.014434814453125,0.00048828125
1690838603567134700,11.061134765625,-0.980987548828125,0.0146026611328125,0
1690838603577174800,11.0711748046875,-0.9801483154296875,0.0159149169921875,0.0001068115234375
1690838603587215600,11.081215576171875,-0.9818572998046875,0.0163421630859375,0.0004730224609375
1690838603597255700,11.091255615234376,-0.9811553955078125,0.01702880859375,0.0005950927734375
1690838603607326700,11.10132666015625,-0.981201171875,0.017059326171875,0.0008392333984375
1690838603617366500,11.111366455078125,-0.98028564453125,0.0159759521484375,0.000762939453125
1690838603627406600,11.121406494140626,-0.9811859130859375,0.016815185546875,0.001617431640625
1690838603637447700,11.13144775390625,-0.980682373046875,0.0163421630859375,0.0011749267578125
1690838603647487700,11.14148779296875,-0.980712890625,0.0168914794921875,0.0001373291015625
1690838603657527800,11.15152783203125,-0.9812774658203125,0.0164337158203125,-0.0002288818359375
1690838603667568600,11.161568603515626,-0.98187255859375,0.0159454345703125,-0.00006103515625
1690838603677608700,11.171608642578125,-0.980987548828125,0.0156402587890625,-0.0001220703125
1690838603687648500,11.1816484375,-0.9813385009765625,0.015625,-0.000213623046875
1690838603697688600,11.1916884765625,-0.98162841796875,0.0150146484375,0.001434326171875
1690838603707729700,11.201729736328126,-0.981903076171875,0.0149688720703125,0.000701904296875
1690838603717769700,11.211769775390625,-0.9822998046875,0.015167236328125,0.0007171630859375
1690838603727809800,11.221809814453126,-0.9815673828125,0.015472412109375,0.0008392333984375
1690838603737820400,11.2318203125,-0.9823760986328125,0.016845703125,0.0009002685546875
1690838603747860200,11.241860107421875,-0.9816131591796875,0.0157623291015625,0.0012054443359375
1690838603757900300,11.251900390625,-0.980133056640625,0.0155792236328125,0.0011444091796875
1690838603767940400,11.2619404296875,-0.9803924560546875,0.016265869140625,0.0009002685546875
1690838603778011400,11.272011474609375,-0.980712890625,0.015594482421875,0.0004119873046875
1690838603788051500,11.282051513671876,-0.98101806640625,0.0153350830078125,0.0003204345703125
1690838603798092300,11.29209228515625,-0.982025146484375,0.01593017578125,0.0003662109375
1690838603808132400,11.30213232421875,-0.9809417724609375,0.0155792236328125,0.00091552734375
1690838603818172200,11.312172119140625,-0.9800872802734375,0.0154876708984375,0.0006866455078125
1690838603828213200,11.322213134765626,-0.9813232421875,0.015472412109375,0.0004730224609375
1690838603838253300,11.33225341796875,-0.9815826416015625,0.0153045654296875,0.0000762939453125
1690838603848293400,11.34229345703125,-0.9823760986328125,0.0153045654296875,0.0008544921875
1690838603858333400,11.35233349609375,-0.9821014404296875,0.0154266357421875,0.001617431640625
1690838603868374300,11.362374267578126,-0.9819488525390625,0.0155487060546875,0.001495361328125
1690838603878414300,11.372414306640625,-0.9824066162109375,0.01556396484375,0.0002593994140625
1690838603888454100,11.3824541015625,-0.981536865234375,0.0162353515625,0.0001678466796875
1690838603898495200,11.3924951171875,-0.9818267822265625,0.0157318115234375,0.000518798828125
1690838603908535300,11.402535400390626,-0.98211669921875,0.0149993896484375,0.001312255859375
1690838603918575400,11.412575439453125,-0.9821014404296875,0.0157012939453125,0.0009002685546875
1690838603928615400,11.422615478515626,-0.9805145263671875,0.0159454345703125,0.0004730224609375
1690838603938656300,11.43265625,-0.981201171875,0.0160675048828125,0.0003814697265625
1690838603948696300,11.4426962890625,-0.9814300537109375,0.015869140625,0.001678466796875
1690838603958767400,11.452767333984376,-0.9813995361328125,0.0161285400390625,0.0008544921875
1690838603968807200,11.46280712890625,-0.98162841796875,0.0163726806640625,0.00067138671875
1690838603978847200,11.47284716796875,-0.9821014404296875,0.015594482421875,0.0013580322265625
1690838603988888300,11.482888427734375,-0.981689453125,0.0149688720703125,0.0013580322265625
1690838603998928400,11.492928466796876,-0.9820709228515625,0.015380859375,0.00018310546875
1690838604008968400,11.502968505859375,-0.9813232421875,0.0156097412109375,0.000518798828125
1690838604019008500,11.513008544921876,-0.9810333251953125,0.015838623046875,0.000762939453125
1690838604029049300,11.52304931640625,-0.9814453125,0.015045166015625,0.001007080078125
1690838604039089200,11.533089111328126,-0.982086181640625,0.0153045654296875,0.0009002685546875
1690838604049129200,11.543129150390625,-0.9823760986328125,0.01593017578125,0.001922607421875
1690838604059170300,11.55317041015625,-0.9826507568359375,0.0159912109375,0.0008392333984375
1690838604069210400,11.56321044921875,-0.9815673828125,0.015716552734375,0.0001220703125
1690838604079250400,11.57325048828125,-0.9818267822265625,0.0155487060546875,0.0011444091796875
1690838604089290500,11.58329052734375,-0.9811248779296875,0.016357421875,0.00048828125
1690838604099331300,11.593331298828126,-0.981658935546875,0.0162353515625,-0.00006103515625
1690838604109371100,11.60337109375,-0.9820404052734375,0.01580810546875,0.000579833984375
1690838604119411200,11.6134111328125,-0.9816131591796875,0.0154571533203125,0.000762939453125
1690838604129482200,11.623482177734376,-0.982025146484375,0.015625,0.001495361328125
1690838604139522300,11.633522216796875,-0.9825439453125,0.0161285400390625,0.0006103515625
1690838604149563400,11.6435634765625,-0.9806671142578125,0.0158538818359375,0.0001220703125
1690838604159603500,11.653603515625,-0.981292724609375,0.0155792236328125,0.0005950927734375
1690838604169643500,11.6636435546875,-0.9803009033203125,0.01507568359375,0.0010528564453125
1690838604179684400,11.673684326171875,-0.9816436767578125,0.0152740478515625,-0.000091552734375
1690838604189724200,11.68372412109375,-0.981719970703125,0.015594482421875,0.0006103515625
1690838604199764200,11.69376416015625,-0.981353759765625,0.0153045654296875,0.00054931640625
1690838604209804300,11.70380419921875,-0.9815216064453125,0.015411376953125,0.001068115234375
1690838604219845400,11.713845458984375,-0.981658935546875,0.0155792236328125,0.0004730224609375
1690838604229885400,11.723885498046876,-0.98175048828125,0.016357421875,0.001861572265625
1690838604239925500,11.733925537109375,-0.982269287109375,0.01568603515625,0.00091552734375
1690838604249966300,11.74396630859375,-0.982086181640625,0.0154571533203125,0.0008544921875
1690838604260006100,11.754006103515625,-0.9817962646484375,0.01593017578125,0.0011138916015625
1690838604270046200,11.764046142578126,-0.982147216796875,0.01641845703125,0.0003814697265625
1690838604280086300,11.774086181640625,-0.9819183349609375,0.0152740478515625,-0.000091552734375
1690838604290127400,11.78412744140625,-0.981719970703125,0.015167236328125,0.0008697509765625
1690838604300197400,11.794197265625,-0.9805145263671875,0.0155029296875,0.001556396484375
1690838604310238500,11.804238525390625,-0.98126220703125,0.0153656005859375,0.000640869140625
1690838604320278500,11.814278564453126,-0.9823150634765625,0.015655517578125,0.0001678466796875
1690838604330318300,11.824318359375,-0.982666015625,0.0161895751953125,0.00128173828125
1690838604340359200,11.834359130859376,-0.981292724609375,0.0157623291015625,0.0017852783203125
1690838604350399200,11.844399169921875,-0.981353759765625,0.016265869140625,0.0019683837890625
1690838604360439300,11.854439208984376,-0.98126220703125,0.016204833984375,0.0009613037109375
1690838604370479400,11.864479248046875,-0.9813995361328125,0.0159454345703125,0.001007080078125
1690838604380520400,11.8745205078125,-0.981170654296875,0.01605224609375,0.0006561279296875
1690838604390560500,11.884560546875,-0.98138427734375,0.0157470703125,0.0012969970703125
1690838604400600300,11.894600341796876,-0.981109619140625,0.0159149169921875,0.000335693359375
1690838604410641200,11.90464111328125,-0.9806976318359375,0.0148468017578125,-0.00006103515625
1690838604420681200,11.91468115234375,-0.9830780029296875,0.0151519775390625,-0.000213623046875
1690838604430721300,11.92472119140625,-0.9824371337890625,0.015838623046875,0.00103759765625
1690838604440761300,11.93476123046875,-0.9805755615234375,0.016143798828125,0.0003814697265625
1690838604450802400,11.944802490234375,-0.9811248779296875,0.0156707763671875,0.0003814697265625
1690838604460842500,11.954842529296876,-0.9824981689453125,0.0155487060546875,0.00128173828125
1690838604470882300,11.96488232421875,-0.9827880859375,0.015960693359375,0.0013580322265625
1690838604480953300,11.974953369140625,-0.9824981689453125,0.0155487060546875,0.0013885498046875
1690838604490993200,11.9849931640625,-0.98138427734375,0.0159759521484375,0.0006256103515625
1690838604501034200,11.9950341796875,-0.981597900390625,0.0161590576171875,-0.000640869140625
1690838604511074300,12.00507421875,-0.9813385009765625,0.0160369873046875,-0.000335693359375
1690838604521114400,12.0151142578125,-0.9814453125,0.0163726806640625,-0.00042724609375
1690838604531154400,12.025154541015626,-0.981414794921875,0.015869140625,-0.0009002685546875
1690838604541195500,12.035195556640625,-0.9815521240234375,0.01593017578125,-0.000091552734375
1690838604551235000,12.045235107421876,-0.98028564453125,0.015533447265625,0.0005645751953125
1690838604561275100,12.055275146484375,-0.9815826416015625,0.0160980224609375,0.00146484375
1690838604571316200,12.065316162109376,-0.9822235107421875,0.0164642333984375,0.0020904541015625
1690838604581356300,12.075356201171875,-0.9825286865234375,0.0159912109375,0.0024261474609375
1690838604591396400,12.085396240234376,-0.9824066162109375,0.016204833984375,0.0021820068359375
1690838604601436400,12.0954365234375,-0.9820098876953125,0.0162353515625,0.0017547607421875
1690838604611477200,12.105477294921876,-0.9823150634765625,0.0161590576171875,0.00030517578125
1690838604621517000,12.11551708984375,-0.9817962646484375,0.014984130859375,-0.0010528564453125
1690838604631557000,12.12555712890625,-0.98162841796875,0.015228271484375,-0.0016937255859375
1690838604641598200,12.13559814453125,-0.9816131591796875,0.0154266357421875,-0.0006866455078125
1690838604651668200,12.145668212890625,-0.98040771484375,0.01519775390625,-0.0007476806640625
1690838604661709300,12.155709228515626,-0.980743408203125,0.0152435302734375,-0.0006256103515625
1690838604671749400,12.165749267578125,-0.9810028076171875,0.015655517578125,0.0006866455078125
1690838604681789400,12.17578955078125,-0.981414794921875,0.0162811279296875,0.0012969970703125
1690838604691830300,12.185830322265625,-0.9821929931640625,0.016937255859375,0.001373291015625
1690838604701870000,12.1958701171875,-0.9818878173828125,0.0165863037109375,0.0023345947265625
1690838604711910100,12.20591015625,-0.981048583984375,0.0164794921875,0.002044677734375
1690838604721950200,12.2159501953125,-0.981842041015625,0.0157928466796875,0.0012359619140625
1690838604732007000,12.2260068359375,-0.9820098876953125,0.015869140625,0.0001983642578125
1690838604742046700,12.236046630859375,-0.9825286865234375,0.0156707763671875,-0.0003662109375
1690838604752086800,12.246086669921874,-0.9804840087890625,0.0149993896484375,-0.001312255859375
1690838604762128000,12.2561279296875,-0.9812774658203125,0.01519775390625,-0.000701904296875
1690838604772167700,12.266167724609375,-0.982513427734375,0.0157928466796875,-0.00006103515625
1690838604782207700,12.276207763671875,-0.9809722900390625,0.0153350830078125,0.00103759765625
1690838604792247800,12.286247802734374,-0.9814605712890625,0.016143798828125,0.001953125
1690838604802289000,12.296288818359375,-0.9829254150390625,0.0159759521484375,0.0017852783203125
1690838604812328700,12.30632861328125,-0.9815521240234375,0.0165557861328125,0.00250244140625
1690838604822368800,12.31636865234375,-0.981842041015625,0.01617431640625,0.0016326904296875
1690838604832439800,12.326439697265625,-0.982025146484375,0.016326904296875,0.0017242431640625
1690838604842479600,12.336479736328124,-0.981170654296875,0.015533447265625,0.0002288818359375
1690838604852520700,12.346520751953125,-0.9815216064453125,0.015777587890625,-0.0007476806640625
1690838604862560800,12.356560791015625,-0.9808349609375,0.016357421875,-0.0003814697265625
1690838604872600800,12.366600830078125,-0.98065185546875,0.015716552734375,-0.000732421875
1690838604882641000,12.376640869140624,-0.9823760986328125,0.0159454345703125,-0.0004119873046875
1690838604892681700,12.386681640625,-0.982330322265625,0.0157928466796875,0.0008544921875
1690838604902721800,12.3967216796875,-0.98150634765625,0.0157623291015625,0.001312255859375
1690838604912761600,12.40676171875,-0.9824981689453125,0.0164947509765625,0.0012969970703125
1690838604922802700,12.416802734375,-0.9816741943359375,0.0156097412109375,0.0008087158203125
1690838604932842800,12.4268427734375,-0.981414794921875,0.0159759521484375,0.0005950927734375
1690838604942882800,12.4368828125,-0.981842041015625,0.015716552734375,0.00048828125
1690838604952923000,12.4469228515625,-0.9812164306640625,0.0162353515625,0.0002593994140625
1690838604962963700,12.456963623046875,-0.9803924560546875,0.01654052734375,0.0006561279296875
1690838604973003800,12.467003662109375,-0.981109619140625,0.0158233642578125,0.0003509521484375
1690838604983043800,12.4770439453125,-0.9822235107421875,0.0157012939453125,0.00048828125
1690838604993085000,12.4870849609375,-0.98175048828125,0.0157470703125,0.000396728515625
1690838605003154700,12.49715478515625,-0.980865478515625,0.01568603515625,0.000579833984375
1690838605013195800,12.50719580078125,-0.9812774658203125,0.0159912109375,0.0001373291015625
1690838605023235800,12.51723583984375,-0.9816131591796875,0.015899658203125,0.000274658203125
1690838605033276000,12.52727587890625,-0.9814605712890625,0.0157928466796875,0.00042724609375
1690838605043316000,12.53731591796875,-0.9815216064453125,0.01556396484375,0.0014495849609375
1690838605053356800,12.547356689453125,-0.982666015625,0.0149688720703125,0.0009002685546875
1690838605063396600,12.557396728515625,-0.9822540283203125,0.0149383544921875,0.0001678466796875
1690838605073436700,12.567436767578124,-0.980926513671875,0.0161285400390625,0.0006103515625
1690838605083477800,12.577477783203125,-0.9815521240234375,0.0154876708984375,0.0005950927734375
1690838605093517800,12.587517822265625,-0.980865478515625,0.0152130126953125,0.0005340576171875
1690838605103558000,12.597557861328125,-0.981048583984375,0.0162353515625,0.0003662109375
1690838605113598000,12.607597900390624,-0.9813079833984375,0.016387939453125,0.00042724609375
1690838605123638800,12.617638671875,-0.980987548828125,0.016387939453125,0.0005950927734375
1690838605133678800,12.627678955078125,-0.98193359375,0.0158233642578125,0.000640869140625
1690838605143718700,12.63771875,-0.982025146484375,0.01580810546875,0.0000457763671875
1690838605153759700,12.647759765625,-0.980926513671875,0.01617431640625,-0.000091552734375
1690838605163799800,12.6577998046875,-0.981292724609375,0.0168914794921875,0.0006866455078125
1690838605173840000,12.66783984375,-0.9810791015625,0.0153656005859375,0.0009002685546875
1690838605183911000,12.677910888671875,-0.9813232421875,0.01605224609375,0.0012969970703125
1690838605193951000,12.687950927734375,-0.9826812744140625,0.0153656005859375,0.000823974609375
1690838605203991800,12.69799169921875,-0.9817047119140625,0.0154571533203125,0.0001220703125
1690838605214031600,12.708031494140625,-0.9813079833984375,0.0160064697265625,0.000640869140625
1690838605224071700,12.71807177734375,-0.982269287109375,0.0158843994140625,0.00091552734375
1690838605234111700,12.72811181640625,-0.9813232421875,0.015472412109375,-0.0000762939453125
1690838605244152800,12.73815283203125,-0.981201171875,0.0160980224609375,0.000152587890625
1690838605254193000,12.74819287109375,-0.981292724609375,0.0157470703125,0.0010833740234375
1690838605264233000,12.75823291015625,-0.981048583984375,0.01593017578125,0.000244140625
1690838605274273000,12.76827294921875,-0.982147216796875,0.0149078369140625,0.0007171630859375
1690838605284313900,12.77831396484375,-0.9819183349609375,0.015777587890625,0.001708984375
1690838605294353700,12.788353759765625,-0.981964111328125,0.016204833984375,0.0009765625
1690838605304393700,12.798393798828124,-0.981964111328125,0.0158233642578125,0.00018310546875
1690838605314434800,12.808434814453125,-0.9820404052734375,0.01556396484375,0.000762939453125
1690838605324475000,12.818474853515625,-0.98114013671875,0.01580810546875,0.00042724609375
1690838605334515000,12.828514892578125,-0.9819488525390625,0.0162811279296875,-0.0002899169921875
1690838605344555000,12.838554931640624,-0.9831085205078125,0.0156402587890625,-0.0005035400390625
1690838605354625800,12.848625732421874,-0.9817657470703125,0.0162200927734375,-0.0001678466796875
1690838605364666600,12.85866650390625,-0.981536865234375,0.0163726806640625,0.0001678466796875
1690838605374706700,12.868706787109375,-0.980499267578125,0.0158843994140625,0.00054931640625
1690838605384746800,12.878746826171875,-0.9813690185546875,0.016082763671875,0.00140380859375
1690838605394786800,12.888786865234374,-0.9823455810546875,0.016143798828125,0.0010833740234375
1690838605404828000,12.898827880859375,-0.9812164306640625,0.01513671875,0.00103759765625
1690838605414868000,12.908867919921875,-0.982269287109375,0.0157623291015625,0.00042724609375
1690838605424907800,12.91890771484375,-0.98138427734375,0.0155181884765625,0.0006256103515625
1690838605434948600,12.928948486328125,-0.9816131591796875,0.0157623291015625,0.0005035400390625
1690838605444988700,12.93898876953125,-0.981201171875,0.0167083740234375,0.000274658203125
1690838605455028700,12.94902880859375,-0.981231689453125,0.015899658203125,-0.0002899169921875
1690838605465068800,12.95906884765625,-0.9821929931640625,0.01544189453125,0.00054931640625
1690838605475110000,12.96910986328125,-0.982635498046875,0.01556396484375,0.00006103515625
1690838605485150000,12.97914990234375,-0.9818115234375,0.0157623291015625,0.000885009765625
1690838605495190000,12.98918994140625,-0.982025146484375,0.0149688720703125,0.0015869140625
1690838605505230800,12.99923095703125,-0.98175048828125,0.01531982421875,0.0010223388671875
1690838605515270700,13.009270751953125,-0.9810791015625,0.0160675048828125,0.0012969970703125
1690838605525310700,13.019310791015625,-0.981597900390625,0.015472412109375,0.000518798828125
1690838605535381800,13.0293818359375,-0.9807891845703125,0.015869140625,0.0006103515625
1690838605545421800,13.039421875,-0.981597900390625,0.0159149169921875,0.00103759765625
1690838605555462000,13.0494619140625,-0.982513427734375,0.0154876708984375,0.000396728515625
1690838605565503000,13.0595029296875,-0.9823760986328125,0.0162506103515625,0.0003509521484375
