time,seconds_elapsed,z,y,x
1690838592701706000,0.1957060546875,0.12587678894400595,-0.28602654396574945,0.05458767729392275
1690838592711746000,0.20574609375,0.1360392865180969,-0.3135924866855144,0.037822349671984556
1690838592721791700,0.215791748046875,0.15645429803729055,-0.2881677207129076,0.01605941012557596
1690838592731832800,0.225832763671875,0.17142098102271555,-0.23584000597391278,-0.010957538675609975
1690838592741873000,0.235872802734375,0.21298340998888016,-0.1458015692608431,-0.019136310519999825
1690838592751913000,0.245912841796875,0.2475017656624317,-0.04650567578831687,-0.002983144567455747
1690838592761952800,0.255952880859375,0.2724626039177179,0.036796785466931756,0.01292557364583481
1690838592771993900,0.265993896484375,0.29313071341514585,0.09594956045299768,0.01751805710182525
1690838592782033700,0.27603369140625,0.308777779880166,0.4358049079030752,-0.03571289465378504
1690838592792104700,0.286104736328125,0.3145037563115358,0.48740094736665485,-0.03439855608562939
1690838592802144800,0.296144775390625,0.31910511262714863,0.46698958910927174,-0.043218132884474465
1690838592812184800,0.306184814453125,0.30177111598849293,0.4269421678159386,-0.044487824026728046
1690838592822226000,0.316225830078125,0.2726075653463602,0.3378617624800652,-0.0512853204134386
1690838592832265700,0.326265625,0.2537719319730997,0.23122759854132308,-0.04148986148687545
1690838592842305500,0.336305419921875,0.2216641445726156,0.11355414506080559,-0.00959341071555391
1690838592852345600,0.346345703125,0.19360592482388017,0.008896384345123078,0.005954022166738286
1690838592862386700,0.35638671875,0.16736089197695253,-0.07315253090178593,0.02688386047342792
1690838592872426800,0.3664267578125,0.16061083319485187,-0.11360300743752158,0.03086979972088011
1690838592882466800,0.376466796875,0.16233692633509636,-0.1261514320337679,0.015714671216468558
1690838592892508000,0.3865078125,0.1852922699868679,-0.10163221833244897,0.0028605085642309856
1690838592902547700,0.396547607421875,0.21128829650878905,-0.058075135817192494,-0.018723786479642148
1690838592912587500,0.40658740234375,0.24155659352242945,0.003991553854197263,-0.01909764987688977
1690838592922627600,0.416627685546875,0.2641419348180294,0.06089975565071217,-0.010425685404788236
1690838592932668700,0.426668701171875,0.27588673314750195,0.0991168105785735,-0.007233896776288748
1690838592942708700,0.436708740234375,0.2757125456243753,0.13428779407511465,0.0054284890388487834
1690838592952748800,0.446748779296875,0.2607341722011566,0.14699896235186605,0.004032060536165954
1690838592962819800,0.45681982421875,0.2622071673631668,0.1381603977247607,-0.008521541417052502
1690838592972860000,0.46685986328125,0.2591583011865616,0.11620866902442649,-0.011767929184954845
1690838592982900700,0.476900634765625,0.23212942448556423,0.07157119826078415,-0.02029379172574263
1690838592992940500,0.4869404296875,0.23393968877792357,0.024909564725775272,-0.0143928149204934
1690838593002980600,0.496980712890625,0.19591186367869376,-0.025895105164404957,-0.005389933427015785
1690838593013020700,0.507020751953125,0.20184885251224038,-0.06426825483627617,-0.0007280756708874833
1690838593023061800,0.517061767578125,0.17453823626041412,-0.08011525518703273,0.013962405880284495
1690838593033101800,0.527101806640625,0.1947948423475027,-0.0719074262115173,0.005456957081507425
1690838593043142000,0.537141845703125,0.18766484433710573,-0.05182513551171869,0.014778492053120863
1690838593053182700,0.5471826171875,0.21331366485655306,-0.0262545495939441,0.007747230293019674
1690838593063222500,0.557222412109375,0.22582009520828722,0.004128204112220556,-0.0021498018699639943
1690838593073262600,0.5672626953125,0.23267302984297275,0.04374298787564039,-0.012105162924330216
1690838593083302700,0.577302734375,0.2590168468892574,0.06779552478012628,-0.02037317938817432
1690838593093343700,0.58734375,0.23272154515981672,0.08132322447099723,-0.025223293150332754
1690838593103383800,0.5973837890625,0.2540256144732237,0.08807745710471644,-0.018174890742474234
1690838593113424000,0.607423828125,0.2455547232478857,0.08111973778815008,0.00207751866010949
1690838593123464700,0.617464599609375,0.23423194972276687,0.063760122651048,-0.0017539629612816497
1690838593133504800,0.6275048828125,0.22409341754615306,0.03700841892361641,0.0027578793068183585
1690838593143575600,0.637575439453125,0.21049568482637404,0.0051527157212141895,0.009430459255783353
1690838593153615600,0.64761572265625,0.20226210948824883,-0.016302845226321368,0.008103932492912282
1690838593163655700,0.65765576171875,0.1922153472483158,-0.04229094417011365,0.005368833556771278
1690838593173696800,0.66769677734375,0.19966332516670227,-0.05528538636765443,-0.0008135665638314093
1690838593183736800,0.67773681640625,0.20021686739623545,-0.039152536546532064,-0.0053843861772853415
1690838593193777000,0.68777685546875,0.2080962224692106,-0.0208060657965485,0.004283623002795502
1690838593203816700,0.697816650390625,0.21448446220159528,-0.01556387256043963,0.0028785956351261117
1690838593213857500,0.707857421875,0.22238076840937138,0.012833570813713594,-0.0024137991264811713
1690838593223897600,0.717897705078125,0.22774901744425297,0.03569982054308057,0.0035165476204361765
1690838593233937700,0.727937744140625,0.2281961766898632,0.04082685383376665,0.0030185852027731015
1690838593243978800,0.737978759765625,0.23734219069778917,0.05098388064829632,-0.01162427151412121
1690838593254018800,0.748018798828125,0.2363251226097345,0.052682537792343644,-0.00003543892285088077
1690838593264059000,0.758058837890625,0.2336632099241018,0.040156443758914244,-0.0000037423100671730932
1690838593274099000,0.768098876953125,0.21423779396414755,0.02809291660278104,-0.009896239861828507
1690838593284139800,0.778139892578125,0.21411095271408556,0.011254859388060867,-0.005572270007268525
1690838593294179600,0.7881796875,0.20768822619020938,-0.006988242318993434,-0.0010874242023041006
1690838593304219600,0.7982197265625,0.1979582748144865,-0.014408199719293042,0.0019678477405570445
1690838593314290700,0.808290771484375,0.198393743622303,-0.023745315852528436,-0.0019695156829024198
1690838593324330800,0.818330810546875,0.21094050598442554,-0.025575673084845766,0.002276846332714194
1690838593334371800,0.828371826171875,0.19594576594829557,-0.018245019669504835,-0.0014635720298276282
1690838593344412000,0.838411865234375,0.20624270355701446,0.001126346281962469,-0.0015584769217995926
1690838593354451700,0.84845166015625,0.2107072817504406,0.010050041042407974,-0.004479542867117561
1690838593364491800,0.85849169921875,0.2186240462243557,0.02017905647200532,-0.001193973866297165
1690838593374532600,0.86853271484375,0.22640344805419443,0.031424362580431624,-0.002108259716600878
1690838593384572700,0.87857275390625,0.21294307797849177,0.033631818629987535,0.0016870854372624308
1690838593394612700,0.88861279296875,0.22208792294263838,0.029814059573272243,0.006014755361049901
1690838593404653800,0.89865380859375,0.21971476407051085,0.01762796548339538,0.0011945207139244303
1690838593414694000,0.90869384765625,0.20117840590476987,0.016686191121255977,-0.0012409765044227243
1690838593424734000,0.91873388671875,0.2041834329396486,0.0013403178262058645,0.0015141993886558338
1690838593434773800,0.928773681640625,0.1993997057944536,-0.004892366018285975,0.007345695720845833
1690838593444814600,0.938814697265625,0.21136779148578644,-0.014245364707242697,-0.0022590195567230693
1690838593454854700,0.948854736328125,0.19429916778504847,-0.017095009384164587,-0.005992347166419495
1690838593464894700,0.958894775390625,0.19802549483180046,-0.010174489405984059,-0.010341901270096423
1690838593474935800,0.968935791015625,0.20204992804229258,-0.011203850720031187,-0.0037789956656168215
1690838593484975900,0.978975830078125,0.20233459020256994,0.001899687008326873,-0.001375818397849798
1690838593495047000,0.989046875,0.20157529626786708,0.01486599908992648,-0.0009747747327317483
1690838593505086700,0.999086669921875,0.2241653137385845,0.015833437616284935,-0.0027829909151885655
1690838593515126800,1.009126708984375,0.2163841583430767,0.0155240063409321,-0.0025036282678251153
1690838593525166800,1.019166748046875,0.205465873965621,0.02473865600512363,0.0038057032927405086
1690838593535207700,1.029207763671875,0.211609199026227,0.02457856093943119,-0.0026053875922691077
1690838593545247700,1.039247802734375,0.20757541346549988,0.013524356956314295,0.003183672679058509
1690838593555287800,1.049287841796875,0.2006990979552269,0.011087028540484607,0.0012409239887841976
1690838593565329000,1.059328857421875,0.20788813267648218,-0.0032546270149294283,0.0006600473693979439
1690838593575368700,1.06936865234375,0.20639467924833296,-0.005389885477954521,0.002526230541989207
1690838593585408800,1.07940869140625,0.1983148331671953,-0.015667460799077524,0.0047796743078739375
1690838593595448800,1.08944873046875,0.19472353067696094,-0.01376992921521887,-0.008270880849432432
1690838593605489700,1.09948974609375,0.1978618287026882,-0.015129362733848392,-0.011119899905269267
1690838593615529700,1.10952978515625,0.19935002143383024,-0.014552193033555521,-0.01143762979315361
1690838593625569800,1.11956982421875,0.19095920970737934,-0.0050829292874783275,-0.019906527707516216
1690838593635611000,1.12961083984375,0.2038140151053667,0.003339455754170194,-0.01318545755788218
1690838593645651000,1.13965087890625,0.2063449948877096,0.009124825089424847,-0.005114428395795402
1690838593655690800,1.149690673828125,0.20558862356245516,0.02174256119537167,0.016717424226447473
1690838593665761800,1.15976171875,0.202893977651,0.025405111424066124,0.02325737250538077
1690838593675801900,1.1698017578125,0.20304887595176696,0.024613924513757227,0.029622032716067042
1690838593685842700,1.1798427734375,0.20021862096190451,0.017750486751366406,0.026369595374935304
1690838593695882800,1.1898828125,0.20652035145461559,0.008187206312594935,0.0029387774152331986
1690838593705922800,1.1999228515625,0.211325705909729,-0.004360158837726339,-0.012104844405566108
1690838593715962600,1.209962646484375,0.2040051537632942,-0.005874170996714383,-0.02111799042308703
1690838593725994800,1.219994873046875,0.20430735158026217,-0.015403256904939188,-0.02483950886398088
1690838593736034800,1.230034912109375,0.19906185214221475,-0.008638064485788344,-0.014491457555955276
1690838593746075000,1.240074951171875,0.19440788885653018,-0.00045447490238584575,-0.008827650507446378
1690838593756116000,1.250115966796875,0.19064473693072795,0.0027344847314991053,0.004971349538629874
1690838593766156000,1.260156005859375,0.20214812771975993,0.0016597316394560038,0.015308178483031223
1690838593776195800,1.27019580078125,0.20647709683477877,0.011665440349793062,0.016557333727332296
1690838593786236000,1.28023583984375,0.2055792712122202,0.01983696503606625,0.013214036340039455
1690838593796276700,1.29027685546875,0.2082797623425722,0.014180902902595698,-0.0008698496286000591
1690838593806316800,1.30031689453125,0.19856910018920898,0.003320093466574326,-0.007492359341162955
1690838593816356900,1.31035693359375,0.21220015065670012,0.00046692339200526473,-0.01464589463241864
1690838593826397000,1.32039697265625,0.20832126339673995,-0.0012028090516570955,-0.024115160661784464
1690838593836468000,1.330468017578125,0.1936614544034004,0.0023047972104977815,-0.01904015666914638
1690838593846509000,1.340509033203125,0.19290975925326345,-0.0037735363224986936,-0.003950855375983519
1690838593856548900,1.350548828125,0.193796478959918,-0.0059032144281081856,0.004224428745021578
1690838593866589000,1.3605888671875,0.18989070369303226,-0.005218784961057827,0.005884521144081372
1690838593876629000,1.37062890625,0.19032734154462813,0.0031256029409356414,0.006037258312158519
1690838593886669800,1.380669921875,0.18687924691736696,0.009688075862219557,0.012651618967595276
1690838593896710000,1.3907099609375,0.20513561909794806,0.007624348265444859,0.012923147651663748
1690838593906750000,1.40075,0.20394377896487711,0.003969661682797596,0.0012630125230061822
1690838593916791000,1.410791015625,0.1984153709322214,0.0018155249893665312,-0.004180319033592241
1690838593926830800,1.420830810546875,0.2027630447477102,-0.0022089356205891816,-0.011331734291353495
1690838593936871000,1.430870849609375,0.2018710643440485,-0.000876481440430507,-0.020177727598021736
1690838593946911000,1.440910888671875,0.20007658214271068,0.011674774433718994,-0.01672482436490245
1690838593956951800,1.450951904296875,0.19229133509397506,0.006999293435970321,-0.019929995348071678
1690838593966992000,1.460991943359375,0.19393033447265623,-0.000980809464585036,-0.009477247264777543
1690838593977032000,1.471031982421875,0.19511983651816844,-0.0013286913204938171,-0.004704526712431107
1690838593987073000,1.481072998046875,0.20035189195275305,0.007419610340427607,0.004730629268067423
1690838593997113000,1.491113037109375,0.19675883589684962,0.004416546933772042,0.0060975371320324484
1690838594007153000,1.50115283203125,0.19990239461958406,0.0031375308407470583,0.017340500586322742
1690838594017224000,1.511223876953125,0.1967635120719671,0.005939874910376966,0.014261996181635185
1690838594027264000,1.521263916015625,0.1990121677815914,0.005311468213191255,0.011383423379395389
1690838594037303800,1.5313037109375,0.1949737060457468,0.006933333793981001,0.008194935244612862
1690838594047345000,1.541344970703125,0.19138357259929178,0.0068453723827376954,-0.0032824899861006998
1690838594057385000,1.551385009765625,0.19557401002645491,-0.0007328260528855025,-0.007614233296806923
1690838594067424800,1.5614248046875,0.1924292822599411,-0.005865156573196873,-0.004415599368989933
1690838594077465900,1.5714658203125,0.19392448925375938,-0.0038569402896333482,-0.018642360982106764
1690838594087506000,1.581505859375,0.1862941405057907,0.0013332761640660463,-0.010259997423592722
1690838594097546000,1.5915458984375,0.19751696078777312,-0.009684513931954278,-0.0033432848292053673
1690838594107585800,1.601585693359375,0.19512392817139623,-0.005806695251073688,0.008423739031807053
1690838594117627000,1.611626953125,0.19258008890748024,-0.0013176493366714567,0.011070524930255487
1690838594127667000,1.6216669921875,0.18838906695842741,-0.005582448907988146,0.015891880672099068
1690838594137707000,1.63170703125,0.18419629144370556,0.004504818872269243,0.009694631183880847
1690838594147748000,1.641748046875,0.1891296561926603,0.008927704215282575,0.003690799075644463
1690838594157788000,1.651787841796875,0.19091946221888065,0.015492770952451973,-0.004012827254377771
1690838594167828000,1.661827880859375,0.194206813326478,0.014979177140817045,-0.014441732096136547
1690838594177867800,1.67186767578125,0.20093875192999838,0.018768924812600014,-0.020720289492525624
1690838594187938800,1.681938720703125,0.20123802713751793,0.013666596704907715,-0.004286249926366144
1690838594197980000,1.69197998046875,0.20438567751348016,0.017967070377804338,-0.007154891564702848
1690838594208020000,1.70202001953125,0.20364567280113696,0.015481354509294032,-0.0034345821251394225
1690838594218059800,1.712059814453125,0.18300386678874492,0.00711739425715059,0.0030216105602099558
1690838594228099800,1.722099853515625,0.18510639202594756,-0.0032343331455718725,0.0064025148529093705
1690838594238141000,1.732140869140625,0.18960078083574772,-0.013813339098682625,0.013420815525093348
1690838594248181000,1.742180908203125,0.18122165954709052,-0.022020647484390064,0.003085692197299795
1690838594258220800,1.752220703125,0.18600597121417523,-0.02682973739970475,-0.00018265624066116288
1690838594268260900,1.7622607421875,0.18091127842366694,-0.01658386325794272,-0.004564622768107801
1690838594278302000,1.772302001953125,0.1867348700106144,-0.002982258080644533,-0.008409794988133944
1690838594288342000,1.782342041015625,0.1939057845532894,-0.00040435215034522116,-0.007866141681664158
1690838594298381800,1.7923818359375,0.20571955646574497,0.005190718777198344,-0.002535210716177244
1690838594308423000,1.8024228515625,0.19703706831634044,0.011212116224877536,-0.009517815595539287
1690838594318463000,1.812462890625,0.19524258611500261,0.019241748222429304,-0.002044678119721357
1690838594328502800,1.822502685546875,0.1933048960506916,0.008714563788101077,0.00618920432072482
1690838594338542800,1.83254296875,0.20124621044397353,-0.002306285914685577,0.004860278963146265
1690838594348584000,1.842583984375,0.19990882436037063,-0.005185987803153693,0.0023444876167806796
1690838594358624000,1.8526240234375,0.20036475143432617,-0.0015288170024752616,0.004753231542231515
1690838594368694800,1.86269482421875,0.20006956788003444,-0.007257515113893896,0.005593300237209769
1690838594378734800,1.87273486328125,0.1861503481209278,-0.006841207664273679,-0.0011287049191188998
1690838594388775000,1.88277490234375,0.1816542057454586,-0.0006396587435621768,0.002242618694482371
1690838594398815700,1.892815673828125,0.18463585190474985,0.0018258363208267837,0.004284460969723295
1690838594408855800,1.902855712890625,0.1962970636039972,0.006298278160300106,-0.0029452733713900667
1690838594418896000,1.912895751953125,0.2000321584790945,0.010804284342657774,-0.000012242993642576038
1690838594428937000,1.92293701171875,0.19374504103362558,0.012855892243376,-0.004416653106693411
1690838594438976800,1.932976806640625,0.1970388218820095,0.013899327748548239,-0.009549571573827416
1690838594449016800,1.943016845703125,0.20497604462206362,0.0027125834269449115,-0.00292786786215147
1690838594459057000,1.953056884765625,0.1891261490613222,0.0047620359031949186,-0.004631475175952073
1690838594469097700,1.96309765625,0.18973755895793437,0.0007765829962212592,0.0009111497533682267
1690838594479137800,1.9731376953125,0.18645313045978545,-0.00954049321822822,0.0027223079532268457
1690838594489177900,1.983177734375,0.17822773842811584,-0.011025352347968146,0.005287433175410842
1690838594499219000,1.993218994140625,0.1798719985038042,-0.005283319830941036,0.003184226376551669
1690838594509259000,2.003259033203125,0.18764730868041515,-0.005148614934831857,0.002649989352398552
1690838594519298800,2.013298828125,0.19960721106529233,-0.0014757351083680987,-0.002674607770424336
1690838594529339000,2.0233388671875,0.19151684359014032,-0.004771826644847169,0.0005919197448529303
1690838594539410000,2.033409912109375,0.19510054729580878,-0.0026538389770314097,0.0003632712212856859
1690838594549450000,2.043449951171875,0.1931517513155937,0.010431478108046576,-0.001913028263801243
1690838594559490800,2.05349072265625,0.18986089307665824,0.0100370536966715,-0.0037788849261181892
1690838594569531000,2.06353076171875,0.188816936981678,0.007327255881857127,0.009157992140087298
1690838594579570700,2.07357080078125,0.1891214728862047,0.01207603044467978,0.006266978839738294
1690838594589611800,2.08361181640625,0.18718436734378338,0.002183454119460657,0.00939982551385765
1690838594599651800,2.09365185546875,0.17432079411745072,0.006920510845026001,0.00456862423143466
1690838594609692000,2.10369189453125,0.18823884483277797,0.002855964819854125,0.0033482144493609664
1690838594619732000,2.11373193359375,0.18883681072592734,-0.00033924189172685143,-0.0016556285697850398
1690838594629772800,2.123772705078125,0.18494564850628376,0.001687660825997591,-0.011567561474378454
1690838594639812900,2.133812744140625,0.1806038199096918,0.0036279081735759973,-0.01014885949109448
1690838594649853000,2.14385302734375,0.18748598063886165,0.0042681788384914396,-0.0038792971102695442
1690838594659894000,2.15389404296875,0.1904769791483879,-0.00046271300776861606,-0.003854837380803656
1690838594669933800,2.163933837890625,0.19047814819216727,0.002475778996385634,0.0071066787836025465
1690838594679974000,2.173973876953125,0.18494097233116627,-0.000716377241583541,0.006437718597031198
1690838594690014000,2.184013916015625,0.1928729343742132,0.00025501594068482516,0.006163229629251873
1690838594700054800,2.1940546875,0.1841945378780365,-0.004942214775690809,-0.0032958038421114903
1690838594710125800,2.204125732421875,0.1916746645003557,-0.006263517374172806,0.0015098451572353952
1690838594720166000,2.214165771484375,0.20020283887088297,0.01009642833424732,-0.0007924838182516396
1690838594730208300,2.224208251953125,0.1925719056010246,0.0010019892499316483,-0.0038925664421520195
1690838594740248300,2.234248291015625,0.19272271224856374,-0.005190874040825292,-0.00544188280996168
1690838594750289200,2.2442890625,0.18434300643801688,-0.004130660930788144,-0.011006805194413754
1690838594760329200,2.2543291015625,0.18344693438112736,-0.0006968048914335668,-0.016159962731978155
1690838594770369000,2.264369140625,0.18419687596559522,-0.0017457385556306688,0.0013813154152303468
1690838594780409000,2.2744091796875,0.1774625992745161,-0.0035701044385787095,0.0016389171802904455
1690838594790450200,2.2844501953125,0.1767132422119379,-0.0038046621131245044,-0.0016015854111639783
1690838594800490200,2.294490234375,0.19062603223025798,0.00643649932090193,0.00024787153055658563
1690838594810530300,2.3045302734375,0.19226912326216697,0.011870297005819156,-0.006314173274108907
1690838594820571100,2.314571044921875,0.17924714460372923,0.009051312328642234,-0.007404934502748073
1690838594830611200,2.324611083984375,0.18418284744024277,0.007196295579103753,-0.00808573810745147
1690838594840651000,2.334651123046875,0.18732523711919782,0.005547432393534109,-0.008548196528537664
1690838594850691000,2.344691162109375,0.19136837503015994,0.005611391874682158,-0.0056801907860848586
1690838594860732200,2.354732177734375,0.19182137949466704,0.0027912381537258625,-0.006380414902244228
1690838594870772200,2.364772216796875,0.19691314967572687,-0.004982227125670761,-0.0038770469293231144
1690838594880812300,2.374812255859375,0.19033201771974562,-0.004768410845054314,0.0035003180048428476
1690838594890883300,2.38488330078125,0.18045885848104953,-0.00756214234996587,0.0013690781298093496
1690838594900923100,2.394923095703125,0.17986147710978984,-0.008402136838063597,0.0006556360557617154
1690838594910964200,2.404964111328125,0.18225275616049766,-0.005028386088646948,0.0034219738053157924
1690838594921004000,2.415004150390625,0.189579738047719,-0.0036139892460778354,-0.004277305143151898
1690838594931044000,2.425044189453125,0.1840373014897108,-0.0025723073065746574,-0.003197654396994039
1690838594941085200,2.435085205078125,0.1856757163465023,0.004514819676475599,0.0009128724946407601
1690838594951125200,2.445125244140625,0.1947989340007305,0.00851394491577521,0.0010397228778572752
1690838594961165300,2.455165283203125,0.1918061819255352,0.011338427751976996,-0.006021703408355825
1690838594971205000,2.465205078125,0.18911445862352846,0.0037039690844714638,-0.001953798665606882
1690838594981246200,2.47524609375,0.1925631377726793,-0.0022422168356832114,0.0035194747964618724
1690838594991286000,2.4852861328125,0.18209610429406164,-0.0025658866989426315,0.0076774644088814965
1690838595001326000,2.495326171875,0.17911036648154258,-0.0013217592562083155,0.0031527706507185936
1690838595011367200,2.5053671875,0.17537293351888655,-0.005549743081629276,0.003603072843130212
1690838595021407200,2.5154072265625,0.18016075231730938,-0.0040759350688662375,-0.009523204156709835
1690838595031447300,2.525447265625,0.1862906333744526,-0.005529494878044352,-0.012560903910262277
1690838595041487000,2.535487060546875,0.1832914515584707,0.007783849676093086,-0.0056760431922855785
1690838595051528200,2.545528076171875,0.18388532579839229,0.0018935312621761113,-0.006275904214999173
1690838595061598000,2.555597900390625,0.18807342513799666,0.001749674945231527,-0.011016116445453372
1690838595071639000,2.56563916015625,0.19256489133834837,0.0019076237196102737,-0.01097136170498561
1690838595081679000,2.57567919921875,0.18418869265913962,0.0017538213973864911,-0.008347637021716217
1690838595091719200,2.58571923828125,0.19511925199627875,-0.00013146262625232338,-0.009866601633746176
1690838595101760300,2.59576025390625,0.19781740503907203,-0.003231812394922599,-0.009448082819086266
1690838595111800300,2.60580029296875,0.1897410660892725,-0.00172950894003734,0.0024855754462594633
1690838595121840000,2.615840087890625,0.1830085429638624,-0.007306203960673883,0.001214378475153353
1690838595131880000,2.6258798828125,0.1752268030464649,-0.012915285147260874,0.0009867608564032707
1690838595141921000,2.635921142578125,0.18001228375732897,-0.007301080260984599,0.00899893939565518
1690838595151961000,2.645961181640625,0.1903326022416353,0.0032680070863105354,0.0015258749850734603
1690838595162001200,2.656001220703125,0.18673779262006282,0.007042575455270707,-0.00012505457670777104
1690838595172042200,2.666042236328125,0.1879325553625822,0.012998168524587525,0.003475296586373588
1690838595182082300,2.676082275390625,0.1894265933126211,0.004180427489802241,-0.006219075444247573
1690838595192122000,2.6861220703125,0.18867898981571196,0.0012176138951443135,0.0018025947258458472
1690838595202162000,2.696161865234375,0.18628829528689383,0.005657368174567818,-0.0017924945985840167
1690838595212203000,2.706203125,0.18449732021689413,0.00961687378953211,-0.005341890750918537
1690838595222243000,2.7162431640625,0.1776192511409521,0.005956332854833454,0.003434313838725211
1690838595232314000,2.726314208984375,0.18360884694457053,0.0019257164987269788,0.007509442906704498
1690838595242354200,2.736354248046875,0.18271394393146037,-0.006851564661506563,0.0033046824099554214
1690838595252394200,2.746394287109375,0.19049626837074757,-0.0004875551880802959,0.002617844073398737
1690838595262435000,2.75643505859375,0.1903460462450981,-0.00652429633536376,-0.00854330914922175
1690838595272475100,2.76647509765625,0.1855570584028959,-0.008808772277040406,-0.008699369643902173
1690838595282515000,2.776514892578125,0.18181378022134304,-0.010296362219983712,-0.003328776813240256
1690838595292555000,2.786554931640625,0.1870487582653761,-0.013175698782270774,-0.006576225168711971
1690838595302596000,2.79659619140625,0.18779402367472647,-0.003362407371494919,-0.00862960490140831
1690838595312636200,2.80663623046875,0.1862941405057907,0.007607022671308368,-0.003611096319381613
1690838595322676200,2.81667626953125,0.1903296796321869,0.015493538137432187,0.002630515183659736
1690838595332717000,2.826717041015625,0.18493980328738688,0.019642447110963985,0.009063646653830073
1690838595342757000,2.836757080078125,0.1795499269425869,0.009981533250305801,0.0025788557783700526
1690838595352797000,2.846796875,0.19092472291588783,0.01866960175712593,0.004966737295594066
1690838595362837000,2.8568369140625,0.18389935432374477,0.008751827058568596,-0.0006845481980592012
1690838595372878000,2.866878173828125,0.18480653229653835,0.0004547032312490046,-0.010336965941719244
1690838595382918100,2.876918212890625,0.18751111508011817,-0.009498243245389311,-0.007812516364862677
1690838595392958200,2.886958251953125,0.17674539091587066,-0.016641995786502956,-0.010276493042311631
1690838595402999000,2.8969990234375,0.1800409253299236,-0.014896896551689132,-0.006296304257278097
1690838595413069300,2.9070693359375,0.17884031736850736,-0.01481684445226565,0.007169320807210169
1690838595423110100,2.917110107421875,0.16985446235835552,-0.011077164733596146,0.010868822637473931
1690838595433150000,2.92714990234375,0.1794189940392971,0.00836584168197587,0.01652218934871489
1690838595443190000,2.93718994140625,0.18359540294110774,0.010784127470618113,0.013328429100482025
1690838595453231000,2.947231201171875,0.19331015674769877,0.015587034240318461,0.0049886054924631025
1690838595463271200,2.957271240234375,0.1930073744088411,0.01846983226817101,-0.007444312098488444
1690838595473311200,2.967311279296875,0.18941665644049643,0.029142663117730987,-0.006992343105375766
1690838595483351300,2.977351318359375,0.19241759182214735,0.018517854394670574,-0.0012318741742928978
1690838595493392100,2.98739208984375,0.1943763246744871,0.012636468205880373,-0.006451700314966728
1690838595503432000,2.997431884765625,0.1830173107922077,0.006628542161127552,0.0021824312061537055
1690838595513472000,3.007471923828125,0.18676935680210588,-0.005707171266200021,-0.0006127604618377518
1690838595523513000,3.01751318359375,0.1882721625804901,-0.016577360451919956,-0.0031380331642460076
1690838595533553200,3.02755322265625,0.1777975303173065,-0.014185962670203297,-0.0031545116583001796
1690838595543593200,3.03759326171875,0.17345277911126614,-0.009847805601730942,-0.007742294964642496
1690838595553633300,3.04763330078125,0.1753893001317978,-0.011699141689995304,-0.0025265627604851033
1690838595563674000,3.057674072265625,0.17851941485106945,-0.00794295836109668,-0.006855359487212263
1690838595573714000,3.0677138671875,0.18359598746299743,0.004969824301823973,0.001827353566122474
1690838595583785000,3.077784912109375,0.18208850550949573,0.009116550451423972,0.007028314034477807
1690838595593825000,3.087824951171875,0.1811865882337093,0.017338243555510415,0.005897756226634373
1690838595603865000,3.097864990234375,0.18717150786221026,0.023000872427085414,0.004489682951930444
1690838595613906200,3.10790625,0.18941957904994486,0.022053134115040302,-0.003793620129302144
1690838595623946200,3.1179462890625,0.1903244189351797,0.029438668655930086,0.004064472959935665
1690838595633986300,3.127986328125,0.18464578877687454,0.015333424805430694,-0.005291069312556646
1690838595644026000,3.138026123046875,0.18375497741699218,0.011632232199935241,-0.007708965800487203
1690838595654067000,3.14806689453125,0.18376199167966842,0.003971141253830864,-0.016087179481913336
1690838595664107000,3.15810693359375,0.1906517511934042,-0.01066768888356164,-0.003066778575920034
1690838595674147000,3.16814697265625,0.18856150091588497,-0.02289317426891066,0.0043323175577970685
1690838595684188200,3.178188232421875,0.17808862221837043,-0.02496959695047699,-0.00022970796949230133
1690838595694228200,3.188228271484375,0.17928572304844856,-0.019772621962428093,-0.0017351657876220996
1690838595704268300,3.198268310546875,0.16925649646520613,-0.019442969882953912,0.0047198510040820105
1690838595714308000,3.20830810546875,0.16984803261756895,-0.010858471348462627,0.007552818540838779
1690838595724347100,3.21834716796875,0.18465104947388172,-0.0054006534671410915,0.002545999254961498
1690838595734387000,3.228386962890625,0.18389058649539947,0.003424321026029065,-0.0013922717757290227
1690838595744427000,3.238427001953125,0.1781944206804037,0.02095801408840343,-0.0006632473984151146
1690838595754498000,3.248498046875,0.19464871187508104,0.021707773009780794,0.0016430522160022518
1690838595764538000,3.2585380859375,0.19464812735319137,0.026308124678395686,0.0006594480061321518
1690838595774579000,3.268578857421875,0.18851707725226877,0.018692224580887703,0.005778206658817362
1690838595784619000,3.278618896484375,0.18268880949020386,0.02585015177782625,0.005154247807885985
1690838595794658800,3.288658935546875,0.17297288663983343,0.02111873934175819,0.0019963956983177922
1690838595804699000,3.298698974609375,0.18435703496336936,0.00880292705814354,0.010669065706606489
1690838595814740000,3.308739990234375,0.17523790896236896,-0.010141838378552346,0.005629952727968339
1690838595824780000,3.318780029296875,0.18137772689163684,-0.02103679667934775,0.00803220183890662
1690838595834820000,3.328820068359375,0.18092822955846785,-0.022728192965546623,-0.005416895640821894
1690838595844861000,3.33886083984375,0.18331717052161692,-0.013973032305575906,-0.003569380636082496
1690838595854901000,3.34890087890625,0.17777298039793968,-0.01394642742644064,-0.005608053706702776
1690838595864941000,3.358941162109375,0.18913433236777782,-0.012212918164720758,-0.005921174776484258
1690838595874980900,3.36898095703125,0.1897229459106922,-0.0075849569699727,0.0008185886571765876
1690838595885022000,3.37902197265625,0.18552607874274252,0.0013498345732223243,-0.0009600589375011623
1690838595895062000,3.38906201171875,0.18642273532152176,0.016369635985372586,-0.0038575841770274563
1690838595905102000,3.39910205078125,0.18866788389980793,0.015373866413673385,-0.000016967117821332066
1690838595915143000,3.409142822265625,0.1855325084835291,0.00929723164741881,-0.002957637379330117
1690838595925183000,3.419182861328125,0.18494097233116627,0.005755549585726112,-0.002755935086548561
1690838595935254000,3.42925390625,0.18674363783895967,0.009123135455837473,-0.0031328181330114602
1690838595945293800,3.4392939453125,0.1843552813977003,-0.0021065164257306605,0.004468683546385728
1690838595955334000,3.449333984375,0.1755319234728813,-0.00412398459482938,-0.003221155145234661
1690838595965375000,3.459375,0.17089315775632857,-0.0021547577479388564,0.005738920394622255
1690838595975415000,3.4694150390625,0.16984277192056177,-0.0026875677166972307,-0.0030321239627141036
1690838595985455000,3.479455078125,0.17327742254436015,-0.0030470030130818485,-0.004772415733314119
1690838595995495200,3.4894951171875,0.18673837714195252,0.0050154626749921586,-0.003536008089443203
1690838596005536000,3.499535888671875,0.17999591714441776,0.0013857096042018382,-0.00959986785580404
1690838596015576000,3.509576171875,0.18328209920823574,0.01410364554845728,-0.010612667335761944
1690838596025616000,3.519615966796875,0.18746902950406075,0.01526159254508093,-0.006340532699716277
1690838596035657000,3.529656982421875,0.19390403098762035,0.017983427857561036,-0.00007337119688745588
1690838596045697000,3.539697021484375,0.1874742902010679,0.011904391071666031,0.0020105338215245863
1690838596055737000,3.549737060546875,0.18044892160892487,0.011268193793669343,0.0043960178856854324
1690838596065777200,3.559777099609375,0.18449732021689413,0.0012317885509692131,0.0036056267014646435
1690838596075818000,3.56981787109375,0.18240823898315428,-0.0026676300403662024,-0.0008879618156701326
1690838596085858000,3.579858154296875,0.16834873397052286,-0.00800240606390871,-0.008697455106384587
1690838596095897900,3.58989794921875,0.17732874376177787,-0.015059466702258214,-0.0009158750191912985
1690838596105969000,3.599968994140625,0.1828641660571098,-0.007527756023174151,-0.0015034667904430534
1690838596116009000,3.610009033203125,0.17896715861856935,-0.009641021850099787,-0.00261695016589947
1690838596126050000,3.620050048828125,0.1779120966076851,-0.012313428530283272,0.0028058763171429743
1690838596136090000,3.630090087890625,0.18388766388595104,-0.00617676153932698,-0.0023828639904560985
1690838596146130200,3.640130126953125,0.1760977406620979,0.002653327520377934,0.0006468419695971533
1690838596156170000,3.650169921875,0.1844727702975273,0.010376405186252668,0.005121060207625851
1690838596166210800,3.6602109375,0.18791209709644316,0.014811602021567522,-0.00033563772062188943
1690838596176251000,3.6702509765625,0.18477204550504683,0.01767392351697199,0.005844219958089525
1690838596186291000,3.680291015625,0.18163491652309893,0.014919354978669435,0.005843676535395206
1690838596196332000,3.69033203125,0.18672844026982782,0.0038542460090480743,0.002362007290450856
1690838596206372000,3.7003720703125,0.18808336201012132,0.009511605050461365,-0.0029248641959566156
1690838596216412200,3.710412109375,0.18419979857504368,0.007510987551463767,0.0015475034366361797
1690838596226452200,3.7204521484375,0.1750754118770361,-0.0034669545913580805,-0.004140946004429134
1690838596236493000,3.7304931640625,0.1699900714367628,-0.01091300541413948,-0.008399899215204641
1690838596246532900,3.740532958984375,0.18420505927205086,-0.005420362814608961,-0.00996244609899004
1690838596256573000,3.750572998046875,0.18764321702718734,-0.011960185512667521,-0.005850341454910812
1690838596266614000,3.760614013671875,0.17746318379640577,-0.0030092374191153792,0.00143513823649846
1690838596276684000,3.77068408203125,0.17476444623172283,0.0030600908235181123,-0.00135204251332907
1690838596286725000,3.78072509765625,0.1808954963326454,0.005723428281256928,-0.0029792989385779944
1690838596296765200,3.79076513671875,0.18403496340215206,0.005068617634335532,-0.005818102561077103
1690838596306805000,3.800804931640625,0.1826870559245348,0.006628140302328393,0.0022657050258363598
1690838596316845000,3.810844970703125,0.18148995509445667,0.007386036864388734,0.0025045415832777506
1690838596326886000,3.820885986328125,0.17894845391809938,0.0029138416200876235,-0.004265128364879638
1690838596336926000,3.830926025390625,0.18209318168461322,0.007301409054547548,-0.0008569775889394804
1690838596346966000,3.840966064453125,0.18119886319339273,0.0090185151707381,0.006425209600263042
1690838596357007000,3.851007080078125,0.16788403906822202,0.0025419852335471656,-0.003944381111068651
1690838596367047200,3.861047119140625,0.17491876001060008,-0.0006572674654889851,0.0016559996041876728
1690838596377087200,3.871087158203125,0.18210078046917913,-0.0018775939075276254,0.00010257217519683762
1690838596387127000,3.881126953125,0.18105331724286078,0.007224654023908078,-0.0016441778772976249
1690838596397167900,3.89116796875,0.1753665037781,-0.007905603759083897,-0.006889234357350505
1690838596407208000,3.9012080078125,0.18045359778404235,0.0022182240387424827,0.0030753591745975428
1690838596417248000,3.911248046875,0.17521686617434024,0.00314368658689782,-0.0004080636360158678
1690838596427289000,3.9212890625,0.18598843555748462,0.0038946784841362384,-0.013716493411373811
1690838596437329200,3.9313291015625,0.1722206069678068,0.006493097479501738,-0.00670648906843271
1690838596447400200,3.941400146484375,0.1701245114713907,0.0020949812515638766,-0.006564272152725607
1690838596457440000,3.95143994140625,0.1800017623633146,-0.000220200355630368,0.0018452990731224416
1690838596467480000,3.96147998046875,0.18344342724978924,-0.00009774301974102854,0.00120503639971721
1690838596477521000,3.97152099609375,0.1871861209094524,0.008431636927183716,-0.008232070650917012
1690838596487561000,3.98156103515625,0.17626491392254828,0.0022921477914787827,-0.005928797535580815
1690838596497601000,3.99160107421875,0.1822515871167183,-0.008383633066993206,-0.004605580399581231
1690838596507641000,4.00164111328125,0.18614216481447218,0.000282187075400725,-0.00025045963822049086
1690838596517682200,4.01168212890625,0.17701544002890585,0.0011242547895759342,0.0061636234965408215
1690838596527722200,4.02172216796875,0.18090718677043913,-0.0008750749346334486,0.0029917519947746767
1690838596537762000,4.031761962890625,0.16773849311769007,0.0017642788593191653,-0.00022572477247449567
1690838596547803000,4.041802978515625,0.16893384038209913,-0.007652962438575923,-0.009431460477848303
1690838596557843000,4.051843017578125,0.17356909896731376,0.0097503000440076,0.0013759987776516935
1690838596567883000,4.061883056640625,0.18194646669030187,0.009446266462979839,0.000172513872559648
1690838596577923000,4.071923095703125,0.1856879913061857,0.009010715456772594,-0.0037191266960522624
1690838596587964200,4.081964111328125,0.18598726651370523,0.00931531529338099,0.001738967463193694
1690838596598004200,4.092004150390625,0.18284604587852954,0.002979280672268942,-0.004100156194670125
1690838596608044000,4.1020439453125,0.17895722174644468,-0.006451468561170622,-0.003427919488912448
1690838596618083800,4.112083740234375,0.1752180352181196,0.008163834570161997,-0.004127043059951392
1690838596628155000,4.12215478515625,0.16833645901083946,0.00484028877117671,0.0008009217113896739
1690838596638196000,4.132196044921875,0.17462065384685993,0.0021363361752592025,-0.005516619413450826
1690838596648236000,4.142236083984375,0.1780593961238861,-0.0010881879623513668,-0.004013850167684722
1690838596658276000,4.152276123046875,0.16429039849042892,0.00011258439584635197,-0.005907596058992203
1690838596668316200,4.162316162109375,0.17565934924483298,0.005824112176755443,0.004967246468958911
1690838596678357200,4.172357177734375,0.17550737355351448,-0.0004880575115792453,-0.004876123844605172
1690838596688397000,4.18239697265625,0.18493278902471064,0.003292191679496318,-0.006038952512323157
1690838596698436900,4.192436767578125,0.17744857074916362,0.0012059051910415291,0.005038722536282148
1690838596708478000,4.20247802734375,0.18328619086146353,0.008191480628913268,-0.00469364912539022
1690838596718518000,4.21251806640625,0.18627894293665884,0.005500122653087601,-0.003885084105306305
1690838596728534300,4.2225341796875,0.1828384470939636,0.007507279490726068,-0.00012418464373913592
1690838596738574300,4.23257421875,0.18284136970341205,0.011168213151069358,-0.0030850311852409504
1690838596748615200,4.242615234375,0.17401392012536523,0.00016550189317204056,0.002620282625657273
1690838596758655200,4.2526552734375,0.17820435755252836,-0.000838615381764248,0.004530979651765665
1690838596768695300,4.2626953125,0.18658347884118556,-0.0037300625069532542,-0.0072543904334015676
1690838596778736400,4.272736328125,0.18373919532597063,-0.00796261290963739,-0.002684012636297848
1690838596788776400,4.2827763671875,0.17835165706872938,-0.0029257786530535665,-0.0010846945307450369
1690838596798847200,4.29284716796875,0.18358663511276244,-0.009855961508722975,-0.002520781473669922
1690838596808887300,4.30288720703125,0.18523206423223018,0.0008829294475261122,0.0040548009492922575
1690838596818927400,4.31292724609375,0.18687690882980823,-0.001456409353390336,0.0014812618085008578
1690838596828967400,4.322967529296875,0.1849298664152622,0.003224688534392044,-0.0052516346346004866
1690838596839008300,4.33300830078125,0.18328209920823574,0.0030753431915771213,-0.002380078378325561
1690838596849048300,4.34304833984375,0.18507716593146323,0.001546708852192387,-0.0023775747523410245
1690838596859088100,4.353088134765625,0.17355507044196128,0.0038080231139902025,0.0036094135356601327
1690838596869129500,4.36312939453125,0.17804536759853362,0.004322347577987239,-0.0012960631259484215
1690838596879169300,4.373169189453125,0.180590375906229,0.0059290795217268166,-0.001139915866299998
1690838596889209300,4.383209228515625,0.18522914162278173,-0.006949974401528015,0.0016519159424700774
1690838596899249400,4.39324951171875,0.18074118255376814,-0.0008886468022596091,0.0003886282831837889
1690838596909290200,4.403290283203125,0.180590375906229,-0.004230650706542656,-0.006102627724036574
1690838596919330300,4.413330322265625,0.18358195893764495,-0.004034899805579334,-0.0066464979429263615
1690838596929370400,4.423370361328125,0.18238368906378746,-0.0039845852572936566,-0.009150682191533269
1690838596939411500,4.433411376953125,0.17759353217780588,-0.0015689115508459508,-0.003659208635782124
1690838596949451300,4.443451171875,0.1855225716114044,-0.0016860899234190582,0.0013511565973400137
1690838596959491300,4.4534912109375,0.26721009021699427,-0.03485567046967335,-0.01686363918054849
1690838596969562400,4.463562255859375,0.15354513259232044,-0.4985189190346747,-0.020234773281193337
1690838596979602400,4.4736025390625,-0.300049699023366,0.029505678610689937,0.7231344607587903
1690838596989643300,4.483643310546875,0.5229805025309324,0.14702446211930364,-0.42640922998301684
1690838596999683300,4.493683349609375,0.339591435816884,0.06240806872127577,-0.2626378869306296
1690838597009723100,4.50372314453125,0.20538520994484424,0.2571615378787741,-0.10836436699852346
1690838597019763200,4.51376318359375,0.3367114964663982,0.14686706133419647,-0.02473182897211518
1690838597029804300,4.52380419921875,0.2602513571202755,0.22584342128494753,0.0032779256921261547
1690838597039844400,4.53384423828125,0.22347031721174715,0.15182205339306964,0.13937518947515637
1690838597049884400,4.543884521484375,0.14958382774591444,0.03997414599456824,0.1708578489809297
1690838597059925200,4.55392529296875,0.10138064559102059,-0.07250083466055803,0.1565930489208549
1690838597069965300,4.56396533203125,0.11791092463135719,-0.17168366881320252,0.07317106207231991
1690838597080005400,4.57400537109375,0.0980249054223299,-0.23891104744970798,-0.008889954604336526
1690838597090045200,4.584045166015625,0.09424012618660926,-0.25255791654083876,-0.06458477343954146
1690838597100086300,4.594086181640625,0.1487719268411398,-0.22005011523840948,-0.06125396678270772
1690838597110126300,4.604126220703125,0.1484960325092077,-0.1560923876560293,-0.021187897871120367
1690838597120166400,4.61416650390625,0.12201485281884669,-0.06360720624481328,0.0412562901930185
1690838597130206500,4.62420654296875,0.19849077425599096,0.02932356350943446,0.08709319530772044
1690838597140247300,4.634247314453125,0.20526772104501723,0.0908028452143073,0.10485599355138837
1690838597150318300,4.644318359375,0.19203589902818202,0.12205478297043591,0.08253481961730867
1690838597160358100,4.654358154296875,0.23990824179351328,0.14044566825088112,0.037544525961158794
1690838597170398200,4.664398193359375,0.2532633979290724,0.14376823680233208,-0.0069654779313364995
1690838597180438300,4.674438232421875,0.2539426123648882,0.12057261812128126,-0.04314282089225016
1690838597190479400,4.684479248046875,0.2322042432874441,0.09352963982969521,-0.05300168217753525
1690838597200519400,4.69451953125,0.21197218711972235,0.049955697511183096,-0.02867578082492109
1690838597210559500,4.7045595703125,0.1960667619794607,0.0030271566682960834,0.015677850903995566
1690838597220600300,4.714600341796875,0.12911094855964184,-0.0544327424605377,0.057837628133734685
1690838597230640400,4.724640380859375,0.10880641167759894,-0.10823824726766906,0.08955273555535823
1690838597240680200,4.73468017578125,0.12976385951042174,-0.1374401571588125,0.10240863693188876
1690838597250720300,4.74472021484375,0.09442132797241211,-0.13971263213544152,0.06879544080398045
1690838597260761300,4.75476123046875,0.1334171213209629,-0.12743219255930743,0.02439573573541129
1690838597270801400,4.764801513671875,0.1696978104919195,-0.09161359534161165,-0.00542052606974612
1690838597280841500,4.774841552734375,0.17529577662944792,-0.03248995511848479,-0.015317236289032733
1690838597290882300,4.78488232421875,0.19526772055625916,0.009357501334138214,-0.004155100110656349
1690838597300922400,4.79492236328125,0.20403730246722698,0.05956018674317747,0.01638609507147339
1690838597310962200,4.804962158203125,0.2122398981451988,0.08158590312832965,0.04045783329170663
1690838597321033200,4.815033203125,0.20596213304996489,0.08681114522963762,0.04619354109922424
1690838597331073300,4.8250732421875,0.20659517025649546,0.08898664437150582,0.037168335892795584
1690838597341113300,4.83511328125,0.2184709014892578,0.06602727299858815,0.026452044927421956
1690838597351154400,4.845154541015625,0.19444412921369075,0.04233051812867634,0.015624818100593983
1690838597361194500,4.855194580078125,0.1770008269816637,0.013542367537040263,-0.0044497779165161774
1690838597371234300,4.865234375,0.19231822310090063,-0.025317241344368083,0.00494322969748755
1690838597381275400,4.875275390625,0.15748714821636675,-0.062440089561045166,0.029242273867572655
1690838597391315200,4.885315185546875,0.14029402135312558,-0.08522835128391161,0.044727162907668386
1690838597401355300,4.895355224609375,0.13833996467590332,-0.09995916142053901,0.04954644085685722
1690838597411395300,4.905395263671875,0.12753624658882617,-0.08255252880393527,0.05546291662533767
1690838597421436400,4.9154365234375,0.1423053611755371,-0.061968553926004095,0.03433378375372849
1690838597431476500,4.9254765625,0.1763724659502506,-0.03256723987208679,0.021561482707154935
1690838597441516300,4.935516357421875,0.19652561166286467,0.00019986995365470645,0.0034506016781786454
1690838597451557400,4.945557373046875,0.19888474200963974,0.01909496016288176,0.012806003528420115
1690838597461597200,4.95559716796875,0.18869184929728508,0.034515250401012595,0.021603545450326053
1690838597471637200,4.96563720703125,0.19871873779296872,0.048129212736384944,0.03853777934878599
1690838597481677300,4.97567724609375,0.19335165780186653,0.04925282820514403,0.046665149799501524
1690838597491748400,4.985748291015625,0.18320786492824553,0.038637307900236915,0.04220314715565182
1690838597501789400,4.99578955078125,0.20150106198787687,0.026212043892778456,0.030103840866661628
1690838597511829500,5.00582958984375,0.17325637975633143,0.006569706379668787,0.0004620656954415608
1690838597521869000,5.015869140625,0.1632587173551321,-0.020072025034110992,-0.012575677929352968
1690838597531909000,5.0259091796875,0.17719371920526025,-0.039661308052577074,-0.001175563710060669
1690838597541950200,5.0359501953125,0.17375556145012377,-0.05131906741941347,0.012765109829028369
1690838597551990300,5.045990234375,0.15399346088171004,-0.047115743111213665,0.02765207750010304
1690838597562030300,5.0560302734375,0.1526268487036228,-0.03925426162164658,0.05294430313422344
1690838597572071400,5.066071533203125,0.1627753177523613,-0.032533118406776335,0.06230660850764252
1690838597582111200,5.076111328125,0.18025486034154892,-0.01897766305929981,0.05111218776965979
1690838597592151300,5.0861513671875,0.1944458827793598,0.0013168182196095586,0.033310409222473386
1690838597602191000,5.096191162109375,0.19278408704698086,0.004351573672471568,0.01137873807112337
1690838597612232200,5.106232177734375,0.19741993015408515,0.016907140395557508,0.006698278362513519
1690838597622272300,5.116272216796875,0.19114274958074093,0.025459426294034346,0.0032134319214383138
1690838597632312300,5.126312255859375,0.1818798311948776,0.025909709078492594,0.007059641896147513
1690838597642352400,5.136352294921875,0.18474106584489344,0.011669002280058339,0.015271091025788336
1690838597652393200,5.146393310546875,0.1753320169866085,0.005698723098263144,0.03280778432942461
1690838597662433300,5.156433349609375,0.1799853957504034,-0.0009587985621765256,0.03416707171758171
1690838597672504000,5.166504150390625,0.1707183857113123,-0.019142936623608692,0.028009119910001753
1690838597682544000,5.176544189453125,0.1774585076212883,-0.030239920302527024,0.0391610395133961
1690838597692584200,5.186584228515625,0.17416531129479407,-0.04244357744855806,0.03258296716418117
1690838597702625300,5.196625244140625,0.1708656852275133,-0.033365112251508976,0.02753465253235772
1690838597712665300,5.206665283203125,0.1693576187521219,-0.02622963434839621,0.022728864252404307
1690838597722705400,5.216705322265625,0.17772095794975756,-0.012791823164373635,0.017041443432867526
1690838597732749800,5.226749755859375,0.17620821529924868,-0.009827219471428542,0.018006616936903447
1690838597742790000,5.236789794921875,0.18607026862204074,-0.005671424099383876,0.01922378787405323
1690838597752829700,5.24682958984375,0.19249591775536537,0.009856993555184454,0.017816452101577306
1690838597762869800,5.256869873046875,0.1769306843549013,0.015636764266714454,0.018541586896707304
1690838597772910800,5.266910888671875,0.19189853638410567,0.02242401325404644,0.03466901162404101
1690838597782951000,5.276950927734375,0.19100947858989237,0.01611662933868356,0.04151920174579136
1690838597792991000,5.286990966796875,0.18024726155698298,-0.007764953179378062,0.03835050401522312
1690838597803031800,5.29703173828125,0.18026070556044577,-0.015820322406385093,0.02793671682749409
1690838597813072000,5.30707177734375,0.1703951451063156,-0.01211366817448288,0.014707073068013414
1690838597823111700,5.317111572265625,0.16935586518645285,-0.025948990776110438,0.01278965061524068
1690838597833151700,5.32715185546875,0.17474515700936316,-0.024132671202300116,0.01236393030823674
1690838597843222800,5.337222900390625,0.18297230260670183,-0.015819125963142142,0.00815056866321247
1690838597853262800,5.347262939453125,0.17069442031383514,-0.01816516849948093,0.02082439603768289
1690838597863304000,5.357303955078125,0.17068331439793108,-0.020125965444743633,0.024462382647278718
1690838597873344000,5.367343994140625,0.1748614768654108,-0.009679289767565205,0.01921097405825276
1690838597883384000,5.377384033203125,0.17784429206848143,0.0016541330157313495,0.022967910872399806
1690838597893425000,5.3874248046875,0.18861060075461863,0.00472214228422381,0.020202711342228577
1690838597903464700,5.397464599609375,0.19519465532004832,0.0021820476136635986,0.02787127320873551
1690838597913504800,5.4075048828125,0.190861010029912,0.0016510551426559686,0.027366753186122514
1690838597923544800,5.417544921875,0.18862521380186079,0.00011512341280467807,0.030946369805140417
1690838597933586000,5.4275859375,0.18115210144221783,-0.00663142823795788,0.03514986307669896
1690838597943626000,5.4376259765625,0.1820592794150114,-0.014214174984535201,0.022376548249972983
1690838597953666000,5.447666015625,0.15887129605114458,-0.018613515055179594,0.021299758464470506
1690838597963707000,5.457706787109375,0.18640870679616928,-0.01666369616165757,0.00713389786737971
1690838597973746700,5.46774658203125,0.15782675543427466,-0.007041835669754072,0.00615025826653582
1690838597983786800,5.477786865234375,0.18355974710583686,-0.008847222857596352,0.0009785398756852373
1690838597993826800,5.487826904296875,0.1739765107244253,-0.010049365188973024,0.008962012910260818
1690838598003868000,5.497867919921875,0.17950725684463978,-0.005375400294875726,0.020332877060538157
1690838598013939000,5.50793896484375,0.17157295671403408,-0.002634367091581225,0.027501809708680956
1690838598023979000,5.51797900390625,0.18788345552384852,0.0028810170627199113,0.024361196428281252
1690838598034019000,5.52801904296875,0.18279636151790618,-0.006318480698112398,0.02543253828710876
1690838598044059000,5.538058837890625,0.17906185116469858,-0.009943411463312804,0.021934142811293713
1690838598054099700,5.548099609375,0.18624854779839514,-0.007847051105415448,0.012188232389680342
1690838598064139800,5.558139892578125,0.19328502230644226,0.0017986560529563574,0.007248652529070386
1690838598074179800,5.568179931640625,0.1750315727353096,-0.00656108468179591,0.013748671798058784
1690838598084221000,5.578220947265625,0.17967033845186234,-0.0007637691804207861,0.01974881182857789
1690838598094261000,5.588260986328125,0.17936872515678404,-0.002287444216897711,0.0279722950309515
1690838598104301000,5.598301025390625,0.1792138268560171,-0.002490556440409273,0.02639652904763352
1690838598114340900,5.6083408203125,0.1856459057301283,0.0016933416481129825,0.02373844772032462
1690838598124381700,5.618381591796875,0.18280279125869273,-0.005336739651765674,0.026438619190268218
1690838598134421800,5.628421875,0.18684300656020641,-0.008765937782311812,0.01821472042936366
1690838598144461800,5.6384619140625,0.1822071634531021,-0.004983387036295608,0.01369584563227836
1690838598154502000,5.648501953125,0.17951719371676444,-0.009984930783789604,0.011041897057392634
1690838598164543000,5.65854296875,0.1805687485963106,-0.009279449395556002,0.013479577099671586
1690838598174583000,5.6685830078125,0.17607962048351763,-0.014084255861397832,0.02060952487771865
1690838598184622800,5.678622802734375,0.18311083429455757,0.0003310403189621866,0.015470983812329359
1690838598194694000,5.68869384765625,0.1676940694540739,0.0003540376020595431,0.01749286786164157
1690838598204734000,5.69873388671875,0.19761516046524047,-0.002466517977695912,0.00947926455028355
1690838598214774800,5.70877490234375,0.16633622510433196,-0.008303480502869933,0.02188301541225519
1690838598224814800,5.71881494140625,0.19177344869971275,-0.01004411362512037,0.026612226758082395
1690838598234855000,5.72885498046875,0.1889303342282772,-0.00886843917556107,0.020342115246341563
1690838598244896000,5.73889599609375,0.1799550006121397,-0.010772473565442487,0.030078674459364265
1690838598254936000,5.74893603515625,0.1866939534783363,-0.011320545035414397,0.023192983765969982
1690838598264976000,5.758975830078125,0.17712006944715974,-0.006156431137351319,0.02328142466782592
1690838598275016000,5.769015869140625,0.1673977168560028,-0.00006903751506470143,0.020651487156189977
1690838598285056800,5.779056884765625,0.17877017474174497,-0.011728112056152894,0.015236197808920405
1690838598295096800,5.789096923828125,0.1727829170256853,-0.007493342296918853,0.011976460794033483
1690838598305137000,5.799136962890625,0.17846739240288734,-0.007049160459684208,0.00987884006081149
1690838598315178000,5.809177978515625,0.18938976843357086,-0.008012014142470434,0.022805007361690513
1690838598325218000,5.819218017578125,0.1702344015866518,-0.007374045032495632,0.02115455044065602
1690838598335257900,5.8292578125,0.18040858959853648,-0.0035685518023092296,0.01919282191363163
1690838598345298000,5.8392978515625,0.1678413689702749,-0.0024926022670231757,0.019317900464870034
1690838598355338800,5.8493388671875,0.1958271080046892,-0.011841527569061145,0.02323342080763541
1690838598365409000,5.859408935546875,0.17039163797497747,-0.007758459506509825,0.025281690540374255
1690838598375449900,5.869449951171875,0.20376316170096395,-0.009711904262378812,0.024922004082240164
1690838598385490000,5.879489990234375,0.135229723700881,-0.009361538188438863,0.02271736561085563
1690838598395530000,5.889530029296875,0.17607962048351763,-0.003018060046387836,0.013428815026814117
1690838598405571000,5.899571044921875,0.2565828977406025,-0.011349497135262936,0.01557898336460348
1690838598415611000,5.90961083984375,0.05786006829440593,-0.0008573931474704294,0.013355918753962031
1690838598425651000,5.91965087890625,0.26675182505548,-0.01058808430870995,0.007222525998903438
1690838598435690800,5.929690673828125,0.14823416670262812,0.0037639830428641287,0.012781137373577802
1690838598445731800,5.93973193359375,0.17935937280654907,-0.005663414322864264,0.017157662824215367
1690838598455772000,5.94977197265625,0.20554887607395647,-0.007843781436095014,0.01854283357230015
1690838598465812000,5.95981201171875,0.14913842206597328,0.0020518088301178065,0.02718150997944176
1690838598475853000,5.96985302734375,0.20794775390923023,-0.008283177500357852,0.023280260190623812
1690838598485892900,5.979892822265625,0.17712474562227726,-0.012159333947114645,0.01837046354692429
1690838598495933000,5.989932861328125,0.14136252736747265,-0.005220273665245622,0.022353834094665945
1690838598505972700,5.99997265625,0.22635493273735044,-0.002474829148314893,0.016443687602272255
1690838598516013800,6.010013916015625,0.16484803237318993,-0.002985208089556545,0.016886220905114897
1690838598526054000,6.020053955078125,0.16813596800267697,-0.010458201718190684,0.01644307568091899
1690838598536125000,6.030125,0.2065887405157089,-0.008339985721511766,0.011447272121044806
1690838598546165000,6.0401650390625,0.16738310380876062,-0.005699937807815149,0.017481204823311416
1690838598556204800,6.050204833984375,0.16768413258194922,-0.0030095022805966434,0.02185191702109296
1690838598566246000,6.060245849609375,0.20539748490452764,-0.004828972792718559,0.02436485882324632
1690838598576286000,6.070285888671875,0.1796633241891861,-0.004586167879635468,0.018313897354365324
1690838598586325800,6.08032568359375,0.16844459556043148,-0.0179269940957427,0.015387091221427543
1690838598596365800,6.09036572265625,0.23219079928398131,-0.015785835614893585,0.014067971446877344
1690838598606407000,6.100406982421875,0.09452303478121757,-0.008393898732680826,0.017571700684935784
1690838598616447000,6.110447021484375,0.26645371889173985,-0.01891742077204399,0.01623157008839771
1690838598626486800,6.12048681640625,0.13042904542088507,-0.006326590939331799,0.024053591783833688
1690838598636527900,6.13052783203125,0.18968086033463477,-0.007841872606799007,0.016013844817643983
1690838598646568000,6.14056787109375,0.19641279893815516,-0.007954155608545989,0.017479889649059624
1690838598656607700,6.150607666015625,0.1597515860170126,-0.002575275581795722,0.01863070365199819
1690838598666647800,6.160647705078125,0.18968261390030383,-0.014925994782010092,0.011373261603340505
1690838598676689000,6.17068896484375,0.21617197689712048,-0.010671104683354497,0.02168123206272721
1690838598686729000,6.18072900390625,0.12444529483616351,-0.015209396566962822,0.02850239701939281
1690838598696769000,6.19076904296875,0.23128829748630522,-0.012704574139183387,0.01895802221049089
1690838598706810000,6.20081005859375,0.1438999368906021,-0.011238520174613222,0.02112444756333716
1690838598716880000,6.2108798828125,0.17741700656712053,-0.010589235086180268,0.017960791334067472
1690838598726915300,6.220915283203125,0.1845949353724718,-0.008641772546526044,0.023667757104290647
1690838598736955400,6.230955322265625,0.17591361626684665,-0.00760862097335048,0.02079207837039139
1690838598746995200,6.2409951171875,0.17291911062598228,0.0003488865029066801,0.01564387899409048
1690838598757036300,6.251036376953125,0.1950648914605379,0.0016634579665027558,0.00668903561013285
1690838598767076400,6.261076416015625,0.16858020463883877,-0.00007000562944449484,0.014665192987932823
1690838598777116400,6.271116455078125,0.1898322515040636,-0.006283820376684889,0.028161447227769528
1690838598787156200,6.28115625,0.1697849042534828,-0.00781030842475593,0.024898472509603014
1690838598797197300,6.291197265625,0.17936404898166655,-0.006274385828059166,0.023134271282097323
1690838598807237400,6.3012373046875,0.18864567206799984,-0.011268906179722397,0.013430828887387178
1690838598817277200,6.311277099609375,0.1573725819259882,-0.0023441154407337307,0.01689442247787956
1690838598827318300,6.321318359375,0.16919219905734062,0.0026224209254607556,0.015694718698761424
1690838598837358300,6.3313583984375,0.19627543629407881,-0.0040523806633427735,0.012279736323235556
1690838598847398400,6.3413984375,0.1459954478651285,-0.007778808174794539,0.02141571299433708
1690838598857438200,6.351438232421875,0.20091244844496248,-0.012118033822346478,0.011258352819667198
1690838598867479300,6.361479248046875,0.17861527644097805,-0.01695536345145665,0.012914906121348031
1690838598877519400,6.371519287109375,0.17053659940361976,-0.009961065851012245,0.010870933537813834
1690838598887590400,6.38159033203125,0.18640052348971367,-0.00815466488301754,0.017872482862952163
1690838598897630200,6.391630126953125,0.1697930875599384,-0.01101745216930285,0.017973979609203525
1690838598907670300,6.401670166015625,0.1985235074818134,-0.006531100535485893,0.018362878462090157
1690838598917711400,6.41171142578125,0.1831090807288885,-0.009639323083357885,0.015882468956359662
1690838598927751400,6.42175146484375,0.17308102318942545,-0.0020273502422962337,0.01952100355522707
1690838598937791200,6.431791259765625,0.19731880786716938,-0.0002924710073973983,0.01754918289245106
1690838598947831300,6.441831298828125,0.16364800893366335,-0.0010654829401988536,0.017372616182570345
1690838598957872400,6.451872314453125,0.1787602378696203,-0.00711506530274637,0.02074167705713771
1690838598967912200,6.461912109375,0.18100714001357554,-0.010551843951549381,0.008219683810090646
1690838598977952300,6.4719521484375,0.17263152585625646,-0.008344168706284835,0.015409969773516058
1690838598987993300,6.481993408203125,0.1810176614075899,-0.010294380325451493,0.016111103780195115
1690838598998033400,6.492033447265625,0.1900017628520727,-0.007093218797119334,0.014069688479928299
1690838599008073200,6.5020732421875,0.17279694555103778,-0.002360198925854638,0.019897659414471126
1690838599018113300,6.51211328125,0.18117782040536404,-0.008585822841897607,0.023159917180007324
1690838599028154400,6.522154296875,0.16935352709889412,-0.01252278783149086,0.02112178524879273
1690838599038194400,6.5321943359375,0.1768301465898752,-0.008685100231599062,0.01031858775152359
1690838599048234200,6.542234130859375,0.17936697159111498,-0.009120231112698092,0.01334579465216957
1690838599058305300,6.55230517578125,0.1768178716301918,-0.00003313508462160826,0.01003574308899697
1690838599068345300,6.562345458984375,0.19477029242813587,-0.00031824476947076615,0.0025397978430381045
1690838599078386400,6.572386474609375,0.18504267913997172,-0.0029570688404608517,0.016190502859069963
1690838599088426200,6.58242626953125,0.16843582773208618,-0.0035386224549263713,0.018046259394125082
1690838599098466300,6.59246630859375,0.18879238706231116,-0.006006382541637868,0.025091556529444642
1690838599108506000,6.602506103515625,0.1600683968812227,-0.007508064942015335,0.035672055753320456
1690838599118547200,6.612547119140625,0.177880532425642,-0.01599017168111168,0.03324486057243775
1690838599128587300,6.622587158203125,0.17878011161386967,-0.016763000950822605,0.028616269190027376
1690838599138627300,6.63262744140625,0.18147417300343513,-0.011780645960988476,0.017714378824946468
1690838599148668400,6.64266845703125,0.18072306237518787,-0.006394240214908495,0.010161693856492638
1690838599158708200,6.652708251953125,0.19014438619315624,-0.007708236289769411,0.0031159446300240232
1690838599168748300,6.662748291015625,0.18804419904351233,-0.004937429002719,0.0017918935228517512
1690838599178788000,6.6727880859375,0.18684417560398578,-0.004816478637326508,0.007363012181827798
1690838599188829200,6.6828291015625,0.18789046978652477,-0.0016124310321640222,0.004053677571285516
1690838599198869200,6.692869140625,0.18699381320774555,-0.00168458295292221,0.021959103722614236
1690838599208909300,6.702909423828125,0.18534955313205717,0.0012655720895621925,0.027580733863520435
1690838599218950100,6.7129501953125,0.17218436661064623,-0.004522445860505104,0.019114075855305418
1690838599228990200,6.722990234375,0.18116671448945998,0.004570513652777299,0.021240502557903527
1690838599239061200,6.733061279296875,0.18850071063935755,0.0036477910509798675,0.015750138680427333
1690838599249101300,6.743101318359375,0.17248948703706263,-0.005015992397954687,0.008352333746431394
1690838599259141000,6.75314111328125,0.18266367504894732,-0.009141940621007233,0.004259868238694616
1690838599269182200,6.76318212890625,0.17518179486095906,-0.005086737812915816,0.010394347268319688
1690838599279222300,6.77322216796875,0.1844593262940645,-0.005086198956798762,0.012774890295881778
1690838599289262300,6.783262451171875,0.18296178121268747,-0.014150571696413681,0.009907540998910553
1690838599299302400,6.793302490234375,0.18131635209321975,-0.0006278952405322343,0.014890270448080263
1690838599309343200,6.80334326171875,0.18715455672740935,-0.008883499747375026,0.02080037584127858
1690838599319383300,6.81338330078125,0.17832593810558317,-0.012481652103504165,0.019840517833176998
1690838599329423000,6.823423095703125,0.1747346356153488,-0.009188017385592684,0.02228216623109765
1690838599339464200,6.833464111328125,0.18445815725028514,0.0012451503560412674,0.015963438937813042
1690838599349504300,6.843504150390625,0.1795177782386541,0.0004902677349746227,0.025564142477256243
1690838599359544300,6.85354443359375,0.17382745764255522,-0.00262180900410749,0.019313123825052753
1690838599369584400,6.86358447265625,0.17607026813328266,-0.001079054807825014,0.009443403219035825
1690838599379625200,6.873625244140625,0.18519933100640773,-0.0019107381253037601,0.013951076202094554
1690838599389665300,6.883665283203125,0.1835574090182781,-0.011066415010718629,0.022380192378628996
1690838599399705300,6.893705322265625,0.18281506621837615,-0.01427367748627439,0.012339325589942746
1690838599409776000,6.903776123046875,0.18042729429900645,-0.008741871920134871,0.012148584224237128
1690838599419816200,6.913816162109375,0.17145488329231737,-0.007023724624328315,0.0062307938523270415
1690838599429857300,6.923857177734375,0.16801263388395307,-0.004221681948797777,0.015417815153254195
1690838599439897300,6.9338974609375,0.17728724270761012,-0.008462598321028053,0.017570737137133256
1690838599449937400,6.9439375,0.18131927470266818,-0.0072141326298937195,0.024719887372571973
1690838599459977500,6.9539775390625,0.17188216879367826,-0.0011495444944594055,0.024826256656763142
1690838599470018300,6.964018310546875,0.17800854271948335,0.0017076259017921984,0.01347355835083872
1690838599480058000,6.97405810546875,0.1889268270969391,0.0005977284311316907,0.011565071548125706
1690838599490098200,6.98409814453125,0.18084581197202204,0.005687699380749836,0.013795483781583606
1690838599500139300,6.99413916015625,0.18938158512711523,0.000565333132026717,0.011982456709980032
1690838599510179300,7.004179443359375,0.18505261601209638,0.001873493121145293,-0.0010953483555000275
1690838599520219400,7.014219482421875,0.18865619346201418,-0.01497097556805238,0.0009043375617358834
1690838599530259500,7.024259521484375,0.17145897494554518,-0.01917387061798945,0.013288324277312495
1690838599540300300,7.03430029296875,0.17685177389979362,-0.014438375661848113,0.010486194836813956
1690838599550340400,7.04434033203125,0.1847825668990612,-0.017881310056801884,0.013889829267840832
1690838599560380200,7.054380126953125,0.1699631834298372,-0.023037286314181983,0.022503521930775604
1690838599570421200,7.064421142578125,0.1730973898023367,-0.013861251627327873,0.028052146200975403
1690838599580491300,7.0744912109375,0.17637714212536812,-0.0088472045912873,0.026427111415565013
1690838599590532400,7.084532470703125,0.17397066550552845,-0.0008360215658787637,0.015411015519709326
1690838599600572400,7.094572509765625,0.19401392110288143,-0.0003286108998581767,0.00794977169437334
1690838599610612500,7.104612548828125,0.18742869749367236,0.002880414274521172,0.010017065787990578
1690838599620652300,7.11465234375,0.18354221144914626,0.0026987740973010658,0.017508617986622267
1690838599630693000,7.124693115234375,0.17906009759902952,-0.00013067717496305703,0.012787959840008987
1690838599640733200,7.134733154296875,0.1799684446156025,-0.012310496787680312,0.0033842404628012445
1690838599650773200,7.144773193359375,0.1759369971424341,-0.009784238846227526,0.01809782518458087
1690838599660814300,7.154814453125,0.17639292421638963,-0.004507412688154727,0.021035148144955745
1690838599670854400,7.1648544921875,0.17624387113451956,-0.009691035004286095,0.019628089792048557
1690838599680894500,7.17489453125,0.1731008969336748,-0.019630071686580777,0.011690492592658848
1690838599690934300,7.184934326171875,0.1745914277523756,-0.01777175786825828,0.0005830517372189206
1690838599700975400,7.194975341796875,0.18341127854585645,-0.0020374606443569064,0.008249393961764872
1690838599711015200,7.20501513671875,0.17711773135960102,-0.009813309677084906,0.025260040397569537
1690838599721055200,7.21505517578125,0.17516425920426845,-0.001234473698399961,0.024085548691521397
1690838599731090700,7.225090576171875,0.1841378392547369,0.005037007786519825,0.0289355734054232
1690838599741130800,7.235130859375,0.18159166190326212,0.010547834496712311,0.03271766292713582
1690838599751170800,7.2451708984375,0.18159049285948275,0.011534105587704107,0.012540611182549037
1690838599761241900,7.255241943359375,0.18937281729876995,0.005927828279556706,0.014036146969930267
1690838599771281700,7.26528173828125,0.1863864949643612,0.004412802340416237,0.008754489373113029
1690838599781322800,7.27532275390625,0.18280279125869273,-0.00045571701140142973,0.004808829620410688
1690838599791362800,7.28536279296875,0.1937356886833906,-0.019591474975552407,0.004788421586621553
1690838599801403000,7.29540283203125,0.18326923972666262,-0.026688027374073862,0.006921931050554849
1690838599811443000,7.30544287109375,0.17684300607144832,-0.025095397020922974,0.01048644599856343
1690838599821483800,7.31548388671875,0.168617029517889,-0.032162549795024094,0.01504453856118489
1690838599831523800,7.32552392578125,0.16577040791511535,-0.030431460819253697,0.021715910650463775
1690838599841563600,7.335563720703125,0.17608721926808357,-0.025151264527160672,0.027878237239061854
1690838599851604700,7.345604736328125,0.1825087767481804,-0.008658595817163587,0.02471522489718627
1690838599861644800,7.355644775390625,0.17516309016048906,-0.0041708650770131495,0.02667282523836475
1690838599871684900,7.365684814453125,0.18128771052062512,0.004424118318874389,0.013529261460294947
1690838599881725000,7.375724853515625,0.17843582822084425,0.009231810861546546,0.0025326328833121803
1690838599891765800,7.385765869140625,0.19085224220156669,0.012136364063480868,0.004531186289386823
1690838599901805800,7.395805908203125,0.19818682287335396,0.0103583946055267,-0.004291212654206901
1690838599911845600,7.405845703125,0.19550386739969253,0.00475947861992754,0.0000661925374297425
1690838599921886700,7.41588671875,0.17890753738582132,0.002797046840004623,0.006181259617931209
1690838599931956700,7.425956787109375,0.17308453032076357,-0.005023600315675139,0.00372629051413387
1690838599941997800,7.435997802734375,0.17459318131804466,-0.012010180400544777,0.02012833549834322
1690838599952038000,7.446037841796875,0.16397475666999817,-0.020575544976303352,0.027435968797700477
1690838599962078000,7.456077880859375,0.16636895833015442,-0.026118547789892182,0.020727013777545652
1690838599972118000,7.466117919921875,0.179680275323987,-0.020853996591502798,0.022270859385794026
1690838599982158800,7.476158935546875,0.17562895410656928,-0.016356876968499273,0.015554871836653909
1690838599992198700,7.48619873046875,0.17801380341649053,-0.011002546861115842,0.013103615360171534
1690838600002238700,7.49623876953125,0.18249241013526915,-0.006446710187662392,0.0005658354555256664
1690838600012279800,7.50627978515625,0.18263620252013205,-0.00458300780816935,-0.008680652385344729
1690838600022319900,7.51631982421875,0.181588154771924,-0.006435010616714134,-0.0011894837792031465
1690838600032360000,7.52635986328125,0.18473229801654814,0.0075954235650598995,0.01092548586979974
1690838600042400000,7.53639990234375,0.1874269439280033,0.0037930630068760364,0.016159418167639522
1690838600052440800,7.54644091796875,0.1844382835060358,0.004959403372509405,0.014785659296135418
1690838600062480600,7.556480712890625,0.1830968057692051,0.0008236644078046083,0.0241645322118653
1690838600072520700,7.566520751953125,0.1865419777870178,0.0007397124513983726,0.02344884909002576
1690838600082561800,7.576561767578125,0.18414952969253062,-0.010972955440450459,0.02144370154638309
1690838600092601900,7.586601806640625,0.1718804152280092,-0.015836442424124107,0.01642085928253364
1690838600102673000,7.5966728515625,0.1795107639759779,-0.014106805619923397,0.007753947728173807
1690838600112713000,7.606712890625,0.17696692471206188,-0.014833941717538981,0.0024736509713809934
1690838600122753000,7.6167529296875,0.17696809375584124,-0.012699651368893682,0.0063637263456359505
1690838600132792800,7.626792724609375,0.1748743363469839,-0.01875353544722311,0.014393892632727511
1690838600142833700,7.636833740234375,0.1790665273398161,-0.014395614232355728,0.016042381358961574
1690838600152873700,7.646873779296875,0.17727146061658858,-0.021403154906863345,0.007353267105948179
1690838600162913800,7.656913818359375,0.17487725895643233,-0.013023257300071417,0.014748606088222004
1690838600172955000,7.666954833984375,0.1730792696237564,-0.0023869682017713784,0.01843496645076666
1690838600182995000,7.676994873046875,0.17711714683771132,0.0022310835203155875,0.02320984356922563
1690838600193035000,7.687034912109375,0.18130290808975696,-0.0025084848227445037,0.020132267321366814
1690838600203074800,7.69707470703125,0.18025427581965922,-0.0015454210774041711,0.01636169014093466
1690838600213115600,7.70711572265625,0.17277239563167093,-0.005003973166598007,0.008597225585323758
1690838600223155700,7.71715576171875,0.17456980044245718,-0.008165688600530848,0.012918705513630993
1690838600233195800,7.72719580078125,0.1748737518250942,-0.0030876364175695926,0.011265380782075226
1690838600243236900,7.73723681640625,0.17263327942192552,0.0005061046249233186,0.012983993868762627
1690838600253277000,7.74727685546875,0.18356150067150592,-0.007294878849061205,0.013625433577457442
1690838600263317000,7.75731689453125,0.17668167802989482,-0.006166185346385464,0.015133892778493464
1690838600273356800,7.767356689453125,0.1678553974956274,-0.006594594225753098,0.014696579073462635
1690838600283427800,7.777427734375,0.17189619731903075,-0.010763431742461398,0.016440180470934138
1690838600293468700,7.78746875,0.17832710714936256,-0.005293822958646342,0.019260494022094645
1690838600303508700,7.7975087890625,0.1805687485963106,-0.012362281773844732,0.019630957602569832
1690838600313548800,7.807548828125,0.17817103980481624,-0.012174969907663763,0.014317379630682988
1690838600323588900,7.8175888671875,0.17367840456068515,-0.009412364193378016,0.018216725156782194
1690838600333630000,7.8276298828125,0.18340367976129054,-0.009642474021669477,0.003099970742757432
1690838600343670000,7.837669921875,0.17801731054782866,-0.0023921010346151885,0.00992934640534222
1690838600353709800,7.847709716796875,0.18654840752780436,-0.00723361364849843,0.009779453073255718
1690838600363750700,7.857750732421875,0.19014087906181812,0.001383060989389196,0.008120831112074666
1690838600373790700,7.867790771484375,0.18101298523247242,-0.007158128126338124,0.007364564818097278
1690838600383830800,7.877830810546875,0.17457915279269218,-0.014434201810229568,0.015516708950465544
1690838600393870800,7.887870849609375,0.17816987076103685,-0.008202878805762157,0.02373228284101933
1690838600403912000,7.897911865234375,0.17996493748426437,-0.009572861117869615,0.022161403095372952
1690838600413952000,7.907951904296875,0.18131342948377133,-0.014718480378016829,0.026070895556150935
1690838600423991800,7.91799169921875,0.16739888589978216,-0.006050559610081836,0.02173099862174131
1690838600434033000,7.928032958984375,0.17862404426932335,-0.007560964173031971,0.015136395262833684
1690838600444072700,7.93807275390625,0.18101883045136927,-0.006147754640551284,0.008419001207896508
1690838600454143700,7.948143798828125,0.18655717535614966,-0.0011069291954394428,0.002485081114270724
1690838600464183800,7.958183837890625,0.18012275839447975,-0.0023198121165391057,0.0011472796148424094
1690838600474223900,7.968223876953125,0.18161679634451866,-0.01100641018548049,0.002990519018913619
1690838600484264000,7.978263916015625,0.17443068423271177,-0.008683766791038215,0.015195413707382976
1690838600494304800,7.9883046875,0.17861761452853678,-0.00392422423902899,0.013395209584734401
1690838600504344600,7.998344482421875,0.17068331439793108,-0.001778407849371433,0.015033761438843793
1690838600514384600,8.008384521484375,0.18998539623916147,-0.005154122227011248,0.015602537770126945
1690838600524425700,8.01842578125,0.18804010739028454,-0.00814842693847604,0.011865849159564823
1690838600534465800,8.0284658203125,0.18175708159804344,-0.004597620855411514,0.01283126469219569
1690838600544505900,8.038505859375,0.1762251664340496,0.0006509655888658017,0.008974324402562342
1690838600554546000,8.0485458984375,0.17787644077241418,-0.010820660088723524,0.0022710046814558155
1690838600564586800,8.058586669921874,0.18072306237518787,-0.007890808048751205,0.004178491261042654
1690838600574626600,8.06862646484375,0.17833061428070068,-0.013127247397508472,0.011967067344603129
1690838600584666600,8.07866650390625,0.17444003658294677,-0.01582869750908576,0.005301864701206796
1690838600594707700,8.088707763671875,0.17069442031383514,-0.006717891811858862,0.007778187120286747
1690838600604747800,8.098747802734374,0.17577800718843936,-0.004149758356902748,0.017074939277092926
1690838600614787800,8.108787841796875,0.18535072217583656,-0.00413457905407995,0.01566431899392046
1690838600624828000,8.118827880859374,0.1793617108941078,0.0010240640844218433,0.019505961249722165
1690838600634899000,8.12889892578125,0.1829530133843422,0.0028118790829554196,0.015431208924367092
1690838600644938800,8.138938720703125,0.1810088935792446,-0.0015842187178321183,0.013730012763361445
1690838600654979600,8.1489794921875,0.1777192043840885,-0.007705806870665401,0.007300915864203125
1690838600665019600,8.15901953125,0.18445640368461608,-0.0019480927273165434,0.008059803373529576
1690838600675059700,8.169059814453124,0.176080789527297,-0.008997298852773382,0.011255558074382133
1690838600685100800,8.179100830078125,0.1711450866907835,-0.008424083808390423,0.011983447657246142
1690838600695140900,8.189140869140624,0.18341537019908427,-0.009885662527242675,0.009289089440158568
1690838600705181000,8.199180908203125,0.16845044077932833,-0.00414261623006314,0.013377212703740224
1690838600715220700,8.209220703125,0.16770049919486044,-0.007702445869799703,0.014426525393850169
1690838600725261600,8.219261474609375,0.17727379870414733,-0.005238923566788434,0.01120635777094867
1690838600735279900,8.22927978515625,0.18400515278577803,-0.002840895114885643,0.010305490807932801
1690838600745320000,8.23931982421875,0.1902899321436882,-0.0013622465302236377,0.006372882333048619
1690838600755360800,8.24936083984375,0.18729718006849289,-0.004493484627502039,0.014876602682331576
1690838600765400600,8.259400634765624,0.1784697304904461,-0.009209927823301404,0.014981072270381264
1690838600775440600,8.269440673828125,0.17518237938284872,-0.0006848404590040444,0.008556669812649489
1690838600785480700,8.279480712890624,0.17623218069672583,-0.0030672694829758256,0.00870610192043241
1690838600795521800,8.289521728515625,0.1741378387659788,-0.010651824594149366,0.008800241910712794
1690838600805592800,8.2995927734375,0.1686006629049778,-0.012914846755843609,0.013051081455335952
1690838600815633000,8.3096328125,0.1781768850237131,-0.009659498221706598,0.0169568704219535
1690838600825673000,8.3196728515625,0.1861059244573116,-0.00890046914848499,0.01342232135394588
1690838600835712800,8.329712646484374,0.1775748274773359,-0.00047882389235310256,0.012880684191337786
1690838600845753600,8.339753662109375,0.17697510801851749,0.0013789602030068635,0.015072855906793846
1690838600855793700,8.349793701171874,0.1896931352943182,-0.004250159124610946,0.015626329637668093
1690838600865833700,8.359833740234375,0.16844518008232115,-0.0030001316640526055,0.012694755998067558
1690838600875874800,8.369874755859374,0.17413491615653037,-0.009336933470144868,0.01574722520413343
1690838600885915000,8.379914794921875,0.18161971895396709,-0.005263172092055902,0.015981458651693536
1690838600895955000,8.389954833984374,0.17937749298512934,0.0037358711932320146,0.0070693903969600794
1690838600905994800,8.399994873046875,0.17504209412932395,-0.0021188096517231313,0.0070113628996768965
1690838600916035600,8.41003564453125,0.1763900016069412,-0.008506373530672863,0.01406383869445417
1690838600926075600,8.42007568359375,0.18282500309050081,-0.0135540945074521,0.0035301331877941266
1690838600936115700,8.43011572265625,0.17623919495940207,-0.008853351204283535,0.011544343853928147
1690838600946155800,8.44015576171875,0.16501520563364028,-0.009248268806003034,0.008391971637075767
1690838600956196900,8.45019677734375,0.17010113059580326,-0.0045718653596472,0.00604686981565319
1690838600966237000,8.46023681640625,0.1741390078097582,-0.004430365396570414,0.013636795221688225
1690838600976308000,8.470307861328125,0.17563421480357647,0.0032830950575880704,0.0174982335899258
1690838600986347800,8.48034765625,0.18191782511770724,-0.00789645233824849,0.00580615182837937
1690838600996387800,8.490387939453125,0.17249007155895232,-0.014959924451075494,0.00015714049020316452
1690838601006428700,8.5004287109375,0.18790332926809786,-0.0023407179072499275,0.009732695888658053
1690838601016468700,8.51046875,0.1717412990182638,-0.0003330678792670369,0.011855533261527306
1690838601026508800,8.5205087890625,0.17652970233857632,-0.0028922051770146934,0.01490268697165884
1690838601036550000,8.5305498046875,0.18655483726859093,-0.0015681078332476317,0.007993601702945306
1690838601046590000,8.54058984375,0.18550678952038288,-0.004616133759636432,0.014503116027708164
1690838601056629800,8.550629638671875,0.1783241845399141,-0.0035662228479050096,0.010219305795244871
1690838601066669800,8.560669921875,0.18505904575288296,-0.012595085882721468,0.014474017797387204
1690838601076710700,8.570710693359375,0.18132044374644754,-0.006450555245717987,0.010095779880275949
1690838601086750700,8.580750732421874,0.17937749298512934,-0.0046620187279768285,0.003230214092880487
1690838601096790800,8.590790771484375,0.17818273024260997,-0.010650281091034412,0.006421667077951133
1690838601106832000,8.600831787109374,0.18072715402841566,-0.013902213825378566,0.0024567957347026094
1690838601116872000,8.610871826171875,0.1898532942920923,-0.013701056096935643,0.011385792291350663
1690838601126911700,8.620911865234374,0.17683365372121332,-0.010648536658519878,0.016131137354648672
1690838601136951800,8.630951904296875,0.17997253626883028,-0.0018964995373971759,0.00972668170640245
1690838601146992600,8.64099267578125,0.18146598969697952,-0.004062290136003867,0.012650391699955799
1690838601157062700,8.651062744140624,0.1762251664340496,-0.0024706187640782446,0.01878241448183544
1690838601167103700,8.661103759765625,0.18684885177910326,-0.003719367583002895,0.015999437266378664
1690838601177143800,8.671143798828124,0.18640169253349304,-0.008247375534614548,0.015089519347227178
1690838601187183900,8.681183837890625,0.18221534675955772,-0.007114051522593945,0.008209778904006816
1690838601197225000,8.691224853515624,0.190001178330183,0.0003818754570558667,0.0069285754204727705
1690838601207264800,8.7012646484375,0.17893208730518817,-0.006673833474423736,0.0031489518504822624
1690838601217304800,8.711304931640624,0.18821371039152143,-0.005349535201257094,0.010914370820741169
1690838601227344600,8.7213447265625,0.18252923501431942,-0.010908749364130199,0.01255230618692003
1690838601237385700,8.7313857421875,0.17040683554410935,-0.010435332299256696,0.015029464289639144
1690838601247425800,8.74142578125,0.17548983789682387,-0.00807190023669973,0.006694314573449082
1690838601257465900,8.7514658203125,0.1777279722124338,-0.008922069058939814,0.007072048144927248
1690838601267507000,8.7615068359375,0.1843067660808563,-0.0031607564527075735,0.010694645389146171
1690838601277546800,8.771546630859374,0.18160919755995272,-0.0019306849347893148,0.008747269614459947
1690838601287586800,8.7815869140625,0.1793628799378872,-0.0017383863662369548,0.006631012679426931
1690838601297626600,8.791626708984374,0.18924129987359045,-0.0020405659168958664,0.01204106416257564
1690838601307667700,8.801667724609375,0.19134090250134467,0.0032056824398227035,0.00922497469538357
1690838601317707800,8.811707763671874,0.18311551046967506,-0.006657950918702409,0.013103067370899953
1690838601327778800,8.82177880859375,0.16935118901133536,-0.00738341564903967,0.017775342631409875
1690838601337819000,8.83181884765625,0.17743454222381114,-0.007330169358151033,0.015351467352197504
1690838601347858700,8.841858642578124,0.17579086667001245,-0.011657987695699557,0.015891332682827487
1690838601357899800,8.851899658203125,0.17593991975188256,-0.008865836226521059,0.013542034176900052
1690838601367939600,8.861939697265624,0.17698446036875246,0.0018416275450028477,0.013298690407699905
1690838601377979600,8.871979736328125,0.17009762346446514,-0.0006236757231410593,0.014004770017554983
1690838601388020700,8.882020751953124,0.17503215725719928,-0.006253123844321817,0.005247453933116048
1690838601398060800,8.892060791015625,0.18056699503064155,-0.011613070841738954,0.013138855636911466
1690838601408100900,8.902100830078124,0.1846077948540449,-0.0015469828468281774,0.016076178597286342
1690838601418140700,8.912140625,0.1844599108159542,-0.006792929809447378,0.006448874745285138
1690838601428181800,8.922181640625,0.18745441645681857,0.001532324133813381,0.010546341225947253
1690838601438221600,8.9322216796875,0.17982582127451896,-0.0005128631592728198,0.010237110879993997
1690838601448261600,8.94226171875,0.17578677501678466,-0.0016210253305733203,0.008151600709673948
1690838601458301700,8.9523017578125,0.1802764876514673,-0.0020413422350306063,0.010515411798143758
1690838601468342800,8.9623427734375,0.1738420706897974,-0.005344694629358128,0.012132747334288433
1690838601478382800,8.9723828125,0.18715864838063717,-0.006157791977375746,0.014357538111135363
1690838601488423000,8.9824228515625,0.1765343785136938,-0.005711299452045932,0.011085517003410495
1690838601498463700,8.992463623046875,0.17743337318003177,-0.0035129400243982672,0.015318752392684109
1690838601508533800,9.00253369140625,0.17863105853199956,-0.005871211854647845,0.01077567016952671
1690838601518574600,9.01257470703125,0.17369477117359639,-0.002756577832298353,0.01754988614534959
1690838601528614700,9.02261474609375,0.17579203571379184,-0.0006789130417164415,0.012508302648412063
1690838601538654700,9.03265478515625,0.18342413802742957,-0.00020102073112502692,0.010514197088591753
1690838601548695800,9.04269580078125,0.17923311607837675,-0.0032591479264199733,0.010667108928249217
1690838601558736000,9.05273583984375,0.17713643606007098,-0.006370329616358503,0.010187723346892743
1690838601568775700,9.062775634765625,0.17833236784636974,-0.002242636960791424,0.009590045148110947
1690838601578815700,9.072815673828124,0.18805764304697511,-0.010695608936948701,0.005110214586625807
1690838601588856600,9.082856689453125,0.18297113356292247,-0.006893732435954735,0.010316217697924002
1690838601598896600,9.092896728515624,0.1738414861679077,-0.011780481564207001,0.0059643700308166445
1690838601608936700,9.102936767578125,0.1850660600155592,-0.013783683745935558,0.007475162752834148
1690838601618977800,9.112977783203124,0.17998130409717558,-0.007757957183010876,0.003150239625270478
1690838601629017900,9.123017822265625,0.181030520889163,-0.005075376168685033,0.009394006552780047
1690838601639058000,9.133057861328124,0.18207915315926074,-0.004549479997903109,0.010254833766352384
1690838601649097700,9.14309765625,0.18058453068733216,-0.01118200421440415,0.013418247967027126
1690838601659138600,9.153138671875,0.171903211581707,-0.007715597612317651,0.016205380767793393
1690838601669178600,9.1631787109375,0.16815993340015412,-0.006848240193258971,0.00013801109804771839
1690838601679249700,9.173249755859375,0.17863281209766863,-0.00740730798128061,0.0009145073293009773
1690838601689289700,9.183289794921874,0.18835808729827402,-0.0014939100858755408,0.010567210484039968
1690838601699329800,9.193329833984375,0.18297347165048122,-0.00509807205768302,0.009571751439594663
1690838601709371000,9.203370849609374,0.17968319793343543,-0.0034889837600756432,0.011574583728564902
1690838601719410700,9.21341064453125,0.18522154283821582,-0.004717539174342528,0.014828438991936855
1690838601729458400,9.22345849609375,0.1847737990707159,-0.002362235619314015,0.011619875041861086
1690838601739498500,9.23349853515625,0.18627368223965166,-0.001227669498277828,0.006608198059420101
1690838601749539300,9.243539306640624,0.18283552448451518,-0.015212428774265572,0.0061012897168984635
1690838601759579400,9.253579345703125,0.18119009536504743,-0.01277575794556178,0.001312457138323225
1690838601769619500,9.263619384765626,0.17924305295050144,-0.013636676490679383,0.013002552438760176
1690838601779660500,9.27366064453125,0.175649996894598,-0.0075017173996195195,0.005747626574174501
1690838601789700400,9.283700439453124,0.17804302951097487,-0.008620510562788694,0.010226589485979638
1690838601799740400,9.293740478515625,0.1789396860897541,-0.006311804362153634,0.008533896291838027
1690838601809780500,9.303780517578126,0.17878946396410464,0.004142287436500192,0.013484276107675395
1690838601819821300,9.3138212890625,0.17863982636034487,-0.001253315396187827,0.010330264489585532
1690838601829861400,9.323861328125,0.1879196958810091,-0.0005128174935001879,0.00042266854904228235
1690838601839901400,9.3339013671875,0.18388181866705416,-0.005273702619224787,0.009535940340696833
1690838601849972500,9.343972412109375,0.1731096647620201,0.0035089123032521455,0.004984725043433718
1690838601860012300,9.35401220703125,0.1728092205107212,0.0015091624539345502,-0.005532664082664996
1690838601870053400,9.364053466796875,0.17849369588792324,-0.008630374369677155,-0.0006807625055080279
1690838601880093400,9.374093505859374,0.18028642452359198,-0.008223857661709189,0.004258392663416453
1690838601890133500,9.384133544921875,0.179387429857254,-0.011763420831551775,0.015400868585030548
1690838601900174300,9.39417431640625,0.18327742303311823,-0.007775830766418948,0.012295294651971198
1690838601910214400,9.40421435546875,0.1790875701278448,-0.006266942307120189,0.01173694838315714
1690838601920254500,9.41425439453125,0.1828296792656183,-0.009769497934821993,0.008791556280758232
1690838601930294300,9.424294189453125,0.18477496811449526,-0.01365691556110978,0.0075122981591382995
1690838601940335400,9.43433544921875,0.17549977476894854,-0.009158846090035512,0.013335766448499634
1690838601950375400,9.44437548828125,0.17744623266160486,-0.009995214715786278,0.005737191945128142
1690838601960415500,9.45441552734375,0.17490239339768884,-0.00369020542060025,0.012999794226093217
1690838601970455300,9.464455322265625,0.1873217299878597,-0.005556666012760251,0.01512126619236078
1690838601980496400,9.474496337890624,0.18073825994431972,-0.002946748375846073,0.011446518635796382
1690838601990536400,9.484536376953125,0.178193836158514,-0.0046263172269333155,0.011233222944987938
1690838602000576500,9.494576416015626,0.18028817808926104,-0.0028751535775139924,0.006661211454868316
1690838602010617600,9.50461767578125,0.18477964428961277,-0.001233441651938483,0.005213063039747066
1690838602020657400,9.514657470703124,0.1841810938745737,-0.008990028861770406,0.011664572700113058
1690838602030728400,9.524728515625,0.18642741149663924,-0.009040188146429136,0.008766714100446552
1690838602040768500,9.5347685546875,0.17789923712611197,-0.011345743408752605,0.003938736821571365
1690838602050808300,9.544808349609376,0.1693722317993641,-0.0035487967890687287,0.01233230219411198
1690838602060849400,9.554849365234375,0.1770049186348915,0.004440859391121194,0.01110294762882404
1690838602070889500,9.564889404296874,0.1767038898617029,-0.0010412709475494922,0.006940905179083347
1690838602080929300,9.57492919921875,0.17011925077438353,-0.004975404659239575,0.00400987952875439
1690838602090969300,9.58496923828125,0.18059388303756713,-0.00543386161699891,0.014143548300582915
1690838602101010400,9.595010498046875,0.18732757520675658,-0.006040933265211061,0.011103271855809725
1690838602111050200,9.60505029296875,0.18328677538335322,-0.010841940338769927,0.0018046793683664873
1690838602121090300,9.61509033203125,0.18493278902471064,-0.0122010450638365,0.01151982133402489
1690838602131131400,9.62513134765625,0.17565584211349486,-0.0033371633323840797,0.00971740698798094
1690838602141171500,9.63517138671875,0.17146657373011112,-0.0015160031866747884,0.006530611911718733
1690838602151211500,9.64521142578125,0.17505846074223516,0.002565457440679893,0.007837548058130778
1690838602161251300,9.655251220703125,0.17909867604374885,-0.0022149087036494163,0.009298944113892503
1690838602171292400,9.66529248046875,0.17640636821985245,-0.003018416239414364,0.008055104365525766
1690838602181332200,9.675332275390625,0.17446224841475486,0.000958214040286839,0.014757305417908356
1690838602191372300,9.685372314453126,0.17580840232670306,-0.004041640073619783,0.012253081211750396
1690838602201443300,9.695443359375,0.18074644325077532,-0.005546829605335369,0.006613531821663491
1690838602211483400,9.7054833984375,0.1852344023197889,-0.0032214919303078203,0.005912932104524224
1690838602221524500,9.7155244140625,0.1831394758671522,-0.0017309793779160827,0.00881490062372759
1690838602231564300,9.725564208984375,0.18643208767175673,-0.009149676402891055,0.01370195571265649
1690838602241604400,9.735604248046876,0.18359072676599025,-0.007232271074783057,0.00977819269793108
1690838602251644400,9.74564453125,0.17102292161583899,-0.003553445564722642,0.004238253772274766
1690838602261685200,9.755685302734374,0.18044833708703517,-0.006063875749381259,0.005933915527048521
1690838602271725300,9.765725341796875,0.1865823097974062,-0.006731500212103128,0.0014021355826174839
1690838602281765400,9.775765380859376,0.18194120599329472,-0.013323190094716846,0.008346616391697897
1690838602291806500,9.785806396484375,0.17655308321416377,0.0027542854105122388,0.004804998262086883
1690838602301846300,9.79584619140625,0.17565350402593613,0.007428177239373326,0.003543755287770182
1690838602311886300,9.80588623046875,0.18627835841476917,-0.0020862499558366833,0.009825328908441587
1690838602321926400,9.815926513671876,0.1744604948490858,-0.00021014475249685346,0.010059288361365906
1690838602331967200,9.82596728515625,0.17969898002445697,-0.0007496493235230445,0.008283314497675746
1690838602342007300,9.83600732421875,0.1749129147917032,-0.007467851662635803,0.01222836232902482
1690838602352047400,9.84604736328125,0.17686054172813892,-0.00761793679096736,0.01051545746391639
1690838602362088400,9.85608837890625,0.17566402541995046,-0.010087276913411915,0.005343137426511384
1690838602372128500,9.86612841796875,0.16892974872887134,-0.004903417135262862,0.012074427576060406
1690838602382199300,9.87619921875,0.17850480180382727,-0.009373073362605646,0.00406114363969973
1690838602392239400,9.8862392578125,0.17880173892378806,0.0009548256399575621,0.006060991955839563
1690838602402279400,9.896279541015625,0.17595628636479377,-0.003079343513259664,-0.0016214568721246905
1690838602412320300,9.9063203125,0.17625380800664422,-0.00755282653234899,0.007904857123701366
1690838602422360300,9.9163603515625,0.1734106935352087,-0.002033414656901732,0.011252859227219596
1690838602432400400,9.926400390625,0.17924772912561893,-0.0016493563759140668,0.0008124782913873787
1690838602442440200,9.936440185546875,0.1922673696964979,-0.004389485396910459,0.0022270809153444133
1690838602452481300,9.946481201171874,0.19870354022383688,0.0008351356498897076,0.004610030529124196
1690838602462521300,9.956521240234375,0.19257132107913494,-0.004212667525280267,0.009741509382775983
1690838602472561400,9.9665615234375,0.18135142340660093,-0.007184185016201809,0.010396383961779065
1690838602482601500,9.9766015625,0.16878186469078063,-0.012233732623886317,0.0130671535240137
1690838602492642300,9.986642333984374,0.22722996200621126,-0.009176436545653269,-0.0033630398424458687
1690838602502682400,9.996682373046875,0.11375965017080307,-0.3216942158048972,-0.3674913231987506
1690838602512722400,10.006722412109376,-0.12042378423511982,0.20229546376857904,0.3941364612791687
1690838602522763500,10.016763427734375,0.21975977225601673,-0.09360891561098396,0.35992538145650177
1690838602532803300,10.02680322265625,0.22012860556840896,-0.21324098321283236,-0.2386563968352042
1690838602542843400,10.036843505859375,-0.03675298285782337,0.05199042734233662,0.24420378356296568
1690838602552914400,10.04691455078125,0.308953136447072,-0.017855463229492306,0.03806781004974618
1690838602562954500,10.05695458984375,0.1571282517760992,0.03412561176260933,-0.12512386081800794
1690838602572995300,10.066995361328125,0.2853121486186981,0.06887615049052984,-0.11821537833749315
1690838602583035400,10.077035400390624,0.2520896779745817,0.1139610179618001,-0.1387469015089795
1690838602593075200,10.0870751953125,0.26978257105350495,0.11766418332867323,-0.10500983240623027
1690838602603115300,10.097115234375,0.24742051711976526,0.12037556117922067,-0.04730964911496267
1690838602613156400,10.10715625,0.220893160200119,0.0710655685598962,-0.007336037409934215
1690838602623196400,10.117196533203124,0.14903379264771938,0.06519210994923487,0.06796908211559057
1690838602633236500,10.127236572265625,0.1947901661723852,0.026345461014099417,0.11955918502872809
1690838602643277300,10.13727734375,0.1299491529494524,-0.0257826577658765,0.13558862014114856
1690838602653317400,10.1473173828125,0.12029986559450626,-0.08274371312763541,0.09292339929854497
1690838602663357400,10.157357421875,0.12288520591259001,-0.13134048857684247,0.027605274649732746
1690838602673397200,10.167397216796875,0.17316577886343001,-0.14305461777341552,-0.03502983515991363
1690838602683438300,10.177438232421874,0.11282616871297359,-0.14431175996134987,-0.061043812897056335
1690838602693478400,10.187478515625,0.20254326451718807,-0.11286106649641878,-0.06547511900854297
1690838602703518500,10.1975185546875,0.14754150826334952,-0.06920213104188441,-0.03858798886579461
1690838602713559300,10.207559326171875,0.1776712735891342,-0.03504203248778358,0.006743606208427809
1690838602723629600,10.217629638671875,0.16874971598684788,0.01005017803972587,0.04967605858589522
1690838602733669600,10.227669677734376,0.17301263412833212,0.046855804400239134,0.06189894558878149
1690838602743709400,10.23770947265625,0.20303952360153196,0.060915875668451185,0.052588343003136105
1690838602753749500,10.24774951171875,0.19553484705984592,0.07177072115456685,0.04034811670638155
1690838602763789600,10.25778955078125,0.21334873616993427,0.08029273977894336,0.00832229480119422
1690838602773830700,10.26783056640625,0.2473492054492235,0.07262830609828233,-0.0171915513940854
1690838602783870700,10.27787060546875,0.18979075044989585,0.06454811295727267,-0.03522539883120917
1690838602793910800,10.287910888671876,0.2205284185409546,0.04544246700359508,-0.047650612606317734
1690838602803951600,10.29795166015625,0.19830080464184283,0.025114567512273787,-0.03447258486964274
1690838602813991400,10.307991455078126,0.18145488378107547,-0.002144062823988497,-0.01996680196081288
1690838602824031500,10.318031494140625,0.1708826363623142,-0.028951405728794632,0.01582822258505039
1690838602834071600,10.328071533203126,0.16613281148672102,-0.051630590187152846,0.03990173377890605
1690838602844112600,10.338112548828125,0.14445464816391468,-0.07340277020265348,0.0523134944173973
1690838602854152700,10.348152587890626,0.14864683915674687,-0.07446188733414746,0.045446796118840574
1690838602864192800,10.35819287109375,0.1562608212918043,-0.06826558997728861,0.02658734347857535
1690838602874233600,10.368233642578126,0.16415771202147006,-0.0650433399951551,0.014078739436063914
1690838602884273400,10.3782734375,0.16680325809419155,-0.044566286957263945,0.004657913375017233
1690838602894313500,10.3883134765625,0.16764789222478865,-0.027084406280517576,0.000210003188601695
1690838602904384500,10.398384521484376,0.19707389319539068,0.005149254255648702,0.00248973474191298
1690838602914424600,10.408424560546875,0.19403496389091013,0.019616043161228298,0.007626270794472657
1690838602924464600,10.418464599609376,0.18517536560893058,0.03168291305191815,0.01312086332249455
1690838602934505700,10.428505615234375,0.21568799277245998,0.04093914596866816,0.018706714330543762
1690838602944545800,10.4385458984375,0.18711188662946224,0.042548773122392594,0.010072152409516274
1690838602954585600,10.448585693359375,0.1998532947808504,0.039858291929401456,0.005268254692549817
1690838602964626400,10.45862646484375,0.19644670120775698,0.02384231908675283,-0.006084562344383448
1690838602974666500,10.46866650390625,0.19379530991613864,0.01107307308036834,-0.014742135248240083
1690838602984706600,10.47870654296875,0.1778232492804527,-0.00014724471727386117,-0.008068973060674034
1690838602994746600,10.48874658203125,0.16723171263933181,-0.011767777346260845,0.01006215617188718
1690838603004787700,10.49878759765625,0.16920038236379623,-0.01778663577698171,0.026788455541245638
1690838603014827800,10.508827880859375,0.15050678780972956,-0.024736034789774566,0.04026478123790584
1690838603024867600,10.51886767578125,0.14287351645231247,-0.03426522116269916,0.037054121228866276
1690838603034908400,10.528908447265625,0.1632148782134056,-0.050719676754157984,0.02725455694934353
1690838603044948500,10.538948486328126,0.17277707180678845,-0.04952907873010263,0.0033737601679822544
1690838603054988500,10.548988525390625,0.1651227576613426,-0.03760015600537881,-0.013887687543104403
1690838603065028600,10.559028564453126,0.17272972553372382,-0.017570307878870515,-0.02508107623462565
1690838603075099600,10.569099609375,0.1957493665933609,-0.010227982292044907,-0.016733012237935326
1690838603085140700,10.579140625,0.19273615625202656,0.009748765674047172,-0.009262575892568565
1690838603095180800,10.589180908203126,0.20095219593346117,0.011279537171591072,0.009320840851869433
1690838603105220600,10.599220703125,0.18792378753423689,0.02220797761688009,0.025010591114568523
1690838603115260700,10.6092607421875,0.17999182549118994,0.03113430272582918,0.03283360375727061
1690838603125301500,10.619301513671875,0.17147008086144924,0.030842388840857892,0.031249937595287335
1690838603135341600,10.629341552734376,0.1862982321590185,0.019277130063064394,0.028397826966643332
1690838603145381600,10.639381591796875,0.2017307790905237,0.0029701931835152207,0.003054469652318221
1690838603155422700,10.649422607421876,0.18230127147734165,-0.0077013498912565405,-0.01496282422763761
1690838603165462800,10.659462890625,0.18800854320824145,-0.013308102123439311,-0.01769163727017585
1690838603175502600,10.669502685546876,0.18159166190326212,-0.025541834747325628,-0.01307333438633941
1690838603185542700,10.679542724609375,0.16514555401504039,-0.02813108405554667,-0.015301837790501304
1690838603195583500,10.68958349609375,0.16918927644789217,-0.019227756229694932,0.0076603191945469
1690838603205623600,10.69962353515625,0.16319909612238406,-0.020857184062432498,0.024069332775659858
1690838603215663600,10.70966357421875,0.16528116309344767,-0.025108831891231236,0.03643664235107135
1690838603225704700,10.71970458984375,0.15913023924827574,-0.020845219630002975,0.03998395956910681
1690838603235744800,10.729744873046876,0.16464695684313774,-0.014291395806055516,0.02851663104072213
1690838603245784600,10.73978466796875,0.17914368422925472,-0.00416881011724472,0.01144960564202629
1690838603255855600,10.749855712890625,0.19005320077836513,-0.003636292409431189,-0.001399934492376633
1690838603265895700,10.759895751953126,0.18974749583005904,0.002094780322164297,-0.011780828624079004
1690838603275935700,10.769935791015625,0.19977204623818395,0.005008293148688971,-0.006463519758568145
1690838603285976600,10.7799765625,0.19004794008135795,0.00588319455338642,-0.0101055706219282
1690838603296016600,10.7900166015625,0.18047873222529887,0.005740918272174895,0.0010859186588626471
1690838603306056700,10.800056640625,0.19425649768710135,0.00043440936189144847,0.014950193074927665
1690838603316097800,10.810097900390625,0.17765958315134048,0.0006148987616412341,0.021695319953584112
1690838603326137600,10.8201376953125,0.17153437826931475,-0.006713179104123264,0.020730224081361666
1690838603336177700,10.830177734375,0.17244038719832896,-0.006932192149665207,0.022939575260481796
1690838603346217700,10.8402177734375,0.17499124072492123,-0.009954005922563373,0.015583910701470449
1690838603356258600,10.850258544921875,0.17574352039694785,-0.01641843443000689,0.00747522211833857
1690838603366298600,10.860298583984376,0.17469722621440886,-0.020095405909698456,-0.00021797158051485894
1690838603376338700,10.870338623046875,0.17963292905092237,-0.022034484213497487,0.009718338569742626
1690838603386379800,10.8803798828125,0.18127602008283136,-0.01819346301220357,0.01510412782789208
1690838603396419600,10.890419677734375,0.17602993612289428,-0.009875570391491055,0.014616458475380205
1690838603406459600,10.900459716796876,0.17676818726956844,-0.00720481681227684,0.0182767710812157
1690838603416499700,10.910499755859375,0.1784042640388012,-0.001535246743261814,0.02382663289385382
1690838603426570800,10.92057080078125,0.17660159853100776,-0.0040728206631727515,0.017512079452187752
1690838603436610800,10.93061083984375,0.18751929838657377,0.0006901376886293292,0.021820375671936197
1690838603446651600,10.940651611328125,0.18542378741204738,-0.006100801093131303,0.003523233374960546
1690838603456691700,10.950691650390626,0.18347791404128075,-0.006577624824643135,-0.005045332656870596
1690838603466731500,10.9607314453125,0.1924596773982048,0.0030777086785994468,0.002412924626935273
1690838603476772600,10.970772705078126,0.19111819966137408,-0.007677950749360025,0.0039115793865872545
1690838603486812700,10.980812744140625,0.17466741559803484,0.004698021623119711,0.00733860382635612
1690838603496852700,10.990852783203126,0.18081132518053053,0.005231763173639774,0.012009289917978458
1690838603506892800,11.000892822265625,0.18201427122950553,-0.009657342797238379,0.01678008451636415
1690838603516933600,11.01093359375,0.1808212620526552,-0.015703125767502935,0.012093735064729116
1690838603526973700,11.0209736328125,0.1672054091542959,-0.016092508677579463,0.014293446199246681
1690838603537013500,11.031013427734376,0.16959668820500373,-0.01522102307267487,0.013108451365493237
1690838603547054600,11.0410546875,0.18545418255031107,-0.0164853256537579,0.0047428014797624195
1690838603557094700,11.0510947265625,0.1841027679413557,-0.017850659190211445,0.00895254182901699
1690838603567134700,11.061134765625,0.1857446899294853,-0.015553670826833694,0.003008529885050666
1690838603577174800,11.0711748046875,0.19127602057158946,-0.0035951201488263903,0.005129910234361886
1690838603587215600,11.081215576171875,0.17466215490102768,-0.0008705174905247985,0.0067610642333049325
1690838603597255700,11.091255615234376,0.18453706770539283,0.007580335593782365,0.010174000782216898
1690838603607326700,11.10132666015625,0.18363865756094455,0.006524031473882496,0.00986269721018616
1690838603617366500,11.111366455078125,0.19201894789338111,-0.003621332302317023,0.009582405264349654
1690838603627406600,11.121406494140626,0.18363924208283422,0.005518635557312518,0.02126795225383248
1690838603637447700,11.13144775390625,0.18798282424509524,0.000054305736813694235,0.012961530875205062
1690838603647487700,11.14148779296875,0.18633914869129656,0.005299238919280469,0.004920665097585879
1690838603657527800,11.15152783203125,0.18125380825102327,0.0018671821113675831,0.0015867440350586547
1690838603667568600,11.161568603515626,0.17796528809964657,-0.003333729266282171,0.00196728177038749
1690838603677608700,11.171608642578125,0.1836532706081867,-0.005161182155460119,-0.00039447007714770734
1690838603687648500,11.1816484375,0.18066519470810888,-0.004871916885301471,0.003107578660477884
1690838603697688600,11.1916884765625,0.1781242780536413,-0.014142872447147965,0.016925584801123477
1690838603707729700,11.201729736328126,0.17557926974594593,-0.012086871499102562,0.010676073119416832
1690838603717769700,11.211769775390625,0.172285488897562,-0.012376465562824158,0.009369867625366896
1690838603727809800,11.221809814453126,0.18006196811795233,-0.005929152586963028,0.011918839722126722
1690838603737820400,11.2318203125,0.16973171276152133,0.004378708274569362,0.010031272409856318
1690838603747860200,11.241860107421875,0.1822983488678932,-0.0071807966158725315,0.015481098780967295
1690838603757900300,11.251900390625,0.19321897133290766,-0.008104962256085127,0.014245848764432594
1690838603767940400,11.2619404296875,0.18932605554759502,-0.0016594393785111605,0.012300998306972906
1690838603778011400,11.272011474609375,0.18752981978058814,-0.006175455498229712,0.006465857846126891
1690838603788051500,11.282051513671876,0.18244389481842516,-0.008167981022316962,0.005413691045227461
1690838603798092300,11.29209228515625,0.17526421244740484,-0.0036525128918699916,0.006112697026901878
1690838603808132400,11.30213232421875,0.1854442456781864,-0.006654672116227447,0.012290212051477283
1690838603818172200,11.312172119140625,0.19218319854438304,-0.008285597786307334,0.007089515302958898
1690838603828213200,11.322213134765626,0.18201017957627771,-0.008133220236189663,0.006819657986168749
1690838603838253300,11.33225341796875,0.17991583764553068,-0.008845460158772767,0.004082104514748789
1690838603848293400,11.34229345703125,0.1704874995648861,-0.008918708058074116,0.0100443830531789
1690838603858333400,11.35233349609375,0.17377718876004217,-0.00936389454230666,0.01750310156128835
1690838603868374300,11.362374267578126,0.17332652238309382,-0.008144435749948024,0.014677216785866766
1690838603878414300,11.372414306640625,0.17137831092476843,-0.007859663991816342,0.002253884440590627
1690838603888454100,11.3824541015625,0.17960837913155556,0.000504716385435313,0.001900367571044626
1690838603898495200,11.3924951171875,0.17646657397449014,-0.006634981035068631,0.007499598507769405
1690838603908535300,11.402535400390626,0.17437106299996374,-0.012494575517158955,0.015868353666039184
1690838603918575400,11.412575439453125,0.17721300842761992,-0.005383263940922915,0.010109959102678112
1690838603928615400,11.422615478515626,0.19127718961536883,-0.005359590804390609,0.005784483419265598
1690838603938656300,11.43265625,0.18274843072295188,-0.0026165939728729423,0.006395112431165762
1690838603948696300,11.4426962890625,0.18140052324533462,-0.005390387801453471,0.01881969145203475
1690838603958767400,11.452767333984376,0.18080197283029556,0.0004450220874510705,0.009341372183244675
1690838603968807200,11.46280712890625,0.17900632158517837,0.000015325433295220135,0.008590667980373837
1690838603978847200,11.47284716796875,0.1755669947862625,-0.006430891564022749,0.015754161834996193
1690838603988888300,11.482888427734375,0.1779635345339775,-0.011359470540005714,0.013054259793111122
1690838603998928400,11.492928466796876,0.17407587944567202,-0.008344597964547574,0.005058342835493386
1690838604008968400,11.502968505859375,0.1814104601174593,-0.006249105256330221,0.008072827251884155
1690838604019008500,11.513008544921876,0.18680033646225927,-0.0032433475690893825,0.010467951360647565
1690838604029049300,11.52304931640625,0.17991642216742038,-0.012244144420046359,0.011215262596611864
1690838604039089200,11.533089111328126,0.1749783812433481,-0.008065799289476126,0.013338296332303434
1690838604049129200,11.543129150390625,0.1709364123761654,-0.0026465872523374853,0.02134797238721512
1690838604059170300,11.55317041015625,0.16973463537096975,-0.0032120756479911503,0.009241049047349952
1690838604069210400,11.56321044921875,0.1790086596727371,-0.007471048266720026,0.004530629166960716
1690838604079250400,11.57325048828125,0.17870763089954853,-0.006988397582620382,0.014603973453142679
1690838604089290500,11.58329052734375,0.18289689928293226,0.0012237331086769698,0.00687650273994077
1690838604099331300,11.593331298828126,0.17990706981718538,-0.0018946546401828526,0.0017321484216954559
1690838604109371100,11.60337109375,0.17452362321317194,-0.003621405367553234,0.006276883745822124
1690838604119411200,11.6134111328125,0.18066344114243982,-0.007554324369691312,0.008988183964556083
1690838604129482200,11.623482177734376,0.17168986109197137,-0.00502590187061578,0.018238626461336387
1690838604139522300,11.633522216796875,0.17274024692773818,-0.0024464981029741466,0.005318564674258232
1690838604149563400,11.6435634765625,0.18830255771875382,-0.004968984051607549,0.0021157043791841714
1690838604159603500,11.653603515625,0.1830646570652723,-0.00621432620389387,0.007517846550513059
1690838604169643500,11.6636435546875,0.19129238718450067,-0.010259144615288823,0.012094196289032697
1690838604179684400,11.673684326171875,0.17617548207342623,-0.00850247367369011,0.00019059523523319512
1690838604189724200,11.68372412109375,0.1775192978978157,-0.006602357407100498,0.009044549227715469
1690838604199764200,11.69376416015625,0.18021043667793274,-0.009572788052633403,0.008396912673674524
1690838604209804300,11.70380419921875,0.18065818044543266,-0.00982349314438179,0.013952131081442347
1690838604219845400,11.713845458984375,0.1779629500120878,-0.006325842020660638,0.007380990796512924
1690838604229885400,11.723885498046876,0.17646598945260047,0.0009640592591837048,0.021516999678034335
1690838604239925500,11.733925537109375,0.17212766798734663,-0.00720326417600736,0.009575244871200993
1690838604249966300,11.74396630859375,0.1760194147288799,-0.007121431111451238,0.010815490723261609
1690838604260006100,11.754006103515625,0.17676818726956844,-0.002886186428181827,0.012742997320275753
1690838604270046200,11.764046142578126,0.17497195150256156,0.0005257043745368719,0.006357104808604345
1690838604280086300,11.774086181640625,0.1766173806220293,-0.011648260886128992,0.00037230862039505153
1690838604290127400,11.78412744140625,0.1781149257034063,-0.009163768860325217,0.011626784273260273
1690838604300197400,11.794197265625,0.18874094913601874,-0.008328359215799719,0.016065410608099774
1690838604310238500,11.804238525390625,0.18215689457058906,-0.008315846794098615,0.005915553319873288
1690838604320278500,11.814278564453126,0.17063596812486648,-0.00391531028021127,0.004862395571707747
1690838604330318300,11.824318359375,0.16914251469671726,-0.0016520049907267093,0.016719107010168953
1690838604340359200,11.834359130859376,0.18305881184637546,-0.004918075848277658,0.020059352782205678
1690838604350399200,11.844399169921875,0.18036475045681,0.0007302687696181237,0.01862801393799018
1690838604360439300,11.854439208984376,0.18275719855129718,-0.0016282222563400864,0.01106125477841124
1690838604370479400,11.864479248046875,0.1821545564830303,-0.004719648933038115,0.010707545969914644
1690838604380520400,11.8745205078125,0.1825993776410818,-0.0016895605221390723,0.009030096010677516
1690838604390560500,11.884560546875,0.1818494360566139,-0.005693188406620174,0.013931850911816581
1690838604400600300,11.894600341796876,0.18514263238310813,-0.00396749712517485,0.005076590878237038
1690838604410641200,11.90464111328125,0.18619243369698524,-0.014296510372590273,0.0003360499969254306
1690838604420681200,11.91468115234375,0.16524609178006647,-0.01170934342360124,0.0018083052307134493
1690838604430721300,11.92472119140625,0.17258417958319186,-0.004784877922665328,0.011497837831079959
1690838604440761300,11.93476123046875,0.18785013777613638,-0.0006917816564440726,0.006668161785462871
1690838604450802400,11.944802490234375,0.18111995273828504,-0.004995780726987868,0.007298276382545009
1690838604460842500,11.954842529296876,0.16929975108504294,-0.005512224082835018,0.015193847371381707
1690838604470882300,11.96488232421875,0.16660335160791873,-0.004036744702793658,0.01626336716588121
1690838604480953300,11.974953369140625,0.17018939340114592,-0.006613408524077385,0.015894031529990024
1690838604490993200,11.9849931640625,0.18170505914986132,-0.0023826756191439925,0.006102751021622679
1690838604501034200,11.9950341796875,0.18080255735218523,-0.00221199522735551,-0.004261210241587833
1690838604511074300,12.00507421875,0.18080080378651617,-0.002317720624152571,-0.0001103374971273297
1690838604521114400,12.0151142578125,0.17930325870513916,-0.0017742796635255216,-0.000982024174137041
1690838604531154400,12.025154541015626,0.1811000789940357,-0.0045353236083872615,-0.0067418617759132755
1690838604541195500,12.035195556640625,0.18020634502470492,-0.0048988962237723165,0.001865186517103575
1690838604551235000,12.045235107421876,0.191731947645545,-0.006483462001476437,0.007824916905420832
1690838604561275100,12.055275146484375,0.17841887708604334,-0.00023024682560935614,0.016054647185490465
1690838604571316200,12.065316162109376,0.17183657608628272,0.0008024754893034696,0.021645151535770856
1690838604581356300,12.075356201171875,0.17153730087876318,-0.003093143709748983,0.02471144377121236
1690838604591396400,12.085396240234376,0.17153554731309412,0.0003955569225363433,0.021098262809310108
1690838604601436400,12.0954365234375,0.1743774927407503,0.0010520480698905884,0.01716630735497456
1690838604611477200,12.105477294921876,0.17093465881049633,-0.003943184667825699,0.0037859711123863233
1690838604621517000,12.11551708984375,0.17781798858344555,-0.01308227574462071,-0.007348869492043741
1690838604631557000,12.12555712890625,0.17961305530667304,-0.009197031809110193,-0.014525359825557096
1690838604641598200,12.13559814453125,0.1802110211998224,-0.00849416250307113,-0.00387328863623552
1690838604651668200,12.145668212890625,0.19307985512316225,-0.011340272649191319,-0.005029646463971585
1690838604661709300,12.155709228515626,0.18499883999824523,-0.009148370361793785,-0.0026202426681062206
1690838604671749400,12.165749267578125,0.18424772936999798,-0.006347688526287675,0.008269674131390637
1690838604681789400,12.17578955078125,0.17840952473580837,0.0010078618682920933,0.015308454760955647
1690838604691830300,12.185830322265625,0.1737672518879175,0.005439542439114302,0.015385885645030066
1690838604701870000,12.1958701171875,0.17645722162425517,0.0038844219516031443,0.024550782449939287
1690838604711910100,12.20591015625,0.18528467120230196,0.0011219715009443462,0.02127562867021188
1690838604721950200,12.2159501953125,0.17690788800120352,-0.007243267392832786,0.013182598880515433
1690838604732007000,12.2260068359375,0.17496785984933375,-0.004812916707061231,0.0016829618179937823
1690838604742046700,12.236046630859375,0.1703337703078985,-0.0060106385916471475,-0.001724184310948476
1690838604752086800,12.246086669921874,0.19188684594631195,-0.01378072460386902,-0.011741674790624528
1690838604762128000,12.2561279296875,0.18036708854436873,-0.00929638226404786,-0.00499272112022154
1690838604772167700,12.266167724609375,0.17273615527451036,-0.005238028517644852,0.0037554070107638834
