time,seconds_elapsed,z,y,x
1690838592701706000,0.1957060546875,0.002349727787077427,-0.005645162425935268,0.016827009618282318
1690838592711746000,0.20574609375,0.0013460605405271053,-0.010036265477538109,-0.03520313650369644
1690838592721791700,0.215791748046875,-0.0013016541488468647,-0.010087396949529648,-0.08063986152410507
1690838592731832800,0.225832763671875,0.0004855315200984478,-0.005371544975787401,-0.10792897641658783
1690838592741873000,0.235872802734375,-0.0013909321278333664,-0.0021206242963671684,-0.11668013036251068
1690838592751913000,0.245912841796875,-0.0024755438789725304,0.0002931710332632065,-0.10801632702350616
1690838592761952800,0.255952880859375,-0.0011993572115898132,-0.002406741725280881,-0.08269579708576202
1690838592771993900,0.265993896484375,0.0005611651577055454,-0.0034042680636048317,-0.04986035078763962
1690838592782033700,0.27603369140625,0.0011835459154099226,-0.006772101391106844,-0.01299688033759594
1690838592792104700,0.286104736328125,0.0003570164553821087,-0.005005864426493645,0.026451174169778824
1690838592802144800,0.296144775390625,-0.0017577996477484703,-0.0027144807390868664,0.05639895051717758
1690838592812184800,0.306184814453125,0.0001440681517124176,0.004027728922665119,0.07906567305326462
1690838592822226000,0.316225830078125,-0.0004141307435929775,0.010530902072787285,0.09148665517568588
1690838592832265700,0.326265625,0.00021113315597176552,0.014159105718135834,0.08782028406858444
1690838592842305500,0.336305419921875,0.0027840130496770144,0.012754288502037525,0.06953981518745422
1690838592852345600,0.346345703125,0.0026564940344542265,0.00767173245549202,0.0408671535551548
1690838592862386700,0.35638671875,0.0007443446666002274,0.003616536967456341,0.00894064549356699
1690838592872426800,0.3664267578125,-0.0013514012098312378,-0.006976603996008635,-0.024830389767885208
1690838592882466800,0.376466796875,-0.0007322165183722973,-0.011801719665527344,-0.050147198140621185
1690838592892508000,0.3865078125,-0.0012361216358840466,-0.00783078558743,-0.06768755614757538
1690838592902547700,0.396547607421875,-0.0017162896692752838,-0.003374518360942602,-0.06833550333976746
1690838592912587500,0.40658740234375,0.0008061900734901428,-0.0008000750094652176,-0.059450216591358185
1690838592922627600,0.416627685546875,-0.00046200724318623543,0.0012641411740332842,-0.04307977110147476
1690838592932668700,0.426668701171875,0.001128221396356821,0.004184354562312365,-0.02033577673137188
1690838592942708700,0.436708740234375,-0.0015919315628707409,-0.0043366956524550915,0.0023367777466773987
1690838592952748800,0.446748779296875,0.0004234570078551769,-0.001137342769652605,0.02709590457379818
1690838592962819800,0.45681982421875,0.00031799590215086937,-0.0006001833826303482,0.044153980910778046
1690838592972860000,0.46685986328125,0.0007163225673139095,0.0016108450945466757,0.05183696001768112
1690838592982900700,0.476900634765625,0.00018182629719376564,0.005779757164418697,0.05025717616081238
1690838592992940500,0.4869404296875,0.0016844552010297775,0.003989002667367458,0.04086252301931381
1690838593002980600,0.496980712890625,-0.001651686616241932,0.006860689260065556,0.026489444077014923
1690838593013020700,0.507020751953125,0.0004229987971484661,0.0026339199393987656,0.006351099349558353
1690838593023061800,0.517061767578125,-0.0004244190640747547,0.0024546892382204533,-0.010678216814994812
1690838593033101800,0.527101806640625,0.00014111539348959923,-0.0016306457109749317,-0.02629435621201992
1690838593043142000,0.537141845703125,-0.001112434547394514,-0.0061990320682525635,-0.03467612713575363
1690838593053182700,0.5471826171875,-0.0011911033652722836,-0.004632929340004921,-0.03977493569254875
1690838593063222500,0.557222412109375,-0.0005809729918837547,-0.003716002916917205,-0.03327016159892082
1690838593073262600,0.5672626953125,0.001008021179586649,-0.0014721022453159094,-0.024962501600384712
1690838593083302700,0.577302734375,0.002507114550098777,0.002214777981862426,-0.009564904496073723
1690838593093343700,0.58734375,0.00006781844422221184,0.0029092240147292614,0.0038029197603464127
1690838593103383800,0.5973837890625,0.0010065827518701553,0.0019105386454612017,0.01738370954990387
1690838593113424000,0.607423828125,-0.001106947660446167,0.0032449671998620033,0.024608582258224487
1690838593123464700,0.617464599609375,-0.0006515467539429665,0.0018257687333971262,0.029455270618200302
1690838593133504800,0.6275048828125,0.0011170129291713238,0.000046161236241459846,0.026529768481850624
1690838593143575600,0.637575439453125,0.00209412700496614,-0.0011205696500837803,0.021419161930680275
1690838593153615600,0.64761572265625,0.0015545384958386421,-0.0011409595608711243,0.011768300086259842
1690838593163655700,0.65765576171875,-0.00046307221055030823,-0.0010581354144960642,0.0036206264048814774
1690838593173696800,0.66769677734375,0.0009854137897491455,0.001426624832674861,-0.006455792114138603
1690838593183736800,0.67773681640625,-0.001282800454646349,-0.002027495065703988,-0.014747276902198792
1690838593193777000,0.68777685546875,0.00017120083793997765,0.002196613233536482,-0.022256268188357353
1690838593203816700,0.697816650390625,0.001278543146327138,-0.00048705399967730045,-0.020955314859747887
1690838593213857500,0.707857421875,-0.0003206511028110981,-0.0006930301897227764,-0.01843268796801567
1690838593223897600,0.717897705078125,-0.000639165285974741,-0.0016802640166133642,-0.014603327959775925
1690838593233937700,0.727937744140625,-0.0005905032157897949,0.0001244582235813141,-0.004292059689760208
1690838593243978800,0.737978759765625,-0.00034149736166000366,-0.0010380116291344166,0.0031296368688344955
1690838593254018800,0.748018798828125,0.00022807903587818146,0.000021845800802111626,0.012280506081879139
1690838593264059000,0.758058837890625,-0.0010209432803094387,0.00254066358320415,0.017165010794997215
1690838593274099000,0.768098876953125,0.0007819891907274723,0.0011112814536318183,0.018763354048132896
1690838593284139800,0.778139892578125,-0.00017035705968737602,0.0007783863693475723,0.016042668372392654
1690838593294179600,0.7881796875,-0.00033597229048609734,0.00020947633311152458,0.011170320212841034
1690838593304219600,0.7982197265625,-0.00020441226661205292,0.0009261328959837556,0.005111362785100937
1690838593314290700,0.808290771484375,0.0008268579840660095,0.0005387269193306565,-0.0017025824636220932
1690838593324330800,0.818330810546875,0.0010921088978648186,0.0007360671879723668,-0.009191125631332397
1690838593334371800,0.828371826171875,-0.00006757862865924835,-0.0005944480653852224,-0.012792784720659256
1690838593344412000,0.838411865234375,0.0012405659072101116,-0.0016357440035790205,-0.015004537999629974
1690838593354451700,0.84845166015625,-0.0005675507709383965,-0.001539729768410325,-0.011700237169861794
1690838593364491800,0.85849169921875,-0.0013454603031277657,0.00011009839363396168,-0.007482588291168213
1690838593374532600,0.86853271484375,0.00022310437634587288,0.0013738102279603481,-0.0005800798535346985
1690838593384572700,0.87857275390625,0.000726175494492054,0.0011130868224427104,0.00528153870254755
1690838593394612700,0.88861279296875,0.0015557622537016869,-0.00026807026006281376,0.010343280620872974
1690838593404653800,0.89865380859375,0.001818350050598383,0.0014430106384679675,0.011200019158422947
1690838593414694000,0.90869384765625,-0.0006195376627147198,0.0018970177043229342,0.010395921766757965
1690838593424734000,0.91873388671875,0.0009927400387823582,0.0009507965296506882,0.009775671176612377
1690838593434773800,0.928773681640625,0.0014230648521333933,0.0014430307783186436,0.004472808912396431
1690838593444814600,0.938814697265625,0.0012547532096505165,0.0011735189473256469,-0.00015097111463546753
1690838593454854700,0.948854736328125,0.0005107466131448746,0.0006795241497457027,-0.004133002832531929
1690838593464894700,0.958894775390625,0.0006497632712125778,-0.0010731020011007786,-0.006582578644156456
1690838593474935800,0.968935791015625,0.0013344057369977236,0.0001871285494416952,-0.008597871288657188
1690838593484975900,0.978975830078125,0.0007525049149990082,0.0004624993307515979,-0.00716056302189827
1690838593495047000,0.989046875,0.0007569314911961555,0.0014964380534365773,-0.003733081743121147
1690838593505086700,0.999086669921875,-0.00005480041727423668,0.001200827187858522,-0.0027178842574357986
1690838593515126800,1.009126708984375,0.0007022330537438393,-0.0029333767015486956,-0.0012198779731988907
1690838593525166800,1.019166748046875,-0.0012629134580492973,-0.000046510249376297,0.002483513206243515
1690838593535207700,1.029207763671875,0.0007414366118609905,-0.00033090077340602875,0.0034549497067928314
1690838593545247700,1.039247802734375,-0.0007009315304458141,-0.0004829671233892441,0.0036677364259958267
1690838593555287800,1.049287841796875,0.00008487515151500702,0.002327455673366785,0.004848312586545944
1690838593565329000,1.059328857421875,0.0012667861301451921,0.0020611395593732595,0.005919435992836952
1690838593575368700,1.06936865234375,0.00029600318521261215,0.0002770638093352318,0.00438154861330986
1690838593585408800,1.07940869140625,-0.0025152298621833324,-0.0014934055507183075,0.002201218158006668
1690838593595448800,1.08944873046875,-0.0004847780801355839,0.00038588198367506266,0.0011423993855714798
1690838593605489700,1.09948974609375,0.0013509388081729412,-0.001017604023218155,-0.0004858579486608505
1690838593615529700,1.10952978515625,0.00013032322749495506,-0.0010807209182530642,-0.004793254658579826
1690838593625569800,1.11956982421875,0.0002895803190767765,-0.00040507689118385315,-0.00908280722796917
1690838593635611000,1.12961083984375,0.0011847971472889185,0.002630082191899419,-0.010296793654561043
1690838593645651000,1.13965087890625,-0.0005854060873389244,0.002526485361158848,-0.008030178025364876
1690838593655690800,1.149690673828125,0.0005310690030455589,0.001968089723959565,-0.005643151700496674
1690838593665761800,1.15976171875,-0.0014135711826384068,0.0024788840673863888,-0.00128941610455513
1690838593675801900,1.1698017578125,-0.0011877603828907013,0.0004099805373698473,0.0064259059727191925
1690838593685842700,1.1798427734375,-0.0005691079422831535,-0.004400220699608326,0.00941876694560051
1690838593695882800,1.1898828125,-0.0003508753143250942,-0.0021258732303977013,0.010533316060900688
1690838593705922800,1.1999228515625,-0.0007335711270570755,-0.0028262846171855927,0.011399376206099987
1690838593715962600,1.209962646484375,0.0016471236012876034,0.0007070297142490745,0.007421598769724369
1690838593725994800,1.219994873046875,0.002119834767654538,0.0004795958520844579,0.0008920598775148392
1690838593736034800,1.230034912109375,0.0009796181693673134,0.0023107328452169895,-0.005806403234601021
1690838593746075000,1.240074951171875,-0.0007551652379333973,0.002576516242697835,-0.009496213868260384
1690838593756116000,1.250115966796875,-0.0005110418424010277,0.002371719107031822,-0.01410907693207264
1690838593766156000,1.260156005859375,-0.002778190653771162,0.00030404096469283104,-0.008495397865772247
1690838593776195800,1.27019580078125,0.0009678476490080357,-0.0005312054418027401,-0.005108151584863663
1690838593786236000,1.28023583984375,-0.0008148723281919956,-0.0037035627756267786,0.001277310773730278
1690838593796276700,1.29027685546875,0.0005912999622523785,-0.0017416386399418116,0.008005872368812561
1690838593806316800,1.30031689453125,0.0007185991853475571,-0.0036050521302968264,0.009618416428565979
1690838593816356900,1.31035693359375,-0.0005042958073318005,-0.001464935950934887,0.011043207719922066
1690838593826397000,1.32039697265625,0.0006829416379332542,0.0018067574128508568,0.005205824971199036
1690838593836468000,1.330468017578125,-0.0004647616297006607,-0.0005576000548899174,0.0006752107292413712
1690838593846509000,1.340509033203125,-0.00046103307977318764,0.0014879739610478282,-0.003943776711821556
1690838593856548900,1.350548828125,0.0003127208910882473,0.0022655902430415154,-0.007540540769696236
1690838593866589000,1.3605888671875,0.001844304846599698,0.0011393394088372588,-0.009048689156770706
1690838593876629000,1.37062890625,0.0001744050532579422,-0.0004044140223413706,-0.006517056375741959
1690838593886669800,1.380669921875,0.00018532387912273407,0.00007335701957345009,-0.003073057159781456
1690838593896710000,1.3907099609375,-0.0004591532051563263,0.00037645071279257536,0.002417486160993576
1690838593906750000,1.40075,0.0012167738750576973,-0.001680042129009962,0.004224972799420357
1690838593916791000,1.410791015625,-0.0006519276648759842,-0.001084610354155302,0.007222284562885761
1690838593926830800,1.420830810546875,-0.0012897546403110027,0.0010232815984636545,0.005842766724526882
1690838593936871000,1.430870849609375,0.0011466036085039377,0.00048010051250457764,0.0026937834918498993
1690838593946911000,1.440910888671875,0.0008227634243667126,-0.000551075441762805,-0.0023782067000865936
1690838593956951800,1.450951904296875,0.0005316748283803463,0.0006899855798110366,-0.0026488788425922394
1690838593966992000,1.460991943359375,0.00012074923142790794,0.0024924129247665405,-0.004108291119337082
1690838593977032000,1.471031982421875,-0.0005120448768138885,0.0005220996681600809,-0.0038413777947425842
1690838593987073000,1.481072998046875,0.0002602715976536274,0.0014696524012833834,-0.00255560502409935
1690838593997113000,1.491113037109375,0.0009328592568635941,-0.0006068951915949583,-0.0014408361166715622
1690838594007153000,1.50115283203125,0.0009001023136079311,-0.0008095619268715382,0.0010606702417135239
1690838594017224000,1.511223876953125,-0.0006017587147653103,-0.0007204776629805565,0.0033606737852096558
1690838594027264000,1.521263916015625,0.0010486021637916565,-0.002461385913193226,0.0028892941772937775
1690838594037303800,1.5313037109375,0.001322226133197546,0.0005401846719905734,0.0007832292467355728
1690838594047345000,1.541344970703125,0.0006529735401272774,-0.0019799647852778435,0.000860992819070816
1690838594057385000,1.551385009765625,-0.002867524977773428,-0.001587896840646863,0.001309078186750412
1690838594067424800,1.5614248046875,-0.00034125056117773056,0.00004488718695938587,-0.002030258998274803
1690838594077465900,1.5714658203125,0.0007713176310062408,0.0020056143403053284,0.0009100660681724548
1690838594087506000,1.581505859375,0.0006464156322181225,0.0015864328015595675,0.0024701450020074844
1690838594097546000,1.5915458984375,-0.001417738851159811,0.0033994093537330627,0.0021602604538202286
1690838594107585800,1.601585693359375,0.00020732218399643898,0.00003690202720463276,0.0010558459907770157
1690838594117627000,1.611626953125,0.000016094651073217392,0.0016954883467406034,0.0008140932768583298
1690838594127667000,1.6216669921875,0.001142079010605812,-0.0004976247437298298,-0.0007712859660387039
1690838594137707000,1.63170703125,-0.0003639319911599159,-0.0020757599268108606,-0.003506498411297798
1690838594147748000,1.641748046875,0.00018254853785037994,-0.004586854018270969,-0.004750726744532585
1690838594157788000,1.651787841796875,-0.001310750376433134,-0.0015324503183364868,-0.003883957862854004
1690838594167828000,1.661827880859375,0.0011649243533611298,0.0025323324371129274,-0.0023904573172330856
1690838594177867800,1.67186767578125,0.00015662284567952156,0.002244419651106,-0.0019989386200904846
1690838594187938800,1.681938720703125,-0.0007475200109183788,0.0013559891376644373,0.00266319140791893
1690838594197980000,1.69197998046875,0.0007326495833694935,0.002012749668210745,0.005934584885835648
1690838594208020000,1.70202001953125,-0.0014460822567343712,0.0016470977570861578,0.006194775924086571
1690838594218059800,1.712059814453125,0.001327228033915162,0.0025424398481845856,0.007170727476477623
1690838594228099800,1.722099853515625,-0.0002791904844343662,-0.002783615840598941,0.005802394822239876
1690838594238141000,1.732140869140625,0.0011866705026477575,-0.002308894647285342,0.003170326352119446
1690838594248181000,1.742180908203125,-0.00010656053200364113,-0.002648181514814496,0.001020088791847229
1690838594258220800,1.752220703125,0.0007584835402667522,-0.0004510146100074053,-0.0020712614059448242
1690838594268260900,1.7622607421875,0.00020348047837615013,-0.00063716946169734,-0.005125107243657112
1690838594278302000,1.772302001953125,0.0007469160482287407,0.0008740886114537716,-0.00895174965262413
1690838594288342000,1.782342041015625,-0.0006760112009942532,-0.0005291309207677841,-0.005140233784914017
1690838594298381800,1.7923818359375,-0.00043534068390727043,0.0014242189936339855,-0.0034488923847675323
1690838594308423000,1.8024228515625,-0.0006001903675496578,0.00010542175732553005,-0.001771898940205574
1690838594318463000,1.812462890625,-0.000538606196641922,-0.0002567961346358061,0.0036530550569295883
1690838594328502800,1.822502685546875,-0.0002853395417332649,0.0031424625776708126,0.005821133963763714
1690838594338542800,1.83254296875,-0.0002545365132391453,0.0016167409485206008,0.0059813763946294785
1690838594348584000,1.842583984375,-0.000007927883416414261,0.0013232605997473001,0.007769156247377396
1690838594358624000,1.8526240234375,0.00006449315696954727,0.00006390362977981567,0.00455033965408802
1690838594368694800,1.86269482421875,-0.0007775984704494476,0.0007874844595789909,0.000826442614197731
1690838594378734800,1.87273486328125,0.0005474141798913479,-0.00023628654889762402,-0.002040863037109375
1690838594388775000,1.88277490234375,-0.0002842908725142479,0.0005722491769120097,-0.005116814747452736
1690838594398815700,1.892815673828125,-0.00026308419182896614,0.00035525497514754534,-0.006469501182436943
1690838594408855800,1.902855712890625,-0.0013531157746911049,-0.0008455642964690924,-0.006557652726769447
1690838594418896000,1.912895751953125,0.0005924501456320286,-0.0012164362706243992,-0.0025944579392671585
1690838594428937000,1.92293701171875,0.0008718157187104225,-0.00010563177056610584,-0.0005893651396036148
1690838594438976800,1.932976806640625,-0.00011177593842148781,-0.0002372486051172018,0.003879360854625702
1690838594449016800,1.943016845703125,0.00001072930172085762,-0.0006492396350950003,0.005831989459693432
1690838594459057000,1.953056884765625,-0.00036327773705124855,0.00043714477214962244,0.01017776783555746
1690838594469097700,1.96309765625,0.0005805464461445808,0.0005183712346479297,0.009200920350849628
1690838594479137800,1.9731376953125,0.00031988369300961494,0.0008540437556803226,0.006647849455475807
1690838594489177900,1.983177734375,-0.0005094246007502079,-0.0003126871306449175,0.0016371123492717743
1690838594499219000,1.993218994140625,-0.0002142605371773243,-0.002176987938582897,-0.0018310546875
1690838594509259000,2.003259033203125,0.0005977372638881207,0.0003833749797195196,-0.00568571500480175
1690838594519298800,2.013298828125,0.00043467897921800613,-0.0013336718548089266,-0.007577825337648392
1690838594529339000,2.0233388671875,0.0006187036633491516,-0.0014793467707931995,-0.006935471668839455
1690838594539410000,2.033409912109375,0.000035622622817754745,-0.00004483363591134548,-0.002594687044620514
1690838594549450000,2.043449951171875,-0.00014760298654437065,-0.000037376768887043,-0.0021973438560962677
1690838594559490800,2.05349072265625,0.0003500310704112053,0.0005765288369730115,0.0010517165064811707
1690838594569531000,2.06353076171875,0.00021847104653716087,0.0025041247718036175,0.0031444281339645386
1690838594579570700,2.07357080078125,0.0000440855510532856,0.0024919856805354357,0.004876613616943359
1690838594589611800,2.08361181640625,-0.000015569385141134262,-0.00010699313133955002,0.005973835475742817
1690838594599651800,2.09365185546875,0.000832440797239542,-0.00017825746908783913,0.0018853377550840378
1690838594609692000,2.10369189453125,0.0007261806167662144,-0.0012571041006594896,0.0007180739194154739
1690838594619732000,2.11373193359375,-0.000848657451570034,-0.00027346122078597546,0.0003982502967119217
1690838594629772800,2.123772705078125,0.0006227390840649605,-0.001988803269341588,-0.0005578231066465378
1690838594639812900,2.133812744140625,0.000029389746487140656,0.000020602019503712654,-0.0003640614449977875
1690838594649853000,2.14385302734375,0.00008132169023156166,0.0005979753332212567,0.0009379573166370392
1690838594659894000,2.15389404296875,0.0004455326125025749,0.0011400597868487239,-0.0002280641347169876
1690838594669933800,2.163933837890625,0.00011050701141357422,0.00016347854398190975,0.0008185580372810364
1690838594679974000,2.173973876953125,0.0009316829964518547,0.0006646608235314488,0.0007053874433040619
1690838594690014000,2.184013916015625,-0.000532256904989481,-0.0006509406957775354,0.0014050006866455078
1690838594700054800,2.1940546875,0.0005134507082402706,0.0006554430583491921,0.00040473416447639465
1690838594710125800,2.204125732421875,-0.0006655305624008179,0.0006210883148014545,0.0006292387843132019
1690838594720166000,2.214165771484375,-0.0010331133380532265,-0.002515661297366023,-0.0006773397326469421
1690838594730208300,2.224208251953125,0.001588768558576703,-0.0006282792892307043,0.00043266452848911285
1690838594740248300,2.234248291015625,0.0001206262968480587,0.0008117622928693891,0.000058669596910476685
1690838594750289200,2.2442890625,0.002072723349556327,0.002254663035273552,0.0011071562767028809
1690838594760329200,2.2543291015625,0.002351648174226284,0.002293624449521303,0.0026161912828683853
1690838594770369000,2.264369140625,-0.0018130028620362282,0.0012981349136680365,-0.00033432431519031525
1690838594780409000,2.2744091796875,0.0015209049452096224,-0.0011874211486428976,-0.0015381332486867905
1690838594790450200,2.2844501953125,-0.001212031114846468,0.00023870158474892378,-0.002491012215614319
1690838594800490200,2.294490234375,-0.000056785065680742264,-0.00006087077781558037,-0.00276053324341774
1690838594810530300,2.3045302734375,-0.0017481585964560509,-0.0017471842002123594,-0.00348597951233387
1690838594820571100,2.314571044921875,-0.0016438751481473446,-0.0031767580658197403,-0.004414163529872894
1690838594830611200,2.324611083984375,-0.000054500531405210495,-0.005896378308534622,-0.0007690954953432083
1690838594840651000,2.334651123046875,-0.00018348870798945427,0.001084879506379366,0.0008880812674760818
1690838594850691000,2.344691162109375,0.0010042814537882805,-0.0016669647302478552,0.0022023506462574005
1690838594860732200,2.354732177734375,-0.0016886144876480103,-0.00018012197688221931,0.0025933030992746353
1690838594870772200,2.364772216796875,-0.0003663548268377781,-0.00013751140795648098,0.003192514181137085
1690838594880812300,2.374812255859375,-0.0004852260462939739,-0.00046094367280602455,0.0031054969877004623
1690838594890883300,2.38488330078125,0.001160074956715107,0.0009223022498190403,0.0028370507061481476
1690838594900923100,2.394923095703125,-0.0002566007897257805,-0.0019144967664033175,-0.0004189293831586838
1690838594910964200,2.404964111328125,0.0004579257220029831,-0.003166981739923358,-0.0029736999422311783
1690838594921004000,2.415004150390625,-0.0005917372182011604,-0.0005733910948038101,-0.005013179033994675
1690838594931044000,2.425044189453125,-0.00020477967336773872,-0.00273987278342247,-0.006401218473911285
1690838594941085200,2.435085205078125,-0.0007404377683997154,0.0006837790133431554,-0.004055431112647057
1690838594951125200,2.445125244140625,0.000705924816429615,-0.0004573855549097061,-0.002817327156662941
1690838594961165300,2.455165283203125,0.0007768133655190468,-0.0010672982316464186,0.0001263786107301712
1690838594971205000,2.465205078125,-0.001379548106342554,-0.0013288205955177546,0.004804221913218498
1690838594981246200,2.47524609375,0.0009435447864234447,0.00008271611295640469,0.004300106316804886
1690838594991286000,2.4852861328125,0.0009739049710333347,-0.0004544435068964958,0.006933439522981644
1690838595001326000,2.495326171875,0.0005245208740234375,0.0006889305077493191,0.0027752239257097244
1690838595011367200,2.5053671875,0.0005647349171340466,0.002199209062382579,0.0027270205318927765
1690838595021407200,2.5154072265625,0.0008351844735443592,0.003016573376953602,-0.002322610467672348
1690838595031447300,2.525447265625,0.00017205718904733658,-0.001668459502980113,-0.004625445231795311
1690838595041487000,2.535487060546875,0.0005207797512412071,-0.0007541666273027658,-0.004061177372932434
1690838595051528200,2.545528076171875,-0.0012377058155834675,0.000036792363971471786,-0.002309883013367653
1690838595061598000,2.555597900390625,0.0005318773910403252,-0.0022250215988606215,-0.00023330748081207275
1690838595071639000,2.56563916015625,-0.00029103923588991165,0.0008389452705159783,0.0010990723967552185
1690838595081679000,2.57567919921875,0.0006913482211530209,0.0025377937126904726,0.0034048445522785187
1690838595091719200,2.58571923828125,-0.0013228002935647964,0.000628573470748961,0.0046203117817640305
1690838595101760300,2.59576025390625,-0.00009407801553606987,0.0001443810760974884,0.002863263711333275
1690838595111800300,2.60580029296875,-0.000615525059401989,0.0005489151226356626,0.003654222935438156
1690838595121840000,2.615840087890625,0.0006161807104945183,0.0014179483987390995,0.0006989389657974243
1690838595131880000,2.6258798828125,-0.000351079273968935,-0.001487293979153037,-0.000523718073964119
1690838595141921000,2.635921142578125,0.0005441876128315926,-0.0005550628993660212,-0.003183741122484207
1690838595151961000,2.645961181640625,-0.001671029720455408,0.0014476340729743242,-0.0026204828172922134
1690838595162001200,2.656001220703125,-0.00015586521476507187,-0.00225179479457438,-0.0031876210123300552
1690838595172042200,2.666042236328125,0.0017845139373093843,-0.0005140823777765036,-0.0005460307002067566
1690838595182082300,2.676082275390625,0.0006237183697521687,-0.001114681363105774,0.0007506124675273895
1690838595192122000,2.6861220703125,0.00016645388677716255,0.0033426512964069843,0.0006760451942682266
1690838595202162000,2.696161865234375,-0.00043665384873747826,0.00021279742941260338,0.0029672272503376007
1690838595212203000,2.706203125,0.0012134406715631485,0.002195787150412798,0.004089483991265297
1690838595222243000,2.7162431640625,0.0007167779840528965,0.000239968067035079,0.0035964418202638626
1690838595232314000,2.726314208984375,0.0006254315376281738,-0.0015664540696889162,0.0035572927445173264
1690838595242354200,2.736354248046875,0.0007941680960357189,-0.0013265609741210938,0.0013753194361925125
1690838595252394200,2.746394287109375,0.002183006377890706,-0.0013798242434859276,0.0011540111154317856
1690838595262435000,2.75643505859375,0.0020754137076437473,0.0010162497637793422,0.00023218244314193726
1690838595272475100,2.76647509765625,0.0009369123727083206,0.0003203657688573003,-0.0008381418883800507
1690838595282515000,2.776514892578125,0.00037434836849570274,0.0002827984280884266,-0.0009281672537326813
1690838595292555000,2.786554931640625,-0.0003641461953520775,-0.0003334570210427046,0.0005280487239360809
1690838595302596000,2.79659619140625,0.0005663079209625721,-0.000033695483580231667,-0.003646640107035637
1690838595312636200,2.80663623046875,-0.0002278466708958149,-0.00028722849674522877,-0.003804299980401993
1690838595322676200,2.81667626953125,0.001356643158942461,0.002252065809443593,-0.0030377227813005447
1690838595332717000,2.826717041015625,-0.0002939840778708458,0.0012453908566385508,-0.0027996357530355453
1690838595342757000,2.836757080078125,-0.00011481810361146927,-0.0021017640829086304,0.00046453624963760376
1690838595352797000,2.846796875,0.0010686907917261124,-0.0026335972361266613,0.0020254142582416534
1690838595362837000,2.8568369140625,-0.00020026974380016327,-0.0016912769060581923,0.005405830219388008
1690838595372878000,2.866878173828125,-0.0016841832548379898,-0.0014888765290379524,0.0065259551629424095
1690838595382918100,2.876918212890625,-0.0005189627408981323,0.0015097956638783216,0.009074706584215164
1690838595392958200,2.886958251953125,-0.0006736922077834606,0.00030151940882205963,0.005293018184602261
1690838595402999000,2.8969990234375,0.00011426210403442383,0.002297973958775401,0.0008454546332359314
1690838595413069300,2.9070693359375,-0.0006719031371176243,0.0007522753439843655,-0.0034291837364435196
1690838595423110100,2.917110107421875,-0.00036542583256959915,0.00028845807537436485,-0.006504938006401062
1690838595433150000,2.92714990234375,-0.00003838958218693733,-0.002000529086217284,-0.010210193693637848
1690838595443190000,2.93718994140625,0.002048364607617259,-0.001369784353300929,-0.011928535997867584
1690838595453231000,2.947231201171875,-0.0011887075379490852,-0.0024917740374803543,-0.004784604534506798
1690838595463271200,2.957271240234375,-0.0005553597584366798,-0.000024541513994336128,-0.0017259307205677032
1690838595473311200,2.967311279296875,-0.0002656080760061741,0.001109432429075241,0.0018893107771873474
1690838595483351300,2.977351318359375,0.00045786425471305847,0.002145560458302498,0.0077499328181147575
1690838595493392100,2.98739208984375,-0.0007629287429153919,0.0016619304660707712,0.010192051529884338
1690838595503432000,2.997431884765625,0.0006547062657773495,-0.0005437799263745546,0.00945085845887661
1690838595513472000,3.007471923828125,0.0002150186337530613,-0.0006662851665169001,0.006791425868868828
1690838595523513000,3.01751318359375,-0.0006761453114449978,-0.0011431367602199316,0.0040255337953567505
1690838595533553200,3.02755322265625,-0.0007416591979563236,-0.003512551309540868,-0.003453420475125313
1690838595543593200,3.03759326171875,-0.0014844904653728008,0.00125715765170753,-0.004304703325033188
1690838595553633300,3.04763330078125,0.0011797358747571707,-0.0001801503822207451,-0.006916997954249382
1690838595563674000,3.057674072265625,-0.0005655349232256413,0.0002932635834440589,-0.009501641616225243
1690838595573714000,3.0677138671875,-0.0006094770506024361,0.001912199193611741,-0.008893374353647232
1690838595583785000,3.077784912109375,-0.0004897769540548325,-0.00013189413584768772,-0.006719786673784256
1690838595593825000,3.087824951171875,0.00017095357179641724,-0.00036358926445245743,-0.0009018443524837494
1690838595603865000,3.097864990234375,0.0006311782635748386,-0.0006559968460351229,0.0013569481670856476
1690838595613906200,3.10790625,-0.000259915366768837,-0.0013233849313110113,0.004735967144370079
1690838595623946200,3.1179462890625,0.0008118869736790657,-0.0005997060798108578,0.005506184883415699
1690838595633986300,3.127986328125,-0.0012840209528803825,0.00043306767474859953,0.005126950331032276
1690838595644026000,3.138026123046875,-0.0014180932193994522,0.002256780629977584,0.005830924026668072
1690838595654067000,3.14806689453125,-0.00030782120302319527,0.00234626280143857,0.005266866646707058
1690838595664107000,3.15810693359375,0.000030142255127429962,-0.0002743587829172611,0.00449974462389946
1690838595674147000,3.16814697265625,0.0012168469838798046,0.0007589476881548762,0.0028571058064699173
1690838595684188200,3.178188232421875,0.001343658659607172,0.000637527322396636,0.002540186047554016
1690838595694228200,3.188228271484375,-0.0038329940289258957,-0.002649612259119749,0.0006621256470680237
1690838595704268300,3.198268310546875,0.0009965603239834309,-0.00323598925024271,-0.003920773044228554
1690838595714308000,3.20830810546875,-0.001116657629609108,-0.0036346642300486565,-0.00630350224673748
1690838595724347100,3.21834716796875,0.00035653309896588326,0.0008468949235975742,-0.008680492639541626
1690838595734387000,3.228386962890625,0.00023216335102915764,-0.0017661985475569963,-0.00966852530837059
1690838595744427000,3.238427001953125,0.0006526787765324116,0.0004093223251402378,-0.006811877712607384
1690838595754498000,3.248498046875,-0.00048688799142837524,0.000213313614949584,-0.00420011579990387
1690838595764538000,3.2585380859375,0.00021451851353049278,0.00031158432830125093,0.0013885274529457092
1690838595774579000,3.268578857421875,-0.000346609391272068,0.002082053804770112,0.0030322298407554626
1690838595784619000,3.278618896484375,0.0013012392446398735,0.0025318064726889133,0.007034641690552235
1690838595794658800,3.288658935546875,-0.0005304827354848385,0.0013035567244514823,0.009414441883563995
1690838595804699000,3.298698974609375,-0.00014495057985186577,-0.0006751448381692171,0.007997003383934498
1690838595814740000,3.308739990234375,-0.00008689379319548607,0.0004508397541940212,0.006951713003218174
1690838595824780000,3.318780029296875,0.0011664654593914747,-0.000330786919221282,0.0021967850625514984
1690838595834820000,3.328820068359375,0.0005858964286744595,0.00010570534504950047,-0.0007806289941072464
1690838595844861000,3.33886083984375,0.000703061930835247,0.0001614321954548359,-0.003477189689874649
1690838595854901000,3.34890087890625,-0.00040481332689523697,-0.0008084909059107304,-0.005627427250146866
1690838595864941000,3.358941162109375,-0.0013871854171156883,0.0011570549104362726,-0.00705365277826786
1690838595874980900,3.36898095703125,0.0004519936628639698,-0.0003803879953920841,-0.006544455885887146
1690838595885022000,3.37902197265625,0.0011986163444817066,-0.0016588885337114334,-0.004111964255571365
1690838595895062000,3.38906201171875,0.0003890153020620346,0.0002239663153886795,-0.0011675748974084854
1690838595905102000,3.39910205078125,-0.00035939039662480354,-0.0006591379642486572,0.0021422021090984344
1690838595915143000,3.409142822265625,-0.000445676501840353,-0.0009805813897401094,0.003931580111384392
1690838595925183000,3.419182861328125,0.00037727924063801765,-0.0006525276694446802,0.006227336823940277
1690838595935254000,3.42925390625,-0.0009673507884144783,0.00019036279991269112,0.0028954558074474335
1690838595945293800,3.4392939453125,-0.00022150622680783272,-0.0003236592747271061,0.004438873380422592
1690838595955334000,3.449333984375,0.000005927402526140213,0.0002758181653916836,0.001138683408498764
1690838595965375000,3.459375,0.00034671975299715996,-0.0005754351150244474,0.0007033981382846832
1690838595975415000,3.4694150390625,0.0008138380944728851,0.0009244572138413787,-0.004231171682476997
1690838595985455000,3.479455078125,0.0005570980720221996,-0.0006292304024100304,-0.0035406798124313354
1690838595995495200,3.4894951171875,-0.00001734541729092598,0.0005249835085123777,-0.005632326006889343
1690838596005536000,3.499535888671875,0.0008189259096980095,-0.00024192873388528824,-0.00582163967192173
1690838596015576000,3.509576171875,0.0006104004569351673,0.0013687510509043932,-0.0019451435655355453
1690838596025616000,3.519615966796875,0.002466358942911029,0.00098997144959867,-0.0016841907054185867
1690838596035657000,3.529656982421875,0.001500696875154972,0.0007819785969331861,0.002105221152305603
1690838596045697000,3.539697021484375,0.0007985658012330532,0.00007246225140988827,0.004772227257490158
1690838596055737000,3.549737060546875,-0.0000914628617465496,-0.001448735361918807,0.003942651674151421
1690838596065777200,3.559777099609375,0.0010904730297625065,0.0024535036645829678,0.006341286934912205
1690838596075818000,3.56981787109375,0.0009740926325321198,0.0009570734109729528,0.006838764995336533
1690838596085858000,3.579858154296875,0.0003539901226758957,0.0009588715620338917,0.004609957337379456
1690838596095897900,3.58989794921875,0.00020858179777860641,0.0025671545881778,0.0007230751216411591
1690838596105969000,3.599968994140625,-0.0003918618895113468,-0.0015623727813363075,-0.0020033512264490128
1690838596116009000,3.610009033203125,0.0012281390372663736,-0.0009439866989850998,-0.004410315304994583
1690838596126050000,3.620050048828125,0.0010586436837911606,-0.0005802460946142673,-0.005520481616258621
1690838596136090000,3.630090087890625,0.00043413229286670685,0.0023210016079247,-0.006759384647011757
1690838596146130200,3.640130126953125,-0.00045644259080290794,-0.0003081611357629299,-0.003970177844166756
1690838596156170000,3.650169921875,-0.0006180964410305023,-0.0007622300181537867,-0.0024556368589401245
1690838596166210800,3.6602109375,-0.00037011969834566116,-0.0000624998938292265,-0.0011138916015625
1690838596176251000,3.6702509765625,0.0007497393526136875,-0.000852393452078104,0.002922927960753441
1690838596186291000,3.680291015625,0.002322158310562372,0.0007539992220699787,0.004116706550121307
1690838596196332000,3.69033203125,-0.0005865460261702538,0.00010818266309797764,0.005090891383588314
1690838596206372000,3.7003720703125,-0.0006060963496565819,-0.0011356177274137735,0.00496591255068779
1690838596216412200,3.710412109375,0.001283150166273117,0.00018717418424785137,0.005050601437687874
1690838596226452200,3.7204521484375,-0.0013123448006808758,-0.000454113120213151,0.0021673087030649185
1690838596236493000,3.7304931640625,0.00039447471499443054,0.0006833228981122375,0.000215211883187294
1690838596246532900,3.740532958984375,-0.0008793645538389683,0.0011722389608621597,0.00018481537699699402
1690838596256573000,3.750572998046875,-0.001488695852458477,-0.00012871529906988144,-0.002635737881064415
1690838596266614000,3.760614013671875,0.0002637868747115135,0.000740664778277278,-0.0040962230414152145
1690838596276684000,3.77068408203125,0.0011327764950692654,-0.001276147086173296,-0.0038493480533361435
1690838596286725000,3.78072509765625,0.0010510287247598171,-0.0010831200052052736,-0.0022193342447280884
1690838596296765200,3.79076513671875,0.0005788505077362061,0.0005712356651201844,-0.001487497240304947
1690838596306805000,3.800804931640625,-0.0006821402348577976,0.0009305138373747468,-0.002477172762155533
1690838596316845000,3.810844970703125,0.000699241179972887,-0.00005006208084523678,0.00019770488142967224
1690838596326886000,3.820885986328125,-0.0006163623183965683,-0.00077579147182405,0.0014778189361095428
1690838596336926000,3.830926025390625,0.00004117237403988838,0.0014836344635114074,0.0024080611765384674
1690838596346966000,3.840966064453125,-0.0005476865917444229,0.0007103149546310306,0.002103356644511223
1690838596357007000,3.851007080078125,-0.0006049443036317825,0.00012654997408390045,0.0017776526510715485
1690838596367047200,3.861047119140625,0.00006507523357868195,-0.0013176321517676115,0.00022792257368564606
1690838596377087200,3.871087158203125,-0.000749852042645216,-0.0002856571227312088,-0.0012152455747127533
1690838596387127000,3.881126953125,0.0010443022474646568,0.0010511750588193536,-0.001135425642132759
1690838596397167900,3.89116796875,0.002412900561466813,0.001070616184733808,0.0019178874790668488
1690838596407208000,3.9012080078125,-0.0005417997017502785,-0.0006603635847568512,-0.00039105117321014404
1690838596417248000,3.911248046875,0.0005753966979682446,0.000746850622817874,0.00005928985774517059
1690838596427289000,3.9212890625,0.0013722123112529516,0.0007950119907036424,-0.0007122959941625595
1690838596437329200,3.9313291015625,0.0006507621146738529,0.0014179253485053778,-0.0006217490881681442
1690838596447400200,3.941400146484375,-0.0006391922943294048,0.0014153342926874757,0.0008092019706964493
1690838596457440000,3.95143994140625,-0.0001989714801311493,-0.0024577006697654724,0.0015785899013280869
1690838596467480000,3.96147998046875,0.0012741254176944494,0.0008298067841678858,-0.0002907905727624893
1690838596477521000,3.97152099609375,-0.0002356204204261303,-0.0006533076521009207,0.002630164846777916
1690838596487561000,3.98156103515625,0.0007663448341190815,-0.0014874674379825592,0.0019008982926607132
1690838596497601000,3.99160107421875,0.0012292021419852972,-0.00021713972091674805,0.00003748387098312378
1690838596507641000,4.00164111328125,-0.0006672968156635761,0.0013008677633479238,0.0014226045459508896
1690838596517682200,4.01168212890625,0.0002147420309484005,-0.00022352556698024273,0.0023568421602249146
1690838596527722200,4.02172216796875,0.0006033033132553101,0.002330259419977665,0.0014341045171022415
1690838596537762000,4.031761962890625,0.001111700665205717,-0.0018591589760035276,-0.0007070768624544144
1690838596547803000,4.041802978515625,0.0012337635271251202,-0.0007762489840388298,-0.002608649432659149
1690838596557843000,4.051843017578125,0.0010715769603848457,-0.00044841389171779156,-0.0010293945670127869
1690838596567883000,4.061883056640625,-0.0003595910966396332,0.0005670648533850908,-0.0012520495802164078
1690838596577923000,4.071923095703125,0.000947488471865654,0.00029835186433047056,0.0019035283476114273
1690838596587964200,4.081964111328125,0.0006122351624071598,0.00063986552413553,0.0009313039481639862
1690838596598004200,4.092004150390625,-0.0013561071828007698,0.000007897382602095604,0.0013020168989896774
1690838596608044000,4.1020439453125,-0.00039330730214715004,-0.0008590479847043753,0.0025159958750009537
1690838596618083800,4.112083740234375,0.0011033890768885612,0.00004669325426220894,0.00013379938900470734
1690838596628155000,4.12215478515625,-0.0017382437363266945,-0.00014438899233937263,0.0023550260812044144
1690838596638196000,4.132196044921875,0.0011134692467749119,-0.0035471098963171244,-0.00044448859989643097
1690838596648236000,4.142236083984375,0.0004929197020828724,0.0011797435581684113,-0.0021421480923891068
1690838596658276000,4.152276123046875,-0.0002554282546043396,0.0006798681570217013,-0.0005088318139314651
1690838596668316200,4.162316162109375,0.0005589327774941921,0.001366347773000598,-0.0027457643300294876
1690838596678357200,4.172357177734375,-0.000491684302687645,0.0024348078295588493,-0.0014543961733579636
1690838596688397000,4.18239697265625,0.0010929661802947521,0.00026662356685847044,-0.0006379261612892151
1690838596698436900,4.192436767578125,-0.00051451800391078,-0.0009408537298440933,-0.00022407062351703644
1690838596708478000,4.20247802734375,-0.00024411827325820923,-0.0004910069983452559,0.0021979697048664093
1690838596718518000,4.21251806640625,0.001143388682976365,0.00033537193667143583,0.0006000734865665436
1690838596728534300,4.2225341796875,-0.000044906046241521835,-0.0014283712953329086,0.0017062835395336151
1690838596738574300,4.23257421875,0.000796386506408453,0.00008510309271514416,0.0007054675370454788
1690838596748615200,4.242615234375,0.0026918756775557995,-0.0010979811195284128,0.0016470663249492645
1690838596758655200,4.2526552734375,-0.0004735575057566166,0.0006104366621002555,0.00032667070627212524
1690838596768695300,4.2626953125,-0.0007611969485878944,-0.00007104710675776005,-0.0006470717489719391
1690838596778736400,4.272736328125,-0.001445363275706768,-0.00021352618932724,0.0004424266517162323
1690838596788776400,4.2827763671875,0.00098123075440526,-0.0002906164154410362,-0.0020911991596221924
1690838596798847200,4.29284716796875,0.00002169376239180565,0.0021158158779144287,0.0001679603010416031
1690838596808887300,4.30288720703125,-0.0014066137373447418,-0.001757333753630519,-0.00106782466173172
1690838596818927400,4.31292724609375,0.0010578753426671028,-0.00038101221434772015,-0.0004686135798692703
1690838596828967400,4.322967529296875,-0.0004765656776726246,-0.00019566086120903492,-0.0021304842084646225
1690838596839008300,4.33300830078125,-0.0014643319882452488,-0.0007530604489147663,-0.00014775991439819336
1690838596849048300,4.34304833984375,-0.00043868133798241615,-0.0001517515629529953,-0.0015953164547681808
1690838596859088100,4.353088134765625,0.00043590087443590164,-0.001283328514546156,0.0009535942226648331
1690838596869129500,4.36312939453125,-0.00024090241640806198,-0.00039129494689404964,0.0008895024657249451
1690838596879169300,4.373169189453125,-0.00028244778513908386,0.0007791644893586636,-0.0000998619943857193
1690838596889209300,4.383209228515625,0.00038626184687018394,-0.0012014766689389944,0.0003797654062509537
1690838596899249400,4.39324951171875,0.00021395552903413773,0.0023687572684139013,0.00011211633682250977
1690838596909290200,4.403290283203125,-0.0004933355376124382,-0.000850939191877842,-0.0013431366533041
1690838596919330300,4.413330322265625,0.00010294606909155846,0.00024335365742444992,-0.000997724011540413
1690838596929370400,4.423370361328125,0.0007284600287675858,0.00013713259249925613,-0.0024861302226781845
1690838596939411500,4.433411376953125,0.0012507059145718813,-0.0006799250841140747,-0.0008589383214712143
1690838596949451300,4.443451171875,0.00010460522025823593,-0.00010083592496812344,-0.0023459363728761673
1690838596959491300,4.4534912109375,0.02488851547241211,-0.13264769315719604,-0.04720049351453781
1690838596969562400,4.463562255859375,-0.0005678385496139526,0.08922777324914932,-0.11776092648506165
1690838596979602400,4.4736025390625,-0.013504675589501858,-0.1064772829413414,-0.08495184779167175
1690838596989643300,4.483643310546875,-0.010271161794662476,-0.027051176875829697,-0.057321421802043915
1690838596999683300,4.493683349609375,0.0018113339319825172,-0.15418463945388794,-0.02714407630264759
1690838597009723100,4.50372314453125,0.007127045653760433,0.054197367280721664,0.026192620396614075
1690838597019763200,4.51376318359375,0.01809021458029747,0.0707331970334053,0.07072733342647552
1690838597029804300,4.52380419921875,0.011191921308636665,0.0538298524916172,0.10194002836942673
1690838597039844400,4.53384423828125,0.003975287079811096,0.013323706574738026,0.1198417916893959
1690838597049884400,4.543884521484375,-0.0038666166365146637,-0.015287728980183601,0.1133372038602829
1690838597059925200,4.55392529296875,-0.006996097043156624,-0.031379882246255875,0.08580997586250305
1690838597069965300,4.56396533203125,-0.007722779177129269,-0.02765672095119953,0.0451490618288517
1690838597080005400,4.57400537109375,-0.00303641427308321,-0.013574989512562752,-0.005833428353071213
1690838597090045200,4.584045166015625,0.0004302659071981907,0.0010511701693758368,-0.048465270549058914
1690838597100086300,4.594086181640625,0.005669503007084131,0.01524848211556673,-0.07980668544769287
1690838597110126300,4.604126220703125,0.0021450261119753122,0.021427620202302933,-0.09929369390010834
1690838597120166400,4.61416650390625,-0.0011485051363706589,0.01370951160788536,-0.09618312120437622
1690838597130206500,4.62420654296875,-0.0027198144234716892,-0.002712150337174535,-0.08307294547557831
1690838597140247300,4.634247314453125,-0.0042687091045081615,-0.013363729231059551,-0.053513988852500916
1690838597150318300,4.644318359375,-0.002914533019065857,-0.023281631991267204,-0.027721792459487915
1690838597160358100,4.654358154296875,-0.002294815145432949,-0.021618487313389778,0.0028366483747959137
1690838597170398200,4.664398193359375,0.0017550070770084858,-0.01080299448221922,0.03144717216491699
1690838597180438300,4.674438232421875,0.003862100187689066,0.002460879273712635,0.05315166711807251
1690838597190479400,4.684479248046875,0.0012951672542840242,0.017696451395750046,0.07021514326334
1690838597200519400,4.69451953125,0.0014738652389496565,0.025101371109485626,0.07564079761505127
1690838597210559500,4.7045595703125,-0.001518595963716507,0.023104771971702576,0.06832093000411987
1690838597220600300,4.714600341796875,-0.0011012786999344826,0.010542374104261398,0.05063194781541824
1690838597230640400,4.724640380859375,-0.0016433186829090118,-0.0038241511210799217,0.023670101538300514
1690838597240680200,4.73468017578125,-0.0005391719751060009,-0.013331104069948196,-0.0013891775161027908
1690838597250720300,4.74472021484375,0.0006454885005950928,-0.015620519407093525,-0.02898991107940674
1690838597260761300,4.75476123046875,0.0013709338381886482,-0.013356033712625504,-0.04673082008957863
1690838597270801400,4.764801513671875,-0.0004306505434215069,-0.0050439611077308655,-0.060298264026641846
1690838597280841500,4.774841552734375,-0.000964081846177578,0.0048115989193320274,-0.05781593173742294
1690838597290882300,4.78488232421875,-0.0022353408858180046,0.007490981370210648,-0.048823680728673935
1690838597300922400,4.79492236328125,-0.0009282617829740047,0.005896546877920628,-0.032163746654987335
1690838597310962200,4.804962158203125,-0.0010749576613307,0.001373831182718277,-0.00922289490699768
1690838597321033200,4.815033203125,0.0013397305738180876,-0.005066491663455963,0.011225654743611813
1690838597331073300,4.8250732421875,0.0011480285320430994,-0.006293541751801968,0.026851052418351173
1690838597341113300,4.83511328125,0.0019453789573162794,-0.0060211000964045525,0.0380866602063179
1690838597351154400,4.845154541015625,0.0010390598326921463,-0.00013325177133083344,0.04100485518574715
1690838597361194500,4.855194580078125,0.0011871312744915485,0.006110795773565769,0.04288238286972046
1690838597371234300,4.865234375,0.0005193883553147316,0.008885117247700691,0.03123871423304081
1690838597381275400,4.875275390625,-0.00023748213425278664,0.0070219701156020164,0.020074477419257164
1690838597391315200,4.885315185546875,0.0010142941027879715,0.002762723248451948,0.004453301429748535
1690838597401355300,4.895355224609375,0.0006813989020884037,-0.003784657921642065,-0.012141121551394463
1690838597411395300,4.905395263671875,0.00058033037930727,-0.005321862176060677,-0.023076487705111504
1690838597421436400,4.9154365234375,0.001330809434875846,-0.007385546341538429,-0.03258850425481796
1690838597431476500,4.9254765625,-0.00046624522656202316,-0.005270327441394329,-0.03374022990465164
1690838597441516300,4.935516357421875,-0.0017328443937003613,0.0021279340144246817,-0.028658119961619377
1690838597451557400,4.945557373046875,-0.000511296559125185,0.00849121157079935,-0.019236162304878235
1690838597461597200,4.95559716796875,0.00019310973584651947,0.007943399250507355,-0.008590176701545715
1690838597471637200,4.96563720703125,0.00000424729660153389,0.0034782658331096172,0.0038712508976459503
1690838597481677300,4.97567724609375,-0.0007622102275490761,-0.00317697343416512,0.015021106228232384
1690838597491748400,4.985748291015625,0.0008339099586009979,-0.0062634204514324665,0.02325647510588169
1690838597501789400,4.99578955078125,0.0005031456239521503,-0.007971039041876793,0.02590871788561344
1690838597511829500,5.00582958984375,0.0008517969399690628,-0.0025961673818528652,0.022748913615942
1690838597521869000,5.015869140625,-0.0008065532892942429,0.001593251246958971,0.016255594789981842
1690838597531909000,5.0259091796875,-0.0005433023907244205,0.008316585794091225,0.007207540795207024
1690838597541950200,5.0359501953125,-0.0013627568259835243,0.00832084659487009,-0.002352941781282425
1690838597551990300,5.045990234375,0.00010007433593273163,0.006774486042559147,-0.009473824873566628
1690838597562030300,5.0560302734375,0.0007472224533557892,0.00008515804074704647,-0.01610909216105938
1690838597572071400,5.066071533203125,0.00005559949204325676,-0.003454183228313923,-0.01852431334555149
1690838597582111200,5.076111328125,0.001974939601495862,-0.007883818820118904,-0.017899269238114357
1690838597592151300,5.0861513671875,0.0006465115584433079,-0.007413215469568968,-0.013019165024161339
1690838597602191000,5.096191162109375,0.0013764840550720692,-0.0026123346760869026,-0.0076584890484809875
1690838597612232200,5.106232177734375,-0.0006077936850488186,0.0018048644997179508,0.0008849650621414185
1690838597622272300,5.116272216796875,-0.0010954183526337147,0.004527680575847626,0.0068192873150110245
1690838597632312300,5.126312255859375,-0.00015851948410272598,0.005344949662685394,0.00837370753288269
1690838597642352400,5.136352294921875,0.0004327022470533848,0.00236194278113544,0.013259809464216232
1690838597652393200,5.146393310546875,-0.0006733075715601444,0.0015931432135403156,0.010324273258447647
1690838597662433300,5.156433349609375,0.001524066785350442,-0.0003698726650327444,0.00799613818526268
1690838597672504000,5.166504150390625,0.0013427056837826967,0.0001822004560381174,0.005983853712677956
1690838597682544000,5.176544189453125,-0.001242158468812704,0.002846959512680769,0.0034565143287181854
1690838597692584200,5.186584228515625,-0.000447337981313467,0.0017951515037566423,-0.002605721354484558
1690838597702625300,5.196625244140625,-0.0013831728138029575,-0.0008661453612148762,-0.005340788513422012
1690838597712665300,5.206665283203125,-0.0000867028720676899,-0.0005528302863240242,-0.008446699008345604
1690838597722705400,5.216705322265625,0.0011106545571237803,-0.0012463175226002932,-0.011291220784187317
1690838597732749800,5.226749755859375,0.00030922330915927887,-0.003733230521902442,-0.011118847876787186
1690838597742790000,5.236789794921875,0.001768902176991105,0.0023664734326303005,-0.009012553840875626
1690838597752829700,5.24682958984375,-0.0003823591396212578,0.002895746845752001,-0.004577308893203735
1690838597762869800,5.256869873046875,0.00015879515558481216,0.00555198360234499,-0.00047817081212997437
1690838597772910800,5.266910888671875,-0.000680713914334774,0.002682774793356657,0.004114748910069466
1690838597782951000,5.276950927734375,0.00038588186725974083,-0.001440597465261817,0.004817556589841843
1690838597792991000,5.286990966796875,-0.00011220946907997131,-0.0032777271699160337,0.009605622850358486
1690838597803031800,5.29703173828125,-0.00072127440944314,-0.004260433837771416,0.00586974062025547
1690838597813072000,5.30707177734375,0.0009320136159658432,-0.0026492467150092125,0.007399555295705795
1690838597823111700,5.317111572265625,0.0007253522053360939,-0.0007940884679555893,0.003150748088955879
1690838597833151700,5.32715185546875,-0.0007495568133890629,0.0024146249052137136,0.0014123786240816116
1690838597843222800,5.337222900390625,-0.0006755208596587181,0.0033874777145683765,-0.004032988101243973
1690838597853262800,5.347262939453125,0.0008440655656158924,0.002578246407210827,-0.006270416080951691
1690838597863304000,5.357303955078125,-0.0015096361748874187,0.001778765581548214,-0.007728762924671173
1690838597873344000,5.367343994140625,-0.00046007614582777023,-0.0016628645826131105,-0.00714755617082119
1690838597883384000,5.377384033203125,-0.0002355719916522503,-0.002613346790894866,-0.005561910569667816
1690838597893425000,5.3874248046875,0.0007561715319752693,0.0010949469869956374,-0.0030561666935682297
1690838597903464700,5.397464599609375,0.0011713583953678608,0.0026819247286766768,0.0013545602560043335
1690838597913504800,5.4075048828125,-7.82310962677002e-7,0.0004109659930691123,0.004425371065735817
1690838597923544800,5.417544921875,-0.0017518107779324055,0.0007872707210481167,0.005911149084568024
1690838597933586000,5.4275859375,-0.0016685728915035725,-0.0004667604807764292,0.006815961562097073
1690838597943626000,5.4376259765625,-0.0007825391367077827,-0.002893166383728385,0.004619652405381203
1690838597953666000,5.447666015625,0.0009030941873788834,-0.0020498468074947596,0.004672366194427013
1690838597963707000,5.457706787109375,0.0010487693361938,-0.00099124014377594,-0.0009932424873113632
1690838597973746700,5.46774658203125,-0.0007522786036133766,0.0009433577070012689,-0.0017358865588903427
1690838597983786800,5.477786865234375,0.00018302351236343384,0.0029204885940998793,-0.004480008035898209
1690838597993826800,5.487826904296875,-0.0014131045900285244,0.003339350689202547,-0.0055778902024030685
1690838598003868000,5.497867919921875,-0.00011747656390070915,0.0031963391229510307,-0.004373608157038689
1690838598013939000,5.50793896484375,-0.0009959903545677662,0.0005601607263088226,-0.0008899867534637451
1690838598023979000,5.51797900390625,-0.000003962777554988861,-0.0031482910271734,0.0006549134850502014
1690838598034019000,5.52801904296875,-0.0004937583580613136,-0.0029338058084249496,0.0031801480799913406
1690838598044059000,5.538058837890625,-0.0005486193113029003,-0.0034965318627655506,0.003222493454813957
1690838598054099700,5.548099609375,0.0006508138030767441,0.00038326915819197893,0.0020050909370183945
1690838598064139800,5.558139892578125,0.0008763833902776241,0.0025926276575773954,0.0026106946170330048
1690838598074179800,5.568179931640625,-0.00018751202151179314,0.00297369877807796,0.000498378649353981
1690838598084221000,5.578220947265625,-0.0008024359121918678,0.002572094090282917,-0.0016902070492506027
1690838598094261000,5.588260986328125,-0.0008065598085522652,0.0013376662973314524,-0.003601904958486557
1690838598104301000,5.598301025390625,0.0004832092672586441,-0.0010032523423433304,-0.0024279840290546417
1690838598114340900,5.6083408203125,0.00009003700688481331,-0.0027192619163542986,-0.00042703747749328613
1690838598124381700,5.618381591796875,-0.0011944053694605827,-0.0035898492205888033,-0.0008534099906682968
1690838598134421800,5.628421875,-0.0005855993367731571,-0.0009669535793364048,0.002772614359855652
1690838598144461800,5.6384619140625,-0.00014218315482139587,-0.00043751695193350315,0.002206159755587578
1690838598154502000,5.648501953125,0.0023244619369506836,0.000249789678491652,0.003455648198723793
1690838598164543000,5.65854296875,0.00016810046508908272,0.0021068118512630463,0.0006271041929721832
1690838598174583000,5.6685830078125,-0.00014683930203318596,0.0004835412837564945,-0.0004177708178758621
1690838598184622800,5.678622802734375,-0.00044830935075879097,-0.0007950423751026392,-0.0020108744502067566
1690838598194694000,5.68869384765625,0.000059557147324085236,-0.0024633321445435286,-0.004742955788969994
1690838598204734000,5.69873388671875,0.002119778422638774,-0.0013088518753647804,-0.0031370706856250763
1690838598214774800,5.70877490234375,0.0007193959318101406,0.0013304215390235186,-0.0023540686815977097
1690838598224814800,5.71881494140625,0.0005244528874754906,0.0012390750925987959,-0.0008685588836669922
1690838598234855000,5.72885498046875,0.00018494203686714172,0.0010354254627600312,-0.00014555826783180237
1690838598244896000,5.73889599609375,-0.0005956306122243404,-0.0016080283094197512,0.0044574495404958725
1690838598254936000,5.74893603515625,-0.00040399376302957535,0.0008061791304498911,0.002773946151137352
1690838598264976000,5.758975830078125,0.0006737876683473587,0.0009491909295320511,0.001936648041009903
1690838598275016000,5.769015869140625,-0.0007858690805733204,-0.002661254955455661,0.002572663128376007
1690838598285056800,5.779056884765625,-0.00033046863973140717,-0.0004921101499348879,-0.0008990336209535599
1690838598295096800,5.789096923828125,-0.0002757599577307701,-0.00023250887170433998,0.00009021162986755371
1690838598305137000,5.799136962890625,-0.00014180317521095276,0.0031899195164442062,-0.0020043645054101944
1690838598315178000,5.809177978515625,-0.0018570921383798122,0.0003929889062419534,0.00020469538867473602
1690838598325218000,5.819218017578125,-0.000305800698697567,-0.0016352746170014143,-0.0005005095154047012
1690838598335257900,5.8292578125,-0.0001540803350508213,-0.00019223825074732304,0.00009885244071483612
1690838598345298000,5.8392978515625,-0.0003069457598030567,0.0022506793029606342,0.004222491756081581
1690838598355338800,5.8493388671875,0.0019547606352716684,-0.0006014895625412464,0.004698913544416428
1690838598365409000,5.859408935546875,0.00015792576596140862,-0.0016939183697104454,0.002746816724538803
1690838598375449900,5.869449951171875,0.00008114799857139587,0.004082320258021355,0.002249058336019516
1690838598385490000,5.879489990234375,0.0006928760558366776,0.0005501696141436696,-0.00020051561295986176
1690838598395530000,5.889530029296875,-0.00004567112773656845,0.0020604729652404785,0.00030752457678318024
1690838598405571000,5.899571044921875,-0.0006973468698561192,0.0006910754600539804,-0.0029937289655208588
1690838598415611000,5.90961083984375,0.000027594156563282013,0.001225014217197895,-0.0022277701646089554
1690838598425651000,5.91965087890625,-0.0004592319019138813,0.0024106535129249096,-0.0017593204975128174
1690838598435690800,5.929690673828125,0.0003928481601178646,0.002408631145954132,-0.0022270455956459045
1690838598445731800,5.93973193359375,-0.0003666854463517666,0.002435529138892889,0.001154102385044098
1690838598455772000,5.94977197265625,0.0001213783398270607,0.0006337646627798676,0.0017223339527845383
1690838598465812000,5.95981201171875,-0.0008123256266117096,0.000052663031965494156,0.00071006640791893
1690838598475853000,5.96985302734375,0.0000379662960767746,-0.0008239871822297573,0.0017032977193593979
1690838598485892900,5.979892822265625,0.0011559613049030304,-0.0019694126676768064,0.001951238140463829
1690838598495933000,5.989932861328125,-0.00008427677676081657,-0.0011353204026818275,-0.00014973990619182587
1690838598505972700,5.99997265625,-0.0006115827709436417,-0.000005873851478099823,-0.0009984895586967468
1690838598516013800,6.010013916015625,-0.001818622462451458,-0.0011737735476344824,-0.004334302619099617
1690838598526054000,6.020053955078125,0.00019499380141496658,0.00014608888886868954,-0.0026786159723997116
1690838598536125000,6.030125,-0.00013864552602171898,-0.00008677877485752106,-0.001986987888813019
1690838598546165000,6.0401650390625,-0.0007700808346271515,0.00009404984302818775,0.0005432814359664917
1690838598556204800,6.050204833984375,0.000688434112817049,-0.00018036365509033203,0.0019444413483142853
1690838598566246000,6.060245849609375,0.0005310415290296078,0.0007701185531914234,0.00251702219247818
1690838598576286000,6.070285888671875,0.0012657586485147476,-0.00041492562741041183,0.004491360858082771
1690838598586325800,6.08032568359375,0.0007006358355283737,0.00043595442548394203,0.001828731968998909
1690838598596365800,6.09036572265625,-0.0010886234231293201,0.005181618966162205,-0.002098139375448227
1690838598606407000,6.100406982421875,0.0006432305090129375,0.0011724961223080754,-0.0019332896918058395
1690838598616447000,6.110447021484375,-0.0003404454328119755,0.0029366000089794397,-0.006697515025734901
1690838598626486800,6.12048681640625,-0.0005945111624896526,-0.002524211537092924,-0.004175769165158272
1690838598636527900,6.13052783203125,0.0002459879033267498,0.0011562260333448648,-0.004354808479547501
1690838598646568000,6.14056787109375,0.001191409770399332,-0.00012022722512483597,-0.0010133404284715652
1690838598656607700,6.150607666015625,0.00001795124262571335,0.00016667391173541546,0.0013754870742559433
1690838598666647800,6.160647705078125,-0.00005448702722787857,0.001471622847020626,0.0018316861242055893
1690838598676689000,6.17068896484375,0.00032859528437256813,-0.00006294436752796173,0.0014507882297039032
1690838598686729000,6.18072900390625,-0.0000759386457502842,0.0008044472197070718,0.0010028444230556488
1690838598696769000,6.19076904296875,0.00011953897774219513,0.0006680375663563609,0.001335442066192627
1690838598706810000,6.20081005859375,-0.001965982373803854,-0.0014688828960061073,-0.0006635263562202454
1690838598716880000,6.2108798828125,-0.00038554146885871887,-0.0009880270808935165,-0.0023138560354709625
1690838598726915300,6.220915283203125,-0.00014372635632753372,-0.001117456704378128,-0.0033615436404943466
1690838598736955400,6.230955322265625,0.00018759910017251968,-0.0014976663514971733,-0.0023129917681217194
1690838598746995200,6.2409951171875,-0.00023451168090105057,-0.001044129952788353,-0.0023516081273555756
1690838598757036300,6.251036376953125,-0.0004184721037745476,0.0008359171915799379,0.00022860243916511536
1690838598767076400,6.261076416015625,-0.0008278000168502331,-0.00006396486423909664,0.002206265926361084
1690838598777116400,6.271116455078125,0.0010686982423067093,0.0008186639752238989,0.0012957602739334106
1690838598787156200,6.28115625,0.0011430003214627504,0.0007512860465794802,0.0015857797116041183
1690838598797197300,6.291197265625,0.0009209625422954559,-0.0002472850028425455,0.002268850803375244
1690838598807237400,6.3012373046875,0.0002559712156653404,-0.0001458185724914074,0.001085607334971428
1690838598817277200,6.311277099609375,0.0012431121431291103,-0.00018690014258027077,0.0006612483412027359
1690838598827318300,6.321318359375,-0.0015103300102055073,0.00008181296288967133,-0.0004282500594854355
1690838598837358300,6.3313583984375,-0.00018838467076420784,0.0023324175272136927,-0.0022142212837934494
1690838598847398400,6.3413984375,0.0003586285747587681,-0.00013446854427456856,-0.00040034204721450806
1690838598857438200,6.351438232421875,0.000018738210201263428,-0.00075359339825809,-0.0009528025984764099
1690838598867479300,6.361479248046875,0.0010935901664197445,-0.0017882315441966057,-0.0014121979475021362
1690838598877519400,6.371519287109375,-0.00115907471626997,-0.0004711670335382223,0.00047550350427627563
1690838598887590400,6.38159033203125,-0.0013361750170588493,0.00007131882011890411,0.001979924738407135
1690838598897630200,6.391630126953125,-0.00007333047688007355,-0.00038927560672163963,0.0011996719986200333
1690838598907670300,6.401670166015625,-0.0004922454245388508,0.0005841098027303815,0.00028913840651512146
1690838598917711400,6.41171142578125,-0.0012333551421761513,0.00018909224309027195,-0.0013932064175605774
1690838598927751400,6.42175146484375,0.0006761313416063786,0.0010772563982754946,-0.0022336989641189575
1690838598937791200,6.431791259765625,-0.0005131158977746964,-0.00133241037838161,-0.003677813336253166
1690838598947831300,6.441831298828125,-0.0013336357660591602,-0.001026679528877139,-0.0029518362134695053
1690838598957872400,6.451872314453125,0.0012206928804516792,0.00041854626033455133,0.00018736347556114197
1690838598967912200,6.461912109375,0.0020792961586266756,0.0014180305879563093,0.002588735893368721
1690838598977952300,6.4719521484375,0.0002676472067832947,-0.00027953763492405415,0.0028177760541439056
1690838598987993300,6.481993408203125,0.0010695252567529678,0.0022635147906839848,0.002734418958425522
1690838598998033400,6.492033447265625,-0.0004447326064109802,0.001858227071352303,0.003479132428765297
1690838599008073200,6.5020732421875,0.0007369117811322212,0.001909093465656042,0.0009022578597068787
1690838599018113300,6.51211328125,-0.0003786901943385601,-0.00014868658035993576,-0.001266229897737503
1690838599028154400,6.522154296875,-0.0011496753431856632,-0.001038981368765235,-0.0008510444313287735
1690838599038194400,6.5321943359375,-0.0002875523641705513,-0.0037181603256613016,-0.005188841372728348
1690838599048234200,6.542234130859375,-0.0023805303499102592,-0.002603627508506179,-0.003972042351961136
1690838599058305300,6.55230517578125,0.00007957499474287033,0.0005765651585534215,-0.004733989015221596
1690838599068345300,6.562345458984375,-0.0005281586199998856,0.003365427255630493,-0.0015757456421852112
1690838599078386400,6.572386474609375,0.0008210940286517143,0.003660302609205246,0.000046230852603912354
1690838599088426200,6.58242626953125,-0.0006114202551543713,0.004037406295537949,0.0021213646978139877
1690838599098466300,6.59246630859375,0.00168823660351336,0.001019720104523003,0.004564637318253517
1690838599108506000,6.602506103515625,0.00003681052476167679,-0.0015816555824130774,0.0043217577040195465
1690838599118547200,6.612547119140625,0.0012734811753034592,-0.003988049924373627,0.003355475142598152
1690838599128587300,6.622587158203125,0.0004692063666880131,-0.004005094058811665,0.00003291480243206024
1690838599138627300,6.63262744140625,-0.0006462568417191505,-0.0038825885858386755,-0.0006789471954107285
1690838599148668400,6.64266845703125,-0.000328009482473135,-0.002875114558264613,-0.003331989049911499
1690838599158708200,6.652708251953125,0.0014620753936469555,0.002013913355767727,-0.004596235230565071
1690838599168748300,6.662748291015625,-0.00026312051340937614,0.0010192227782681584,-0.0019538477063179016
1690838599178788000,6.6727880859375,-0.0008973339572548866,0.001347590470686555,-0.0013604946434497833
1690838599188829200,6.6828291015625,0.00023024855181574821,0.0023284326307475567,-0.0026199035346508026
1690838599198869200,6.692869140625,-0.0002690083347260952,0.0002660540631040931,0.0006819833070039749
1690838599208909300,6.702909423828125,0.001982960384339094,-0.0016748576890677214,0.0022615045309066772
1690838599218950100,6.7129501953125,0.0005528549663722515,-0.0034782944712787867,0.0020749419927597046
1690838599228990200,6.722990234375,-0.0004421016201376915,0.00025199539959430695,0.002032862976193428
1690838599239061200,6.733061279296875,0.0008348054252564907,0.0009231368312612176,0.0004716254770755768
1690838599249101300,6.743101318359375,-0.0012278128415346146,-0.0016622599214315414,0.00014831870794296265
1690838599259141000,6.75314111328125,-0.0004632393829524517,0.00014190096408128738,-0.0015322528779506683
1690838599269182200,6.76318212890625,0.0018225517123937607,-0.0011292258277535439,0.00018335692584514618
1690838599279222300,6.77322216796875,0.0006809313781559467,-0.000545137794688344,-0.0013971216976642609
1690838599289262300,6.783262451171875,-0.00044079171493649483,0.00010174396447837353,-0.0015459917485713959
1690838599299302400,6.793302490234375,-0.0002341833896934986,0.0008619908476248384,0.00023826956748962402
1690838599309343200,6.80334326171875,0.0010830163955688477,0.0012409586925059557,0.0004989933222532272
1690838599319383300,6.81338330078125,-0.0002532391808927059,0.0006467548664659262,0.0005894582718610764
1690838599329423000,6.823423095703125,-0.0005704215727746487,0.00022810592781752348,-0.001176217570900917
1690838599339464200,6.833464111328125,0.001522517530247569,0.001144616398960352,-0.0040420051664114
1690838599349504300,6.843504150390625,-0.0011688731610774994,0.0001224952284246683,-0.0016970932483673096
1690838599359544300,6.85354443359375,-0.0007674610242247581,-0.0013102474622428417,-0.0026334039866924286
1690838599369584400,6.86358447265625,0.0007657208479940891,-0.00040370761416852474,-0.00022697076201438904
1690838599379625200,6.873625244140625,0.00034197792410850525,-0.0005945796146988869,0.0008572954684495926
1690838599389665300,6.883665283203125,0.0005502370186150074,0.00048826157581061125,0.0038024839013814926
1690838599399705300,6.893705322265625,0.0021018367260694504,0.001265058759599924,0.0043861400336027145
1690838599409776000,6.903776123046875,-0.00044813985005021095,0.0023969020694494247,0.005269776098430157
1690838599419816200,6.913816162109375,-0.0007774550467729568,0.0020779024343937635,0.0009361244738101959
1690838599429857300,6.923857177734375,0.0023917064536362886,0.0023838996421545744,-0.0013699065893888474
1690838599439897300,6.9338974609375,0.00110936863347888,0.0010581492679193616,-0.004605062305927277
1690838599449937400,6.9439375,-0.0014659082517027855,0.000351079972460866,-0.004896145313978195
1690838599459977500,6.9539775390625,-0.00015291664749383926,0.0017541188281029463,-0.007158711552619934
1690838599470018300,6.964018310546875,0.00018344074487686157,-0.0012744278647005558,-0.005112871527671814
1690838599480058000,6.97405810546875,-0.000027484726160764694,-0.002725082216784358,-0.0026286765933036804
1690838599490098200,6.98409814453125,-0.0003257584758102894,-0.00048696156591176987,0.002673143520951271
1690838599500139300,6.99413916015625,0.00034834351390600204,0.000058185309171676636,0.006550779566168785
1690838599510179300,7.004179443359375,0.0022839289158582687,-0.0004669900517910719,0.007537480443716049
1690838599520219400,7.014219482421875,0.0009381687268614769,0.0020269087981432676,0.008687120862305164
1690838599530259500,7.024259521484375,-0.0006421511061489582,0.005063711665570736,0.005254039540886879
1690838599540300300,7.03430029296875,0.0010797432623803616,-0.0006814801599830389,0.0023188069462776184
1690838599550340400,7.04434033203125,-0.0007296083495020866,0.0011316000018268824,-0.002037324011325836
1690838599560380200,7.054380126953125,0.00035432539880275726,-0.000321847852319479,-0.004338886588811874
1690838599570421200,7.064421142578125,-0.00011918460950255394,-0.00027311197482049465,-0.006979675963521004
1690838599580491300,7.0744912109375,-0.0006190394051373005,-0.0011267843656241894,-0.009906616061925888
1690838599590532400,7.084532470703125,-0.0005583195015788078,-0.001780324149876833,-0.007958512753248215
1690838599600572400,7.094572509765625,0.0023537876550108194,-0.0011897464282810688,-0.0029128585010766983
1690838599610612500,7.104612548828125,-0.0012161796912550926,0.0001692647347226739,0.00002247840166091919
1690838599620652300,7.11465234375,0.0007141558453440666,0.0008281160844489932,0.0027467217296361923
1690838599630693000,7.124693115234375,0.0008904570713639259,0.0004819051828235388,0.006370218470692635
1690838599640733200,7.134733154296875,-0.0009105219505727291,0.0014145090244710445,0.006356456317007542
1690838599650773200,7.144773193359375,0.0008900412358343601,-0.000857433769851923,0.003912473097443581
1690838599660814300,7.154814453125,0.0011939588002860546,-0.0003663466777652502,0.0032693203538656235
1690838599670854400,7.1648544921875,0.0000687730498611927,-0.0015368061140179634,0.000019997358322143555
1690838599680894500,7.17489453125,0.001981253270059824,-0.000035369303077459335,-0.001810859888792038
1690838599690934300,7.184934326171875,0.001335969427600503,0.0008474686183035374,-0.005775241181254387
1690838599700975400,7.194975341796875,-0.00005555059760808945,0.002344002015888691,-0.0063137151300907135
1690838599711015200,7.20501513671875,0.00021529290825128555,0.0020457280334085226,-0.006543280556797981
1690838599721055200,7.21505517578125,0.0012317171785980463,0.0012985108187422156,-0.003667479380965233
1690838599731090700,7.225090576171875,-0.0000548558309674263,-0.00033880071714520454,-0.002168385311961174
1690838599741130800,7.235130859375,-0.0018530543893575668,0.000027772272005677223,-0.0012042056769132614
1690838599751170800,7.2451708984375,0.00005510030314326286,-0.004373367875814438,0.00018649734556674957
1690838599761241900,7.255241943359375,0.0009754300117492676,-0.0013330758083611727,0.0026740506291389465
1690838599771281700,7.26528173828125,-0.00047279708087444305,-0.00011734291911125183,0.0052213650196790695
1690838599781322800,7.27532275390625,0.00019662920385599136,-0.0006424598395824432,0.006020739674568176
1690838599791362800,7.28536279296875,0.0005471012555062771,0.000009748386219143867,0.006040181033313274
1690838599801403000,7.29540283203125,0.000006140675395727158,0.002350794617086649,0.0054391780868172646
1690838599811443000,7.30544287109375,-0.00017735129222273827,0.0015515799168497324,0.006218684837222099
1690838599821483800,7.31548388671875,0.0003481917083263397,0.0017633577808737755,-0.001165030524134636
1690838599831523800,7.32552392578125,0.0000781468115746975,0.0030597844161093235,-0.003360806033015251
1690838599841563600,7.335563720703125,-0.0016970508731901646,0.0008979616686701775,-0.00779084675014019
1690838599851604700,7.345604736328125,0.0017514762002974749,0.002324084285646677,-0.009330153465270996
1690838599861644800,7.355644775390625,-0.0016120336949825287,-0.0012928606010973454,-0.008760977536439896
1690838599871684900,7.365684814453125,-0.0002974970266222954,-0.0025964779779314995,-0.006125247105956078
1690838599881725000,7.375724853515625,-0.0018591536208987236,-0.0038573788478970528,-0.005635017529129982
1690838599891765800,7.385765869140625,-0.0005270405672490597,-0.0010264385491609573,-0.00031428784132003784
1690838599901805800,7.395805908203125,0.0005976390093564987,0.00019832293037325144,0.0037428569048643112
1690838599911845600,7.405845703125,-0.0006183604709804058,0.0028226017020642757,0.0089741051197052
1690838599921886700,7.41588671875,-0.0005753929726779461,0.0036519102286547422,0.008726963773369789
1690838599931956700,7.425956787109375,-0.0005791215226054192,0.004790944047272205,0.009742426685988903
1690838599941997800,7.435997802734375,-0.00007745670154690742,0.003551058005541563,0.005783930420875549
1690838599952038000,7.446037841796875,0.00020164251327514648,0.00009587290696799755,0.003060581162571907
1690838599962078000,7.456077880859375,0.002273774705827236,0.00016175804194062948,-0.0007584448903799057
1690838599972118000,7.466117919921875,0.0006630946882069111,-0.0034372378140687943,-0.006369991227984428
1690838599982158800,7.476158935546875,0.0001425272785127163,-0.004256960470229387,-0.00819564051926136
1690838599992198700,7.48619873046875,-0.00005268258973956108,-0.0025171171873807907,-0.007119191810488701
1690838600002238700,7.49623876953125,0.0006515029817819595,0.00035877525806427,-0.005679553374648094
1690838600012279800,7.50627978515625,-0.00019538216292858124,0.0010527949780225754,-0.0026046670973300934
1690838600022319900,7.51631982421875,0.0006211781874299049,0.0008474169299006462,-0.0001879427582025528
1690838600032360000,7.52635986328125,0.00011251447722315788,0.0011281140614300966,0.002064293250441551
1690838600042400000,7.53639990234375,-0.0006975182332098484,0.0010009768884629011,0.0007612630724906921
1690838600052440800,7.54644091796875,0.0010063722729682922,0.0014252184191718698,0.0036579836159944534
1690838600062480600,7.556480712890625,-0.000014070887118577957,0.00012155924923717976,0.0031449291855096817
1690838600072520700,7.566520751953125,-0.0006497674621641636,-0.0007535554468631744,0.001006411388516426
1690838600082561800,7.576561767578125,0.0009097540751099586,-0.0001489534042775631,0.00061044842004776
1690838600092601900,7.586601806640625,0.00019096676260232925,-0.00015534483827650547,-0.00010887160897254944
1690838600102673000,7.5966728515625,-0.0006949990056455135,-0.00013519101776182652,0.00013215653598308563
1690838600112713000,7.606712890625,0.0005383109673857689,-0.00038819131441414356,-0.0004556030035018921
1690838600122753000,7.6167529296875,0.0008805850520730019,0.0008759924676269293,0.0008690934628248215
1690838600132792800,7.626792724609375,-0.000767645426094532,0.0009875789983198047,0.0014459341764450073
1690838600142833700,7.636833740234375,-0.00007394282147288322,-0.0003809146583080292,0.00047569163143634796
1690838600152873700,7.646873779296875,0.0010102298110723495,0.0012255040928721428,-0.00019116327166557312
1690838600162913800,7.656913818359375,-0.00003794766962528229,0.0016429268289357424,-0.0008381027728319168
1690838600172955000,7.666954833984375,0.002281133085489273,-0.000001575099304318428,-0.0012181363999843597
1690838600182995000,7.676994873046875,3.5297125577926636e-7,-0.0015670049469918013,-0.0023653432726860046
1690838600193035000,7.687034912109375,-0.0015892880037426949,0.00006364868022501469,-0.0011983457952737808
1690838600203074800,7.69707470703125,0.0012686119880527258,-0.001585196005180478,-0.0010047592222690582
1690838600213115600,7.70711572265625,-0.0005479301325976849,0.001973053440451622,-0.0010979697108268738
1690838600223155700,7.71715576171875,0.00126456911675632,-0.001023429911583662,0.0019598137587308884
1690838600233195800,7.72719580078125,0.0007148929871618748,0.0006916456623002887,0.004351332783699036
1690838600243236900,7.73723681640625,0.0000027599744498729706,0.002833280712366104,0.0018585864454507828
1690838600253277000,7.74727685546875,0.000562556553632021,0.0010694691445678473,0.0026199836283922195
1690838600263317000,7.75731689453125,0.002315615303814411,0.0007370008388534188,0.00354708731174469
1690838600273356800,7.767356689453125,0.0006945491768419743,0.0008262167684733868,0.0006402470171451569
1690838600283427800,7.777427734375,-0.0005386094562709332,0.0024331428576260805,0.0012778881937265396
1690838600293468700,7.78746875,0.0012627525720745325,-0.00089474325068295,-0.002657998353242874
1690838600303508700,7.7975087890625,0.0001995856873691082,-0.0001176090445369482,-0.0010658260434865952
1690838600313548800,7.807548828125,0.0011207729112356901,-0.001774095231667161,-0.002835763618350029
1690838600323588900,7.8175888671875,-0.0008373665623366833,0.0000759572722017765,-0.0006743986159563065
1690838600333630000,7.8276298828125,0.0006103278137743473,-0.0019800029695034027,0.0002987198531627655
1690838600343670000,7.837669921875,0.0008670790120959282,-0.0005078420508652925,0.0011856332421302795
1690838600353709800,7.847709716796875,0.0004902416840195656,0.0004711359506472945,0.0005230382084846497
1690838600363750700,7.857750732421875,-0.0000016968697309494019,0.003281707875430584,-0.00047790631651878357
1690838600373790700,7.867790771484375,-0.00038599083200097084,0.003496624995023012,0.0008619297295808792
1690838600383830800,7.877830810546875,0.000677058007568121,0.0022265310399234295,-0.0005473438650369644
1690838600393870800,7.887870849609375,0.00018490571528673172,-0.00009015272371470928,-0.0007683858275413513
1690838600403912000,7.897911865234375,-0.00027471641078591347,-0.0006088039372116327,-0.000003952533006668091
1690838600413952000,7.907951904296875,0.00034979498013854027,-0.0011422352399677038,0.0014946069568395615
1690838600423991800,7.91799169921875,0.0007287953048944473,0.00020122260320931673,0.0015695076435804367
1690838600434033000,7.928032958984375,-0.00026589538902044296,-0.0007886744569987059,0.0015303585678339005
1690838600444072700,7.93807275390625,0.0008407505229115486,0.0009095057612285018,0.0014380887150764465
1690838600454143700,7.948143798828125,-0.0003813738003373146,0.000588594819419086,-0.00031000934541225433
1690838600464183800,7.958183837890625,0.0008949362672865391,0.0009962571784853935,-0.0014656651765108109
1690838600474223900,7.968223876953125,-0.0017823395319283009,0.0011379373027011752,-0.003585541620850563
1690838600484264000,7.978263916015625,-0.00042181042954325676,-0.0012434613890945911,-0.0013343710452318192
1690838600494304800,7.9883046875,-0.0002692113630473614,-0.00043758866377174854,-0.0025469083338975906
1690838600504344600,7.998344482421875,-0.0007939832285046577,-0.0006216482724994421,-0.002942236140370369
1690838600514384600,8.008384521484375,0.0010318802669644356,-0.0003153847064822912,0.0006455741822719574
1690838600524425700,8.01842578125,0.0001701689325273037,-0.0010270769707858562,-0.001314513385295868
1690838600534465800,8.0284658203125,-0.0007741879671812057,-0.0005064290016889572,0.002832828089594841
1690838600544505900,8.038505859375,-0.000027861911803483963,-0.0017752738203853369,0.003945283591747284
1690838600554546000,8.0485458984375,-0.0001240018755197525,0.0009398189140483737,0.0014642830938100815
1690838600564586800,8.058586669921874,-0.00067181047052145,0.00042383186519145966,0.0017322581261396408
1690838600574626600,8.06862646484375,-0.0006265370175242424,-0.00013196980580687523,0.00112852081656456
1690838600584666600,8.07866650390625,0.000570621807128191,0.0010760908480733633,-0.0014329161494970322
1690838600594707700,8.088707763671875,0.001270767068490386,0.0009794180514290929,-0.003610050305724144
1690838600604747800,8.098747802734374,-0.0024983538314700127,0.002113886410370469,-0.002473028376698494
1690838600614787800,8.108787841796875,0.00009689666330814362,0.00022517249453812838,-0.0034410879015922546
1690838600624828000,8.118827880859374,0.00033829500898718834,-0.0006044148467481136,-0.0008293148130178452
1690838600634899000,8.12889892578125,0.00043416861444711685,-0.0012457040138542652,-0.00009321793913841248
1690838600644938800,8.138938720703125,-0.00036347052082419395,-0.0008699523750692606,0.00011219456791877747
1690838600654979600,8.1489794921875,0.0006061862222850323,0.0003335301298648119,0.0026579108089208603
1690838600665019600,8.15901953125,0.00013399915769696236,0.0010326988995075226,0.001854659989476204
1690838600675059700,8.169059814453124,-0.0015757502987980843,0.0011967496247962117,0.002547880634665489
1690838600685100800,8.179100830078125,0.000898286234587431,-0.0014357378240674734,0.0007468331605195999
1690838600695140900,8.189140869140624,-0.0004870900884270668,-0.0011782101355493069,0.0007742643356323242
1690838600705181000,8.199180908203125,0.001775597222149372,-0.0007673627696931362,-0.0017200056463479996
1690838600715220700,8.209220703125,0.001008340623229742,-0.0015782953705638647,-0.0007615350186824799
1690838600725261600,8.219261474609375,-0.0007086042314767838,0.000008047092705965042,-0.003506746143102646
1690838600735279900,8.22927978515625,0.00007409881800413132,-0.0007847759407013655,0.00027094781398773193
1690838600745320000,8.23931982421875,-0.0007368912920355797,-0.0008219971787184477,-0.0002652723342180252
1690838600755360800,8.24936083984375,-0.00012835906818509102,0.0010949461720883846,0.00109160877764225
1690838600765400600,8.259400634765624,-0.00009059300646185875,-0.00011952011846005917,0.0013470854610204697
1690838600775440600,8.269440673828125,-0.000041857361793518066,0.0009558642050251365,0.0034608356654644012
1690838600785480700,8.279480712890624,-0.0006170882843434811,-0.0003293626941740513,0.0011629294604063034
1690838600795521800,8.289521728515625,0.001023685559630394,-0.0012739859521389008,-0.0000802353024482727
1690838600805592800,8.2995927734375,0.0008155815303325653,-0.0017412933520972729,-0.0005246363580226898
1690838600815633000,8.3096328125,-0.0013951081782579422,0.000632382114417851,-0.0006170477718114853
1690838600825673000,8.3196728515625,0.0003961026668548584,0.0008451957255601883,-0.000950641930103302
1690838600835712800,8.329712646484374,-0.00008433125913143158,0.000027338974177837372,-0.0029376260936260223
1690838600845753600,8.339753662109375,-0.0005074003711342812,0.001655226107686758,-0.000728098675608635
1690838600855793700,8.349793701171874,0.0011594723910093307,-0.0014143334701657295,-0.0006284955888986588
1690838600865833700,8.359833740234375,0.0012346066068857908,-0.0019468360114842653,0.0019923150539398193
1690838600875874800,8.369874755859374,-0.0006463839672505856,0.00021352025214582682,0.0026067066937685013
1690838600885915000,8.379914794921875,0.00212478986941278,-0.0004086471162736416,0.0008889902383089066
1690838600895955000,8.389954833984374,-0.00028110994026064873,-0.0014526061713695526,0.0035846419632434845
1690838600905994800,8.399994873046875,0.0001260233111679554,0.0003901221789419651,0.00248059444129467
1690838600916035600,8.41003564453125,0.001677048159763217,0.00005909125320613384,-0.0002603307366371155
1690838600926075600,8.42007568359375,0.000012945383787155151,0.0015911344671621919,0.0019860640168190002
1690838600936115700,8.43011572265625,0.00041002267971634865,0.0007591629400849342,-0.0007785633206367493
1690838600946155800,8.44015576171875,0.0001813787966966629,-0.0014009978622198105,-0.001282690092921257
1690838600956196900,8.45019677734375,0.0012258703354746103,0.0012022422160953283,-0.0021096020936965942
1690838600966237000,8.46023681640625,0.0003010109066963196,-0.000008566537871956825,-0.001277785748243332
1690838600976308000,8.470307861328125,-0.00008621253073215485,0.00023005262482911348,-0.0014740601181983948
1690838600986347800,8.48034765625,-0.0006597251631319523,-0.0003328637685626745,-0.00006272643804550171
1690838600996387800,8.490387939453125,0.0003706519491970539,0.0008192196255549788,0.0004038587212562561
1690838601006428700,8.5004287109375,-0.00016916217282414436,-0.0002307568211108446,-0.000805247575044632
1690838601016468700,8.51046875,-0.00083548529073596,-0.0007066638208925724,0.001274947077035904
1690838601026508800,8.5205087890625,0.0003819218836724758,0.0016533464659005404,-0.0012988783419132233
1690838601036550000,8.5305498046875,0.0011896586511284113,0.001265323837287724,0.0003240518271923065
1690838601046590000,8.54058984375,-0.001659391913563013,-0.0003968293312937021,0.0001293756067752838
1690838601056629800,8.550629638671875,0.00034969672560691833,-0.0006599496118724346,0.0013674777001142502
1690838601066669800,8.560669921875,-0.0003197230398654938,0.00014093925710767508,0.002137843519449234
1690838601076710700,8.570710693359375,-0.0004278477281332016,-0.0005773152224719524,-0.0002888292074203491
1690838601086750700,8.580750732421874,-0.001525373663753271,-0.001247872831299901,0.0016108732670545578
1690838601096790800,8.590790771484375,-0.0008153747767210007,-0.000185804208740592,-0.0004938226193189621
1690838601106832000,8.600831787109374,-0.001555048394948244,0.0009829923510551453,-0.00009963288903236389
1690838601116872000,8.610871826171875,0.0006154277361929417,0.00044530013110488653,-0.0007020402699708939
1690838601126911700,8.620911865234374,0.00038014398887753487,0.004028152674436569,-0.000818224623799324
1690838601136951800,8.630951904296875,-0.0001551513560116291,0.00042409671004861593,-0.0030166637152433395
1690838601146992600,8.64099267578125,0.0004236646927893162,0.002253128681331873,-0.0012689977884292603
1690838601157062700,8.651062744140624,0.0005126143805682659,-0.0015488001517951488,-0.0019837897270917892
1690838601167103700,8.661103759765625,-0.000012524425983428955,-0.0012176728341728449,0.00031303614377975464
1690838601177143800,8.671143798828124,-0.0005464884452521801,-0.0003766466397792101,0.003027329221367836
1690838601187183900,8.681183837890625,0.00019389810040593147,0.0012539285235106945,0.003811486065387726
1690838601197225000,8.691224853515624,-0.0006372747011482716,-0.0012885911855846643,0.0020175818353891373
1690838601207264800,8.7012646484375,-0.0010377978906035423,0.0009398526744917035,0.0033857468515634537
1690838601217304800,8.711304931640624,-0.00039331289008259773,0.0026376177556812763,0.0023516416549682617
1690838601227344600,8.7213447265625,-0.0008323187939822674,0.002292417222633958,0.0008245483040809631
1690838601237385700,8.7313857421875,-0.0018901261501014233,-0.0018093835096806288,-0.0019661765545606613
1690838601247425800,8.74142578125,-0.0007139244116842747,-0.00002368353307247162,-0.00582258403301239
1690838601257465900,8.7514658203125,-0.00023215869441628456,-0.0005158355925232172,-0.0038822051137685776
1690838601267507000,8.7615068359375,0.0008647236973047256,0.0009102808544412255,-0.0017835404723882675
1690838601277546800,8.771546630859374,0.00038801785558462143,0.0007342459866777062,-0.0026474688202142715
1690838601287586800,8.7815869140625,-0.0017223847098648548,0.0009693886386230588,0.000418003648519516
1690838601297626600,8.791626708984374,-0.002547432202845812,0.0009752475889399648,0.0016704890877008438
1690838601307667700,8.801667724609375,0.0012632189318537712,0.0007529115537181497,0.004490090534090996
1690838601317707800,8.811707763671874,-0.00011629844084382057,0.001634684158489108,0.0026274770498275757
1690838601327778800,8.82177880859375,0.00035854522138834,0.0009466623887419701,0.00004127994179725647
1690838601337819000,8.83181884765625,-0.00045318668708205223,0.0010750266956165433,0.001106545329093933
1690838601347858700,8.841858642578124,-0.00055265286937356,-0.0003054270055145025,0.0003208331763744354
1690838601357899800,8.851899658203125,0.001646319404244423,-0.001658046618103981,-0.001961229369044304
1690838601367939600,8.861939697265624,-0.0005067638121545315,0.0008088999893516302,-0.0022723637521266937
1690838601377979600,8.871979736328125,-0.000417281873524189,-0.0015221650246530771,-0.002768244594335556
1690838601388020700,8.882020751953124,0.00003599002957344055,-0.0003286427818238735,-0.0022757835686206818
1690838601398060800,8.892060791015625,-0.0004945117980241776,0.0012008106568828225,-0.0002496521919965744
1690838601408100900,8.902100830078124,-0.0005279821343719959,-0.0001402413472533226,0.00029220618307590485
1690838601418140700,8.912140625,0.0003010598011314869,0.0010765568586066365,0.0025449730455875397
1690838601428181800,8.922181640625,0.001197876874357462,0.001013835659250617,0.0013819653540849686
1690838601438221600,8.9322216796875,-0.00011372985318303108,0.00046336022205650806,0.0010677129030227661
1690838601448261600,8.94226171875,0.000027345959097146988,-0.0008690531831234694,0.00041506998240947723
1690838601458301700,8.9523017578125,-0.00124724255874753,0.0008691920666024089,-0.0007908083498477936
1690838601468342800,8.9623427734375,0.0007581640966236591,0.00021124538034200668,-0.000007420778274536133
1690838601478382800,8.9723828125,0.00023458665236830711,0.00012149685062468052,-0.0011682920157909393
1690838601488423000,8.9824228515625,-0.0005323057994246483,0.0006021190201863647,0.0011100824922323227
1690838601498463700,8.992463623046875,-0.0007714577950537205,0.00022980920039117336,0.001161215826869011
1690838601508533800,9.00253369140625,0.000546417199075222,0.00011222762987017632,-0.00028461776673793793
1690838601518574600,9.01257470703125,0.0004446841776371002,0.0016528662526980042,0.00037318281829357147
1690838601528614700,9.02261474609375,-0.0008001355454325676,0.0008262494811788201,0.00035112164914608
1690838601538654700,9.03265478515625,0.00025101425126194954,-0.0006499406881630421,-0.0003452952951192856
1690838601548695800,9.04269580078125,-0.0005664760246872902,0.0007431418634951115,-0.0013258550316095352
1690838601558736000,9.05273583984375,0.0002481848932802677,0.0009119863389059901,-0.00044940970838069916
1690838601568775700,9.062775634765625,-0.0012829052284359932,-0.0015713695902377367,-0.0014887694269418716
1690838601578815700,9.072815673828124,-0.000523637980222702,0.00018951238598674536,0.000354669988155365
1690838601588856600,9.082856689453125,0.00033664051443338394,-0.000022316817194223404,0.00010956078767776489
1690838601598896600,9.092896728515624,0.000258076936006546,-0.0005932985804975033,-0.00032346881926059723
1690838601608936700,9.102936767578125,0.0006586099043488503,0.0021506501361727715,0.001972513273358345
1690838601618977800,9.112977783203124,0.0000309026800096035,0.000798829598352313,0.0009730290621519089
1690838601629017900,9.123017822265625,-0.0013578194193542004,0.001526340958662331,-0.00018331967294216156
1690838601639058000,9.133057861328124,-0.0001751095987856388,0.00019609206356108189,0.0001154877245426178
1690838601649097700,9.14309765625,0.0022573480382561684,-0.0018455798272043467,0.0006061028689146042
1690838601659138600,9.153138671875,-0.0004540164954960346,0.0006005335599184036,-0.0016059186309576035
1690838601669178600,9.1631787109375,-0.0008005350828170776,-0.0017342281062155962,-0.00197780504822731
1690838601679249700,9.173249755859375,-0.0015323716215789318,0.0004229322075843811,-0.0007966924458742142
1690838601689289700,9.183289794921874,0.002183410106226802,-0.0004233026411384344,0.0003240462392568588
1690838601699329800,9.193329833984375,0.0008694063872098923,0.002139190910384059,0.0013251286000013351
1690838601709371000,9.203370849609374,0.0005120178684592247,0.0003415151732042432,0.0012220628559589386
1690838601719410700,9.21341064453125,0.0002880464307963848,0.0001859866315498948,0.0006063412874937057
1690838601729458400,9.22345849609375,-0.0010760137811303139,0.002073822543025017,0.001284005120396614
1690838601739498500,9.23349853515625,-0.0006054332479834557,-0.0001075726468116045,0.0030512791126966476
1690838601749539300,9.243539306640624,0.002293372293934226,0.000074425945058465,0.001016024500131607
1690838601759579400,9.253579345703125,0.0006019985303282738,0.00007602386176586151,0.0010631624609231949
1690838601769619500,9.263619384765626,-0.00044016120955348015,-0.00042090239003300667,-0.0006273183971643448
1690838601779660500,9.27366064453125,-0.00014934362843632698,-0.0011082643177360296,-0.0013983026146888733
1690838601789700400,9.283700439453124,-0.0001173047348856926,0.00011825875844806433,-0.0012618210166692734
1690838601799740400,9.293740478515625,-0.000288546085357666,-0.0015411570202559233,-0.0020027123391628265
1690838601809780500,9.303780517578126,-0.0008082706481218338,-0.00038172188214957714,0.0006949566304683685
1690838601819821300,9.3138212890625,-0.0007720515131950378,0.0005328075494617224,-0.00046751275658607483
1690838601829861400,9.323861328125,-0.0006222547963261604,-0.001153645571321249,0.0010789409279823303
1690838601839901400,9.3339013671875,-0.0005450230091810226,-0.00015016645193099976,0.0009934548288583755
1690838601849972500,9.343972412109375,0.00014587119221687317,0.004117618314921856,0.001165587455034256
1690838601860012300,9.35401220703125,0.00021990714594721794,0.00011408817954361439,-0.0003351029008626938
1690838601870053400,9.364053466796875,0.000036055222153663635,0.0013199143577367067,-0.00154903344810009
1690838601880093400,9.374093505859374,0.0005159568972885609,-0.0010982360690832138,-0.0015402454882860184
1690838601890133500,9.384133544921875,0.00014452356845140457,0.000915566342882812,0.00024320371448993683
1690838601900174300,9.39417431640625,-0.0001982254907488823,-0.001532677561044693,-0.0002486817538738251
1690838601910214400,9.40421435546875,0.0003405180759727955,0.00042296655010432005,0.0006520077586174011
1690838601920254500,9.41425439453125,0.0008593020029366016,-0.0000625276006758213,-0.0000891517847776413
1690838601930294300,9.424294189453125,0.0006536124274134636,-0.0002148232888430357,0.0012626275420188904
1690838601940335400,9.43433544921875,0.000013921409845352173,-0.0009831453207880259,0.0013979151844978333
1690838601950375400,9.44437548828125,0.0004894840531051159,-0.000607233727350831,0.00038380175828933716
1690838601960415500,9.45441552734375,0.0006154514849185944,-0.0010724877938628197,-0.00004629790782928467
1690838601970455300,9.464455322265625,0.0002893204800784588,0.00018372992053627968,-0.0006997231394052505
1690838601980496400,9.474496337890624,-0.0006553027778863907,-0.00003118719905614853,-0.0012653786689043045
1690838601990536400,9.484536376953125,0.0010109879076480865,0.0010493113659322262,-0.0008155554533004761
1690838602000576500,9.494576416015626,-0.0016252752393484116,0.0004279959248378873,0.0009165648370981216
1690838602010617600,9.50461767578125,-0.0018130457028746605,0.0010978167410939932,0.001485724002122879
1690838602020657400,9.514657470703124,0.0006325352005660534,0.001451218267902732,-0.0005481336265802383
1690838602030728400,9.524728515625,0.0022224336862564087,-0.00046411529183387756,0.0012797415256500244
1690838602040768500,9.5347685546875,0.00003810925409197807,-0.0005232375115156174,0.0016358066350221634
1690838602050808300,9.544808349609376,-0.00003841472789645195,0.0013297130353748798,0.0009153801947832108
1690838602060849400,9.554849365234375,-0.00004667043685913086,-0.0012583467178046703,-0.0004968941211700439
1690838602070889500,9.564889404296874,-0.0006508613005280495,0.0003968754317611456,-0.002615649253129959
1690838602080929300,9.57492919921875,-0.00042688939720392227,-0.00023669051006436348,0.0002773422747850418
1690838602090969300,9.58496923828125,0.0002089235931634903,0.00020357989706099033,-0.0003447476774454117
1690838602101010400,9.595010498046875,-0.00018575694411993027,-0.0013511735014617443,-0.00031385570764541626
1690838602111050200,9.60505029296875,0.00010214140638709068,-0.001439873594790697,-0.0011574234813451767
1690838602121090300,9.61509033203125,-0.00044513819739222527,0.00020809052512049675,-0.001481529325246811
1690838602131131400,9.62513134765625,-0.000624628271907568,-0.0010464685037732124,0.001111520454287529
1690838602141171500,9.63517138671875,-0.0006597819738090038,0.000054216012358665466,0.0007754303514957428
1690838602151211500,9.64521142578125,0.0007843575440347195,-0.000023743370547890663,-0.0005890000611543655
1690838602161251300,9.655251220703125,-0.00041246693581342697,0.002141406526789069,-0.00006275996565818787
1690838602171292400,9.66529248046875,-0.0010102633386850357,0.00044731609523296356,0.0009420532733201981
1690838602181332200,9.675332275390625,0.000021711457520723343,0.0006340036634355783,0.00008318386971950531
1690838602191372300,9.685372314453126,0.0011206860654056072,-0.00016917986795306206,-0.0011360496282577515
1690838602201443300,9.695443359375,0.0005108220502734184,-0.001085573574528098,0.0006927438080310822
1690838602211483400,9.7054833984375,-0.0002742847427725792,-0.001045960234478116,-0.0008983220905065536
1690838602221524500,9.7155244140625,-0.0005118385888636112,-0.000276040518656373,0.000638054683804512
1690838602231564300,9.725564208984375,0.000012323260307312012,-0.0006023382302373648,0.0003790464252233505
1690838602241604400,9.735604248046876,0.00011565396562218666,0.00004161405377089977,0.001035783439874649
1690838602251644400,9.74564453125,-0.000052957795560359955,0.0007396797882393003,-0.000499701127409935
1690838602261685200,9.755685302734374,-0.00020449142903089523,-0.001662225229665637,-0.001980151981115341
1690838602271725300,9.765725341796875,0.0008115768432617188,-0.00019462825730443,-0.001858757808804512
1690838602281765400,9.775765380859376,0.002392695751041174,-0.0012577623128890991,-0.0003364942967891693
1690838602291806500,9.785806396484375,-0.00029771821573376656,-0.0014765516389161348,-0.00012784823775291443
1690838602301846300,9.79584619140625,0.0007086899131536484,0.0010894041042774916,0.000006642192602157593
1690838602311886300,9.80588623046875,-0.0008578542619943619,0.0014669676311314106,0.00022640079259872437
1690838602321926400,9.815926513671876,0.0001642666757106781,-0.0006523758638650179,-0.000369880348443985
1690838602331967200,9.82596728515625,0.0003663916140794754,-0.0017205530311912298,0.002348635345697403
1690838602342007300,9.83600732421875,0.001209548208862543,-0.0006587507668882608,0.0018253233283758163
1690838602352047400,9.84604736328125,0.0003228005953133106,0.002128956839442253,0.0013586953282356262
1690838602362088400,9.85608837890625,0.00026421109214425087,-0.0003818713594228029,0.00014455989003181458
1690838602372128500,9.86612841796875,-0.0007749428041279316,-0.0001242058351635933,-0.0007813591510057449
1690838602382199300,9.87619921875,-0.0005685477517545223,0.0006323981797322631,-0.0013387594372034073
1690838602392239400,9.8862392578125,-0.0003397236578166485,-0.0015264214016497135,-0.0017406567931175232
1690838602402279400,9.896279541015625,-0.0001943148672580719,0.0008342046057805419,-0.001205895096063614
1690838602412320300,9.9063203125,0.0005228100344538689,0.00006125634536147118,-0.002445913851261139
1690838602422360300,9.9163603515625,-0.00187643151730299,0.0013286547036841512,-0.000585164874792099
1690838602432400400,9.926400390625,0.0006797695532441139,0.0002767915138974786,-0.00033545494079589844
1690838602442440200,9.936440185546875,-0.000670453067868948,0.001691462704911828,0.002440890297293663
1690838602452481300,9.946481201171874,0.0023031667806208134,0.0020676287822425365,-0.00031847134232521057
1690838602462521300,9.956521240234375,-0.0007821051403880119,-0.0002887360751628876,0.003186514601111412
1690838602472561400,9.9665615234375,0.0011799419298768044,0.0009633675217628479,0.002423025667667389
1690838602482601500,9.9766015625,0.0003218711353838444,0.0006477829301729798,-0.0014702491462230682
1690838602492642300,9.986642333984374,-0.0010780757293105125,0.3762674331665039,-0.14377838373184204
1690838602502682400,9.996682373046875,0.02200833335518837,-0.4239160716533661,-0.031931206583976746
1690838602512722400,10.006722412109376,-0.007384219206869602,-0.05497352406382561,-0.05717001110315323
1690838602522763500,10.016763427734375,0.007892471738159657,0.09136664867401123,-0.08205165714025497
1690838602532803300,10.02680322265625,-0.008417705073952675,-0.054435621947050095,-0.06051371246576309
1690838602542843400,10.036843505859375,-0.017567792907357216,-0.04107241332530975,-0.08017263561487198
1690838602552914400,10.04691455078125,-0.01601499319076538,-0.046827979385852814,-0.05721661448478699
1690838602562954500,10.05695458984375,-0.011228757910430431,-0.01581653207540512,-0.04053643345832825
1690838602572995300,10.066995361328125,-0.004511865321546793,0.012987663969397545,-0.015968438237905502
1690838602583035400,10.077035400390624,0.0030363318510353565,0.029236407950520515,0.005912094376981258
1690838602593075200,10.0870751953125,0.010170318186283112,0.04300958290696144,0.03214018791913986
1690838602603115300,10.097115234375,0.010473918169736862,0.05077669024467468,0.04998576268553734
1690838602613156400,10.10715625,0.010900512337684631,0.044317375868558884,0.0646781325340271
1690838602623196400,10.117196533203124,0.0049041383899748325,0.025025172159075737,0.0732809379696846
1690838602633236500,10.127236572265625,-0.00030846334993839264,0.0017027647700160742,0.07135374844074249
1690838602643277300,10.13727734375,-0.0050811138935387135,-0.01651645265519619,0.06146037578582764
1690838602653317400,10.1473173828125,-0.00461803562939167,-0.027874384075403214,0.04407603666186333
1690838602663357400,10.157357421875,-0.0011143810115754604,-0.02593640238046646,0.01845962181687355
1690838602673397200,10.167397216796875,0.003289818298071623,-0.013411488384008408,-0.009614048525691032
1690838602683438300,10.177438232421874,0.00530396681278944,0.0014084705617278814,-0.036939144134521484
1690838602693478400,10.187478515625,0.00362986046820879,0.015389938838779926,-0.05096934363245964
1690838602703518500,10.1975185546875,-0.0009217481128871441,0.01924246922135353,-0.06078415736556053
1690838602713559300,10.207559326171875,-0.0035973810590803623,0.013857636600732803,-0.06093832850456238
1690838602723629600,10.217629638671875,-0.004143861588090658,0.0028670369647443295,-0.0544668510556221
1690838602733669600,10.227669677734376,-0.002492569386959076,-0.010096143931150436,-0.03821951523423195
1690838602743709400,10.23770947265625,0.0013951133005321026,-0.01577853225171566,-0.02210712432861328
1690838602753749500,10.24774951171875,0.0033011818304657936,-0.020304758101701736,-0.005214132368564606
1690838602763789600,10.25778955078125,0.003951259423047304,-0.01690070517361164,0.009880397468805313
1690838602773830700,10.26783056640625,0.0015917981509119272,-0.007776098325848579,0.024979207664728165
1690838602783870700,10.27787060546875,0.001777953002601862,0.005844372324645519,0.03371730446815491
1690838602793910800,10.287910888671876,-0.0013589938171207905,0.01365869864821434,0.0397145077586174
1690838602803951600,10.29795166015625,-0.0021994872950017452,0.018879026174545288,0.04252734035253525
1690838602813991400,10.307991455078126,-0.002924088854342699,0.01657893694937229,0.03681115433573723
1690838602824031500,10.318031494140625,0.0009151240810751915,0.012731733731925488,0.030668573454022408
1690838602834071600,10.328071533203126,0.003237978322431445,0.0035079559311270714,0.02152676321566105
1690838602844112600,10.338112548828125,0.0013263614382594824,-0.004356890916824341,0.008653041906654835
1690838602854152700,10.348152587890626,-0.00031916098669171333,-0.007295340299606323,-0.005534660071134567
1690838602864192800,10.35819287109375,-0.0005473941564559937,-0.007516116835176945,-0.01512124016880989
1690838602874233600,10.368233642578126,-0.00234476150944829,-0.007355261594057083,-0.02691931277513504
1690838602884273400,10.3782734375,-0.0012869536876678467,-0.00019295606762170792,-0.03209463134407997
1690838602894313500,10.3883134765625,0.00032310327515006065,0.0014042445691302419,-0.03525318577885628
1690838602904384500,10.398384521484376,-0.0002201814204454422,0.0037294505164027214,-0.029652822762727737
1690838602914424600,10.408424560546875,0.0012044785544276237,0.0014146106550469995,-0.02469981275498867
1690838602924464600,10.418464599609376,0.0018668065313249826,-0.0018877091351896524,-0.01284475065767765
1690838602934505700,10.428505615234375,-0.0013696462847292423,-0.0043264273554086685,-0.0028460025787353516
1690838602944545800,10.4385458984375,-0.001253532711416483,-0.004314709454774857,0.007932343520224094
1690838602954585600,10.448585693359375,-0.0010648872703313828,-0.00530847767367959,0.015723325312137604
1690838602964626400,10.45862646484375,-0.00043158745393157005,-0.0005512728821486235,0.023965541273355484
1690838602974666500,10.46866650390625,0.0005759270861744881,0.004640148486942053,0.023887410759925842
1690838602984706600,10.47870654296875,0.0016065705567598343,0.009581377729773521,0.023767301812767982
1690838602994746600,10.48874658203125,0.00039540696889162064,0.010808154940605164,0.01913594827055931
1690838603004787700,10.49878759765625,0.0011163244489580393,0.008020623587071896,0.012540629133582115
1690838603014827800,10.508827880859375,-0.0005863686092197895,0.0025308062322437763,0.0030386559665203094
1690838603024867600,10.51886767578125,-0.0002931542694568634,-0.00350924301892519,-0.003986762836575508
1690838603034908400,10.528908447265625,-0.0011778543703258038,-0.008994866162538528,-0.007596258074045181
1690838603044948500,10.538948486328126,0.0013052772264927626,-0.00912616029381752,-0.010886060073971748
1690838603054988500,10.548988525390625,-0.0013152756728231907,-0.007036333903670311,-0.015920385718345642
1690838603065028600,10.559028564453126,0.0020509599708020687,-0.0018482296727597713,-0.013509426265954971
1690838603075099600,10.569099609375,0.0013392744585871696,0.003810027614235878,-0.014138257130980492
1690838603085140700,10.579140625,-0.001679418608546257,0.008763240650296211,-0.01105804555118084
1690838603095180800,10.589180908203126,0.00005900394171476364,0.007147606462240219,-0.009208537638187408
1690838603105220600,10.599220703125,-0.000004645437002182007,0.004074052907526493,-0.0037397369742393494
1690838603115260700,10.6092607421875,-0.0010786494240164757,-0.0013159282971173525,0.0010079480707645416
1690838603125301500,10.619301513671875,0.0006649219430983067,-0.005975395441055298,0.0063201552256941795
1690838603135341600,10.629341552734376,0.0011122855357825756,-0.008091051131486893,0.009684095159173012
1690838603145381600,10.639381591796875,0.0022933974396437407,-0.006993561517447233,0.015279661864042282
1690838603155422700,10.649422607421876,0.0019350701477378607,-0.0019484912045300007,0.01452419999986887
1690838603165462800,10.659462890625,0.0017414581961929798,0.0025900681503117085,0.012059178203344345
1690838603175502600,10.669502685546876,0.0005567115731537342,0.006555905099958181,0.009863571263849735
1690838603185542700,10.679542724609375,-0.00022279564291238785,0.007184144575148821,0.006265907548367977
1690838603195583500,10.68958349609375,0.000866918358951807,0.008929316885769367,0.0012918896973133087
1690838603205623600,10.69962353515625,0.0010493448935449123,0.0014857817441225052,-0.006529549136757851
1690838603215663600,10.70966357421875,-0.0003459271974861622,-0.0023841839283704758,-0.011053333058953285
1690838603225704700,10.71970458984375,0.0005137408152222633,-0.0054582711309194565,-0.011278634890913963
1690838603235744800,10.729744873046876,0.001529202563688159,-0.007645478006452322,-0.011471336707472801
1690838603245784600,10.73978466796875,-0.0004362105391919613,-0.005748508498072624,-0.011876938864588737
1690838603255855600,10.749855712890625,-0.0011338694021105766,-0.0059619322419166565,-0.007217150181531906
1690838603265895700,10.759895751953126,0.0011708303354680538,0.001391587546095252,-0.001982707530260086
1690838603275935700,10.769935791015625,-0.0015372042544186115,0.002623277250677347,0.0004381835460662842
1690838603285976600,10.7799765625,-0.0018208310939371586,0.00373914185911417,0.001971898600459099
1690838603296016600,10.7900166015625,0.00048058386892080307,0.005704123992472887,0.006736773997545242
1690838603306056700,10.800056640625,0.0010885833762586117,0.003175452584400773,0.007090974599123001
1690838603316097800,10.810097900390625,-0.00003233877941966057,-0.0000976149458438158,0.007179270498454571
1690838603326137600,10.8201376953125,0.00015221815556287766,-0.002213496481999755,0.005917731672525406
1690838603336177700,10.830177734375,-0.0001479014754295349,-0.0035286578349769115,0.0046883998438715935
1690838603346217700,10.8402177734375,-0.000915424432605505,-0.005514310672879219,0.002929382026195526
1690838603356258600,10.850258544921875,-0.0003988295793533325,-0.0011697825975716114,0.0016984157264232635
1690838603366298600,10.860298583984376,0.0009263595566153526,0.00004248833283782005,0.00006350129842758179
1690838603376338700,10.870338623046875,0.0007172524929046631,-0.0005344327073544264,-0.0006132312119007111
1690838603386379800,10.8803798828125,0.0016072809230536222,0.0013244537403807044,-0.003306752070784569
1690838603396419600,10.890419677734375,0.0008321753703057766,0.0004448116524145007,-0.005455391481518745
1690838603406459600,10.900459716796876,-0.001171587035059929,0.001516467658802867,-0.005978435277938843
1690838603416499700,10.910499755859375,-0.001623016782104969,-0.0014547619502991438,-0.005629735067486763
1690838603426570800,10.92057080078125,0.0006065820343792439,-0.002413499867543578,-0.0035751070827245712
1690838603436610800,10.93061083984375,0.00036129867658019066,-0.002207534620538354,-0.002644909545779228
1690838603446651600,10.940651611328125,-0.0016736225225031376,-0.0036898499820381403,0.00035647302865982056
1690838603456691700,10.950691650390626,0.0022006246726959944,-0.0006441150326281786,-0.00007884576916694641
1690838603466731500,10.9607314453125,-0.0016044997610151768,0.0009836091194301844,0.003012819215655327
1690838603476772600,10.970772705078126,0.00022325199097394943,0.0023311879485845566,0.005498549900949001
1690838603486812700,10.980812744140625,0.0001761140301823616,0.0030680845957249403,0.006764350458979607
1690838603496852700,10.990852783203126,-0.0007548732683062553,0.0034526451490819454,0.0033168885856866837
1690838603506892800,11.000892822265625,-0.0015330486930906773,0.0004944057436659932,0.0028564278036355972
1690838603516933600,11.01093359375,0.0009375270456075668,0.0011246342910453677,0.0020270012319087982
1690838603526973700,11.0209736328125,0.000043237581849098206,-0.002390738343819976,-0.0015320461243391037
1690838603537013500,11.031013427734376,0.0004721865989267826,-0.002776406006887555,-0.000613383948802948
1690838603547054600,11.0410546875,-0.00026977015659213066,-0.000806199386715889,-0.001919131726026535
1690838603557094700,11.0510947265625,0.0011801414657384157,-0.000004312256351113319,-0.0023993663489818573
1690838603567134700,11.061134765625,-0.0014987322501838207,0.0003131366102024913,-0.001763671636581421
1690838603577174800,11.0711748046875,-0.001035886351019144,0.0014619322028011084,-0.0033844243735074997
1690838603587215600,11.081215576171875,0.00032658688724040985,-0.00018496671691536903,-0.0006506890058517456
1690838603597255700,11.091255615234376,-0.00008585583418607712,0.0034658419899642467,-0.0014567598700523376
1690838603607326700,11.10132666015625,-0.00030530011281371117,-0.0017803190276026726,0.0003893449902534485
1690838603617366500,11.111366455078125,0.00036679208278656006,-0.0013496498577296734,-0.000534597784280777
1690838603627406600,11.121406494140626,0.00047651445493102074,-0.00013418309390544891,0.0015266891568899155
1690838603637447700,11.13144775390625,-0.0005380492657423019,-0.001044984208419919,0.0019179079681634903
1690838603647487700,11.14148779296875,-0.0009961128234863281,0.0007193600758910179,0.0017980653792619705
1690838603657527800,11.15152783203125,-0.0006028851494193077,0.0012691193260252476,0.0007368177175521851
1690838603667568600,11.161568603515626,-0.000048681627959012985,0.0012275739572942257,0.0017115343362092972
1690838603677608700,11.171608642578125,-0.00035731401294469833,0.0004999790107831359,0.0011587254703044891
1690838603687648500,11.1816484375,-0.0006151078268885612,-0.00019643758423626423,0.0024064164608716965
1690838603697688600,11.1916884765625,0.002068324014544487,0.00041543447878211737,0.00032950378954410553
1690838603707729700,11.201729736328126,0.00046004122123122215,0.0006599127082154155,0.0010014194995164871
1690838603717769700,11.211769775390625,0.00018703239038586617,0.002283480018377304,-0.0020769834518432617
1690838603727809800,11.221809814453126,-0.00034852931275963783,0.0007060897769406438,-0.0019177254289388657
1690838603737820400,11.2318203125,-0.00037465058267116547,0.000038821715861558914,-0.0020347125828266144
1690838603747860200,11.241860107421875,0.0011073986534029245,-0.00065413280390203,-0.0017899684607982635
1690838603757900300,11.251900390625,0.00015528453513979912,0.0009081392781808972,-0.0014508683234453201
1690838603767940400,11.2619404296875,0.001218418125063181,-0.0008093332871794701,-0.0009339489042758942
1690838603778011400,11.272011474609375,0.002152233850210905,0.0011445863638073206,0.0018073637038469315
1690838603788051500,11.282051513671876,0.0007450194098055363,0.0020226305350661278,-0.0005537942051887512
1690838603798092300,11.29209228515625,0.0003178361803293228,-0.0007358475122600794,0.003320237621665001
1690838603808132400,11.30213232421875,-0.0005791168659925461,-0.00012651621364057064,0.0015582889318466187
1690838603818172200,11.312172119140625,0.0005776798352599144,0.0023405917454510927,0.0018044989556074142
1690838603828213200,11.322213134765626,-0.0006894520483911037,0.0009690638398751616,-0.0004533287137746811
1690838603838253300,11.33225341796875,-0.00021001556888222694,0.0006543789058923721,-0.00034178420901298523
1690838603848293400,11.34229345703125,0.0007820120081305504,-0.0005349889397621155,-0.0022286344319581985
1690838603858333400,11.35233349609375,0.0004163314588367939,-0.0021990942768752575,-0.0010960381478071213
1690838603868374300,11.362374267578126,-0.0004942035302519798,-0.0005865504499524832,-0.001016942784190178
1690838603878414300,11.372414306640625,-0.0005708071403205395,0.0002717653987929225,-0.00145789235830307
1690838603888454100,11.3824541015625,-0.00009782938286662102,0.0011133244261145592,-0.0000679902732372284
1690838603898495200,11.3924951171875,0.0005597244016826153,-0.0006534995045512915,-0.00133567675948143
1690838603908535300,11.402535400390626,-0.0006064735352993011,-0.001193854957818985,-0.00021634995937347412
1690838603918575400,11.412575439453125,-0.00014197546988725662,-0.0004264719318598509,-0.0027009211480617523
1690838603928615400,11.422615478515626,-0.0004338580183684826,0.00028539111372083426,-0.0000595971941947937
1690838603938656300,11.43265625,0.00016376329585909843,0.0007610307075083256,-0.0004191398620605469
1690838603948696300,11.4426962890625,0.0007659043185412884,-0.0011793484445661306,-0.00033232010900974274
1690838603958767400,11.452767333984376,0.00010936614125967026,-0.0018162925262004137,0.000026306137442588806
1690838603968807200,11.46280712890625,0.00042708124965429306,-0.00018244306556880474,0.0015275310724973679
1690838603978847200,11.47284716796875,-0.0003770827315747738,-0.0009312245529145002,0.0010986942797899246
1690838603988888300,11.482888427734375,0.00003783777356147766,-0.0003924670163542032,0.0007157325744628906
1690838603998928400,11.492928466796876,-0.0006538815796375275,-0.0016005905345082283,0.0023304950445890427
1690838604008968400,11.502968505859375,-0.0009010229259729385,0.0027717873454093933,0.002485489472746849
1690838604019008500,11.513008544921876,-0.0003702528774738312,-0.0033659376204013824,-0.0004982352256774902
1690838604029049300,11.52304931640625,0.0001794234849512577,-0.0008412606548517942,-0.0002638772130012512
1690838604039089200,11.533089111328126,0.0011255266144871712,-0.0012792125344276428,-0.0007827822118997574
1690838604049129200,11.543129150390625,0.0010371096432209015,-0.001760978251695633,-0.0031242333352565765
1690838604059170300,11.55317041015625,0.001034279353916645,0.0005477835657075047,-0.003081090748310089
1690838604069210400,11.56321044921875,0.0012531913816928864,-0.000501501839607954,-0.0014368537813425064
1690838604079250400,11.57325048828125,-0.00034543871879577637,-0.000642979284748435,-0.002261437475681305
1690838604089290500,11.58329052734375,-0.001776355318725109,-0.0012187547981739044,0.0012283679097890854
1690838604099331300,11.593331298828126,0.0004352550022304058,0.0013801667373627424,0.001720258966088295
1690838604109371100,11.60337109375,-0.0008659656159579754,0.000501057249493897,0.002334650605916977
1690838604119411200,11.6134111328125,-0.0017038900405168533,-0.0007135143969208002,0.0020525287836790085
1690838604129482200,11.623482177734376,0.0012357074301689863,-0.0006653112359344959,0.0021675769239664078
1690838604139522300,11.633522216796875,0.0005288785323500633,-0.00012664939276874065,0.0012406110763549805
1690838604149563400,11.6435634765625,-0.00037419935688376427,0.0007948044221848249,0.0011679064482450485
1690838604159603500,11.653603515625,-0.0007922165095806122,0.0004611266776919365,-0.0007121209055185318
1690838604169643500,11.6636435546875,0.0013329859357327223,-0.0020025637932121754,-0.0032578371465206146
1690838604179684400,11.673684326171875,0.0010938632767647505,-0.0035218780394643545,-0.0022820699959993362
1690838604189724200,11.68372412109375,0.0011575128883123398,-0.00023979833349585533,-0.00037098489701747894
1690838604199764200,11.69376416015625,0.0006842277944087982,0.0017019705846905708,-0.0009763725101947784
1690838604209804300,11.70380419921875,0.00025173043832182884,0.0008968970505520701,-0.0018251221626996994
1690838604219845400,11.713845458984375,0.0007259310223162174,0.002278572414070368,-0.0004810262471437454
1690838604229885400,11.723885498046876,-0.0006378740072250366,0.0008417969802394509,0.0009442977607250214
1690838604239925500,11.733925537109375,-0.000741888303309679,-0.0008916647639125586,0.002384822815656662
1690838604249966300,11.74396630859375,-0.0007903575897216797,-0.000658371951431036,0.0004513673484325409
1690838604260006100,11.754006103515625,-0.0006998409517109394,0.0006535339634865522,-0.0011819899082183838
1690838604270046200,11.764046142578126,0.0018951434176415205,0.0009965491481125355,0.001238292083144188
1690838604280086300,11.774086181640625,0.00047013815492391586,-0.00243304087780416,-0.0005135331302881241
