time,seconds_elapsed,z,y,x
1690838452462992400,0.198992431640625,0.15777882463932036,-0.2617750047572888,0.015259357205510604
1690838452473032400,0.209032470703125,0.15350421606004236,-0.2696970481945202,0.007407713265012716
1690838452483073500,0.219073486328125,0.18450024282634256,-0.24560482773361725,-0.000839158804458566
1690838452493113600,0.229113525390625,0.212030639308691,-0.1906484997903928,-0.004837781720259227
1690838452503153700,0.239153564453125,0.23671967488527296,-0.11469040994858369,-0.010537354201893322
1690838452513193700,0.24919384765625,0.2695171981155872,-0.027953535531554368,0.004779798747104359
1690838452523234600,0.259234619140625,0.30011574999690055,0.050006687912903726,0.008620519695943222
1690838452533304600,0.2693046875,0.3146101392954588,0.10812142508812247,0.009161987895192578
1690838452543345400,0.279345458984375,0.3183873197466135,0.13204314782032742,0.004750951678532874
1690838452553385500,0.289385498046875,0.32199323528409,0.41142026210054755,-0.014227155480405781
1690838452563425500,0.299425537109375,0.32672318641543385,0.39418610910717394,-0.0245762342683156
1690838452573466600,0.309466552734375,0.30308687476217744,0.3239819248832762,-0.03208804380368674
1690838452583506700,0.319506591796875,0.27426351585984227,0.2345146939205937,-0.034235355747397986
1690838452593546500,0.32954638671875,0.24686872845590113,0.1351390588758979,-0.024758200955810022
1690838452603586600,0.339586669921875,0.2230757649362087,0.020359783333772793,-0.0043179796468350105
1690838452613627400,0.34962744140625,0.20735738680064678,-0.06461132351974956,0.012525976444064871
1690838452623667500,0.35966748046875,0.1895838297009468,-0.12013888461282476,0.023702243895782158
1690838452633707500,0.36970751953125,0.1957002667546272,-0.14786698649120517,0.033504438523808494
1690838452643748600,0.37974853515625,0.19943243902027605,-0.1319297779731918,0.020414700991939753
1690838452653788700,0.38978857421875,0.2222521735936403,-0.10637081856112926,0.009748652651259907
1690838452663828700,0.399828857421875,0.24054595517516134,-0.04813495749058202,-0.0012641792834969237
1690838452673868500,0.40986865234375,0.2592529937326908,0.008210304060392082,-0.014825703612156212
1690838452683909400,0.419909423828125,0.2725420988947153,0.05608531370684504,-0.006809109192690812
1690838452693949400,0.429949462890625,0.2842453961700201,0.09226117253014818,-0.005784481706799124
1690838452704020500,0.4400205078125,0.29057459919154643,0.11269909913404844,-0.011127687061147298
1690838452714060500,0.450060546875,0.2877542810738086,0.10783215981796383,-0.00648349625080591
1690838452724100600,0.4601005859375,0.2676759541630745,0.09304523557992651,-0.008263908827595878
1690838452734141700,0.4701416015625,0.24994740524888037,0.05996083996593952,-0.0038972939912637226
1690838452744181500,0.480181396484375,0.24084347681701182,0.016162395576015114,0.0013162291311426088
1690838452754221300,0.49022119140625,0.2257078670054674,-0.025790411814069374,0.00868344256405253
1690838452764262400,0.500262451171875,0.20589549755454062,-0.06654357935711741,0.01347809981192695
1690838452774302500,0.510302490234375,0.20445698918402194,-0.08391458353791385,0.01474181558783166
1690838452784342500,0.520342529296875,0.20494623400568962,-0.09033832384194247,0.009760835137753747
1690838452794382600,0.530382568359375,0.22429449307620525,-0.06688955238373018,0.002016744366602506
1690838452804423700,0.540423583984375,0.2361789921373129,-0.04979337395578622,-0.007057654293393716
1690838452814463500,0.55046337890625,0.24989187566936014,-0.022984259219001976,-0.010157924146961886
1690838452824503300,0.56050341796875,0.26649171281456946,0.011819690196588635,-0.011171749965159688
1690838452834543400,0.57054345703125,0.2696621595442295,0.041803361582569774,0.00026063968058442693
1690838452844584400,0.58058447265625,0.26912264584004875,0.05825558868432417,0.003847855084168259
1690838452854624500,0.59062451171875,0.2688958513468504,0.062062141360435634,0.006961315496161114
1690838452864664600,0.60066455078125,0.2617874806463718,0.05273389352024532,0.008338167082116706
1690838452874735600,0.610735595703125,0.24418518846035003,0.03642646345035173,0.0034546088497270826
1690838452884775400,0.620775390625,0.23479601334631442,0.017326571384025737,-0.003259236974676605
1690838452894816500,0.63081640625,0.22972236334383486,0.0022927414465229957,-0.007029802738665603
1690838452904856300,0.640856201171875,0.22058511716425416,-0.02931062182947062,-0.01154817064567469
1690838452914896400,0.650896484375,0.22773674248456954,-0.0490320524607785,-0.012924189972924069
1690838452924937500,0.6609375,0.2291892793804407,-0.04980900078318082,-0.010200853398168692
1690838452934977500,0.6709775390625,0.22046353661119936,-0.04083275385159067,-0.0020006574565486516
1690838452945017600,0.681017578125,0.2244616663366556,-0.02842843216746114,0.00547716989411856
1690838452955057400,0.691057373046875,0.2362526418954134,-0.010914932509744539,0.009565911928919377
1690838452965098500,0.701098388671875,0.23384382718801497,0.005804338897205889,0.006260450917540583
1690838452975138300,0.71113818359375,0.2341431023955345,0.01986335071949288,0.008686266992089804
1690838452985178400,0.721178466796875,0.24254151290655135,0.039280921299709004,0.0017162989736592862
1690838452995219500,0.731219482421875,0.24406594599485396,0.041332967591844495,-0.006431212366075487
1690838453005259500,0.741259521484375,0.2408054828941822,0.028732630145270374,0.00034957148949615657
1690838453015299600,0.751299560546875,0.2379904254734516,0.02564490239615552,-0.0031630374580505303
1690838453025339600,0.761339599609375,0.22200082918107508,0.008069708279613405,-0.007698829140607267
1690838453035380500,0.77138037109375,0.22410510798394678,0.0019125647562090306,-0.008968802269006846
1690838453045450500,0.781450439453125,0.2258990056633949,-0.012702473513642325,0.0086234023478406
1690838453055491300,0.7914912109375,0.22184651540219782,-0.018407315825438125,0.009242165575490797
1690838453065531400,0.801531494140625,0.2224222694635391,-0.024480069001019,0.012820588034554384
1690838453075571500,0.811571533203125,0.2162614087462425,-0.02617701824516989,0.01266996176681714
1690838453085612500,0.821612548828125,0.21833412336707114,-0.01275469689122401,0.015091498958470765
1690838453095652600,0.831652587890625,0.2286409978479147,-0.003968090780219063,0.013327640224259812
1690838453105692400,0.8416923828125,0.22144904051721095,0.0032590474617201835,0.004854796787141822
1690838453115732500,0.851732421875,0.2287795295357704,0.014001025424199178,-0.0023840844082296826
1690838453125773300,0.861773193359375,0.2415069091618061,0.015038643109938129,-0.01604255374725326
1690838453135813400,0.8718134765625,0.23852526300251484,0.01682646724162623,-0.014731415208114777
1690838453145853400,0.881853515625,0.24228140066564083,0.015296965252561493,-0.0075883704864769235
1690838453155894500,0.89189453125,0.225089442846179,0.007599624816142022,-0.003337553774740081
1690838453165934600,0.9019345703125,0.23168460332751273,-0.00441592587926425,0.001616995326138567
1690838453175974700,0.911974609375,0.22510522493720053,-0.006122090476332232,0.003390192710852716
1690838453186014500,0.922014404296875,0.21477906123399734,-0.012225330121722071,0.009260369094106135
1690838453196055300,0.93205517578125,0.21222703866362572,-0.02124880459536798,0.00914018248876091
1690838453206095400,0.942095458984375,0.2047334680378437,-0.021131279162922872,0.007417800834187073
1690838453216166400,0.95216650390625,0.21354805813431738,-0.018177361260773614,0.0026885552390303927
1690838453226206500,0.96220654296875,0.21817630245685576,-0.009823794538481161,-0.0036126512389397245
1690838453236246500,0.97224658203125,0.2253513086527586,0.001717507974989712,-0.008426353397290223
1690838453246287600,0.98228759765625,0.23477730864584445,0.0048106882173568006,0.0012525733273825608
1690838453256327400,0.992327392578125,0.2519938163846731,-0.0020292682047467676,0.004676040403463412
1690838453266367500,1.002367431640625,0.28089082504510876,-0.01493974931272678,0.02357402582267532
1690838453276408300,1.012408203125,0.09790040225982666,-0.017795869396207854,0.040868117425916714
1690838453286448400,1.022448486328125,0.20399989306628702,-0.001235615342715755,0.0027711086811497807
1690838453296488400,1.032488525390625,0.25202596508860586,0.010964744734531268,-0.03805083151548169
1690838453306528500,1.042528564453125,0.2012812817573547,0.011464894542703405,-0.06173291853922419
1690838453316569600,1.052569580078125,0.21966975588500498,0.011297410754999146,-0.06487765087231527
1690838453326609700,1.062609619140625,0.2374672783821821,0.005094208733318373,-0.047196955121262
1690838453336649500,1.0726494140625,0.2371720948278904,0.005239882548013702,0.001633404179889476
1690838453346689500,1.082689453125,0.2379372339814901,0.004017345882579684,0.05828165470734238
1690838453356708600,1.09270849609375,0.19755963088572023,0.0056607200422789895,0.07332818429621402
1690838453366748700,1.102748779296875,0.23244681987166405,-0.004429406415345147,0.05621840203460306
1690838453376819500,1.1128193359375,0.20582009423077105,-0.024404903139267114,0.008768452824739505
1690838453386859500,1.122859619140625,0.19159984569847582,-0.03167191673386842,-0.0344633010180667
1690838453396899600,1.132899658203125,0.22390695506334304,-0.03444445018712431,-0.04307445009746588
1690838453406940400,1.1429404296875,0.25710429126620293,-0.023486418321169912,-0.029736009917978663
1690838453416980500,1.15298046875,0.15128770905435085,0.010169639700930565,0.01028179712180281
1690838453427020500,1.1630205078125,0.22863281454145906,0.014979423735989256,0.02630876399921253
1690838453437061600,1.1730615234375,0.2039350111365318,0.018573320042109116,0.0259510914016515
1690838453447101400,1.183101318359375,0.2066337487012148,0.009800915986392647,-0.010623777818243252
1690838453457141500,1.1931416015625,0.24720249045491216,0.003322760347696021,-0.056477267599920736
1690838453467181600,1.203181640625,0.24737667797803878,0.0035930012569762764,-0.05915119495033286
1690838453477222400,1.213222412109375,0.26595512171983715,0.005241343852737918,-0.02930529263380449
1690838453487262500,1.223262451171875,0.20881050821840763,0.0018788634160067884,0.028923147748690096
1690838453497302500,1.233302490234375,0.20088380687236784,0.0032569011704064905,0.07537349488688633
1690838453507343600,1.243343505859375,0.20222586913108825,-0.010856288524530827,0.09420211399747058
1690838453517383700,1.2533837890625,0.1523831030756235,-0.00985494772857055,0.06410720078935846
1690838453527423500,1.263423583984375,0.19201777884960172,-0.017190048990165813,-0.00275888052888331
1690838453537463600,1.273463623046875,0.23704233096837996,-0.022537985889380798,-0.06376434673501644
1690838453547534600,1.28353466796875,0.22685411443114278,-0.011894865191495045,-0.09426010039555839
1690838453557574400,1.293574462890625,0.23627660729289054,-0.007904571712622419,-0.08780068598994985
1690838453567615500,1.303615478515625,0.2608218504846096,0.004432886147219687,-0.023857238094671628
1690838453577655600,1.313655517578125,0.22342238641679285,0.009952425886830315,0.03436595529054757
1690838453587695400,1.3236953125,0.2021884597301483,0.01887128920853138,0.0773837752633728
1690838453597736400,1.333736328125,0.19606500841379165,0.006064067545626312,0.08367749597956425
1690838453607776500,1.343776611328125,0.19906652831733226,-0.0036510515871457754,0.05411685404493473
1690838453617816600,1.353816650390625,0.21134031895697117,-0.007251112772570923,-0.0016235906053509096
1690838453627856400,1.3638564453125,0.21313187854886054,-0.0016307156075257808,-0.041333022390771655
1690838453637897500,1.3738974609375,0.2536766549050808,-0.017112243646755815,-0.05957974082701839
1690838453647937500,1.3839375,0.21296821241974828,-0.017110380483232438,-0.04661697240937501
1690838453657977300,1.393977294921875,0.20936989566683767,-0.005907598342280835,-0.01963677542200312
1690838453668018400,1.404018310546875,0.22761925358474253,0.0011676372735761106,0.011313144896959419
1690838453678058500,1.41405859375,0.19948446146845816,-0.0034041641539894044,0.03616720059281215
1690838453688098300,1.424098388671875,0.19379881704747676,0.00577626358019188,0.030104697099898475
1690838453698138400,1.434138427734375,0.21849019071161746,0.015571389146614819,0.018372160030377564
1690838453708179500,1.444179443359375,0.21400223164260387,0.014857249527890234,-0.00009596547954133711
1690838453718250500,1.45425048828125,0.22523031262159346,0.009881452143006026,-0.006716165645653382
1690838453728290600,1.46429052734375,0.22089958994090556,0.004973742425115779,0.004977973358950112
1690838453738330400,1.474330322265625,0.22150515461862086,-0.007831807870510965,0.010159581814508418
1690838453748370400,1.484370361328125,0.20415420684516428,-0.01332706255223602,0.003699300900864182
1690838453758411500,1.49441162109375,0.1912906336188316,-0.015168589632539078,0.00001621819915017113
1690838453768451300,1.504451416015625,0.21269056452214716,-0.021330628526769577,-0.0180316235139966
1690838453778491400,1.514491455078125,0.22255904758572578,-0.019909929807577283,-0.02328031955612823
1690838453788532500,1.524532470703125,0.20025193870961666,-0.012170923920208588,-0.01855979612354422
1690838453798572500,1.534572509765625,0.2174479881823063,0.0008771755601745099,0.001124129208701197
1690838453808612400,1.5446123046875,0.20950608926713465,0.0034013511423952873,0.017983080797689035
1690838453818652400,1.55465234375,0.1976753662198782,0.01419917834480293,0.032864583417424
1690838453828693500,1.564693603515625,0.20560265208780765,0.018365622975025326,0.04876922767297365
1690838453838733300,1.5747333984375,0.2210194169282913,0.016956523362081498,0.03302683390758466
1690838453848773400,1.5847734375,0.2240256130069494,0.02164642561082728,0.0014085424905177204
1690838453858813400,1.5948134765625,0.2173077029287815,0.01382277364730835,-0.019467131643253376
1690838453868854500,1.6048544921875,0.22884558050930498,0.004282399160088971,-0.03301656367531977
1690838453878894600,1.61489453125,0.23065175314843653,-0.0033693851015530523,-0.03421068938031094
1690838453888965400,1.62496533203125,0.2077612914264202,-0.010924933313950896,-0.02134745179740712
1690838453899005400,1.63500537109375,0.19219488898217676,-0.015371738388668744,-0.0019862316389742773
1690838453909045500,1.64504541015625,0.20445523561835288,-0.024181003856053575,0.017216946130245922
1690838453919086300,1.65508642578125,0.19980244137644768,-0.020924504544446245,0.01821490537574282
1690838453929126400,1.66512646484375,0.19604805727899074,-0.011771759401634335,0.013565225539531092
1690838453939166500,1.67516650390625,0.20875848577022552,-0.016499737771600485,0.010028443415241782
1690838453949207600,1.68520751953125,0.21055238344967364,-0.008134690674068405,0.00020832725474610923
1690838453959247400,1.695247314453125,0.22432371917068958,-0.00030919381333515046,-0.0061930162710952565
1690838453969287400,1.705287353515625,0.221489957049489,0.006057153747649863,-0.003392080990551039
1690838453979327500,1.715327392578125,0.21611235566437242,0.013492893238971009,0.002574439898156561
1690838453989368300,1.725368408203125,0.20280220771431923,0.006904719620849937,0.002262092863221187
1690838453999408400,1.735408447265625,0.20968787557482718,0.004687673759041354,-0.007588630781380925
1690838454009448400,1.745448486328125,0.20250293250679968,-0.00491539070084691,-0.01525365811708616
1690838454019489500,1.755489501953125,0.19920739809274673,-0.0003872548850718885,-0.01142189679283765
1690838454029529600,1.765529541015625,0.20443828448355197,0.00142359392917715,-0.008544399419543333
1690838454039569400,1.7755693359375,0.2250853511929512,-0.004008925114106387,-0.0005591705360100604
1690838454049640400,1.785640380859375,0.21311551193594933,-0.009163403534144163,0.012220738428283948
1690838454059680500,1.795680419921875,0.21147475899159907,-0.002973773380089551,0.017190784209105185
1690838454069720600,1.805720458984375,0.21851181802153585,-0.016450628799712284,0.010148989638546482
1690838454079761400,1.815761474609375,0.20564707575142382,-0.005852726349886507,-0.004044119725073687
1690838454089801500,1.825801513671875,0.2034007581293583,-0.004191487739933654,-0.016956231101136653
1690838454099841300,1.83584130859375,0.2080307560175657,-0.00322179332440719,-0.022121564275329
1690838454109882400,1.84588232421875,0.20098434463739395,0.006902655527926981,-0.012257385210820938
1690838454119922400,1.85592236328125,0.19423896203041074,0.016197850481886416,0.006492605430801632
1690838454129962500,1.86596240234375,0.20021745191812515,0.014353976180870085,0.015002507784054613
1690838454140002600,1.87600244140625,0.21203882261514662,0.013405772077944128,0.025762802287936207
1690838454150043400,1.88604345703125,0.22282149791419506,0.016305703903688115,0.027979030732414683
1690838454160083500,1.89608349609375,0.20817279483675954,0.013277643053093924,0.012183114398212637
1690838454170123300,1.906123291015625,0.21896482248604296,0.00039433307982981205,-0.005393453116441378
1690838454180164600,1.91616455078125,0.21583587681055066,-0.009498544639488682,-0.01785260112719261
1690838454190204400,1.926204345703125,0.19833470691144464,-0.007302459367318079,-0.020374115536513273
1690838454200244500,1.936244384765625,0.19728373655378817,-0.012780196658661588,-0.016261003962147514
1690838454210284500,1.946284423828125,0.1887421181797981,-0.01688404264776036,-0.0009115984195843339
1690838454220355600,1.95635546875,0.18408523228466508,-0.011807460902677848,0.004603333643567748
1690838454230396400,1.966396484375,0.19409166251420973,-0.008307106365216895,0.00017476747843902558
1690838454240436500,1.9764365234375,0.19422668707072735,0.005565716968895867,-0.002903662719368003
1690838454250476300,1.986476318359375,0.21023264997601507,0.00563469968503341,-0.005375560125079937
1690838454260516400,1.996516357421875,0.2178688439428806,0.012845845773397013,0.0003222644991066772
1690838454270557400,2.006557373046875,0.22730770341753959,0.016595097038010133,0.007278279340709559
1690838454280597500,2.016597412109375,0.20368191315829753,0.005722761560976505,0.009086401908332481
1690838454290637600,2.026637451171875,0.20324936695992946,0.006475205629784614,0.0034320373999595175
1690838454300677600,2.036677734375,0.2125368352651596,-0.00012125175949186086,0.0011311023721820674
1690838454310718500,2.046718505859375,0.1939841104865074,-0.009837722599133849,-0.007957367054006317
1690838454320758300,2.05675830078125,0.19083470654487608,-0.024143567055650055,-0.013416536642197751
1690838454330798300,2.06679833984375,0.19501228449046612,-0.01589603625740856,-0.016609867632167877
1690838454340839400,2.07683935546875,0.2039753431469202,-0.014806195194087922,-0.011495593358355108
1690838454350879500,2.08687939453125,0.19692893176674842,-0.006351807578979059,0.0026812704066513106
1690838454360909000,2.096908935546875,0.20096154828369617,0.00670835679853335,0.005399153346510138
1690838454370949000,2.10694921875,0.20844284394979476,0.00816137775159441,0.01579556242446415
1690838454380990000,2.116989990234375,0.20455869599282742,0.007873783848714082,0.021939517672732473
1690838454391061000,2.12706103515625,0.20890870789587496,0.003985087580792606,0.016268485157348914
1690838454401100800,2.137100830078125,0.20428163261711596,0.00783062056042254,0.0013151205945119726
1690838454411140900,2.147140869140625,0.21401684468984603,0.007004508467204868,-0.009919573929999023
1690838454421181000,2.157180908203125,0.20429449209868908,0.011335066751111298,-0.014278038567560724
1690838454431222000,2.167221923828125,0.1974099932819605,-0.005206208607275039,-0.01883090125757153
1690838454441262000,2.177261962890625,0.21102175452709196,-0.01142165818917565,-0.01284810508749797
1690838454451302100,2.18730224609375,0.20218729068636893,-0.013879654933698474,-0.009661690178792924
1690838454461343000,2.197343017578125,0.19964228237867354,-0.011562345301499589,-0.001446794424962718
1690838454471382800,2.2073828125,0.19769757805168628,-0.0165835435975343,0.002181490491237491
1690838454481422800,2.2174228515625,0.202785841101408,-0.015771779690077526,0.0037593274173443204
1690838454491463000,2.227462890625,0.19844751963615417,-0.0103182269919198,0.007951399679167661
1690838454501504000,2.23750390625,0.19829905107617377,-0.005632900453591719,0.004538283892098116
1690838454511544000,2.2475439453125,0.20173837787508964,-0.004309204968623817,0.0004536186691490002
1690838454521584000,2.257584228515625,0.19904197839796542,-0.0029444011551328,-0.00010607359831337817
1690838454531625000,2.267625,0.20172902552485464,-0.002513343660952523,-0.011383664266346022
1690838454541664800,2.277664794921875,0.20591361773312092,0.00651700807805173,-0.016866433925833552
1690838454551735800,2.28773583984375,0.2050122849792242,0.010880180856771766,-0.01670073909477214
1690838454561775900,2.29777587890625,0.20516133806109427,0.01057954480922781,-0.015173763564578257
1690838454571816000,2.30781591796875,0.2084586260408163,0.010542875193804502,-0.002388518554752227
1690838454581856000,2.31785595703125,0.20771862132847307,0.019077926829690114,0.0048691107235732485
1690838454591897000,2.32789697265625,0.21042145054638384,0.007960484884632751,0.0028478637117892503
1690838454601937200,2.337937255859375,0.20788521006703375,-0.0027042996557895094,0.010640465233207214
1690838454611977000,2.34797705078125,0.19187807811796664,-0.01858753123055212,0.004241745206003543
1690838454622017800,2.358017822265625,0.1948690766274929,-0.01366362842968665,0.005659063516376773
1690838454632057900,2.368057861328125,0.1957581344217062,-0.012686463093757629,0.007071844932239037
1690838454642098000,2.378097900390625,0.2000876880586147,-0.01988083157725632,-0.0011899221706204116
1690838454652138000,2.388137939453125,0.1996276693314314,-0.001532168870186433,-0.006223157964320853
1690838454662179000,2.398178955078125,0.19842121615111827,0.0026925818185321985,-0.0009694877779053058
1690838454672219100,2.40821923828125,0.2087415346354246,0.0035741778254974634,-0.0030535446350113487
1690838454682259000,2.418259033203125,0.21383272029459474,0.0012574801146518438,-0.004815817625267664
1690838454692299800,2.4282998046875,0.2086030029475689,0.005464393752580508,-0.0020036702558980323
1690838454702339800,2.43833984375,0.20891338407099247,0.006735655797412619,-0.0017554391073819715
1690838454712380000,2.4483798828125,0.20263795706331728,-0.0018276903511956332,-0.0014933312722074333
1690838454722451000,2.458450927734375,0.1935176620185375,-0.010342055392079054,0.0031981475873384623
1690838454732491000,2.468490966796875,0.19636194553375244,-0.012356710549583658,0.003662104987411294
1690838454742532000,2.478531982421875,0.20249182659089565,-0.013071124162944033,0.006765596561238635
1690838454752572200,2.488572265625,0.1960486418008804,-0.012543602290656417,0.004096002892649267
1690838454762612000,2.498612060546875,0.1866121204137802,-0.008632685057772323,-0.003634634741884656
1690838454772652000,2.508652099609375,0.19962299315631388,-0.007133057617163285,-0.0036890203938004557
1690838454782692900,2.51869287109375,0.20380992345213889,-0.003289780526701361,-0.009234091866889503
1690838454792733000,2.52873291015625,0.20321312660276888,-0.002238353511318564,-0.012014778943848796
1690838454802773000,2.53877294921875,0.21473989826738832,-0.0023154373355209826,-0.006898844719200861
1690838454812813000,2.54881298828125,0.21324995197057722,-0.005267400742601603,0.0015603389436786527
1690838454822854100,2.558854248046875,0.1979892544746399,0.0022661822331603615,0.0074250183095515235
1690838454832894000,2.56889404296875,0.19170447511672972,0.009323069341573864,0.01574665438197553
1690838454842934000,2.57893408203125,0.19828385350704192,0.00973549520052038,0.011369761321868281
1690838454852974800,2.588974853515625,0.18854864143431185,0.00213331310111098,0.0080637157885998
1690838454863015000,2.599014892578125,0.19108371286988257,0.012704702003346755,0.005608535480604041
1690838454873055000,2.609054931640625,0.19945932702720165,0.008796159390639513,-0.004384085419296752
1690838454883126000,2.6191259765625,0.20978899786174296,-0.0018004370180889962,-0.013008523238531779
1690838454893166000,2.629166015625,0.2098041954308748,-0.008314823880791664,-0.00678689507759409
1690838454903207200,2.639207275390625,0.20743220560252665,-0.022797924600355325,-0.011610676813608733
1690838454913247000,2.6492470703125,0.20670272228419778,-0.031063612109795212,-0.02017790341124637
1690838454923287000,2.659287109375,0.198031924572587,-0.03729304455127567,-0.015421374800230842
1690838454933326800,2.669326904296875,0.18246318404078482,-0.03789767764722928,-0.0014696524274535477
1690838454943368000,2.679367919921875,0.1778016219705343,-0.02634950700155459,0.009216180609219008
1690838454953408000,2.689407958984375,0.16430267345011235,-0.008383742664847522,0.015081767582322936
1690838454963448000,2.699447998046875,0.17759002504646776,0.0026527977974154055,0.018151331770373508
1690838454973489200,2.7094892578125,0.19312720139622688,0.02096606039754115,0.009654632533632685
1690838454983529000,2.719529052734375,0.20659049408137797,0.030482049362175166,-0.004614529749372741
1690838454993569000,2.729569091796875,0.22261574620902538,0.02988959076120518,-0.02725436743638711
1690838455003608800,2.73960888671875,0.23177461969852445,0.021094490816490723,-0.02774565351809142
1690838455013650000,2.74964990234375,0.23121464772820471,0.003077279420336708,-0.022323528004658873
1690838455023690000,2.75968994140625,0.2161357365399599,-0.010544263433292508,-0.009864914283447433
1690838455033730000,2.76972998046875,0.19820026687681674,-0.022773466012533754,0.011939574266190174
1690838455043771100,2.779771240234375,0.17560732679665086,-0.03110566115323454,0.029952009022526906
1690838455053841000,2.7898408203125,0.17154899131655693,-0.041378222372522575,0.03368949678411009
1690838455063882000,2.799882080078125,0.17705051134228705,-0.02704768186616711,0.024795222197682595
1690838455073921800,2.809921875,0.18090192607343195,-0.02016869034161791,0.012950810835079755
1690838455083961900,2.8199619140625,0.1970300540536642,-0.002371268309140578,-0.010791027568862773
1690838455094002000,2.830001953125,0.2050952870875597,0.025550511244125662,-0.032189061059325466
1690838455104043000,2.84004296875,0.22784370999038217,0.028220141445333136,-0.03517254983254243
1690838455114083000,2.8500830078125,0.24133505972623823,0.018042638098355383,-0.025397279744059777
1690838455124123000,2.860122802734375,0.22176760494709014,0.020427313878340646,-0.016290606799256056
1690838455134164000,2.8701640625,0.21222820770740508,0.006640890186047181,0.004924410832586
1690838455144203800,2.880203857421875,0.2029769797593355,-0.003430211910698563,0.017381354328163432
1690838455154243800,2.890243896484375,0.18218845875263212,-0.02040118392324075,0.02013737732132431
1690838455164284000,2.900283935546875,0.17065817995667457,-0.031082554272282868,0.01790840127641568
1690838455174325000,2.910324951171875,0.1761719749420881,-0.033763071193685754,-0.0008267171647050417
1690838455184365000,2.920364990234375,0.17165128264725207,-0.034274427382461725,-0.006900403063691919
1690838455194404900,2.93040478515625,0.1877835022807121,-0.02562637122562155,-0.015046894915052688
1690838455204446000,2.940446044921875,0.19898703334033488,-0.009091379477549344,-0.026011087093735112
1690838455214516000,2.950515869140625,0.20885843901336193,0.004050554032437503,-0.02079956984039163
1690838455224556800,2.960556884765625,0.21994038951992986,0.01593529968871735,-0.021747130055923478
1690838455234596900,2.970596923828125,0.2153209130257368,0.02308181957565248,-0.005541427344433031
1690838455244637000,2.980636962890625,0.20696283452510833,0.025927874922845512,0.006594642174814361
1690838455254678000,2.990677978515625,0.20339023673534393,0.012352792426291852,0.013296008685202105
1690838455264718000,3.000718017578125,0.20100480290353298,0.007168640387197956,0.019250534317083654
1690838455274758000,3.0107578125,0.18424480676054952,0.001703269387083128,0.015389626813452923
1690838455284798000,3.0207978515625,0.18917466437816619,-0.003425225208327174,-0.006736952705355361
1690838455294838800,3.0308388671875,0.1872182696133852,-0.007305372843611985,-0.015820686590921833
1690838455304878800,3.04087890625,0.1907990507096052,-0.009451097901724279,-0.012353489970968802
1690838455314919000,3.0509189453125,0.201866388168931,-0.009254114024899899,-0.009428930594044505
1690838455324959000,3.060958984375,0.20500819332599637,-0.013740365194017067,-0.01382486057311762
1690838455335000000,3.071,0.20486440094113348,-0.009541022941190748,-0.013893044138234108
1690838455345040000,3.081039794921875,0.2072638632982969,-0.003429800918744877,-0.0031539636690285987
1690838455355082200,3.091082275390625,0.1952957776069641,0.006681505324225873,0.00302303989889333
1690838455365123300,3.101123291015625,0.19783961687088011,0.008001885474100709,0.016061873794009442
1690838455375163400,3.111163330078125,0.18885726899206637,0.003487969979923218,0.017411516570986715
1690838455385234200,3.121234130859375,0.1876537384212017,0.004901946697384119,0.009579393606644589
1690838455395274200,3.131274169921875,0.19243571200072765,0.0009573372574523091,-0.0009787659212597646
1690838455405314300,3.141314208984375,0.20290508356690407,0.0012980769865214823,-0.01941470276969485
1690838455415355100,3.151355224609375,0.21173545575439928,-0.0014207809175830334,-0.01799317179179634
1690838455425395200,3.161395263671875,0.2048591402441263,-0.004320046023046598,-0.021146864891122094
1690838455435435300,3.171435302734375,0.20696283452510833,-0.006610248452611267,-0.01326409401835408
1690838455445475000,3.18147509765625,0.1987427031904459,-0.006001752032293007,0.0003611500461469404
1690838455455516200,3.19151611328125,0.19156769699454307,-0.011254420996643602,0.004657645088603021
1690838455465556200,3.20155615234375,0.18543313976228237,-0.010463462415197864,0.01396506476989598
1690838455475596300,3.21159619140625,0.18722294578850268,-0.007186011647107079,0.008784148150793043
1690838455485637000,3.22163720703125,0.19020459194779396,-0.017312579391291365,0.01248199003022164
1690838455495677200,3.23167724609375,0.19752397505044936,-0.00914846169333905,0.00025102703544544055
1690838455505717200,3.24171728515625,0.20215280389487741,0.0028054584753233937,0.0015132472572964616
1690838455515757300,3.25175732421875,0.20364567280113696,0.01585180439003743,-0.006034322002978296
1690838455525798400,3.26179833984375,0.20738895098268983,0.010977503751404582,-0.009765013555949553
1690838455535838200,3.271838134765625,0.20066344211995601,0.002474125895416364,-0.009036281439580489
1690838455545909200,3.2819091796875,0.20830781939327717,0.002838392630545422,-0.007459819053229876
1690838455555949300,3.29194921875,0.20098843629062174,-0.00006353935603983699,-0.0005332495018199551
1690838455565989400,3.3019892578125,0.1858849751830101,-0.008248407581076025,0.002915120261721313
1690838455576030200,3.3120302734375,0.18723638979196547,-0.014041850624931976,0.008724966451106592
1690838455586070300,3.3220703125,0.17541209648549555,-0.024767818167526275,0.012677550276584224
1690838455596110000,3.332110107421875,0.17525135296583175,-0.02605632360810414,0.007975028291571653
1690838455606150100,3.342150146484375,0.18870587782263754,-0.00818271280056797,0.00025664392547914756
1690838455616191200,3.352191162109375,0.19018997890055178,-0.004770602802140638,-0.01228446387234726
1690838455626231300,3.362231201171875,0.19526830507814882,0.0024645634826272723,-0.009351669814973138
1690838455636271400,3.372271240234375,0.19571487980186938,0.004991031486634164,-0.013324490427592536
1690838455646312200,3.382312255859375,0.20230302602052688,0.011583515953691675,-0.016158485444233518
1690838455656352300,3.392352294921875,0.19363222830891608,0.015093752564350141,-0.0062101432191208
1690838455666392300,3.402392333984375,0.19872984370887278,0.002804225499462336,0.0028502189240127334
1690838455676432100,3.41243212890625,0.19245324765741825,0.004177459214581176,0.009002246739238034
1690838455686473200,3.42247314453125,0.1924590928763151,-0.010517375426366925,0.014751905440294649
1690838455696513300,3.43251318359375,0.18961656292676923,-0.009572103066043927,0.014022611634922213
1690838455706553300,3.44255322265625,0.18108663499057293,-0.014465218003001063,0.007961794350662967
1690838455716624400,3.452624267578125,0.18332769191563128,-0.015200409542908891,-0.0028494060732598882
1690838455726664200,3.462664306640625,0.19095394901037216,-0.015721547340182586,-0.008910876378067768
1690838455736705300,3.472705322265625,0.19798282473385334,-0.008726044163340703,-0.015592236713465536
1690838455746745000,3.4827451171875,0.1951391257405281,-0.006496111420495435,-0.013212826197064714
1690838455756785200,3.49278515625,0.1881061583638191,0.000710011432878673,-0.009993309311423218
1690838455766826200,3.502826171875,0.19035247598588464,-0.0003114771019667387,0.0007923787869745865
1690838455776866300,3.5128662109375,0.19544249260127544,0.0005942304329480976,0.0017790928359609096
1690838455786906400,3.52290625,0.1900584614753723,0.0033608182026073335,0.006595322594826575
1690838455796946200,3.5329462890625,0.1921545569717884,0.0009007664983160794,0.0049674770811107
1690838455806987300,3.5429873046875,0.18991174648106096,-0.0022838274877052755,0.006879416216234676
1690838455817027000,3.553027099609375,0.19125965395867822,0.004985588126536458,0.008548351792164613
1690838455827067100,3.563067138671875,0.18796879571974276,-0.0004948343122377992,0.004385590106504969
1690838455837107200,3.573107177734375,0.1978448775678873,0.0041657413773238654,-0.0019887421148247083
1690838455847148300,3.583148193359375,0.19305881233513353,0.0005812978861387819,-0.008720553995826049
1690838455857188400,3.593188232421875,0.18258534911572932,-0.0057274377360939975,-0.007440080023009795
1690838455867228200,3.603228271484375,0.2012906341075897,-0.003583027852233499,-0.009331232098431792
1690838455877299200,3.61329931640625,0.2005453686982393,0.0045450686842668795,-0.0007031695584941189
1690838455887339000,3.623339111328125,0.19261516022086142,-0.003023978330520913,0.0032227648637199306
1690838455897380000,3.633380126953125,0.1876753657311201,-0.010187878610519691,0.004175712498778012
1690838455907420200,3.643420166015625,0.18557751666903494,-0.0035049211147241293,0.012131626239570323
1690838455917460200,3.653460205078125,0.19066168806552886,-0.0033612657271791246,0.007824481938936515
1690838455927501300,3.663501220703125,0.17988368894159792,0.0008410539340227842,0.00415265128359897
1690838455937541000,3.673541015625,0.1988859110534191,-0.003662221435131505,-0.0010657649263448546
1690838455947581200,3.683581298828125,0.19200316580235957,0.002087099339207634,-0.009810446433140895
1690838455957621000,3.69362109375,0.1952963621288538,0.00039275304409675297,-0.010284073560568504
1690838455967662000,3.703662109375,0.2038309662401676,0.008846117745898663,-0.007228217095817672
1690838455977702100,3.7137021484375,0.19919570765495298,0.00570261382209137,-0.01211965952385217
1690838455987742200,3.7237421875,0.1863297963410616,-0.005904072944633663,-0.0016109503194864372
1690838455997783300,3.733783203125,0.18333645974397658,-0.0005481719346716999,0.009667352734599262
1690838456007823000,3.743822998046875,0.18767419668734073,-0.005448547729477286,0.012117392218241001
1690838456017863200,3.75386328125,0.18452888439893722,-0.011544617848563938,0.007242969423666363
1690838456027903200,3.7639033203125,0.18572189357578753,-0.005155528732808307,0.00877666581394733
1690838456037944300,3.7739443359375,0.18960837962031363,-0.003240671554813161,-0.00036346415917505506
1690838456048014000,3.78401416015625,0.18930735084712505,0.000530106555018574,-0.010292629043071065
1690838456058055200,3.79405517578125,0.19963351455032824,-0.006601891616219655,-0.01724883796420763
1690838456068095200,3.80409521484375,0.19185528176426886,-0.004246542395418509,0.004501010346831753
1690838456078135300,3.81413525390625,0.19455109671950338,0.002212698480254039,-0.005361375194456195
1690838456088176000,3.824176025390625,0.193805831310153,-0.0059380848120898005,-0.008324255004484438
1690838456098216200,3.83421630859375,0.19605273345410823,-0.0025829200321342794,0.006445223766763228
1690838456108256000,3.844256103515625,0.18737433695793151,-0.0023928773527499285,0.01138545893121045
1690838456118296000,3.854296142578125,0.185129772901535,-0.004498124270001426,0.0036269035265780983
1690838456128337200,3.864337158203125,0.19410744460523127,-0.0015718980923760681,0.0033575188505346886
1690838456138377200,3.874377197265625,0.193805831310153,0.00004562010685913265,-0.00007231631753966212
1690838456148417300,3.884417236328125,0.197395964756608,-0.002735270182788372,-0.007866897450201213
1690838456158458000,3.8944580078125,0.19305472068190574,-0.0059832025954499836,-0.0035106270530144684
1690838456168498200,3.904498291015625,0.19275486095249653,0.010589773942297324,0.0009151329503860324
1690838456178538200,3.914538330078125,0.18781740455031393,0.007342563048843294,-0.008236721709859557
1690838456188578000,3.924578125,0.1930564742475748,0.0061362012000754475,0.0012843156059389002
1690838456198619100,3.934619140625,0.19455343480706214,0.0012270027779974042,-0.005254371156025445
1690838456208690200,3.944690185546875,0.17719430372714995,-0.0037769247228279707,-0.002871146405965555
1690838456218730200,3.954730224609375,0.17330314150750636,-0.0009790102331433445,0.007126431513554416
1690838456228770300,3.964770263671875,0.18258008841872214,-0.001797532674949616,0.000592786252888618
1690838456238810400,3.974810302734375,0.18168109375238417,-0.0015544081014581023,0.001837606673722621
1690838456248851200,3.984851318359375,0.18272797245681285,-0.002234024396073073,-0.0038068141126597764
1690838456258891000,3.99489111328125,0.18317571622431278,-0.001992059733206406,0.0026528343300335107
1690838456268931000,4.00493115234375,0.1864683280289173,-0.005416974414279684,0.00039464018215076065
1690838456278972200,4.01497216796875,0.18572130905389786,-0.004883223730605095,-0.005736147340579191
1690838456289012200,4.02501220703125,0.18362696712315082,-0.010636015103664248,-0.002870294739305973
1690838456299052300,4.03505224609375,0.1845247927457094,-0.005711436449363828,-0.006674908903369214
1690838456309092400,4.04509228515625,0.19185586628615856,-0.0029407387601677326,-0.0016240073055261745
1690838456319133200,4.05513330078125,0.19604338110387323,-0.0002703139745164662,-0.0006677865762147121
1690838456329173000,4.065173095703125,0.1900549543440342,-0.0015370916404761374,0.00854044248034479
1690838456339213000,4.075213134765625,0.1956616883099079,-0.0076319196505472055,-0.009245241165277548
1690838456349253000,4.085253173828125,0.23826398171782492,-0.013208879532665014,-0.05116652090593707
1690838456359284500,4.095284423828125,-0.13879998340308666,-0.4159701439572498,-0.17653925561821088
1690838456369324500,4.105324462890625,0.04319733669161796,-0.12229467440722509,0.24945030591432005
1690838456379395300,4.115395263671875,0.33937633176147936,0.0721841973262839,0.010563543522497639
1690838456389435400,4.125435302734375,0.12007950084209441,0.03712450131764635,-0.0906678571904078
1690838456399475500,4.135475341796875,0.33222119930982585,0.11710103302057832,-0.10898880077349021
1690838456409516300,4.145516357421875,0.22687048104405402,0.11733604735285043,-0.13598331854715942
1690838456419556400,4.155556396484375,0.2816740843772888,0.12957438308661803,-0.11281765661295502
1690838456429596400,4.165596435546875,0.224287478813529,0.13381691602719947,-0.07104271740727126
1690838456439637500,4.175637451171875,0.23922552022635934,0.12407074416903778,-0.02511550366061274
1690838456449677300,4.18567724609375,0.19505144745707512,0.10584564390955492,0.011429238707432522
1690838456459717400,4.19571728515625,0.20114742624461648,0.0631917116459459,0.02150222680058796
1690838456469757400,4.20575732421875,0.1713145980387926,0.004210247239330783,0.020664785029180347
1690838456479798300,4.21579833984375,0.1439870306521654,-0.04942459544232115,-0.013585800253390333
1690838456489838300,4.22583837890625,0.18665011433660983,-0.10270003936020657,-0.055487772505381144
1690838456499878400,4.23587841796875,0.1423310801386833,-0.1441009758880362,-0.08579650656068698
1690838456509919500,4.24591943359375,0.13523615344166756,-0.15931677479632197,-0.08140678370175883
1690838456519959600,4.25595947265625,0.17226210802197456,-0.1351991276332177,-0.04703515672225039
1690838456529999400,4.265999267578125,0.11021861656308174,-0.09924455601093359,-0.011546659108600579
1690838456540070400,4.2760703125,0.1797112549841404,-0.04824970644405111,0.006269239295483567
1690838456550110500,4.2861103515625,0.1712584839373827,-0.003489358219411224,0.003191297721443698
1690838456560150300,4.296150390625,0.20382979719638825,0.03634843891123309,-0.012581769743422046
1690838456570191400,4.30619140625,0.22445640563964842,0.06584741378650069,-0.03952574920651968
1690838456580231400,4.3162314453125,0.20680618265867232,0.07683604172011838,-0.05773516327310353
1690838456590271200,4.326271240234375,0.2768722370535135,0.081800550526008,-0.06209908497049473
1690838456600312300,4.336312255859375,0.22620354156792163,0.0777807021590881,-0.054127996493456884
1690838456610352400,4.346352294921875,0.22283494191765785,0.06617870983378961,-0.04465333505305461
1690838456620392400,4.356392333984375,0.21004209583997724,0.04879307433944195,-0.02961790681350976
1690838456630432300,4.366432373046875,0.19035598311722277,0.020304491216270253,-0.02249603731064126
1690838456640473300,4.376473388671875,0.15419395188987253,-0.013440194937353952,-0.025879377872310576
1690838456650513400,4.386513427734375,0.18698796798884867,-0.04532692346568219,-0.03698975988891907
1690838456660553200,4.39655322265625,0.1552630424261093,-0.06916547969277016,-0.05103978468715213
1690838456670594300,4.40659423828125,0.15643325524926185,-0.08667042158469557,-0.05845360917418729
1690838456680634400,4.41663427734375,0.1691062743395567,-0.08070035246545448,-0.04650158870166633
1690838456690674400,4.42667431640625,0.1621691685527563,-0.07164356937725097,-0.03313292919714004
1690838456700714200,4.43671435546875,0.17453648269474506,-0.04930096906265244,-0.0199117381721735
1690838456710785300,4.446785400390625,0.1723988861441612,-0.02137607510369271,-0.015342466628411783
1690838456720826400,4.456826416015625,0.19047756367027757,-0.0012038410981185734,-0.015551889861701055
1690838456730866400,4.466866455078125,0.21605390347540376,0.019685235939919946,-0.02219488523986656
1690838456740906200,4.47690625,0.19615210217535495,0.03753757563056424,-0.037009291139873675
1690838456750946300,4.4869462890625,0.22773908057212827,0.0432499253953807,-0.0521420103080105
1690838456760987400,4.4969873046875,0.20950608926713465,0.05698089257339015,-0.05295202064979821
1690838456771027200,4.507027099609375,0.20279986962676047,0.05226221175473183,-0.05038265421898104
1690838456781067300,4.5170673828125,0.199538822004199,0.04011349053317681,-0.0455038509351667
1690838456791107300,4.527107421875,0.19433131648898125,0.02210449897609651,-0.0365451213939581
1690838456801148400,4.5371484375,0.1864291650623083,-0.005003142049536109,-0.029346766288508658
1690838456811188200,4.547188232421875,0.180765732473135,-0.02053120351107791,-0.026879924083827063
1690838456821228300,4.557228271484375,0.16820961776077747,-0.03296065963646397,-0.017373853725008666
1690838456831269400,4.567269287109375,0.17240239327549933,-0.045160133797721935,-0.016233200356480664
1690838456841309200,4.57730908203125,0.16371405990719795,-0.05567042189617641,-0.014724142933823167
1690838456851349200,4.587349365234375,0.16548749932050705,-0.04515106457527727,-0.01882944109449163
1690838456861389300,4.597389404296875,0.17742928152680396,-0.03166567878932692,-0.03101223354900721
1690838456871460400,4.60746044921875,0.17200901004374025,-0.01541166854025796,-0.041845301028154785
1690838456881501400,4.61750146484375,0.17886019111275672,-0.006119907652400434,-0.04898221740310546
1690838456891541200,4.627541259765625,0.19948621503412722,0.00956999330734834,-0.044263395020551974
1690838456901581300,4.637581298828125,0.19558277785480022,0.02183156378623098,-0.03970719302091747
1690838456911621400,4.647621337890625,0.20067220994830132,0.0289933634406887,-0.033278950071707364
1690838456921662200,4.657662109375,0.2008376296430826,0.028643070431984958,-0.020527029659459368
1690838456931702300,4.667702392578125,0.20220950251817701,0.03860538752516732,-0.02017702891170047
1690838456941742300,4.677742431640625,0.19221417820453643,0.027452856000419704,-0.023106867251941002
1690838456951783400,4.687783447265625,0.1801210048288107,0.007776999810198321,-0.029797341333911754
1690838456961823200,4.6978232421875,0.18537819470465183,0.0015722360190935432,-0.03614227621410973
1690838456971863300,4.70786328125,0.1874830580294132,-0.0014767854211386292,-0.04006467382223345
1690838456981903400,4.7179033203125,0.18658815501630305,-0.018966548010241238,-0.028068900972953996
1690838456991944200,4.727944091796875,0.18628361911177635,-0.02909918016903102,-0.031771047993097455
1690838457001984300,4.737984375,0.1877671356678009,-0.026715088910935447,-0.02897159000029787
1690838457012024300,4.7480244140625,0.1766781708985567,-0.021961263713659716,-0.023714779150369576
1690838457022065400,4.7580654296875,0.1789046147763729,-0.020772464921046046,-0.030525810872088183
1690838457032105500,4.76810546875,0.18143384099304674,-0.015338758567674084,-0.03505969600863754
1690838457042176300,4.77817626953125,0.19144670096337793,-0.008365275426395237,-0.02905473823910579
1690838457052216300,4.78821630859375,0.19278525609076022,0.0027570253568701443,-0.029164811017457395
1690838457062256400,4.79825634765625,0.18634791651964186,0.01425078980103135,-0.01701503948313184
1690838457072296400,4.80829638671875,0.19518062679469583,0.0165774791829288,-0.023760828515491446
1690838457082337300,4.818337158203125,0.1854611968129873,0.025478633318003267,-0.019834028726886024
1690838457092377300,4.82837744140625,0.18217852188050745,0.01181128769442439,-0.027049796191439962
1690838457102417200,4.838417236328125,0.19116846854388714,0.011001834475062786,-0.030302226682705803
1690838457112458200,4.848458251953125,0.17861118478775023,0.006239999501267448,-0.03575798503768164
1690838457122498300,4.858498291015625,0.18894786988496778,0.00524827591702342,-0.043083880079514345
1690838457132538400,4.868538330078125,0.18685995769500732,-0.007684937612572685,-0.04602627650722861
1690838457142578400,4.878578369140625,0.17788462407886982,-0.012376666492223739,-0.03278659997750073
1690838457152619300,4.888619384765625,0.18132628896534442,-0.01727752634421922,-0.02475489018729422
1690838457162659300,4.898659423828125,0.18341595472097397,-0.011515081226825713,-0.01052884210187476
1690838457172699100,4.90869921875,0.16814590487480163,-0.014308319541392847,-0.004320794941717759
1690838457182740500,4.918740478515625,0.18040800507664678,-0.014980501448223367,-0.021193704274110495
1690838457192780300,4.9287802734375,0.18264146321713923,-0.009355555972224101,-0.023306641307473182
1690838457202851300,4.938851318359375,0.1869692632883787,-0.0043006928686052555,-0.02381891537827905
1690838457212891400,4.948891357421875,0.18965689493715762,0.009522884496301412,-0.032266471393802204
1690838457222931500,4.958931396484375,0.19189853638410567,0.00577829114049673,-0.03358065926490817
1690838457232972300,4.96897216796875,0.1971381906032562,0.0007304149000905454,-0.02725895456324797
1690838457243012400,4.979012451171875,0.17933716097474098,0.015751275758165866,-0.028382049442199058
1690838457253052200,4.98905224609375,0.19610475590229035,0.015549396510515361,-0.035055695686955005
1690838457263092200,4.99909228515625,0.19057868595719335,0.006060012425016611,-0.02155974740779493
1690838457273133300,5.00913330078125,0.1790659428179264,0.0014333207387477159,-0.018208747346303424
1690838457283173400,5.01917333984375,0.1955307554066181,-0.008137266223644838,-0.020049790369416585
1690838457293213400,5.02921337890625,0.196280696991086,-0.006693433224037289,-0.013059237362327985
1690838457303253500,5.03925341796875,0.19074352113008497,-0.0039049350166693326,-0.014053856156556866
1690838457313294300,5.04929443359375,0.18071546359062193,-0.013431299244845285,-0.024730038873828016
1690838457323334100,5.059334228515625,0.17622224382460117,-0.007990176769997925,-0.026467256196285597
1690838457333374200,5.069374267578125,0.17816051841080188,-0.010901040981709957,-0.04115598532343283
1690838457343415300,5.079415283203125,0.18309329863786697,-0.010934778854530303,-0.05254669125191867
1690838457353455400,5.089455322265625,0.18847206906676292,-0.004935584105504676,-0.04710104786558077
1690838457363489000,5.099489013671875,0.1896627401560545,0.0016854323362931608,-0.03729091652627103
1690838457373560000,5.10956005859375,0.18801380390524863,0.009050773472525179,-0.025754185156640595
1690838457383599900,5.119599853515625,0.18053192371726035,0.009820479203388095,-0.014111321964836679
1690838457393641000,5.129640869140625,0.1868207947283983,0.00679490257082507,-0.005875467904657125
1690838457403681000,5.139680908203125,0.1700683973699808,-0.002741690790420398,-0.005588351209100801
1690838457413721000,5.14972119140625,0.17845687100887297,-0.0067622150107752525,-0.01520289604422869
1690838457423761000,5.159760986328125,0.195225050458312,-0.002678434562170878,-0.03420400391119765
1690838457433802000,5.169802001953125,0.18595219520032405,-0.009102448860835284,-0.04673913291774224
1690838457443842000,5.179842041015625,0.18804829069674014,-0.007737882509361952,-0.050104924122989176
1690838457453881900,5.1898818359375,0.18654957657158375,-0.010208811800694093,-0.04007732324125245
1690838457463923000,5.1999228515625,0.18460019606947897,-0.0070144818719476455,-0.03510449413158931
1690838457473963000,5.209962890625,0.187888131698966,0.0026047756709158417,-0.027663959734141826
1690838457484003000,5.220003173828125,0.17337094604671,-0.00848930366486311,-0.015443869759829249
1690838457494043100,5.230043212890625,0.19296996500790117,-0.002193290526885539,-0.011305689959577285
1690838457504084200,5.240084228515625,0.18473931227922438,0.003891326616425067,-0.009742541429237462
1690838457514124000,5.2501240234375,0.18743454271256924,0.0019117793049197643,-0.02098288366817869
1690838457524163800,5.260163818359375,0.18878537279963492,0.0009712196523323655,-0.021553534579428376
1690838457534205000,5.270204833984375,0.19073709138929842,-0.00003863324364647269,-0.021302592025662304
1690838457544275000,5.28027490234375,0.1813145985275507,-0.00024862273251637817,-0.021557331688422707
1690838457554316000,5.29031591796875,0.17682722398042677,0.0009667078739963471,-0.03420513870564755
1690838457564356000,5.300356201171875,0.17952070084810257,-0.005963474981673061,-0.0436969156776322
1690838457574396000,5.31039599609375,0.183261056420207,-0.008824262107117101,-0.03928858401635661
1690838457584436000,5.32043603515625,0.18954291316866873,-0.008510666113300248,-0.04441200971100479
1690838457594477000,5.33047705078125,0.17217852139174938,-0.006396989294420927,-0.031538157119252716
1690838457604516900,5.340516845703125,0.1841454380393028,0.006415648329118266,-0.015409220854844898
1690838457614557000,5.350556884765625,0.18788345552384852,-0.004373447577562183,-0.00405729201718932
1690838457624598000,5.360597900390625,0.18189970493912697,0.0009086392775177955,0.0015947035792283713
1690838457634638000,5.37063818359375,0.18519348578751085,0.0009196355955675244,0.0007967421515495516
1690838457644678100,5.38067822265625,0.18414894517064093,-0.0031897359520196913,-0.00797603864679113
1690838457654718000,5.390718017578125,0.18430325894951818,-0.0030120321644004433,-0.028358702815941068
1690838457664759000,5.400759033203125,0.18864567206799984,-0.004679682248830795,-0.037689170012681274
1690838457674798800,5.410798828125,0.1904430768787861,-0.008885426842980087,-0.04262346862668637
1690838457684839000,5.4208388671875,0.1792190875530243,-0.004416884860489518,-0.04685974992299452
1690838457694880000,5.4308798828125,0.18116262283623216,-0.008063844794407487,-0.04812794322790578
1690838457704950000,5.440949951171875,0.19043606261610985,-0.008852565752994269,-0.03364881771384971
1690838457714991000,5.4509912109375,0.17441899379491804,0.0035536099615041165,-0.01963647631119238
1690838457725031000,5.461031005859375,0.18085048814713953,0.005529083886090666,-0.008141456058283801
1690838457735071000,5.471071044921875,0.18848375950455665,0.003773618520889431,0.012132231311057694
1690838457745112000,5.481112060546875,0.1950730747669935,-0.0006569204056169838,0.011396982688934076
1690838457755152000,5.49115185546875,0.1798158844023943,0.0006024502720218152,-0.008086944825493264
1690838457765192000,5.50119189453125,0.18490940814912318,0.0030886684640310702,-0.016751079900877083
1690838457775232000,5.51123193359375,0.18790683639943598,-0.007295034112688154,-0.04121183456336148
1690838457785273000,5.521273193359375,0.17967852175831794,-0.008209007152449339,-0.05638957561673596
1690838457795313000,5.53131298828125,0.18670915104746819,-0.00464265644038096,-0.052077996027935294
1690838457805353000,5.54135302734375,0.18027181147634982,-0.0030705300191417335,-0.05195918738727923
1690838457815393000,5.55139306640625,0.18550737404227255,-0.005623749032756313,-0.029826775207661558
1690838457825433900,5.561433837890625,0.17862287522554396,0.0030005243896972385,-0.019807458097080233
1690838457835474000,5.571473876953125,0.18670213678479194,0.002427921266667545,-0.0035180956901283934
1690838457845514000,5.581513916015625,0.1775759965211153,-0.002054594442248344,0.005893624615855514
1690838457855555000,5.59155517578125,0.17369126404225826,-0.010508680663257837,-0.008091589034569914
1690838457865595100,5.60159521484375,0.1871615709900856,-0.0033858704454731194,-0.019149067253584506
1690838457875666000,5.611666015625,0.19075521156787872,-0.003473859256180003,-0.025844630785915066
1690838457885706000,5.6217060546875,0.1846212388575077,-0.005193677919264883,-0.04052530447077006
1690838457895746000,5.63174609375,0.18506839810311793,-0.0029787235498428344,-0.04173154758852906
1690838457905787000,5.641786865234375,0.19045242922902106,-0.0022533318847417832,-0.035793220747844315
1690838457915827000,5.651826904296875,0.18491174623668194,0.002758249199576676,-0.020600533287087455
1690838457925867000,5.661866943359375,0.1781727933704853,0.00002781958868727088,-0.01746208913088776
1690838457935906800,5.67190673828125,0.1856529199928045,-0.0010679854245390743,-0.014193924497661646
1690838457945948000,5.681947998046875,0.19283669401705264,0.0024023484339937566,-0.01861325019369833
1690838457955988000,5.691988037109375,0.18221242415010927,0.0019074867222923784,-0.01990514175131684
1690838457966028000,5.702028076171875,0.18460837937593458,0.0005372943476308137,-0.02628291260532569
1690838457976068900,5.71206884765625,0.19299217683970926,0.0003437810695264488,-0.02584541167062707
1690838457986109000,5.72210888671875,0.1829693799972534,0.004405313153704628,-0.015373617535212542
1690838457996149000,5.73214892578125,0.18731120859384537,-0.0009932396878954022,-0.023414086020609827
1690838458006189000,5.74218896484375,0.1802764876514673,-0.008563364414917304,-0.028348594697169025
1690838458016230100,5.752230224609375,0.1862590691924095,-0.00877062309058383,-0.03371888499208726
1690838458026270000,5.76227001953125,0.19343875156342982,-0.002528395099611953,-0.0367303029518458
1690838458036341000,5.772341064453125,0.1913391489356756,-0.0037459541958291083,-0.032222381090326234
1690838458046381000,5.782381103515625,0.18520225361585615,0.0009331069984938948,-0.029667942800582384
1690838458056421000,5.792421142578125,0.19522855758965013,0.005007251969072968,-0.020366098910127764
1690838458066462000,5.8024619140625,0.18640052348971367,-0.00033567082830704745,-0.01527072341631865
1690838458076502000,5.812501953125,0.187897484049201,-0.005533495199726894,-0.0169933733573067
1690838458086541800,5.822541748046875,0.17443302232027053,0.0022181509735062716,-0.011128872087947092
1690838458096582000,5.832581787109375,0.1777285567343235,0.0065363338330294935,-0.010749928373494184
1690838458106623000,5.842623046875,0.18506255288422108,-0.005382953413669019,-0.012045231164328287
1690838458116663000,5.8526630859375,0.18641046036183834,-0.012097493357816711,-0.02203421250215033
1690838458126703000,5.862703125,0.17892741113007068,-0.0030433771507348863,-0.031159811626421285
1690838458136744000,5.872743896484375,0.19209259765148162,-0.00443435658509843,-0.031762054119177624
1690838458146784000,5.882783935546875,0.18311083429455757,-0.006877055295789614,-0.029819596548203844
1690838458156824000,5.892823974609375,0.17652444164156914,-0.00010446502147242426,-0.022782695065182632
1690838458166864000,5.90286376953125,0.18669804513156413,-0.0030410299300216138,-0.023063532717002087
1690838458176905000,5.912905029296875,0.18176058872938156,-0.0018583868835587054,-0.01766932497366797
1690838458186945000,5.922945068359375,0.19567688587903975,-0.005157145301159471,-0.017422387308161705
1690838458196985000,5.932985107421875,0.18610183280408382,0.0010371336285490541,-0.012824855501006822
1690838458207056100,5.94305615234375,0.18311141881644724,-0.0014001856541261076,-0.009226029574731365
1690838458217096200,5.95309619140625,0.1850572921872139,-0.005732597968401387,-0.02159997210361762
1690838458227137000,5.963136962890625,0.17278467059135436,-0.005567470534564927,-0.03171389499536017
1690838458237176800,5.9731767578125,0.17547405580580233,-0.008361393835721537,-0.025166733807639684
1690838458247217000,5.983216796875,0.17636837429702282,-0.0024465529019013048,-0.02144205301199108
1690838458257258000,5.993258056640625,0.17621464504003523,-0.0034853030988015233,-0.020687401003076228
1690838458267298000,6.003298095703125,0.1823474487066269,-0.003002835077792406,-0.027501149838266428
1690838458277338000,6.013338134765625,0.18010230012834072,0.004302775227837265,-0.03333252972273622
1690838458287378200,6.023378173828125,0.18893267231583594,0.0023135924383066594,-0.017752153552067464
1690838458297419000,6.0334189453125,0.17995850774347782,0.0030201698050834236,-0.012866836045787203
1690838458307459000,6.043458984375,0.18056114981174468,-0.0007603807800915091,-0.009492073799506761
1690838458317499000,6.053498779296875,0.18355623997449874,-0.002615251399157569,-0.012518264636711683
1690838458327539000,6.0635390625,0.18714871150851248,-0.0016222491732798515,-0.012250023888272699
1690838458337580000,6.073580078125,0.1820586948931217,0.0008913958817720412,-0.012601068098936229
1690838458347620000,6.0836201171875,0.18205694132745265,-0.0022571495433337985,-0.019789488615549633
1690838458357652200,6.09365234375,0.19327508543431757,-0.008096084829885513,-0.025718967712786978
1690838458367723300,6.10372314453125,0.19506722954809663,-0.009951503438223153,-0.027887719736748837
1690838458377763300,6.113763427734375,0.17695991044938564,-0.0011611710001714526,-0.028201843170239587
1690838458387804200,6.12380419921875,0.17995207800269125,-0.00912577493749559,-0.02614263191837817
1690838458397844200,6.13384423828125,0.18728548963069916,-0.005317139902152121,-0.020311226917733436
1690838458407884000,6.143884033203125,0.189531222730875,-0.007168612987734377,-0.013307156841945833
1690838458417925000,6.153925048828125,0.18399638495743273,-0.0008177826562896371,-0.017410964015137868
1690838458427965200,6.163965087890625,0.17681494902074335,0.004779818155057728,-0.0112549050538335
1690838458438005200,6.174005126953125,0.18459785798192024,-0.0007043306107632815,-0.015085105750302318
1690838458448045300,6.18404541015625,0.18519465483129025,-0.00042127588568255305,-0.020700552745594177
1690838458458086100,6.194086181640625,0.18324702789485453,0.0016940723004750906,-0.008525959580554627
1690838458468126200,6.204126220703125,0.1925251438498497,-0.001021159741282463,-0.014197714756790082
1690838458478166000,6.214166015625,0.18579203620254992,-0.008728592313453555,-0.021921121216227763
1690838458488207000,6.22420703125,0.18504443270564078,0.0031365992589853704,-0.022734065583907066
1690838458498247200,6.2342470703125,0.18803776930272578,-0.0041398580173961814,-0.025986393327184484
1690838458508287200,6.244287353515625,0.18369944783747194,-0.0024112441265024243,-0.02634970564766554
1690838458518327300,6.254327392578125,0.17906068212091922,0.007017057421524077,-0.01979362136797281
1690838458528368000,6.2643681640625,0.17546996415257454,-0.002671940889302641,-0.017954140114283652
1690838458538438400,6.2744384765625,0.18489771771132946,-0.00920665815398097,-0.009692071617324835
1690838458548479200,6.284479248046875,0.1760679300457239,-0.003314586174394935,-0.005483244583522901
1690838458558519000,6.29451904296875,0.17935761924088,-0.001077091179601848,-0.013925722565129398
1690838458568559000,6.30455908203125,0.18608721975684164,-0.0022413857186213133,-0.022898256869404575
1690838458578600200,6.31460009765625,0.18309037602841852,-0.004312017980217933,-0.022102839025261344
1690838458588640300,6.32464013671875,0.1851829643934965,-0.00852799170743674,-0.025461755248438564
1690838458598680300,6.334680419921875,0.1799462327837944,-0.004756857404578477,-0.027401822216215076
1690838458608720400,6.344720458984375,0.1803986527264118,0.00027240546690300105,-0.03185352951162494
1690838458618761200,6.35476123046875,0.18923019395768642,0.0026956140258349477,-0.022365581614675466
1690838458628801000,6.364801025390625,0.18668752373754977,-0.0029018041224218903,-0.023503670850070192
1690838458638841000,6.374841064453125,0.18235212488174438,0.0006273929170332849,-0.024853704069403463
1690838458648882200,6.384882080078125,0.1786129383534193,-0.011218545965664089,-0.020827592641767114
1690838458658922200,6.394922119140625,0.18399872304499149,-0.006936886591091752,-0.020285533070762175
1690838458668962300,6.40496240234375,0.1771136397063732,-0.007504311215505003,-0.01619381362758577
1690838458679002400,6.41500244140625,0.17666238880753515,-0.00481857926286757,-0.009540150724933482
1690838458689043200,6.425043212890625,0.17695874140560625,-0.004125208437535911,-0.01572618241610471
1690838458699114200,6.4351142578125,0.17680676571428774,-0.000883650966733694,-0.016796042420610318
1690838458709154000,6.445154052734375,0.1748614768654108,-0.004038096409663558,-0.021041201143118086
1690838458719194000,6.455194091796875,0.18084873458147047,0.0014272745904512702,-0.024946474086504893
1690838458729234200,6.465234130859375,0.18309446768164633,-0.007478573986049741,-0.026453204838046803
1690838458739275300,6.475275146484375,0.1833960809767246,-0.0061713273123838,-0.027971098587708545
1690838458749315300,6.4853154296875,0.1827992841273546,-0.007405472217220812,-0.021664246678596826
1690838458759355400,6.49535546875,0.1872907503277063,-0.0006541165271773934,-0.024959945489431264
1690838458769395200,6.505395263671875,0.18399872304499149,-0.008277140485215932,-0.01743777667353861
1690838458779436000,6.51543603515625,0.17711480875015256,-0.007879245475120842,-0.01362545869363239
1690838458789476000,6.52547607421875,0.1778635812908411,-0.009700798346474766,-0.021619329824636224
1690838458799516200,6.53551611328125,0.1792091506808996,-0.004562558675184846,-0.013841973821411373
1690838458809557200,6.54555712890625,0.1693318997889757,-0.004500654153805226,-0.016366560395585837
1690838458819597300,6.555597412109375,0.18250117796361445,-0.0056336219727993,-0.02155536577691091
1690838458829637400,6.565637451171875,0.18205284967422483,-0.0049833048379048705,-0.028736251441040073
1690838458839677200,6.57567724609375,0.18444880490005014,-0.003228862386010587,-0.02926034838038031
1690838458849718000,6.585718017578125,0.18160685947239397,0.0023820728309452534,-0.020878270232945213
1690838458859758000,6.595758056640625,0.18145605282485483,0.0009632738078944385,-0.015040214012516661
1690838458869829000,6.6058291015625,0.18355156379938126,0.0023210998913273215,-0.017475476052134762
1690838458879869200,6.615869140625,0.1799596767872572,-0.0025053521507419642,-0.021853334943333174
1690838458889909200,6.6259091796875,0.16993278829157352,-0.008264262737333774,-0.027365702873351983
1690838458899950300,6.635950439453125,0.17083236747980116,-0.002180577175784856,-0.020320752797904424
1690838458909990400,6.645990478515625,0.17831483218967914,-0.0012872633315622805,-0.023691617470490745
1690838458920030200,6.6560302734375,0.19088497542738914,0.0014344532499089837,-0.0195234923398355
1690838458930071000,6.666071044921875,0.1869955667734146,-0.0054202714830636975,-0.01736284599051578
1690838458940111000,6.676111083984375,0.17921558042168617,-0.006826685948576778,-0.019187910559785085
1690838458950151200,6.686151123046875,0.18370353949069976,-0.0029809885721653697,-0.013896199643122963
1690838458960191200,6.696191162109375,0.1872960110247135,-0.003090732556954026,-0.018465491736482362
1690838458970232300,6.706232421875,0.18071078741550445,-0.008985307020880282,-0.010592881498124915
1690838458980272400,6.7162724609375,0.18340367976129054,-0.008632840321399271,-0.015096353230101521
1690838458990312200,6.726312255859375,0.19028584049046038,0.0016280395932495592,-0.017518351646058725
1690838459000353000,6.73635302734375,0.19627426725029945,0.0002884067536331713,-0.017161343485489488
1690838459010393000,6.74639306640625,0.19777707302868366,-0.01047799326404929,-0.003984078367217443
1690838459020433200,6.75643310546875,0.19763737229704856,-0.02781512257470749,-0.005995087112777401
1690838459030504200,6.766504150390625,0.14228139577805995,-0.02628941084477119,0.0037466620153049006
1690838459040544300,6.776544189453125,0.15769757609665394,-0.015117964556999503,-0.012443137590866534
1690838459050584300,6.786584228515625,0.19779402416348457,-0.011000957692228258,-0.03671318970355205
1690838459060625400,6.79662548828125,0.17428396923840045,0.006713471365068107,-0.05383515559330117
1690838459070665200,6.806665283203125,0.1793488514125347,0.012695998107083141,-0.058419268513168206
1690838459080705300,6.816705322265625,0.18830548032820224,0.010035144867375492,-0.04309789033855777
1690838459090746000,6.82674609375,0.1950298201471567,0.009210822872444987,-0.016129564168781505
1690838459100786200,6.8367861328125,0.20131927568018435,0.008996120675839483,0.007236693804862443
1690838459110826200,6.846826171875,0.18263386443257332,0.012353504812344908,0.028590041053516323
1690838459120866300,6.8568662109375,0.18535422930717468,0.01116650525117293,0.034265917565731795
1690838459130907400,6.866907470703125,0.183583712503314,-0.0010123371140100062,0.009411268214834853
1690838459140947200,6.876947265625,0.17641981222331524,-0.0160725253354758,-0.025894258064322637
1690838459150987300,6.8869873046875,0.1729834080338478,-0.02108773228214122,-0.042961911367392164
1690838459161028000,6.897028076171875,0.1891355014115572,-0.021552883842168375,-0.05011305263051763
1690838459171068200,6.907068115234375,0.1618815837830305,-0.011945983457379043,-0.03376379956275923
1690838459181108200,6.917108154296875,0.17158523167371748,-0.0002389598550274968,-0.02387834481478203
1690838459191148300,6.927148193359375,0.17305939587950706,-0.0042834494728595015,-0.011159041180636268
1690838459201219300,6.93721923828125,0.1751397092849016,-0.000058707917295396324,-0.017849410231329965
1690838459211260400,6.947260498046875,0.19698095421493053,0.001359013393521309,-0.03641759515730664
1690838459221300200,6.95730029296875,0.189805363497138,0.003924607831519097,-0.03933835514194797
1690838459231340300,6.96734033203125,0.20702830097675323,0.005603939220588654,-0.02771024427799275
1690838459241380000,6.977380126953125,0.197024793356657,0.012994195602368563,-0.011092933124885894
1690838459251421200,6.987421142578125,0.17430033585131166,0.012573084113467484,0.016652151854336262
1690838459261461200,6.997461181640625,0.18090075702965258,0.008026919450657442,0.028891213673888704
1690838459271501300,7.007501220703125,0.15322598364055157,-0.006027544060675427,0.014028447720664552
1690838459281541000,7.017541015625,0.1493336523771286,-0.007729735735524445,-0.016409241909976117
1690838459291582200,7.027582275390625,0.18254384806156157,-0.010733849454950541,-0.043623845874844115
1690838459301622300,7.037622314453125,0.17669161490201948,-0.01668901326600462,-0.07002147546759806
1690838459311662000,7.047662109375,0.1840074908733368,-0.01485215322766453,-0.07829516362040304
1690838459321703200,7.057703125,0.19447101722061633,-0.013258910953160374,-0.05224518755469471
1690838459331743200,7.0677431640625,0.18758476483821868,-0.008736812152527272,-0.016354465815704315
1690838459341783300,7.077783203125,0.18908581705093383,-0.001474967923387885,0.01962265556510538
1690838459351823000,7.087822998046875,0.17996902913749216,0.0038972083679400383,0.04629567716629244
1690838459361857500,7.097857421875,0.17235037082731722,0.0028927988320589064,0.04246669346266426
1690838459371928600,7.107928466796875,0.1711632068693638,0.00013346278709359466,0.017970561526122038
1690838459381968600,7.11796875,0.17176409537196158,0.00479208398158662,-0.017768832975521218
1690838459392008700,7.1280087890625,0.18717209238409996,0.00703182573239319,-0.04865932842455804
1690838459402048800,7.138048828125,0.184620654335618,0.0013715440815314649,-0.05795073311938904
1690838459412089900,7.14808984375,0.1880553049594164,-0.003106706444220617,-0.05381208981154486
1690838459422129700,7.158129638671875,0.2013695445626974,-0.005293411966692656,-0.05327763130839448
1690838459432169700,7.168169677734375,0.1819189941614866,-0.00764460560218431,-0.028612152420624624
1690838459442210600,7.17821044921875,0.17818448380827903,-0.0024340770128183065,0.0011968496683286503
1690838459452250600,7.188250732421875,0.18268354879319668,-0.004982336723525077,0.010820468292478472
1690838459462290700,7.198290771484375,0.17880115440189837,-0.006591041428642347,0.017483873987721745
1690838459472330800,7.208330810546875,0.17311726354658602,-0.000209925556788221,0.005120468835870269
1690838459482371800,7.218371826171875,0.17386252895593643,0.0016825005936902016,-0.005938555169547908
1690838459492411600,7.22841162109375,0.16368308024704456,-0.007323118562856688,-0.0114680820136331
1690838459502451700,7.23845166015625,0.18686872552335262,0.00184825821518898,-0.027894026179949287
1690838459512492500,7.248492431640625,0.1763859099537134,0.000970899991923943,-0.028560812675743362
1690838459522532600,7.25853271484375,0.186107093501091,0.0015378588254563509,-0.03867003199290484
1690838459532603600,7.268603759765625,0.18550737404227255,0.010152378038875759,-0.03620818790703779
1690838459542643700,7.278643798828125,0.17937690846323967,0.0034956600960344072,-0.03135668362210272
1690838459552683500,7.28868359375,0.1910556558191776,0.003168373503582552,-0.023632530527282505
1690838459562723600,7.2987236328125,0.1980968065023422,0.00015639613810926675,-0.021399745956936386
1690838459572764700,7.3087646484375,0.17850246371626852,-0.00570068672648631,-0.0032865770727512423
1690838459582804700,7.3188046875,0.1785083089351654,-0.008898861713288351,0.013024152349215
1690838459592844800,7.3288447265625,0.16968261292278766,-0.006437695764144882,0.009525560510577633
1690838459602885600,7.3388857421875,0.1604004053145647,-0.002049845201894641,-0.008117629941413178
1690838459612925700,7.34892578125,0.17086743879318236,-0.005493035325175151,-0.016202997014462015
1690838459622965800,7.3589658203125,0.1807353373348713,-0.005288178669149056,-0.029839324161980766
1690838459633005600,7.369005615234375,0.18521920475065706,-0.006193402146873995,-0.04693162784911692
1690838459643046700,7.379046630859375,0.19180209027230738,-0.005011973809963092,-0.04683909072745591
1690838459653086700,7.389086669921875,0.1895575262159109,0.0011983338059391826,-0.03537639955828199
1690838459663126800,7.399126708984375,0.19524726229012013,-0.010631247597001492,-0.018785551720415242
1690838459673167600,7.409167724609375,0.1829828240007162,-0.0015689389503095298,-0.008567394419352057
1690838459683207700,7.419207763671875,0.17595687088668346,0.0030588395813480017,0.001067387202917598
1690838459693247700,7.429247802734375,0.18030103757083416,0.008104514731513336,0.004023864671622869
1690838459703318500,7.439318603515625,0.18224749546349048,0.004108248169580474,-0.0031246919087716376
1690838459713358600,7.449358642578125,0.18015315353274344,-0.0014370653321035206,-0.012277361703058704
1690838459723399700,7.459399658203125,0.18389000197350977,0.0018393351232167331,-0.01573129698263947
1690838459733439700,7.469439697265625,0.18044424543380735,-0.00021570684360340236,-0.02713978972956538
1690838459743479800,7.479479736328125,0.1847819823771715,0.003275560205103829,-0.0323171992173302
1690838459753519900,7.489519775390625,0.1936094319552183,-0.0006591945610940456,-0.03249452854561386
1690838459763560700,7.499560791015625,0.18223638954758642,-0.0015393931954167783,-0.02396253423320595
1690838459773600800,7.509600830078125,0.17819792781174182,-0.004523578371666372,-0.01794536543607246
1690838459783640600,7.519640625,0.1816407617419958,-0.0010172690174542367,-0.008046041992946992
1690838459793680600,7.5296806640625,0.1796972264587879,0.008853195940656587,-0.0038379935605684294
1690838459803721700,7.5397216796875,0.17894962296187877,-0.0008729925754014402,0.001897714246949181
1690838459813761800,7.54976171875,0.18179215291142461,0.004844261693395674,0.0002812189610209316
1690838459823801900,7.5598017578125,0.17550795807540415,0.008869937012903392,-0.0018083782959496602
1690838459833842700,7.5698427734375,0.1822416502445936,0.00468380130152218,-0.018651148218405432
1690838459843882800,7.5798828125,0.18074410516321657,-0.0009607073914725333,-0.03045082082356093
1690838459853922600,7.589922607421875,0.1906201870113611,0.004584122053021565,-0.040471085498924364
1690838459863962600,7.599962646484375,0.18343933559656142,-0.0056003042250871654,-0.037525330353633035
1690838459874033700,7.61003369140625,0.18598726651370523,-0.010222995589673519,-0.0281967263204162
1690838459884074800,7.62007470703125,0.1859890200793743,-0.005282141654007136,-0.017278035517584066
1690838459894114800,7.63011474609375,0.17656243556439877,-0.0003288026961032301,-0.003912138792301994
1690838459904155000,7.64015478515625,0.174016258212924,-0.002552159567689523,-0.0008065077770268545
1690838459914195000,7.65019482421875,0.16728198152184484,-0.0011397537528071552,-0.004457089006714522
1690838459924235800,7.66023583984375,0.17610943109989166,0.004715347217256203,-0.010596744822489563
1690838459934275600,7.670275634765625,0.17969839550256728,-0.001332719041639939,-0.01874486580028897
1690838459944315600,7.680315673828125,0.17086685427129267,-0.00031506643169559536,-0.024255425365711562
1690838459954356700,7.690356689453125,0.17804887472987174,-0.0006496595477685332,-0.02691298838650109
1690838459964396800,7.700396728515625,0.18044482995569705,-0.0030854627267923205,-0.021294367620011325
1690838459974436900,7.710436767578125,0.18598317486047744,0.0028759481619577854,-0.023634994195715988
1690838459984477000,7.720476806640625,0.1825420944958925,0.0026567067875526845,-0.022409571453451644
1690838459994517800,7.730517822265625,0.1735673454016447,-0.003715677788574248,-0.02541258006118005
1690838460004557600,7.7405576171875,0.180452428740263,-0.006584492956846952,-0.014344541632244363
1690838460014597600,7.75059765625,0.17865794653892517,-0.003668806439545005,-0.005467960249423049
1690838460024638700,7.760638671875,0.17626257583498953,0.0023624365487135944,-0.005862857301544864
1690838460034708700,7.770708740234375,0.17491233026981354,0.0008914689470082521,-0.015203291053161955
1690838460044749800,7.780749755859375,0.16832886022627352,-0.006147928170487284,-0.01401773224711651
1690838460054790000,7.790789794921875,0.18419103074669838,-0.002089985416037962,-0.00903887068888871
1690838460064830000,7.800829833984375,0.1858364598661661,0.0033712299987673756,-0.02025371087710373
1690838460074869800,7.810869873046875,0.18374211793541906,0.0006676061964128166,-0.031090239821816794
1690838460084910600,7.82091064453125,0.1850871028035879,0.0023419417499564586,-0.022945093969104345
1690838460094950700,7.83095068359375,0.18089900346398352,-0.0014020214181859046,-0.0215368460228201
1690838460104990700,7.84099072265625,0.18793430892825125,0.0028212953652720896,-0.019273956291866488
1690838460115031800,7.85103173828125,0.1828477994441986,0.006325832887506112,-0.0019392655334668234
1690838460125072000,7.86107177734375,0.1822504180729389,-0.0037687140169087793,0.003937668242491781
1690838460135112000,7.87111181640625,0.1765653581738472,-0.0016631931050214916,-0.007375563419435639
1690838460145151500,7.8811513671875,0.18240239376425743,-0.0038603834888897835,-0.013646401016961317
1690838460155192600,7.891192626953125,0.18015782970786093,-0.0020438081867527216,-0.009827603063918649
1690838460165232600,7.901232666015625,0.17986030806601047,-0.00016434198254719376,-0.024139989142364354
1690838460175272700,7.911272705078125,0.17806582586467265,-0.0066567362091504035,-0.016239981723716483
1690838460185313800,7.921313720703125,0.169536482450366,0.001892645346187055,-0.014766381490218918
1690838460195353900,7.931353759765625,0.17462357645630835,0.009651817238749935,-0.021714017804188187
1690838460205425000,7.9414248046875,0.17896365148723126,0.004150233280938119,-0.023126405352761503
1690838460215464700,7.951464599609375,0.17567279324829577,-0.001292240900779143,-0.005548359408718533
1690838460225504500,7.96150439453125,0.1743254702925682,-0.004476250364910811,-0.012300146640313323
1690838460235545600,7.971545654296875,0.17552198660075663,0.0031234292501583693,-0.012730968955764546
1690838460245585700,7.981585693359375,0.18165654383301733,0.0009664156130515039,-0.012777399630087893
1690838460255625700,7.991625732421875,0.1779150192171335,-0.0033934783631935713,-0.005196541163208894
1690838460265665800,8.001665771484374,0.18255495397746563,-0.005422527372231706,-0.018686797203810418
1690838460275707000,8.011706787109375,0.18195757260620593,0.0008001648012083023,-0.01231985370449256
1690838460285746700,8.02174658203125,0.17941256429851055,-0.0061856115660630165,-0.018594022620131725
1690838460295786500,8.031786376953125,0.18794190771281719,0.0012842859231866894,-0.013738887906272429
1690838460305826600,8.04182666015625,0.17612170605957508,0.002887538135051727,-0.01403048669741256
1690838460315867600,8.05186767578125,0.18195815712809563,-0.0030647395991720257,-0.01560657005785033
1690838460325907700,8.06190771484375,0.18060966512858867,-0.011077840587031096,-0.010642038419074379
1690838460335947800,8.07194775390625,0.18599661886394023,0.0037221988609060642,-0.008621506076632066
1690838460345988900,8.08198876953125,0.1797106704622507,0.0027404121487867084,-0.01509285751520656
1690838460356028700,8.092028564453125,0.1755190639913082,0.007087273113522678,-0.013920742712623904
1690838460366075000,8.102074951171875,0.1809048486828804,0.008824134242953733,-0.013359615398256574
1690838460376145700,8.112145751953125,0.17252455835044384,0.005655815538298338,-0.010180526421125978
1690838460386185700,8.122185791015625,0.17536825734376907,-0.0055371575946919615,-0.025102000291645526
1690838460396226600,8.1322265625,0.18360066363811492,-0.005699499416397884,-0.01781669298852794
1690838460406266600,8.1422666015625,0.18180559691488743,-0.007126162085495889,-0.007623119856161065
1690838460416306700,8.152306640625,0.1761211215376854,0.002863152612466365,-0.014372550733888056
1690838460426346800,8.1623466796875,0.18405249905884266,0.00084767547105439,-0.009879840141232124
1690838460436387800,8.172387939453126,0.1812099691092968,-0.005560164010943844,-0.014263021378230769
1690838460446428000,8.182427978515625,0.1937795278251171,-0.00479518925412558,-0.010779524360736831
1690838460456467700,8.1924677734375,0.17926409573853014,-0.0015379318906925618,-0.010246015705657191
1690838460466508500,8.202508544921875,0.17447686146199703,-0.002967325372993946,-0.01851829506937647
1690838460476548600,8.212548583984375,0.18480302516520022,0.0009721238346304744,-0.0271665864049457
1690838460486588700,8.222588623046875,0.18121172267496585,-0.005574713126104325,-0.012592937308119143
1690838460496628700,8.232628662109375,0.18390403049886225,-0.005818422221485525,-0.015924639014096464
1690838460506669800,8.242669921875,0.18300328226685522,-0.005691197378933429,-0.008561720447102562
1690838460516710000,8.2527099609375,0.17537234899699686,0.0025729009616188704,-0.011906740575667936
1690838460526749700,8.262749755859375,0.18016075231730938,0.0006252831583376974,-0.011496282911521848
1690838460536790500,8.27279052734375,0.18240590089559555,0.0023086970674805344,-0.002415897468733601
1690838460546860800,8.28286083984375,0.17701953168213366,0.0033635946815833446,-0.015835983483109158
1690838460556901600,8.292901611328125,0.1764209812670946,0.000822878956515342,-0.014173680860653985
1690838460566941700,8.302941650390625,0.17163374699056147,0.0007380958830472082,-0.011937622054410166
1690838460576981800,8.312981689453125,0.17732056045532227,-0.00552907475293614,-0.01523111749171512
1690838460587021600,8.323021484375,0.1761240441471338,-0.0011580017955508083,-0.01924132581403246
1690838460597063000,8.33306298828125,0.17597323749959468,-0.002423765681358054,-0.01771824443259975
1690838460607102700,8.343102783203125,0.19018764081299303,0.003641525706974789,-0.01165997644009767
1690838460617142800,8.353142822265625,0.1834527796000242,0.0008578680715057999,-0.014841108960553536
1690838460627183600,8.36318359375,0.17641864317953584,-0.008805319944629445,-0.015376834688894449
1690838460637223700,8.3732236328125,0.18150515266358852,-0.003501651445403695,-0.0051774757031351325
1690838460647263700,8.383263671875,0.17611761440634727,-0.007433538401080295,-0.014766424872702919
1690838460657303800,8.3933037109375,0.17477087597250937,-0.0061055777329485856,-0.011453532898472622
1690838460667345000,8.403344970703126,0.1819546499967575,0.0060741962139960375,-0.014690199565025977
1690838460677384700,8.413384765625,0.19003508059978483,0.002963051056675613,-0.01038646992254071
1690838460687424800,8.4234248046875,0.1753717644751072,-0.0005850333463400602,-0.014859651547530665
1690838460697465600,8.433465576171875,0.1807604717761278,-0.0028779209233354775,-0.02240033555093687
1690838460707535600,8.44353564453125,0.18734627990722655,-0.00020844598575495181,-0.014924412462988403
1690838460717576700,8.45357666015625,0.18091186294555664,0.0029651242827530948,-0.01530319863052573
1690838460727616800,8.46361669921875,0.17492577427327632,-0.0024687282010912893,-0.010757919883704744
1690838460737656600,8.473656494140625,0.17732056045532227,0.004288116514822468,-0.007866454492206685
1690838460747697700,8.48369775390625,0.17791735730469227,-0.0007668013877235353,-0.014967322306241839
1690838460757737700,8.49373779296875,0.1848001025557518,-0.0012565759323537348,-0.015044600209977943
1690838460767777800,8.50377783203125,0.18195698808431623,-0.0029221345243975517,-0.018792269155569374
1690838460777817600,8.513817626953125,0.1699865643054247,-0.006778115832805633,-0.016064289513381663
1690838460787858700,8.523858642578125,0.18076164081990717,-0.003990467008808628,-0.018810919057112185
1690838460797898800,8.533898681640625,0.17672259456217287,0.0025289613551925864,-0.018344657818810083
1690838460807938800,8.543938720703125,0.17627485079467295,-0.0036826340354979034,-0.015337201364827342
1690838460817978600,8.553978515625,0.17911913430988788,-0.007489004048518836,-0.013733455962617882
1690838460828019700,8.564019775390625,0.16879355512857436,0.006542608310189098,-0.017459789859235752
1690838460838059800,8.574059814453125,0.17373101153075693,0.0023406631083227694,-0.007328826784435659
1690838460848099600,8.584099609375,0.1801636749267578,-0.0015264606486074625,-0.007003983310819603
1690838460858140700,8.594140625,0.18704700469970703,0.004884867698419839,-0.017245576286397408
1690838460868180700,8.6041806640625,0.18809329888224602,-0.0016373371445573865,-0.015631706782395484
1690838460878251800,8.614251708984375,0.18539923749268053,0.005187567838886752,-0.01363188386784168
1690838460888291600,8.62429150390625,0.17597031489014625,0.0037556901385542,-0.024996503223711622
1690838460898331600,8.63433154296875,0.1710316894441843,-0.0000301028773188591,-0.01794844102585921
1690838460908372700,8.644372802734376,0.182703422537446,0.005966479789512232,-0.026260632274858652
1690838460918412800,8.654412841796875,0.18644553167521952,0.004128971297200769,-0.014622121031186543
1690838460928452600,8.66445263671875,0.17238076596558094,0.0007546542922034859,-0.015586472551315091
1690838460938492700,8.67449267578125,0.17492577427327632,0.00021031828243285415,-0.017984277240931986
1690838460948533800,8.68453369140625,0.18285832083821296,-0.00014306173250079154,-0.018954679475934242
1690838460958573800,8.69457373046875,0.18495441633462906,-0.00008779701446183025,-0.009311362920759712
1690838460968613600,8.704613525390625,0.18256079919636248,-0.0034780057083349672,-0.014325702217745128
1690838460978654700,8.71465478515625,0.17462883715331554,-0.0023579339035321024,-0.022659114351286553
1690838460988694800,8.72469482421875,0.18585165743529797,0.002404248130135238,-0.015923602401057724
1690838460998734600,8.734734619140625,0.17896774314045905,0.001452737825270742,-0.011493186772137414
1690838461008774700,8.744774658203125,0.17956570903360844,0.0008394099662080407,-0.013311312427255324
1690838461018815700,8.754815673828125,0.16909049224853515,0.005701106851594522,-0.016341439654061103
1690838461028855800,8.764855712890625,0.17761808209717272,0.0016958349992986768,-0.009308880986017174
1690838461038895600,8.7748955078125,0.17926468026041983,0.000953738794568926,-0.009221684476465451
1690838461048966700,8.784966552734375,0.18510113132894038,0.004313406219705939,-0.019139276511932257
1690838461059006700,8.7950068359375,0.18600071051716804,0.003797090728022158,-0.015092980812792665
1690838461069047800,8.8050478515625,0.18450491900146007,0.0027877766881603747,-0.01763899148419732
1690838461079087600,8.815087646484375,0.183309571737051,0.004842900853371248,-0.010582718580425716
1690838461089127700,8.825127685546875,0.17149053912758827,0.0012547493014484644,-0.017275272738339845
1690838461099167700,8.835167724609375,0.17837386890053747,0.00455243000681512,-0.015811207518167794
1690838461109208800,8.845208740234375,0.18361118503212928,-0.0032145963986404237,-0.011375919351307674
1690838461119248600,8.85524853515625,0.18046762630939484,-0.004777032542927191,-0.013749534881161525
1690838461129288700,8.865288818359375,0.18226327755451202,-0.000783332397416234,-0.010453507276764138
1690838461139329800,8.875329833984376,0.18600363312661647,-0.00293160560564138,-0.01834699590636883
1690838461149369600,8.88536962890625,0.1845078416109085,-0.003341209319839254,-0.012551054944749921
1690838461159409700,8.89540966796875,0.18420856640338898,-0.0018304942296352236,-0.010301481353095733
1690838461169449700,8.90544970703125,0.18166589618325232,0.0009192337367683648,-0.015249166888347826
1690838461179490800,8.91549072265625,0.18810148218870162,0.008778824663348495,-0.010705491010146215
1690838461189530600,8.925530517578125,0.17748013493120668,0.0010398827080614864,-0.009967570940323639
1690838461199570700,8.93557080078125,0.18047464057207108,0.0021880663624964654,-0.013578717492055147
1690838461209611800,8.94561181640625,0.1832914515584707,0.0006530753475613892,-0.0186436864311574
1690838461219681800,8.955681884765625,0.33065292707979677,-0.01737895002523437,-0.015484793141973204
1690838461229722600,8.96572265625,0.009724690678715705,-0.5426715836897492,-0.2656892738578841
1690838461239762700,8.9757626953125,-0.30927286992073055,-0.34727709494866427,0.45567039578072727
1690838461249802500,8.985802490234375,0.41515024240911,0.22554076681025326,-0.046868494918453504
1690838461259842600,8.995842529296874,0.31129940731227396,0.07522378421789035,-0.17273087631119413
1690838461269883600,9.005883544921875,0.11028408301472663,0.16514378218306228,-0.017482113572186788
1690838461279923700,9.015923828125,0.3613648762077093,0.25670416776640337,0.14304802363584748
1690838461289963800,9.0259638671875,0.2006757170796394,0.07708587002903222,-0.06001467991187237
1690838461300004600,9.036004638671875,0.2965115880250931,0.11046899286126717,-0.2234803454154171
1690838461310044700,9.046044677734375,0.25504092899560926,0.14911421920647844,-0.08418840464376844
1690838461320084700,9.056084716796875,0.24726444977521894,0.15947930841427296,-0.04771821164954453
1690838461330124500,9.06612451171875,0.2613438285320997,0.12672019923189654,-0.030786825012008193
1690838461340165600,9.07616552734375,0.18340601784884927,0.08981050970871,-0.008434886046906467
1690838461350205700,9.086205810546875,0.1897013186007738,0.04529014425240457,-0.0022797678005183116
1690838461360242200,9.0962421875,0.16859423316419123,-0.001748432836215943,-0.030952087159873916
1690838461370283000,9.106282958984375,0.17125906845927238,-0.027943836121447383,0.025482711271499283
1690838461380353000,9.11635302734375,0.08739420581459999,-0.05439158846624195,0.03644118152887094
1690838461390393900,9.126393798828126,0.15461539217233658,-0.10478513853857294,-0.00545549806007184
1690838461400434000,9.136433837890625,0.10791443127393723,-0.12604619982731527,-0.021063481473585124
1690838461410474000,9.146473876953126,0.09812719675302504,-0.13146916559096425,-0.04692666397963185
1690838461420515000,9.15651513671875,0.15294599765539169,-0.12978479270059615,-0.05864917284548282
1690838461430555100,9.16655517578125,0.1308241822183132,-0.10772563070356846,-0.045929058643872846
1690838461440595200,9.17659521484375,0.1778238338023424,-0.07819598669540137,-0.0293462776647415
1690838461450635300,9.18663525390625,0.16467501389384268,-0.05499965562829748,-0.011154330756189301
1690838461460676000,9.196676025390625,0.18670739748179913,-0.021802556887455284,0.023953225265454965
1690838461470716000,9.2067158203125,0.21595044310092926,0.007611644047498703,0.02209656683139037
1690838461480756000,9.216755859375,0.17010463772714138,0.03812607957562431,0.012815875326818786
1690838461490797000,9.226797119140626,0.2236468428224325,0.0664837937275879,-0.008087972305377479
1690838461500837000,9.236837158203125,0.21660569213926792,0.07815779184317216,-0.03667221380576957
1690838461510877200,9.246877197265626,0.21138298905491829,0.09018834831146523,-0.052216582514718175
1690838461520917200,9.256917236328125,0.221294142216444,0.09365518417181447,-0.06335903103686868
1690838461530958000,9.2669580078125,0.23870646478831767,0.08521724536800757,-0.06944491768865846
1690838461540998000,9.276997802734375,0.2009165400981903,0.078988470513653,-0.05682735511264764
1690838461551069000,9.28706884765625,0.21042495767772196,0.05705262436904013,-0.047585054823127575
1690838461561109000,9.29710888671875,0.19390403098762035,0.03885804711198434,-0.020386438445257952
1690838461571149000,9.307149169921875,0.18352058413922787,0.02295280463481322,-0.003085786953778006
1690838461581190100,9.317190185546876,0.18211071734130382,0.0005557889855466783,0.017458184707327743
1690838461591230200,9.327230224609375,0.1528501360654831,-0.015084610276669262,0.019185522239876445
1690838461601270300,9.337270263671876,0.17863573470711708,-0.03166406222097575,0.016183600477536673
1690838461611310000,9.34731005859375,0.13586042281985283,-0.046523302776552734,-0.0038048013937310313
1690838461621351000,9.357350830078126,0.14108838660120962,-0.06123138962471857,-0.013944262868817895
1690838461631391000,9.367390869140625,0.16634090127944945,-0.06348514163456857,-0.034777239505178296
1690838461641431000,9.37743115234375,0.13231588208079337,-0.05985690466742962,-0.048300331519590685
1690838461651472100,9.38747216796875,0.15364625487923622,-0.053158831800892946,-0.033181622610497286
1690838461661512200,9.39751220703125,0.1721294215530157,-0.050912221917882555,-0.02638495734084863
1690838461671552300,9.40755224609375,0.17221067009568214,-0.02746781610753387,-0.02068314495306695
1690838461681592000,9.417592041015626,0.17693711409568785,-0.016469616627972573,-0.005970317997701932
1690838461691633000,9.4276328125,0.1946995652794838,0.008905921641737221,0.007489204977918416
1690838461701673000,9.4376728515625,0.1982581345438957,0.019803766019362956,0.010219682537869083
1690838461711713000,9.447713134765625,0.18237784384489059,0.04161266131605953,-0.005219830707251094
1690838461721784000,9.4577841796875,0.19000410093963144,0.05497263975720852,-0.018178055380517616
1690838461731824000,9.46782421875,0.19764029490649698,0.05964943592920899,-0.023054671273822894
1690838461741865200,9.477865234375,0.1993044287264347,0.058345057066064326,-0.044225551794772035
1690838461751905000,9.487905029296876,0.18781097480952738,0.0534889588044025,-0.0501885427192552
1690838461761945000,9.497945068359375,0.21478373740911483,0.0369236449833028,-0.03627986033718334
1690838461771985200,9.507985107421876,0.19672610267102716,0.03278183247083798,-0.024785447439050767
1690838461782026000,9.51802587890625,0.18690087422728538,0.022100224659778175,-0.02566530129679013
1690838461792066000,9.528066162109376,0.19413491713404654,0.008752703841403127,-0.013590901120193302
1690838461802106000,9.538106201171875,0.16709493451714516,-0.002608556796889752,-0.0080791770775686
1690838461812147200,9.548147216796876,0.1695242074906826,-0.010316628689877688,0.00688435268625617
1690838461822187300,9.558187255859375,0.15203765063881874,-0.01983733949540183,0.0014185684108990243
1690838461832227000,9.56822705078125,0.145608494374156,-0.025132486761454492,-0.0006099463085993193
1690838461842267100,9.57826708984375,0.1565221025764942,-0.030427834956906735,-0.012902227019576822
1690838461852308000,9.588307861328126,0.1560474708020687,-0.034795784375444054,-0.0326948848397471
1690838461862348000,9.59834814453125,0.1679857458770275,-0.041052652813121676,-0.031020789031509774
1690838461872388000,9.60838818359375,0.16555413481593131,-0.028683658170700073,-0.04005904779904522
1690838461882429200,9.61842919921875,0.1768874297350645,-0.024304840298276394,-0.03335423694775672
1690838461892499000,9.6284990234375,0.19031740467250347,-0.01586463647214696,-0.024422630592202767
1690838461902540000,9.6385400390625,0.18789105430841443,-0.005421276130061596,-0.02048749908338068
1690838461912580000,9.648580078125,0.18113339674174783,0.00676472662827,-0.014486402354924939
1690838461922620200,9.6586201171875,0.18874679435491562,0.0147618263293989,-0.004694836435478646
1690838461932661000,9.668660888671875,0.1864940469920635,0.029946499447058884,0.011950785213371272
1690838461942701000,9.678701171875,0.1818541122317314,0.0326331264488399,0.004306517537904437
1690838461952741000,9.6887412109375,0.191888599511981,0.034967542479466644,-0.017556560198019724
1690838461962781200,9.69878125,0.18846330123841762,0.03488779177414253,-0.02555312104303157
1690838461972822300,9.708822265625,0.20689210737645625,0.025488551923818884,-0.03368641206116881
1690838461982862000,9.718862060546876,0.19060674300789832,0.01475486686564982,-0.0372200843463419
1690838461992902100,9.728902099609375,0.18973755895793437,0.009526373361330479,-0.038217253573972265
1690838462002943000,9.73894287109375,0.18632336660027504,0.009697693073935806,-0.03231823126379167
1690838462012983000,9.748983154296875,0.18156068224310873,0.00046538902204483744,-0.022457632395857945
1690838462023023000,9.759023193359376,0.17215046434104442,-0.001772270369529724,-0.02388826342059765
1690838462033063200,9.769063232421875,0.1739589750677347,-0.005216163745708763,0.00039322111826622854
1690838462043104300,9.779104248046876,0.17067103943824766,-0.004126761073805392,0.016638860831211785
1690838462053144000,9.78914404296875,0.16183949820697308,-0.013357841282989828,0.009673971988342236
1690838462063215000,9.799215087890625,0.16781506548523903,-0.012394147349987178,-0.0008396771109779365
1690838462073255200,9.809255126953126,0.158971249294281,-0.01831489743478596,-0.014576847984199412
1690838462083295200,9.819295166015625,0.1655365991592407,-0.013019677103497088,-0.032199299325549505
1690838462093336000,9.829336181640626,0.18511691341996192,-0.009788659293018281,-0.03448047134857624
1690838462103376100,9.839376220703125,0.19482231487631796,-0.009119929718598723,-0.047793363811564626
1690838462113416200,9.849416259765626,0.18702303930222988,0.0009078355599194764,-0.04491881758882664
1690838462123456000,9.8594560546875,0.18371639897227285,0.012166731802280992,-0.023155638297111727
1690838462133497000,9.8694970703125,0.19747136808037757,0.01462870146902278,-0.014299430698750074
1690838462143537200,9.879537109375,0.1792097352027893,0.021667495798319576,0.0027383206564001736
1690838462153577200,9.8895771484375,0.1751701044231653,0.025295531836058944,0.00739412655601045
1690838462163618000,9.8996181640625,0.18161270469129084,0.03360953373294324,0.014429352105176076
1690838462173658000,9.909658203125,0.18192542390227318,0.02836823554597795,0.006649525583651848
1690838462183698200,9.9196982421875,0.1814928777039051,0.016871676356531678,-0.007598382707126438
1690838462193738000,9.929738037109376,0.18899463163614272,0.004842763856053352,-0.021012244476692286
1690838462203779000,9.939779052734375,0.18931144250035284,0.005185111020319163,-0.04033859539278783
1690838462213819100,9.949819091796876,0.18783026403188705,0.0012558635463006795,-0.05606990150858182
1690838462223859000,9.95985888671875,0.1845475890994072,-0.003804232854861766,-0.054131791319162584
1690838462233930000,9.969929931640625,0.18260697642564772,-0.008208057304378598,-0.042979145629983395
1690838462243970000,9.979969970703126,0.18485270952582358,-0.0014433306761085986,-0.026058216454379723
1690838462254011100,9.99001123046875,0.17901275132596492,-0.010512132995668798,-0.01210075617727125
1690838462264051200,10.00005126953125,0.17511749745309352,-0.0058474291202612215,0.011517709292040672
1690838462274091000,10.010091064453125,0.18109774090647696,-0.004995652862824499,0.01622919775150949
1690838462284131000,10.020131103515626,0.17226210802197456,-0.015865695918072013,0.020795631167502143
1690838462294172200,10.030172119140625,0.18063479956984518,-0.0026285401389934122,0.0048899617153569126
1690838462304212000,10.0402119140625,0.18152561092972755,0.0008978438888676464,-0.009051355711126233
1690838462314252000,10.050251953125,0.1812187369376421,-0.002894680261891335,-0.028377989755012094
1690838462324293000,10.060293212890626,0.18360475529134274,0.003198686443455517,-0.041684740171581504
1690838462334333200,10.070333251953125,0.18254910875856875,0.007269406481087207,-0.04881503957607783
1690838462344373000,10.080373046875,0.19017302776575087,0.002772204659692943,-0.038619607846764846
1690838462354413000,10.0904130859375,0.19810031363368033,0.008259002040326594,-0.028010880325536707
1690838462364426500,10.100426513671875,0.1888216131567955,0.007403773450478911,-0.010344000753993167
1690838462374466300,10.11046630859375,0.18583295273482797,0.010791041268594563,0.006605784623336513
1690838462384506400,10.12050634765625,0.1812012012809515,0.013528466875851153,0.004691984607977792
1690838462394577200,10.1305771484375,0.17223522001504898,0.012879738909844307,0.018115431623219047
1690838462404617200,10.1406171875,0.18496727581620215,0.009591565818339585,0.005993096085090656
1690838462414658300,10.150658203125,0.18303660001456737,0.011190909040067344,-0.007505293029616587
1690838462424698400,10.160698486328124,0.18574293636381625,0.004531305020395666,-0.017933149841893464
1690838462434738400,10.170738525390625,0.18485329404771328,0.00016841536946594714,-0.02741948573706904
1690838462444779500,10.180779541015625,0.1885954031854868,-0.0009030315206386148,-0.03650132563471561
1690838462454819300,10.1908193359375,0.17751695981025695,-0.0021839199103415013,-0.03892809840720147
1690838462464859400,10.200859375,0.17631167567372322,-0.006897139102593064,-0.028226077995775267
1690838462474899200,10.210899169921875,0.1707657319843769,0.0004508490400388837,-0.009273647559143137
1690838462484940300,10.220940185546874,0.18706804748773573,0.001815780717693269,0.001517797851539217
1690838462494980400,10.23098046875,0.1788315495401621,-0.005755056395381689,0.015197749511653091
1690838462505020400,10.2410205078125,0.16745733808875082,0.005132102191448211,0.014057192041247616
1690838462515061500,10.2510615234375,0.17478841162919997,0.008690433993842452,-0.003132523588777985
1690838462525101300,10.261101318359374,0.1864601447224617,0.005890738539025187,-0.014267131297767627
1690838462535141400,10.271141357421875,0.1875093615144491,0.0029284181347116827,-0.02114455648631556
1690838462545181200,10.28118115234375,0.19828151541948316,0.011108875046111643,-0.039752383869513866
1690838462555222300,10.29122216796875,0.17957389234006405,0.009825264976359903,-0.03941324700906407
1690838462565292300,10.301292236328125,0.18376023811399936,0.009302227482944726,-0.03621059677654411
1690838462575333400,10.31133349609375,0.17612813580036163,0.0024759251268580557,-0.02186674469746649
1690838462585373400,10.32137353515625,0.1664040296435356,0.01460911998571828,-0.0008251919278991408
1690838462595413500,10.33141357421875,0.17688392260372637,0.017239121429435907,0.009373004863946698
1690838462605454300,10.341454345703125,0.17060557298660278,0.009296473595593125,0.006891748258133884
1690838462615494400,10.351494384765624,0.17405600570142268,0.004727083320822566,-0.00669728741524741
1690838462625534200,10.3615341796875,0.19037351877391337,0.004606909273564815,-0.016908416753902564
1690838462635574300,10.37157421875,0.18050269762277601,0.005034779296815395,-0.028123727299575692
1690838462645615400,10.381615478515625,0.18409692272245884,0.0014988419893197714,-0.026364330111350864
1690838462655655400,10.391655517578124,0.1894832919359207,0.004664448147080839,-0.02691346331053646
1690838462665695500,10.401695556640625,0.1743646332591772,0.0018881701004691421,-0.01688920288006775
1690838462675736300,10.411736328125,0.1810918956875801,-0.002629416921827942,-0.012121136811596806
1690838462685776400,10.4217763671875,0.17973872751295566,0.005997980039473622,-0.013438815831020474
1690838462695816200,10.431816162109374,0.18108078977167605,0.006020155338663608,-0.01523856329594273
1690838462705856300,10.441856201171875,0.17853285885453224,0.007543894307222217,-0.01627939813536359
1690838462715897300,10.4518974609375,0.184816469168663,0.005486833913251757,-0.010091875456715933
1690838462725937400,10.4619375,0.19963176098465918,0.007908252373896538,-0.008318189448234625
1690838462736008400,10.472008544921875,0.1779366465270519,0.006823251882474869,-0.01774662571029039
1690838462746048500,10.482048583984374,0.18302490957677364,0.015225206057447939,-0.014551555996027308
1690838462756088300,10.49208837890625,0.18377368211746214,0.017948475275188683,-0.015292056182003579
1690838462766129200,10.502129150390624,0.18601883069574832,0.009142360746115446,-0.022894658406521193
1690838462776169200,10.512169189453125,0.1833224312186241,0.00825788779547438,-0.015414413053193129
1690838462786209300,10.522209228515624,0.1815267799735069,0.008292009260784834,-0.022545449959917457
1690838462796249300,10.532249267578125,0.1677601204276085,-0.0021892354062758384,-0.012118218768725637
1690838462806290400,10.54229052734375,0.17973463585972785,0.00608079948471859,-0.007813395430985838
1690838462816330500,10.55233056640625,0.1770440816015005,0.003957980378158391,-0.009824111915600951
1690838462826370600,10.56237060546875,0.1837801118582487,0.004963778153527528,-0.012013733197655528
1690838462836411400,10.572411376953125,0.17989187224805353,-0.0009031776511110365,-0.024976051807438487
1690838462846451200,10.582451171875,0.187975809982419,-0.0020837109388783573,-0.0239200353819062
1690838462856491300,10.5924912109375,0.18034546123445033,-0.007990268101543187,-0.02570630459403619
1690838462866531300,10.60253125,0.18468495174348354,-0.0027448417287319897,-0.02152709866365185
1690838462876572400,10.612572509765625,0.17944763561189173,0.004624901587981731,-0.02681140487528173
1690838462886612500,10.622612548828124,0.1786959404617548,0.0045882776383310555,-0.013920450451679061
1690838462896652500,10.632652587890625,0.1806377221792936,0.008709978944528848,-0.010092012454033829
1690838462906723300,10.642723388671875,0.18258008841872214,0.0035775479595176875,-0.011414673609251622
1690838462916763400,10.652763427734374,0.18227789060175417,0.00024628464495763183,-0.01211169541310519
1690838462926804200,10.66280419921875,0.18646657446324824,0.005849767207819968,-0.01100781897456618
1690838462936844300,10.67284423828125,0.17554244486689566,0.00804968840489164,-0.020320773347502107
1690838462946884400,10.68288427734375,0.18137831141352653,0.004615951096545905,-0.01535744271854637
1690838462956925400,10.692925537109375,0.1914051999092102,0.005445643386337906,-0.017650942216895053
1690838462966965500,10.702965576171875,0.1780892067402601,0.007638623385969549,-0.009521290760836564
1690838462977005600,10.713005615234374,0.18197744635045526,0.004686678245197981,-0.00562316907744389
1690838462987045400,10.72304541015625,0.18646540541946888,0.013581311307940632,-0.005053566195676103
1690838462997086200,10.733086181640624,0.17643910144567487,0.008305033139139413,-0.005494651893526315
1690838463007126300,10.743126220703125,0.18063129243850706,0.0015287074046209453,-0.015491279964975546
1690838463017166300,10.753166259765624,0.1958972506314516,0.009147402247413993,-0.019894535875623114
1690838463027207400,10.76320751953125,0.1887169837385416,-0.00015953794326633214,-0.02074150124391308
1690838463037247500,10.77324755859375,0.1783943271666765,0.008370408259239048,-0.018468412062642162
1690838463047287600,10.78328759765625,0.17390578357577322,0.004659972901362925,-0.015992868244985584
1690838463057327400,10.793327392578124,0.18662381085157392,0.005220438062027096,-0.013774621373356786
1690838463067368200,10.8033681640625,0.18661971919834613,0.0030650135938078164,-0.011319695652043446
1690838463077438500,10.8134384765625,0.17479484136998652,0.00495082734040916,-0.012925247135560492
1690838463087479300,10.823479248046874,0.17539163821935652,0.009188227448146789,-0.010650913561985362
1690838463097519400,10.833519287109375,0.18646248281002042,0.00813658123705536,-0.011531064247246831
1690838463107559400,10.843559326171874,0.1858621788293123,-0.00007173179564997553,-0.012322625616891309
1690838463117600500,10.8536005859375,0.17942600830197333,0.0030836817616596815,-0.013849625121615826
1690838463127640600,10.863640625,0.17718085972368716,0.011710275005362928,-0.015583819369925185
1690838463137680400,10.873680419921875,0.17703180664181709,0.00498728689327836,-0.022907058947079346
1690838463147720400,10.883720458984374,0.17643500979244708,0.0013561638493090867,-0.01519357794332318
1690838463157761300,10.89376123046875,0.18436989444494245,0.0030873715560883284,-0.01485223999263253
1690838463167801300,10.90380126953125,0.18033143270909785,0.0091791856251657,-0.018227125536499078
1690838463177841400,10.91384130859375,0.17509353205561637,0.002429382571391761,-0.012552029908995609
1690838463187882500,10.923882568359375,0.18048107031285762,0.004566211936995387,-0.013061283188941888
1690838463197922600,10.933922607421875,0.174945063495636,0.0020359445407055316,-0.012644585296965669
1690838463207962400,10.94396240234375,0.18392273519933222,-0.0019264014853164553,-0.012760717923345509
1690838463218002400,10.95400244140625,0.1819768618285656,0.0035765981114469466,-0.01509392152770888
1690838463228043300,10.964043212890624,0.18077976099848747,0.011166267789155243,-0.011216091430385131
1690838463238083300,10.974083251953125,0.18182780874669552,0.0022115568359382448,-0.008773232889489736
1690838463248154400,10.984154296875,0.18362404451370237,0.0037455980028025804,-0.013276104116556234
1690838463258194400,10.9941943359375,0.18063129243850706,-0.00012185454769060015,-0.0056383803463075305
1690838463268234500,11.004234375,0.17718904303014277,0.002699395151808858,-0.014160949243244248
1690838463278275600,11.014275634765625,0.1756932515144348,0.008011274356953799,-0.01399104973616777
1690838463288315400,11.0243154296875,0.18452187013626098,0.00547017503939569,-0.020291528986708725
1690838463298355500,11.03435546875,0.1797322977721691,0.00809316222043708,-0.012087812214018777
1690838463308395300,11.044395263671875,0.18452011657059192,0.011948960865754633,-0.010977375887241214
1690838463318436400,11.054436279296874,0.1846697541743517,0.004285696228872984,-0.006514238448941614
1690838463328476400,11.064476318359375,0.17344810293614862,0.009428959135152399,-0.010769742752239107
1690838463338516500,11.0745166015625,0.18841244783401487,0.010060809031594543,-0.015038076854357495
1690838463348557600,11.0845576171875,0.18572189357578753,-0.0014573409351520239,-0.007412538995535578
1690838463358597400,11.094597412109374,0.17839257360100746,0.006775649881083518,-0.010421251258265693
1690838463368643600,11.1046435546875,0.18542904810905456,0.01208787614610046,-0.01750035933164181
1690838463378683600,11.11468359375,0.18842296922802923,0.006758424751646817,-0.01729468754157424
1690838463388724500,11.124724365234375,0.19231237788200378,0.010699070402514188,-0.009853262661560438
1690838463398764500,11.1347646484375,0.17121113766431809,-0.000059018444549292326,-0.00843509154288331
1690838463408804600,11.1448046875,0.1695668775886297,0.008256280360277741,-0.019766290403052698
1690838463418875600,11.154875732421875,0.17869418689608574,0.0029736272496171294,-0.018693818316352553
1690838463428915700,11.164915771484376,0.18228373582065105,0.0018305764280259608,-0.015138726500526535
1690838463438956800,11.174956787109375,0.18692016344964504,0.012048092124983667,-0.012195594853872898
1690838463448996600,11.18499658203125,0.18347674499750136,0.007918097914475947,-0.005281130157143343
1690838463459036700,11.19503662109375,0.17689210591018198,0.0020690430927090345,-0.006411353463202249
1690838463469077500,11.205077392578126,0.1800339110672474,0.005761047744750976,-0.012183123531367163
1690838463479117600,11.21511767578125,0.1762941400170326,0.004467427737638354,-0.0038479532655794173
1690838463489157600,11.22515771484375,0.17958558277785777,0.00903917436627671,-0.003082519567746203
1690838463499197700,11.23519775390625,0.19125556230545043,0.012670954997371881,-0.016308738394279498
1690838463509238800,11.24523876953125,0.18571780192255974,0.00450635324222967,-0.020104874707653653
1690838463519278600,11.255278564453125,0.1744949816405773,-0.0029886238893494007,-0.016174328042403794
1690838463529318700,11.265318603515626,0.1771884585082531,0.0019849998047575352,-0.008026611206692177
1690838463539359500,11.275359375,0.1783867283821106,0.010429697142913938,-0.018241046747285872
1690838463549399600,11.285399658203126,0.17344868745803832,0.010139116698503493,-0.010409293675702064
1690838463559439600,11.295439697265625,0.18093115216791628,0.005678337897360324,-0.015182736888900398
1690838463569479700,11.305479736328126,0.1804816548347473,-0.001056486782990396,-0.011317636125697753
1690838463579550500,11.315550537109376,0.18302783218622207,0.008018215554393828,-0.009333997160964645
1690838463589590500,11.325590576171875,0.17479717945754528,0.013827285425644367,-0.0032295313895796423
1690838463599631600,11.335631591796876,0.17494915514886378,0.007368884800188243,-0.0027694144809851423
1690838463609671700,11.345671630859375,0.17390461453199385,-0.0008771481607109308,-0.006079909002152271
1690838463619711700,11.355711669921876,0.160888481092453,0.006211257463973015,-0.012994878305669408
1690838463629752600,11.365752685546875,0.17854513381421566,0.0015134550365619361,-0.021576276134198998
1690838463639792600,11.375792724609376,0.1819844606131315,0.0006613682518713176,-0.02351357347286539
1690838463649832700,11.385832763671875,0.1756979276895523,0.011051829362940042,-0.030308857352891936
1690838463659872500,11.39587255859375,0.18063246148228645,0.00029297333089634773,-0.026321968257369006
1690838463669913600,11.40591357421875,0.19005729243159292,-0.00604724427498877,-0.012459727966063655
1690838463679953700,11.41595361328125,0.1813788959354162,0.006121186294034123,0.001133739570551552
1690838463689993700,11.42599365234375,0.18901158277094363,0.018892715589050202,-0.0021867352052242495
1690838463700034600,11.43603466796875,0.17913725448846815,0.005895378181524575,-0.0020623142411117443
1690838463710074600,11.44607470703125,0.18033669340610503,0.004000522611942142,-0.0023236000923789104
1690838463720114700,11.45611474609375,0.17465104898512362,0.0056281603463925415,-0.012202629666146821
1690838463730154500,11.466154541015625,0.174799517545104,-0.0029640009047463534,-0.02538350923032267
1690838463740195600,11.476195556640626,0.181832484921813,-0.005607482884544879,-0.018738744303467683
1690838463750265600,11.486265625,0.18647241968214512,0.002438442660681903,-0.019591251213266513
1690838463760306700,11.496306640625,0.18108488142490387,0.016048121546581386,-0.01905139729907969
1690838463770346800,11.5063466796875,0.17943711421787736,0.006108527741860598,-0.013170620748354121
1690838463780386600,11.516386474609375,0.18287702553868293,0.008533891725260765,-0.014099878122215158
1690838463790427600,11.526427734375,0.17389993835687637,0.0012518632246181368,-0.004722740505845285
1690838463800467700,11.5364677734375,0.178389650991559,0.003951240110117942,0.0033819066564086822
1690838463810507500,11.546507568359376,0.182281982254982,0.003160509857535362,-0.01591095983190462
1690838463820547600,11.556547607421875,0.17599720289707182,0.0012059599899686873,-0.012220256654382682
1690838463830588700,11.566588623046876,0.1791390080541372,0.002064969705790281,-0.004522459560236894
1690838463840628700,11.576628662109375,0.1809358283430338,0.007810162294283509,-0.006811518062197137
1690838463850668500,11.58666845703125,0.17944003682732582,0.010360486097913235,-0.011637113871029578
1690838463860709600,11.596709716796875,0.1917097358137369,0.008198741486761718,-0.018258678302098996
1690838463870749700,11.606749755859376,0.19050971237421035,0.0043030674887821075,-0.023656696854159234
1690838463880789500,11.61678955078125,0.18916238941848276,0.002914992397557944,-0.014570699087914545
1690838463890829600,11.62682958984375,0.18482289890944956,0.0035306218115612863,-0.007557623721763957
1690838463900870700,11.63687060546875,0.18108137429356574,-0.0021455789276398716,-0.010760262537840752
1690838463910910700,11.64691064453125,0.17958616729974747,0.008528831957653164,-0.006920812239125371
1690838463920981800,11.656981689453126,0.18661855015456674,0.013128982696868479,-0.003884079458308406
1690838463931021600,11.667021484375,0.1815314561486244,0.007576024744845926,-0.0025696929410914887
1690838463941061600,11.6770615234375,0.18272680341303346,0.01134399897623807,-0.00795709191772621
1690838463951102700,11.687102783203125,0.17345044102370738,0.007174275543540716,-0.012462828672025352
1690838463961142500,11.697142578125,0.18452420822381974,0.008113675285503268,-0.019052545793261377
1690838463971182600,11.7071826171875,0.18197744635045526,0.007654642939008772,-0.012414290522295049
1690838463981223700,11.7172236328125,0.1803331862747669,0.005060187732707709,-0.014166205373674164
1690838463991263700,11.727263671875,0.1848223143875599,0.005977795767970383,-0.018020921740180346
1690838464001303600,11.737303466796876,0.18377309759557245,0.008895783840212971,-0.016451359452074394
1690838464011343600,11.747343505859375,0.17987959728837014,0.00632045345949009,-0.010313548533513676
1690838464021384700,11.757384765625,0.18227204538285732,0.006204517195932567,-0.011247516331821679
1690838464031424500,11.767424560546875,0.17942893091142176,0.0036558190938085315,-0.01428736351833213
1690838464041464600,11.777464599609376,0.17404373074173926,0.008369641074258834,-0.01601008424126776
1690838464051505700,11.787505615234375,0.18736381556391715,0.011657229643873869,-0.010942274891107807
1690838464061545700,11.797545654296876,0.1870651248782873,0.011976342063024639,-0.008245338841155171
1690838464071585500,11.80758544921875,0.1752437541812658,0.003733633570373058,-0.006499561469617765
1690838464081625600,11.81762548828125,0.19050854333043096,0.006849190041329711,-0.016805842295417095
1690838464091696600,11.827696533203126,0.186468912550807,0.01824042569277808,-0.007759897978347726
1690838464101736400,11.837736328125,0.18602116878330707,0.008559391492698342,-0.013687899787840433
1690838464111777500,11.847777587890626,0.17644027048945427,0.001602923418302089,-0.012082976208697072
1690838464121817600,11.857817626953125,0.18437047896683215,0.006698419926408678,-0.00943088851404609
1690838464131857700,11.867857666015626,0.17748948728144168,0.002800681835506111,-0.006704845100617967
1690838464141898800,11.877898681640625,0.18302783218622207,0.0067834495950490235,-0.006906404687860049
1690838464151938600,11.8879384765625,0.17763970940709112,0.00969319956190884,-0.0047078899965854355
1690838464161978600,11.897978515625,0.1848217298656702,0.006788618960510939,-0.002939592549274675
1690838464172018400,11.908018310546876,0.17883622571527957,0.005568758309353143,-0.012051037567318417
1690838464182059500,11.9180595703125,0.17898586331903935,-0.0022302615364082155,-0.012655501699913292
1690838464192099600,11.928099609375,0.18018237962722777,0.00311681684628129,-0.014583945586910703
1690838464202139600,11.9381396484375,0.18855916282832622,0.0047793066984042525,-0.016769832550408318
1690838464212180700,11.9481806640625,0.18332184669673443,0.0032685550755821168,-0.021902759009052534
1690838464222220500,11.958220458984375,0.19020342290401457,0.004397960964310914,-0.011774750509741715
1690838464232260600,11.968260498046876,0.19484218862056732,0.006338062181416898,0.0005905155223445035
1690838464242300400,11.978300537109375,0.1842190877974033,0.009859861365705727,-0.0036557414619950573
1690838464252341500,11.988341552734376,0.17958149112462996,0.006314462110120803,-0.0016645059959846547
1690838464262411500,11.99841162109375,0.18796353502273558,0.004196118249278515,-0.004765458552853669
1690838464272452600,12.00845263671875,0.18033552436232567,0.005881623650807887,-0.007641632760385982
1690838464282492700,12.01849267578125,0.17869184880852698,0.008827961034700274,-0.0065200300105556375
1690838464292532700,12.02853271484375,0.17734686394035815,0.008766220910102129,-0.008082422772358403
1690838464302573600,12.038573486328126,0.18961714744865893,0.009957622651755808,-0.005082360748609062
1690838464312613600,12.048613525390625,0.18407821802198887,0.011926328908838331,-0.00966382733695209
1690838464322653400,12.0586533203125,0.18228022868931293,0.011951518149022013,-0.015137660204735583
1690838464332693500,12.068693603515625,0.17778817796707153,0.007006280299182981,-0.02315754027654184
1690838464342734600,12.078734619140626,0.17913316283524036,0.005267766068782657,-0.024633875889820044
1690838464352774700,12.088774658203125,0.1930482909411192,0.008233082147780806,-0.013761481047281995
1690838464362792700,12.098792724609375,0.19319675950109957,0.005772628584690392,0.002799247930245474
1690838464372833800,12.108833740234376,0.17718436685502528,0.0012010463528335095,-0.0002675237958086654
1690838464382873900,12.118873779296875,0.18182254804968834,0.0037082799334079027,0.0006450130554032512
1690838464392914000,12.128913818359376,0.18675883540809154,0.005705152839049697,-0.0072270697432802984
1690838464402954000,12.1389541015625,0.19618834253251552,0.014469784580264239,-0.005964005846279906
1690838464412994800,12.148994873046876,0.1747925032824278,0.010116466475278139,-0.007394124272721819
1690838464423035000,12.159034912109375,0.17958266016840935,0.005865348369441926,-0.015335124713816912
1690838464433106000,12.16910595703125,0.20277941136062144,0.011726513754110783,-0.011615526518662227
1690838464443145700,12.179145751953126,0.29721067620515823,0.002215337961912155,-0.01480159208420664
1690838464453185800,12.189185791015625,-0.018068156132102012,-0.011460355364903807,-0.016575169636477947
1690838464463227000,12.199226806640626,0.17181962495148181,0.004943045892752707,-0.01093102284473134
1690838464473267000,12.209266845703125,0.2912193268358707,0.00858726588031277,0.001971699648478534
1690838464483307000,12.21930712890625,0.1488975990474224,0.025053722436819224,0.000052511071949265894
1690838464493347800,12.229347900390625,0.17402093438804148,0.03000897022401914,0.008184918457386083
1690838464503388000,12.239387939453126,0.16547931601405141,0.013696699582226574,0.016058157741761534
