time,seconds_elapsed,z,y,x
1690838452300378400,0.03637841796875,-0.996917724609375,-0.028228759765625,0.0075836181640625
1690838452310385200,0.04638525390625,-0.9929046630859375,-0.0229034423828125,0.0079498291015625
1690838452320394200,0.056394287109375,-0.98822021484375,-0.010955810546875,0.005523681640625
1690838452330465300,0.06646533203125,-0.981353759765625,0.002105712890625,0.0035400390625
1690838452340505000,0.076505126953125,-0.975860595703125,0.01629638671875,0.00006103515625
1690838452350546200,0.086546142578125,-0.969940185546875,0.02740478515625,-0.0027618408203125
1690838452360575500,0.096575439453125,-0.9646453857421875,0.0355377197265625,-0.0035858154296875
1690838452370615600,0.106615478515625,-0.961761474609375,0.03973388671875,-0.002227783203125
1690838452380656400,0.116656494140625,-0.9611358642578125,0.041107177734375,-0.001800537109375
1690838452390696400,0.126696533203125,-0.962646484375,0.03985595703125,0.0000762939453125
1690838452400736500,0.136736572265625,-0.9640655517578125,0.03515625,0.0004730224609375
1690838452410776600,0.146776611328125,-0.967254638671875,0.0285491943359375,0.0005950927734375
1690838452420817700,0.156817626953125,-0.9727783203125,0.018402099609375,0.002044677734375
1690838452430857500,0.166857421875,-0.9769744873046875,0.0060882568359375,0.00311279296875
1690838452440897500,0.1768974609375,-0.980010986328125,-0.00384521484375,0.0033416748046875
1690838452450938400,0.1869384765625,-0.9826812744140625,-0.0113525390625,0.0034942626953125
1690838452460978400,0.196978515625,-0.9847259521484375,-0.0130767822265625,0.0026702880859375
1690838452471018500,0.2070185546875,-0.9819183349609375,-0.010894775390625,0.001708984375
1690838452481058600,0.21705859375,-0.97906494140625,-0.0051116943359375,0.001312255859375
1690838452491099600,0.227099609375,-0.9764251708984375,0.003021240234375,0.0004119873046875
1690838452501169400,0.23716943359375,-0.973541259765625,0.0125732421875,0.0013580322265625
1690838452511210500,0.24721044921875,-0.9700164794921875,0.0211181640625,0.002410888671875
1690838452521250600,0.25725048828125,-0.9678497314453125,0.0283660888671875,0.002349853515625
1690838452531290600,0.26729052734375,-0.9673919677734375,0.03179931640625,0.00189208984375
1690838452541331500,0.27733154296875,-0.967376708984375,0.03228759765625,0.000885009765625
1690838452551371500,0.28737158203125,-0.9664306640625,0.0307769775390625,-0.000579833984375
1690838452561411300,0.297411376953125,-0.96820068359375,0.0263519287109375,-0.0016632080078125
1690838452571451400,0.307451416015625,-0.9712066650390625,0.0198211669921875,-0.001953125
1690838452581492500,0.317492431640625,-0.97393798828125,0.01385498046875,-0.0015869140625
1690838452591532500,0.327532470703125,-0.9766387939453125,0.0063018798828125,0.0005950927734375
1690838452601572600,0.337572509765625,-0.978118896484375,0.000518798828125,0.0029449462890625
1690838452611613400,0.347613525390625,-0.980194091796875,-0.0022125244140625,0.003875732421875
1690838452621653500,0.357653564453125,-0.9801483154296875,-0.0032501220703125,0.005035400390625
1690838452631693600,0.367693603515625,-0.979736328125,0.00006103515625,0.0039825439453125
1690838452641733400,0.3777333984375,-0.9781341552734375,0.0041351318359375,0.002166748046875
1690838452651774500,0.3877744140625,-0.9759368896484375,0.0099334716796875,0.000885009765625
1690838452661814500,0.397814453125,-0.973724365234375,0.01629638671875,-0.000579833984375
1690838452671885600,0.407885498046875,-0.9723052978515625,0.0211029052734375,-0.000732421875
1690838452681925600,0.417925537109375,-0.9713134765625,0.023895263671875,0.0004119873046875
1690838452691965700,0.427965576171875,-0.9702606201171875,0.0252227783203125,-0.0002288818359375
1690838452702006500,0.438006591796875,-0.9704132080078125,0.0240478515625,0.0001983642578125
1690838452712046300,0.44804638671875,-0.971649169921875,0.021514892578125,0.0007171630859375
1690838452722086400,0.45808642578125,-0.9739227294921875,0.0178375244140625,0.0007171630859375
1690838452732127500,0.46812744140625,-0.975128173828125,0.0130615234375,0.001678466796875
1690838452742167600,0.47816748046875,-0.9763946533203125,0.0091400146484375,0.00213623046875
1690838452752207600,0.48820751953125,-0.9783477783203125,0.0050811767578125,0.00262451171875
1690838452762247700,0.49824755859375,-0.979217529296875,0.0037384033203125,0.00262451171875
1690838452772288500,0.50828857421875,-0.97906494140625,0.0031585693359375,0.0023956298828125
1690838452782328600,0.51832861328125,-0.977935791015625,0.0057525634765625,0.0014801025390625
1690838452792368400,0.528368408203125,-0.9759979248046875,0.0086517333984375,0.000823974609375
1690838452802408400,0.538408447265625,-0.9745635986328125,0.0110626220703125,0.0000762939453125
1690838452812449500,0.548449462890625,-0.973419189453125,0.014984130859375,0.0000457763671875
1690838452822489600,0.558489501953125,-0.972412109375,0.0179595947265625,0.0009613037109375
1690838452832529700,0.56852978515625,-0.9723358154296875,0.019989013671875,0.00146484375
1690838452842600700,0.5786005859375,-0.9726715087890625,0.020233154296875,0.0019378662109375
1690838452852640500,0.588640625,-0.9729156494140625,0.0185699462890625,0.0020751953125
1690838452862681300,0.598681396484375,-0.9745635986328125,0.016998291015625,0.001861572265625
1690838452872721400,0.608721435546875,-0.975738525390625,0.0142974853515625,0.0014495849609375
1690838452882761500,0.618761474609375,-0.97613525390625,0.0131378173828125,0.0006103515625
1690838452892802600,0.628802490234375,-0.9775848388671875,0.0101165771484375,0.0003204345703125
1690838452902842600,0.638842529296875,-0.9767608642578125,0.0076446533203125,0.0001068115234375
1690838452912882700,0.648882568359375,-0.97650146484375,0.0073699951171875,-0.00006103515625
1690838452922922500,0.658922607421875,-0.9772796630859375,0.00848388671875,0.0009002685546875
1690838452932963600,0.668963623046875,-0.9774322509765625,0.0099945068359375,0.0016937255859375
1690838452943003400,0.67900341796875,-0.9757232666015625,0.012115478515625,0.002197265625
1690838452953043500,0.68904345703125,-0.9761810302734375,0.0138702392578125,0.001983642578125
1690838452963084500,0.69908447265625,-0.97613525390625,0.0153045654296875,0.00213623046875
1690838452973124600,0.70912451171875,-0.9753875732421875,0.0172576904296875,0.0018310546875
1690838452983164700,0.71916455078125,-0.9748687744140625,0.017822265625,0.0005645751953125
1690838452993204500,0.72920458984375,-0.9752655029296875,0.0164642333984375,0.0010223388671875
1690838453003245600,0.73924560546875,-0.97540283203125,0.0158538818359375,0.0010986328125
1690838453013315300,0.7493154296875,-0.97674560546875,0.014007568359375,0.000701904296875
1690838453023356400,0.7593564453125,-0.9771728515625,0.013214111328125,0.0001068115234375
1690838453033396500,0.769396484375,-0.9769134521484375,0.011993408203125,0.0015869140625
1690838453043436500,0.7794365234375,-0.977142333984375,0.0111083984375,0.0022735595703125
1690838453053477600,0.7894775390625,-0.977294921875,0.01080322265625,0.0024871826171875
1690838453063517700,0.799517578125,-0.9776458740234375,0.010223388671875,0.0027618408203125
1690838453073557500,0.8095576171875,-0.9777679443359375,0.011505126953125,0.002655029296875
1690838453083597300,0.819597412109375,-0.9768524169921875,0.01300048828125,0.002899169921875
1690838453093638400,0.829638427734375,-0.9768524169921875,0.0135345458984375,0.002105712890625
1690838453103678500,0.839678466796875,-0.9771881103515625,0.014801025390625,0.00128173828125
1690838453113718500,0.849718505859375,-0.9750213623046875,0.01495361328125,-0.0001068115234375
1690838453123759600,0.859759521484375,-0.9758453369140625,0.015167236328125,-0.0005645751953125
1690838453133799700,0.869799560546875,-0.9749298095703125,0.0149383544921875,0.000213623046875
1690838453143839500,0.879839599609375,-0.97674560546875,0.014404296875,0.0007476806640625
1690838453153879300,0.88987939453125,-0.9763641357421875,0.012908935546875,0.001495361328125
1690838453163920400,0.89992041015625,-0.9767303466796875,0.012542724609375,0.0015869140625
1690838453173991400,0.909991455078125,-0.97760009765625,0.011962890625,0.0021209716796875
1690838453184031500,0.920031494140625,-0.9784088134765625,0.0113372802734375,0.0023651123046875
1690838453194071600,0.930071533203125,-0.9787139892578125,0.011199951171875,0.0019683837890625
1690838453204111600,0.940111572265625,-0.9787139892578125,0.01123046875,0.0019073486328125
1690838453214152400,0.95015234375,-0.9774627685546875,0.012359619140625,0.0008087158203125
1690838453224192300,0.960192138671875,-0.977386474609375,0.013214111328125,0.00048828125
1690838453234232300,0.970232421875,-0.97601318359375,0.014129638671875,0.0010528564453125
1690838453244272400,0.9802724609375,-0.97540283203125,0.013397216796875,0.0016021728515625
1690838453254313500,0.9903134765625,-0.970703125,0.01239013671875,0.0032196044921875
1690838453264353500,1.000353515625,-0.9842987060546875,0.011199951171875,0.005279541015625
1690838453274393600,1.0103935546875,-0.9856414794921875,0.012725830078125,0.0030517578125
1690838453284434400,1.020434326171875,-0.9725341796875,0.013916015625,-0.001617431640625
1690838453294474500,1.030474609375,-0.9793243408203125,0.0146026611328125,-0.00457763671875
1690838453304514300,1.040514404296875,-0.97784423828125,0.0144500732421875,-0.005523681640625
1690838453314554400,1.050554443359375,-0.9764556884765625,0.0140838623046875,-0.004302978515625
1690838453324595500,1.060595458984375,-0.9756317138671875,0.0142669677734375,-0.0000457763671875
1690838453334635500,1.070635498046875,-0.9752655029296875,0.0137481689453125,0.006256103515625
1690838453344706600,1.08070654296875,-0.9791412353515625,0.013885498046875,0.008819580078125
1690838453354724400,1.090724365234375,-0.976806640625,0.0131683349609375,0.008087158203125
1690838453364764400,1.100764404296875,-0.9782257080078125,0.0110626220703125,0.00396728515625
1690838453374805500,1.110805419921875,-0.9799652099609375,0.0097808837890625,-0.001617431640625
1690838453384845600,1.120845458984375,-0.9794921875,0.0097198486328125,-0.0028839111328125
1690838453394885600,1.1308857421875,-0.972259521484375,0.0102386474609375,-0.002838134765625
1690838453404926500,1.140926513671875,-0.9825592041015625,0.013641357421875,0.001129150390625
1690838453414966300,1.15096630859375,-0.9795684814453125,0.0151214599609375,0.0037841796875
1690838453425006300,1.16100634765625,-0.97698974609375,0.0155487060546875,0.0040435791015625
1690838453435046400,1.17104638671875,-0.9803924560546875,0.0151519775390625,0.0017547607421875
1690838453445087500,1.18108740234375,-0.97528076171875,0.013885498046875,-0.0035552978515625
1690838453455127600,1.19112744140625,-0.9748077392578125,0.01361083984375,-0.00494384765625
1690838453465167600,1.201167724609375,-0.9730072021484375,0.013580322265625,-0.00299072265625
1690838453475208400,1.21120849609375,-0.975860595703125,0.0131683349609375,0.0026397705078125
1690838453485248500,1.22124853515625,-0.9805145263671875,0.0131683349609375,0.0078125
1690838453495288300,1.231288330078125,-0.9779815673828125,0.0122528076171875,0.0110626220703125
1690838453505328400,1.241328369140625,-0.98382568359375,0.0120849609375,0.0093536376953125
1690838453515399400,1.2513994140625,-0.982025146484375,0.0118865966796875,0.00299072265625
1690838453525439500,1.261439453125,-0.976715087890625,0.010894775390625,-0.0037994384765625
1690838453535480600,1.27148046875,-0.9760589599609375,0.011962890625,-0.008087158203125
1690838453545520600,1.281520751953125,-0.977142333984375,0.012451171875,-0.008544921875
1690838453555560400,1.291560546875,-0.9730072021484375,0.01348876953125,-0.0031890869140625
1690838453565601300,1.301601318359375,-0.97601318359375,0.0140533447265625,0.0030670166015625
1690838453575641300,1.311641357421875,-0.9788665771484375,0.0150909423828125,0.0089111328125
1690838453585681400,1.321681396484375,-0.9796142578125,0.0145263671875,0.0099639892578125
1690838453595721500,1.331721435546875,-0.98016357421875,0.0130157470703125,0.00836181640625
1690838453605762600,1.341762451171875,-0.9785614013671875,0.0122833251953125,0.002838134765625
1690838453615802600,1.351802734375,-0.9789581298828125,0.0128631591796875,-0.002227783203125
1690838453625842700,1.3618427734375,-0.97479248046875,0.01177978515625,-0.0048675537109375
1690838453635883500,1.371883544921875,-0.9764862060546875,0.0112152099609375,-0.0040740966796875
1690838453645923300,1.38192333984375,-0.9792938232421875,0.0122222900390625,-0.0014190673828125
1690838453655963400,1.39196337890625,-0.9765777587890625,0.01324462890625,0.001220703125
1690838453666003500,1.40200341796875,-0.9785614013671875,0.0129852294921875,0.0046539306640625
1690838453676044500,1.41204443359375,-0.9807281494140625,0.0134429931640625,0.004486083984375
1690838453686115600,1.422115478515625,-0.9778900146484375,0.0150299072265625,0.0035247802734375
1690838453696155600,1.43215576171875,-0.9780120849609375,0.014862060546875,0.0020599365234375
1690838453706195500,1.442195556640625,-0.9773101806640625,0.0145263671875,0.0003662109375
1690838453716235500,1.452235595703125,-0.9771270751953125,0.01373291015625,0.00146484375
1690838453726276400,1.4622763671875,-0.977386474609375,0.0128326416015625,0.002105712890625
1690838453736316400,1.47231640625,-0.978271484375,0.011749267578125,0.0017547607421875
1690838453746356500,1.4823564453125,-0.980194091796875,0.011627197265625,0.001251220703125
1690838453756396500,1.492396484375,-0.9793548583984375,0.0109100341796875,-0.0001678466796875
1690838453766437600,1.502437744140625,-0.97662353515625,0.011077880859375,-0.001251220703125
1690838453776477700,1.512477783203125,-0.9792633056640625,0.01165771484375,-0.000885009765625
1690838453786517500,1.522517578125,-0.9785614013671875,0.0129241943359375,0.0006561279296875
1690838453796558300,1.532558349609375,-0.977813720703125,0.0137939453125,0.0029754638671875
1690838453806598400,1.542598388671875,-0.9799346923828125,0.014434814453125,0.0042724609375
1690838453816638500,1.552638427734375,-0.9794921875,0.0152130126953125,0.0057830810546875
1690838453826678500,1.562678466796875,-0.977935791015625,0.015228271484375,0.005615234375
1690838453836719600,1.5727197265625,-0.9771270751953125,0.015533447265625,0.00213623046875
1690838453846790700,1.582790771484375,-0.977569580078125,0.0151519775390625,-0.0001983642578125
1690838453856830500,1.59283056640625,-0.97698974609375,0.013671875,-0.001861572265625
1690838453866870500,1.60287060546875,-0.9763946533203125,0.01275634765625,-0.0023651123046875
1690838453876910300,1.612910400390625,-0.97760009765625,0.0120391845703125,-0.00146484375
1690838453886951400,1.622951416015625,-0.9803619384765625,0.0115814208984375,0.000579833984375
1690838453896991500,1.632991455078125,-0.9793548583984375,0.0107574462890625,0.002655029296875
1690838453907031600,1.643031494140625,-0.9793853759765625,0.010589599609375,0.0034942626953125
1690838453917072600,1.65307275390625,-0.9800567626953125,0.012054443359375,0.002960205078125
1690838453927112400,1.663112548828125,-0.97900390625,0.0117034912109375,0.002471923828125
1690838453937152500,1.673152587890625,-0.9786224365234375,0.012420654296875,0.0014495849609375
1690838453947192300,1.6831923828125,-0.9770965576171875,0.01300048828125,0.0009307861328125
1690838453957233400,1.6932333984375,-0.977325439453125,0.0137481689453125,0.0008392333984375
1690838453967273500,1.7032734375,-0.977294921875,0.014617919921875,0.001495361328125
1690838453977313500,1.7133134765625,-0.979034423828125,0.014068603515625,0.00177001953125
1690838453987354600,1.723354736328125,-0.978363037109375,0.0137176513671875,0.000640869140625
1690838453997394700,1.733394775390625,-0.9792938232421875,0.0126800537109375,-0.0000152587890625
1690838454007434500,1.7434345703125,-0.9794158935546875,0.012786865234375,-0.000091552734375
1690838454017505300,1.75350537109375,-0.9795684814453125,0.0134735107421875,0.0005340576171875
1690838454027545300,1.76354541015625,-0.9774322509765625,0.013031005859375,0.0009918212890625
1690838454037585400,1.77358544921875,-0.977630615234375,0.0123443603515625,0.0025482177734375
1690838454047626500,1.78362646484375,-0.9786224365234375,0.0128021240234375,0.0029449462890625
1690838454057666600,1.79366650390625,-0.9775238037109375,0.0116424560546875,0.0028533935546875
1690838454067706400,1.803706298828125,-0.978424072265625,0.01202392578125,0.00140380859375
1690838454077747500,1.81374755859375,-0.9794769287109375,0.012725830078125,-0.0001678466796875
1690838454087787300,1.823787353515625,-0.9788970947265625,0.01275634765625,-0.0008087158203125
1690838454097827300,1.833827392578125,-0.97894287109375,0.0136260986328125,-0.000518798828125
1690838454107867400,1.843867431640625,-0.9800567626953125,0.0150299072265625,0.001617431640625
1690838454117908500,1.853908447265625,-0.97991943359375,0.015167236328125,0.0024566650390625
1690838454127948500,1.863948486328125,-0.9788970947265625,0.0149383544921875,0.0037841796875
1690838454137988600,1.873988525390625,-0.976959228515625,0.0149383544921875,0.0041656494140625
1690838454148029400,1.884029541015625,-0.9784698486328125,0.01495361328125,0.0032958984375
1690838454158069200,1.8940693359375,-0.978057861328125,0.0136260986328125,0.00103759765625
1690838454168109300,1.904109375,-0.9775848388671875,0.01220703125,0.0000152587890625
1690838454178149400,1.9141494140625,-0.9792938232421875,0.01202392578125,-0.0007781982421875
1690838454188220400,1.924220458984375,-0.9798736572265625,0.011932373046875,-0.00054931640625
1690838454198261500,1.934261474609375,-0.9803314208984375,0.011505126953125,0.000885009765625
1690838454208301600,1.944301513671875,-0.981414794921875,0.011749267578125,0.0016937255859375
1690838454218341400,1.95434130859375,-0.980255126953125,0.0123291015625,0.0017547607421875
1690838454228381400,1.96438134765625,-0.9804840087890625,0.01348876953125,0.0010528564453125
1690838454238422300,1.97442236328125,-0.9787445068359375,0.0143280029296875,0.0009002685546875
1690838454248462300,1.98446240234375,-0.97802734375,0.014404296875,0.001312255859375
1690838454258502400,1.99450244140625,-0.976654052734375,0.0152587890625,0.001861572265625
1690838454268542500,2.00454248046875,-0.9784698486328125,0.01397705078125,0.0026397705078125
1690838454278583600,2.01458349609375,-0.9794158935546875,0.013763427734375,0.001800537109375
1690838454288623600,2.02462353515625,-0.9782257080078125,0.01324462890625,0.0015869140625
1690838454298663400,2.034663330078125,-0.97943115234375,0.012481689453125,0.0009002685546875
1690838454308704300,2.044704345703125,-0.9805145263671875,0.0107879638671875,-0.00006103515625
1690838454318744300,2.054744384765625,-0.9799346923828125,0.0113372802734375,-0.0001983642578125
1690838454328784400,2.064784423828125,-0.9793853759765625,0.0118408203125,-0.000030517578125
1690838454338824400,2.074824462890625,-0.9794769287109375,0.0121612548828125,0.001190185546875
1690838454348865500,2.084865478515625,-0.97998046875,0.013702392578125,0.0019378662109375
1690838454358926000,2.094926025390625,-0.9787139892578125,0.0142669677734375,0.0024261474609375
1690838454368966000,2.1049658203125,-0.978851318359375,0.0144805908203125,0.003509521484375
1690838454379006000,2.115005859375,-0.9786376953125,0.0137786865234375,0.0033111572265625
1690838454389046000,2.1250458984375,-0.978912353515625,0.0140228271484375,0.0019683837890625
1690838454399086800,2.1350869140625,-0.9785919189453125,0.0138092041015625,0.000518798828125
1690838454409127000,2.145126953125,-0.9784698486328125,0.014434814453125,0.0000457763671875
1690838454419167000,2.1551669921875,-0.9798583984375,0.01324462890625,-0.00030517578125
1690838454429208000,2.1652080078125,-0.9787750244140625,0.0121002197265625,-0.00048828125
1690838454439248000,2.175247802734375,-0.97869873046875,0.0118865966796875,0.0003662109375
1690838454449288000,2.185287841796875,-0.9793701171875,0.0121002197265625,0.0012054443359375
1690838454459328000,2.195327880859375,-0.97979736328125,0.011871337890625,0.0016326904296875
1690838454469368800,2.205368896484375,-0.9794464111328125,0.0115814208984375,0.001556396484375
1690838454479409000,2.215408935546875,-0.979522705078125,0.01214599609375,0.002166748046875
1690838454489449000,2.225448974609375,-0.9798736572265625,0.0125274658203125,0.002044677734375
1690838454499490000,2.235489990234375,-0.9794921875,0.01275634765625,0.0014190673828125
1690838454509530000,2.245530029296875,-0.9793853759765625,0.012908935546875,0.001678466796875
1690838454519601000,2.255600830078125,-0.9796142578125,0.0126953125,0.0003204345703125
1690838454529641000,2.265640869140625,-0.978851318359375,0.01373291015625,0.000030517578125
1690838454539681000,2.275680908203125,-0.9792022705078125,0.0144195556640625,-0.0007171630859375
1690838454549721000,2.28572119140625,-0.9789276123046875,0.01458740234375,-0.000213623046875
1690838454559762000,2.295761962890625,-0.978546142578125,0.014312744140625,0.000579833984375
1690838454569802000,2.305802001953125,-0.978912353515625,0.0149688720703125,0.001983642578125
1690838454579841800,2.315841796875,-0.9784698486328125,0.0143280029296875,0.001617431640625
1690838454589883000,2.3258828125,-0.9784393310546875,0.013336181640625,0.0023193359375
1690838454599923000,2.3359228515625,-0.9797821044921875,0.0115509033203125,0.001983642578125
1690838454609963000,2.345962890625,-0.9803924560546875,0.01153564453125,0.001617431640625
1690838454620003000,2.356003173828125,-0.979705810546875,0.0120697021484375,0.002044677734375
1690838454630044000,2.3660439453125,-0.97979736328125,0.01123046875,0.0015106201171875
1690838454640084000,2.376083984375,-0.9794158935546875,0.012603759765625,0.00067138671875
1690838454650124000,2.3861240234375,-0.979949951171875,0.013824462890625,0.00091552734375
1690838454660165000,2.3961650390625,-0.9790191650390625,0.0138092041015625,0.001007080078125
1690838454670205000,2.406204833984375,-0.9779815673828125,0.0136871337890625,0.0008087158203125
1690838454680245000,2.416244873046875,-0.9786529541015625,0.013946533203125,0.0010833740234375
1690838454690316000,2.42631591796875,-0.978424072265625,0.014129638671875,0.0012664794921875
1690838454700356000,2.436356201171875,-0.9791259765625,0.0132293701171875,0.0009765625
1690838454710397000,2.44639697265625,-0.9799957275390625,0.012451171875,0.0016021728515625
1690838454720437000,2.45643701171875,-0.980255126953125,0.01214599609375,0.0016021728515625
1690838454730476800,2.466476806640625,-0.9792022705078125,0.0118408203125,0.0020294189453125
1690838454740516900,2.476516845703125,-0.9796600341796875,0.0116729736328125,0.001861572265625
1690838454750558000,2.486557861328125,-0.981170654296875,0.01251220703125,0.0009918212890625
1690838454760598000,2.496597900390625,-0.9797210693359375,0.012786865234375,0.001068115234375
1690838454770638000,2.50663818359375,-0.979156494140625,0.012725830078125,0.000701904296875
1690838454780678100,2.51667822265625,-0.97906494140625,0.01348876953125,0.00006103515625
1690838454790719000,2.526718994140625,-0.978302001953125,0.01318359375,0.000335693359375
1690838454800758800,2.5367587890625,-0.977935791015625,0.01287841796875,0.0014190673828125
1690838454810798800,2.546798828125,-0.9791259765625,0.0132904052734375,0.0018463134765625
1690838454820840000,2.55683984375,-0.9804840087890625,0.014068603515625,0.0028076171875
1690838454830880000,2.5668798828125,-0.979644775390625,0.0144195556640625,0.0031890869140625
1690838454840920000,2.576920166015625,-0.9805755615234375,0.0136871337890625,0.00213623046875
1690838454850991000,2.5869912109375,-0.9804229736328125,0.0143280029296875,0.002227783203125
1690838454861031200,2.59703125,-0.9798583984375,0.014739990234375,0.0012969970703125
1690838454871072000,2.607072021484375,-0.9788360595703125,0.0134124755859375,0.0000152587890625
1690838454881111800,2.61711181640625,-0.9786224365234375,0.0128936767578125,0.0003509521484375
1690838454891152000,2.62715185546875,-0.9784698486328125,0.0115814208984375,0.00054931640625
1690838454901192000,2.63719189453125,-0.9790191650390625,0.00982666015625,-0.0006256103515625
1690838454911233000,2.64723291015625,-0.9788818359375,0.0096588134765625,-0.0002288818359375
1690838454921273000,2.657273193359375,-0.9810333251953125,0.0090484619140625,0.0006866455078125
1690838454931313200,2.667313232421875,-0.981719970703125,0.010009765625,0.0020751953125
1690838454941354000,2.67735400390625,-0.9826812744140625,0.0119171142578125,0.0027008056640625
1690838454951393800,2.687393798828125,-0.9825897216796875,0.0135345458984375,0.0031280517578125
1690838454961433900,2.697433837890625,-0.980499267578125,0.0153961181640625,0.0025482177734375
1690838454971474000,2.707473876953125,-0.9792938232421875,0.0172271728515625,0.001190185546875
1690838454981515000,2.717514892578125,-0.9775390625,0.01702880859375,-0.0011444091796875
1690838454991555000,2.72755517578125,-0.9766082763671875,0.016387939453125,-0.00152587890625
1690838455001595100,2.73759521484375,-0.9760284423828125,0.0140838623046875,-0.0013427734375
1690838455011636000,2.747635986328125,-0.9776153564453125,0.012481689453125,-0.00006103515625
1690838455021706000,2.7577060546875,-0.97906494140625,0.010894775390625,0.0018768310546875
1690838455031746800,2.767746826171875,-0.98126220703125,0.0099334716796875,0.0039520263671875
1690838455041787000,2.777786865234375,-0.98260498046875,0.0086822509765625,0.0049285888671875
1690838455051827000,2.787826904296875,-0.9819793701171875,0.0099334716796875,0.0043182373046875
1690838455061867000,2.797866943359375,-0.9818115234375,0.011444091796875,0.003173828125
1690838455071908000,2.807908203125,-0.9802703857421875,0.0125732421875,0.0008697509765625
1690838455081948200,2.8179482421875,-0.97943115234375,0.0154876708984375,-0.0014801025390625
1690838455091988000,2.827988037109375,-0.97760009765625,0.0172271728515625,-0.0022735595703125
1690838455102028800,2.83802880859375,-0.9751739501953125,0.0156402587890625,-0.0015716552734375
1690838455112068900,2.84806884765625,-0.976531982421875,0.0156402587890625,-0.000732421875
1690838455122109000,2.85810888671875,-0.978118896484375,0.0142669677734375,0.0012664794921875
1690838455132149000,2.86814892578125,-0.9788665771484375,0.0129852294921875,0.0030364990234375
1690838455142190000,2.878190185546875,-0.980499267578125,0.0113525390625,0.00347900390625
1690838455152230100,2.888230224609375,-0.982757568359375,0.0099334716796875,0.0035400390625
1690838455162270000,2.89827001953125,-0.981842041015625,0.009765625,0.0017547607421875
1690838455172311000,2.90831103515625,-0.982177734375,0.0098724365234375,0.0007781982421875
1690838455182380800,2.918380859375,-0.98114013671875,0.010498046875,0.0001678466796875
1690838455192422000,2.928421875,-0.980072021484375,0.012481689453125,-0.00103759765625
1690838455202462000,2.9384619140625,-0.978759765625,0.0136566162109375,-0.000762939453125
1690838455212502000,2.948501953125,-0.977813720703125,0.014923095703125,-0.00091552734375
1690838455222542000,2.9585419921875,-0.9777069091796875,0.0155487060546875,0.000244140625
1690838455232583200,2.968583251953125,-0.9785308837890625,0.016082763671875,0.002044677734375
1690838455242623000,2.978623046875,-0.9789581298828125,0.01495361328125,0.0025634765625
1690838455252662800,2.988662841796875,-0.979339599609375,0.0138092041015625,0.0033111572265625
1690838455262703900,2.998703857421875,-0.9806365966796875,0.0135498046875,0.003082275390625
1690838455272744000,3.008743896484375,-0.981109619140625,0.0127716064453125,0.00146484375
1690838455282784000,3.018783935546875,-0.9807281494140625,0.0127105712890625,-0.0002288818359375
1690838455292824000,3.028823974609375,-0.980865478515625,0.01239013671875,-0.0001373291015625
1690838455302865200,3.038865234375,-0.9796600341796875,0.01263427734375,0.0005340576171875
1690838455312905000,3.048905029296875,-0.9789276123046875,0.01214599609375,0
1690838455322944800,3.05894482421875,-0.97930908203125,0.012176513671875,-0.00018310546875
1690838455332985900,3.06898583984375,-0.9785003662109375,0.012786865234375,0.0006103515625
1690838455343026000,3.07902587890625,-0.9796905517578125,0.0138092041015625,0.0015106201171875
1690838455353097000,3.089096923828125,-0.9798431396484375,0.0141448974609375,0.0027008056640625
1690838455363139000,3.09913916015625,-0.9803924560546875,0.0137786865234375,0.0032958984375
1690838455373179100,3.10917919921875,-0.980682373046875,0.0139007568359375,0.002593994140625
1690838455383220200,3.11922021484375,-0.9803466796875,0.0136260986328125,0.001434326171875
1690838455393260300,3.12926025390625,-0.9794769287109375,0.0135650634765625,0.0000457763671875
1690838455403300400,3.13930029296875,-0.9784698486328125,0.013519287109375,-0.000732421875
1690838455413340200,3.149340087890625,-0.9786224365234375,0.0131378173828125,-0.000579833984375
1690838455423381000,3.159381103515625,-0.978912353515625,0.0126495361328125,-0.0003662109375
1690838455433421000,3.169421142578125,-0.9790496826171875,0.012847900390625,0.001220703125
1690838455443461000,3.179461181640625,-0.980438232421875,0.0121002197265625,0.001678466796875
1690838455453502200,3.189502197265625,-0.980743408203125,0.011993408203125,0.00274658203125
1690838455463542300,3.199542236328125,-0.9807891845703125,0.0126495361328125,0.0023345947265625
1690838455473582300,3.209582275390625,-0.980499267578125,0.011993408203125,0.0026397705078125
1690838455483622400,3.219622314453125,-0.980133056640625,0.011993408203125,0.0017547607421875
1690838455493663200,3.229663330078125,-0.979461669921875,0.01318359375,0.001373291015625
1690838455503703000,3.239703125,-0.979339599609375,0.01507568359375,0.0009765625
1690838455513774000,3.249774169921875,-0.978729248046875,0.0149383544921875,0.000274658203125
1690838455523814100,3.259814208984375,-0.979339599609375,0.0140533447265625,0.00030517578125
1690838455533854200,3.269854248046875,-0.9788818359375,0.0135955810546875,0.0007781982421875
1690838455543895300,3.279895263671875,-0.97900390625,0.013580322265625,0.0011444091796875
1690838455553935400,3.289935302734375,-0.980560302734375,0.01287841796875,0.0015869140625
1690838455563975200,3.29997509765625,-0.9807891845703125,0.0119476318359375,0.0020904541015625
1690838455574015200,3.31001513671875,-0.98138427734375,0.0112152099609375,0.002685546875
1690838455584056000,3.32005615234375,-0.982635498046875,0.0102996826171875,0.002288818359375
1690838455594096000,3.33009619140625,-0.9810333251953125,0.0119781494140625,0.001708984375
1690838455604136200,3.34013623046875,-0.9807891845703125,0.0130767822265625,0.0003662109375
1690838455614177300,3.35017724609375,-0.9801788330078125,0.0131378173828125,0.0004119873046875
1690838455624217300,3.36021728515625,-0.9800262451171875,0.01416015625,0.000152587890625
1690838455634257400,3.37025732421875,-0.97955322265625,0.0142822265625,-0.0001678466796875
1690838455644297200,3.380297119140625,-0.9798583984375,0.01531982421875,0.0005950927734375
1690838455654338000,3.390338134765625,-0.9796142578125,0.0139617919921875,0.00152587890625
1690838455664378000,3.400378173828125,-0.97998046875,0.0139007568359375,0.00213623046875
1690838455674418200,3.410418212890625,-0.9806365966796875,0.0125732421875,0.0028076171875
1690838455684489200,3.4204892578125,-0.980194091796875,0.0121612548828125,0.0030517578125
1690838455694529300,3.430529296875,-0.9812164306640625,0.012054443359375,0.0023345947265625
1690838455704570400,3.4405703125,-0.98126220703125,0.0116729736328125,0.0014190673828125
1690838455714610200,3.450610107421875,-0.98095703125,0.011749267578125,0.0005645751953125
1690838455724650200,3.460650146484375,-0.9798126220703125,0.0123748779296875,0
1690838455734690300,3.470690185546875,-0.9798736572265625,0.0125579833984375,-0.0000762939453125
1690838455744731100,3.480731201171875,-0.98052978515625,0.01348876953125,0.000030517578125
1690838455754771200,3.490771240234375,-0.9806671142578125,0.013458251953125,0.0012664794921875
1690838455764811300,3.500811279296875,-0.980010986328125,0.013458251953125,0.0016021728515625
1690838455774852400,3.510852294921875,-0.980316162109375,0.0136871337890625,0.001861572265625
1690838455784892400,3.520892333984375,-0.98028564453125,0.0135498046875,0.0020599365234375
1690838455794932200,3.53093212890625,-0.9804840087890625,0.012939453125,0.001861572265625
1690838455804972300,3.54097216796875,-0.98028564453125,0.013519287109375,0.0023040771484375
1690838455815013000,3.55101318359375,-0.980804443359375,0.0132904052734375,0.0018310546875
1690838455825053200,3.56105322265625,-0.9801177978515625,0.0135650634765625,0.0013427734375
1690838455835093200,3.57109326171875,-0.97967529296875,0.0135040283203125,0.000640869140625
1690838455845164300,3.581164306640625,-0.9812774658203125,0.01287841796875,0.00042724609375
1690838455855204000,3.5912041015625,-0.979949951171875,0.012725830078125,0.00042724609375
1690838455865245200,3.6012451171875,-0.979034423828125,0.0134124755859375,0.0010833740234375
1690838455875285200,3.61128515625,-0.9802093505859375,0.01318359375,0.001678466796875
1690838455885325300,3.6213251953125,-0.98052978515625,0.0122222900390625,0.0016632080078125
1690838455895366100,3.6313662109375,-0.981048583984375,0.0126800537109375,0.0027008056640625
1690838455905406200,3.64140625,-0.98040771484375,0.0128936767578125,0.0023040771484375
1690838455915446300,3.6514462890625,-0.9812469482421875,0.0131683349609375,0.0019683837890625
1690838455925486300,3.661486328125,-0.9803314208984375,0.013275146484375,0.0013580322265625
1690838455935527400,3.67152734375,-0.9800567626953125,0.013214111328125,0.000701904296875
1690838455945567200,3.681567138671875,-0.98046875,0.013580322265625,0.0002288818359375
1690838455955607300,3.691607177734375,-0.9794158935546875,0.0137939453125,0.000762939453125
1690838455965648100,3.701648193359375,-0.9793243408203125,0.014068603515625,0.0004730224609375
1690838455975688200,3.711688232421875,-0.980621337890625,0.0126953125,0.0008087158203125
1690838455985728300,3.721728271484375,-0.9810791015625,0.0130615234375,0.0020904541015625
1690838455995768300,3.731768310546875,-0.980804443359375,0.0129241943359375,0.002777099609375
1690838456005809400,3.741809326171875,-0.9809112548828125,0.01220703125,0.0019989013671875
1690838456015879200,3.751879150390625,-0.9811859130859375,0.012542724609375,0.0023040771484375
1690838456025920300,3.761920166015625,-0.980621337890625,0.013031005859375,0.0015716552734375
1690838456035960300,3.771960205078125,-0.980743408203125,0.01324462890625,0.000701904296875
1690838456046000000,3.782000244140625,-0.9797821044921875,0.0129241943359375,-0.0005950927734375
1690838456056041200,3.792041259765625,-0.980194091796875,0.012908935546875,0.00146484375
1690838456066081300,3.802081298828125,-0.9801788330078125,0.0132904052734375,0.0010986328125
1690838456076121000,3.81212109375,-0.980316162109375,0.0130157470703125,0.0005340576171875
1690838456086161200,3.8221611328125,-0.9799652099609375,0.0127410888671875,0.0017242431640625
1690838456096202200,3.8322021484375,-0.9804840087890625,0.0131378173828125,0.0023651123046875
1690838456106242300,3.8422421875,-0.98114013671875,0.0126800537109375,0.001983642578125
1690838456116282000,3.8522822265625,-0.9803619384765625,0.0128631591796875,0.0016937255859375
1690838456126323200,3.8623232421875,-0.9804840087890625,0.0132904052734375,0.0015106201171875
1690838456136363300,3.87236328125,-0.979736328125,0.0134429931640625,0.0008544921875
1690838456146403300,3.8824033203125,-0.980133056640625,0.0122833251953125,0.0008697509765625
1690838456156443100,3.892443115234375,-0.9801025390625,0.0139312744140625,0.001373291015625
1690838456166484200,3.902484130859375,-0.9807891845703125,0.0142364501953125,0.0006256103515625
1690838456176555300,3.91255517578125,-0.98028564453125,0.01373291015625,0.0010986328125
1690838456186595300,3.92259521484375,-0.97991943359375,0.013763427734375,0.0011749267578125
1690838456196635100,3.93263525390625,-0.9812164306640625,0.0130157470703125,0.00079345703125
1690838456206675200,3.94267529296875,-0.98236083984375,0.0131072998046875,0.001983642578125
1690838456216716300,3.95271630859375,-0.9814910888671875,0.0133819580078125,0.0017242431640625
1690838456226756000,3.962756103515625,-0.981353759765625,0.01287841796875,0.00177001953125
1690838456236796200,3.972796142578125,-0.98138427734375,0.0130615234375,0.0011138916015625
1690838456246836200,3.982836181640625,-0.981170654296875,0.0132598876953125,0.00146484375
1690838456256877000,3.992876953125,-0.9808349609375,0.01275634765625,0.0018310546875
1690838456266917000,4.002917236328125,-0.9808807373046875,0.013031005859375,0.0008544921875
1690838456276957200,4.012957275390625,-0.981292724609375,0.0123748779296875,0.0013885498046875
1690838456286998300,4.022998291015625,-0.981109619140625,0.0126800537109375,0.0009002685546875
1690838456297038300,4.033038330078125,-0.9804534912109375,0.01312255859375,0.0013427734375
1690838456307078100,4.043078125,-0.97979736328125,0.0131072998046875,0.0011444091796875
1690838456317118200,4.0531181640625,-0.980621337890625,0.01318359375,0.0022430419921875
1690838456327159000,4.063158935546875,-0.980316162109375,0.0132904052734375,0.0017852783203125
1690838456337199000,4.07319921875,-0.9794158935546875,0.012847900390625,0.001220703125
1690838456347270100,4.083270263671875,-0.9695587158203125,-0.0037841796875,-0.020111083984375
1690838456357300200,4.09330029296875,-1.029571533203125,-0.023345947265625,0.0291595458984375
1690838456367340300,4.10334033203125,-0.94989013671875,0.029541015625,0.0134735107421875
1690838456377381400,4.11338134765625,-0.99102783203125,0.0185394287109375,-0.003875732421875
1690838456387421400,4.12342138671875,-0.968994140625,0.028411865234375,-0.005645751953125
1690838456397461500,4.13346142578125,-0.9739532470703125,0.0295257568359375,-0.009796142578125
1690838456407502300,4.14350244140625,-0.972137451171875,0.0299072265625,-0.008026123046875
1690838456417542100,4.153542236328125,-0.9748382568359375,0.0307159423828125,-0.0038909912109375
1690838456427582200,4.163582275390625,-0.974609375,0.0288848876953125,0.0009307861328125
1690838456437622300,4.173622314453125,-0.9813385009765625,0.02679443359375,0.00555419921875
1690838456447663400,4.183663330078125,-0.975616455078125,0.0230255126953125,0.0069427490234375
1690838456457703400,4.193703369140625,-0.9840850830078125,0.0162200927734375,0.0074005126953125
1690838456467743500,4.203743408203125,-0.9828948974609375,0.010223388671875,0.0045623779296875
1690838456477784300,4.213784423828125,-0.984283447265625,0.0045928955078125,0.0001068115234375
1690838456487824400,4.223824462890625,-0.98095703125,-0.0002288818359375,-0.003082275390625
1690838456497864200,4.2338642578125,-0.989501953125,-0.0023040771484375,-0.0040283203125
1690838456507935200,4.243935302734375,-0.980255126953125,-0.0001220703125,-0.001068115234375
1690838456517975300,4.253975341796875,-0.9888458251953125,0.00360107421875,0.002838134765625
1690838456528015400,4.264015380859375,-0.983001708984375,0.009429931640625,0.0051727294921875
1690838456538056400,4.274056396484375,-0.982818603515625,0.0144500732421875,0.00531005859375
1690838456548096500,4.284096435546875,-0.98004150390625,0.0195770263671875,0.0041046142578125
1690838456558136300,4.29413623046875,-0.977264404296875,0.0225830078125,0.00128173828125
1690838456568177200,4.30417724609375,-0.978973388671875,0.024627685546875,-0.0010223388671875
1690838456578217200,4.31421728515625,-0.9733734130859375,0.0250091552734375,-0.0016326904296875
1690838456588257300,4.32425732421875,-0.9746246337890625,0.0246124267578125,-0.0012054443359375
1690838456598297300,4.33429736328125,-0.97808837890625,0.02313232421875,-0.0001220703125
1690838456608338400,4.34433837890625,-0.9771881103515625,0.0208892822265625,0.0013885498046875
1690838456618378500,4.35437841796875,-0.9799652099609375,0.0179595947265625,0.0023193359375
1690838456628418600,4.36441845703125,-0.983062744140625,0.0142364501953125,0.00225830078125
1690838456638459400,4.37445947265625,-0.9822235107421875,0.0107269287109375,0.001190185546875
1690838456648499200,4.384499267578125,-0.9821014404296875,0.00787353515625,-0.000244140625
1690838456658539300,4.394539306640625,-0.984832763671875,0.00604248046875,-0.0014801025390625
1690838456668579300,4.404579345703125,-0.982574462890625,0.0061798095703125,-0.00048828125
1690838456678650400,4.414650390625,-0.9831695556640625,0.007598876953125,0.0007171630859375
1690838456688691500,4.42469140625,-0.9826202392578125,0.0094146728515625,0.002471923828125
1690838456698731500,4.4347314453125,-0.9818115234375,0.0130157470703125,0.0030517578125
1690838456708771300,4.444771240234375,-0.981689453125,0.0149993896484375,0.0030517578125
1690838456718811400,4.454811279296875,-0.9777069091796875,0.0174102783203125,0.002410888671875
1690838456728852200,4.464852294921875,-0.979949951171875,0.019378662109375,0.0011444091796875
1690838456738892300,4.474892333984375,-0.9771728515625,0.020355224609375,-0.0007476806640625
1690838456748932400,4.484932373046875,-0.9778594970703125,0.0213165283203125,-0.0008392333984375
1690838456758972400,4.494972412109375,-0.9788970947265625,0.0212860107421875,-0.000946044921875
1690838456769013500,4.505013427734375,-0.9796600341796875,0.02001953125,-0.0004119873046875
1690838456779053600,4.515053466796875,-0.9796905517578125,0.0185546875,0.00054931640625
1690838456789093400,4.52509326171875,-0.980926513671875,0.01544189453125,0.0012054443359375
1690838456799134200,4.53513427734375,-0.9808502197265625,0.0132598876953125,0.0016632080078125
1690838456809174300,4.54517431640625,-0.982940673828125,0.0117950439453125,0.0024871826171875
1690838456819214300,4.55521435546875,-0.9820404052734375,0.0108184814453125,0.00274658203125
1690838456829254400,4.56525439453125,-0.983154296875,0.0094451904296875,0.0028533935546875
1690838456839325400,4.575325439453125,-0.98291015625,0.0100555419921875,0.00262451171875
1690838456849366500,4.585366455078125,-0.9822235107421875,0.0113525390625,0.0015411376953125
1690838456859406300,4.59540625,-0.9818115234375,0.01361083984375,0.0003662109375
1690838456869446400,4.6054462890625,-0.9823455810546875,0.014801025390625,-0.0006103515625
1690838456879486200,4.615486328125,-0.9796142578125,0.016204833984375,-0.00048828125
1690838456889527300,4.62552734375,-0.9797821044921875,0.0176544189453125,0.000213623046875
1690838456899567400,4.6355673828125,-0.9794921875,0.01904296875,0.0007476806640625
1690838456909607400,4.645607421875,-0.9796905517578125,0.018829345703125,0.001617431640625
1690838456919648500,4.6556484375,-0.979248046875,0.0194549560546875,0.0025177001953125
1690838456929688300,4.665688232421875,-0.9799346923828125,0.019134521484375,0.0017242431640625
1690838456939728400,4.675728271484375,-0.98126220703125,0.0165557861328125,0.001434326171875
1690838456949768200,4.685768310546875,-0.981170654296875,0.0154876708984375,0.0008544921875
1690838456959809300,4.695809326171875,-0.9807586669921875,0.0153350830078125,-0.000030517578125
1690838456969849300,4.705849365234375,-0.9806365966796875,0.0136260986328125,0.0011444091796875
1690838456979889400,4.715889404296875,-0.98077392578125,0.0123748779296875,0.000885009765625
1690838456989930500,4.725930419921875,-0.9807586669921875,0.0124969482421875,0.0009918212890625
1690838456999970600,4.735970458984375,-0.98138427734375,0.0128173828125,0.001861572265625
1690838457010041300,4.746041259765625,-0.9818572998046875,0.013580322265625,0.001220703125
1690838457020081400,4.756081298828125,-0.98150634765625,0.0137786865234375,0.0004119873046875
1690838457030121200,4.766121337890625,-0.980712890625,0.014739990234375,0.00103759765625
1690838457040161300,4.776161376953125,-0.97998046875,0.0155792236328125,0.00091552734375
1690838457050202400,4.786202392578125,-0.9807586669921875,0.0168609619140625,0.0021209716796875
1690838457060242400,4.796242431640625,-0.9802093505859375,0.0173797607421875,0.001800537109375
1690838457070282200,4.8062822265625,-0.9804534912109375,0.018035888671875,0.001983642578125
1690838457080323300,4.8163232421875,-0.9814453125,0.0172119140625,0.0017242431640625
1690838457090363400,4.82636328125,-0.9803466796875,0.016754150390625,0.0010528564453125
1690838457100403200,4.8364033203125,-0.98138427734375,0.0161590576171875,0.000518798828125
1690838457110443300,4.846443359375,-0.980743408203125,0.0159759521484375,-0.0002899169921875
1690838457120484400,4.856484375,-0.98077392578125,0.014892578125,-0.00079345703125
1690838457130524400,4.8665244140625,-0.981231689453125,0.0141448974609375,0.0001983642578125
1690838457140564500,4.876564453125,-0.981597900390625,0.013946533203125,0.00140380859375
1690838457150605600,4.88660546875,-0.9806976318359375,0.013916015625,0.00244140625
1690838457160645000,4.89664501953125,-0.982635498046875,0.014068603515625,0.0037078857421875
1690838457170716200,4.906716064453125,-0.9818115234375,0.014007568359375,0.0020599365234375
1690838457180756200,4.916756103515625,-0.9813232421875,0.014190673828125,0.001678466796875
1690838457190796300,4.92679638671875,-0.98077392578125,0.0149383544921875,0.0016632080078125
1690838457200837400,4.93683740234375,-0.9806060791015625,0.0162811279296875,0.0008697509765625
1690838457210877400,4.94687744140625,-0.980255126953125,0.016510009765625,0.0004425048828125
1690838457220917200,4.956917236328125,-0.9797821044921875,0.015716552734375,0.001068115234375
1690838457230957300,4.966957275390625,-0.981048583984375,0.0165557861328125,0.0011444091796875
1690838457240998100,4.976998046875,-0.980438232421875,0.0174713134765625,0.0006256103515625
1690838457251038200,4.9870380859375,-0.979766845703125,0.0162506103515625,0.00128173828125
1690838457261078300,4.997078369140625,-0.981658935546875,0.0157318115234375,0.002044677734375
1690838457271118300,5.007118408203125,-0.980194091796875,0.014923095703125,0.002044677734375
1690838457281159400,5.017159423828125,-0.9798431396484375,0.014495849609375,0.0024261474609375
1690838457291199500,5.027199462890625,-0.98016357421875,0.0149383544921875,0.00274658203125
1690838457301239300,5.0372392578125,-0.981353759765625,0.0140533447265625,0.001708984375
1690838457311280000,5.047280029296875,-0.981842041015625,0.01446533203125,0.0012359619140625
1690838457321320200,5.0573203125,-0.981719970703125,0.014556884765625,0.0001983642578125
1690838457331360300,5.0673603515625,-0.98150634765625,0.01422119140625,-0.0015716552734375
1690838457341431300,5.077431396484375,-0.98052978515625,0.01519775390625,-0.0011444091796875
1690838457351471400,5.087471435546875,-0.9806365966796875,0.015533447265625,-0.0005035400390625
1690838457361506000,5.097506103515625,-0.980316162109375,0.016326904296875,0.0011138916015625
1690838457371546000,5.107546142578125,-0.981536865234375,0.01666259765625,0.0019989013671875
1690838457381586200,5.117586181640625,-0.9810638427734375,0.0163726806640625,0.0032196044921875
1690838457391626000,5.1276259765625,-0.98199462890625,0.0156707763671875,0.0032958984375
1690838457401667000,5.1376669921875,-0.9824066162109375,0.014892578125,0.0029144287109375
1690838457411707000,5.147706787109375,-0.980133056640625,0.0152435302734375,0.000732421875
1690838457421747000,5.157746826171875,-0.9807281494140625,0.0146484375,-0.0007476806640625
1690838457431788000,5.1677880859375,-0.9808349609375,0.014617919921875,-0.00140380859375
1690838457441828000,5.177828125,-0.9808502197265625,0.01434326171875,-0.0004730224609375
1690838457451868200,5.1878681640625,-0.980987548828125,0.0145721435546875,0.0003509521484375
1690838457461908200,5.197908203125,-0.98065185546875,0.0155181884765625,0.0007781982421875
1690838457471949000,5.207948974609375,-0.9818115234375,0.0149688720703125,0.0020751953125
1690838457481988900,5.21798876953125,-0.9808807373046875,0.015106201171875,0.0027313232421875
1690838457492029000,5.22802880859375,-0.980499267578125,0.01580810546875,0.00286865234375
1690838457502100000,5.238099853515625,-0.98089599609375,0.0157470703125,0.0019683837890625
1690838457512140000,5.24814013671875,-0.9806976318359375,0.0156402587890625,0.001556396484375
1690838457522181000,5.25818115234375,-0.9803466796875,0.0155792236328125,0.00177001953125
1690838457532221200,5.26822119140625,-0.980987548828125,0.01544189453125,0.00177001953125
1690838457542261000,5.278260986328125,-0.9817962646484375,0.0153656005859375,0.00091552734375
1690838457552301000,5.288301025390625,-0.9815673828125,0.0152587890625,-0.0007171630859375
1690838457562342000,5.298341796875,-0.9815826416015625,0.0144195556640625,-0.00042724609375
1690838457572382000,5.3083818359375,-0.980560302734375,0.014678955078125,-0.0007171630859375
1690838457582422000,5.318422119140625,-0.981658935546875,0.014617919921875,-0.000213623046875
1690838457592463000,5.328463134765625,-0.9817657470703125,0.01580810546875,0.002044677734375
1690838457602503200,5.338503173828125,-0.9805755615234375,0.015472412109375,0.0030059814453125
1690838457612543200,5.348543212890625,-0.981170654296875,0.01544189453125,0.0039520263671875
1690838457622583000,5.3585830078125,-0.98126220703125,0.0158538818359375,0.003936767578125
1690838457632623900,5.368623779296875,-0.9810791015625,0.0152130126953125,0.0033721923828125
1690838457642664000,5.378663818359375,-0.9807586669921875,0.015228271484375,0.00128173828125
1690838457652704000,5.3887041015625,-0.9811553955078125,0.01513671875,0.0000457763671875
1690838457662745000,5.3987451171875,-0.9803466796875,0.0147705078125,-0.000762939453125
1690838457672815000,5.408815185546875,-0.9815216064453125,0.0148468017578125,-0.0009918212890625
1690838457682856200,5.418856201171875,-0.9815521240234375,0.0147247314453125,-0.0013580322265625
1690838457692896000,5.42889599609375,-0.9802093505859375,0.0146484375,-0.00030517578125
1690838457702935800,5.438935791015625,-0.9818115234375,0.01544189453125,0.00152587890625
1690838457712976000,5.448975830078125,-0.9816436767578125,0.0161285400390625,0.00250244140625
1690838457723017000,5.459016845703125,-0.9808502197265625,0.016021728515625,0.004425048828125
1690838457733057000,5.46905712890625,-0.980072021484375,0.01568603515625,0.005096435546875
1690838457743097000,5.47909716796875,-0.981231689453125,0.0153045654296875,0.003387451171875
1690838457753138200,5.48913818359375,-0.981231689453125,0.01580810546875,0.002166748046875
1690838457763178000,5.499177978515625,-0.9805450439453125,0.0150604248046875,0.000213623046875
1690838457773217800,5.5092177734375,-0.981414794921875,0.014434814453125,-0.0019683837890625
1690838457783257900,5.5192578125,-0.9806365966796875,0.01483154296875,-0.0017852783203125
1690838457793299000,5.529298828125,-0.9814300537109375,0.015350341796875,-0.0017852783203125
1690838457803339000,5.539339111328125,-0.9811248779296875,0.014739990234375,-0.00006103515625
1690838457813379000,5.549379150390625,-0.98162841796875,0.0154876708984375,0.0014190673828125
1690838457823420200,5.559420166015625,-0.9811553955078125,0.01593017578125,0.002685546875
1690838457833490000,5.569489990234375,-0.98126220703125,0.0156097412109375,0.0043792724609375
1690838457843531000,5.579531005859375,-0.98248291015625,0.014404296875,0.0035247802734375
1690838457853570800,5.58957080078125,-0.981048583984375,0.0148773193359375,0.0018310546875
1690838457863611000,5.59961083984375,-0.98028564453125,0.0152740478515625,0.001007080078125
1690838457873652000,5.60965185546875,-0.9807586669921875,0.0146026611328125,-0.000152587890625
1690838457883692000,5.619692138671875,-0.9811248779296875,0.0154266357421875,-0.000732421875
1690838457893732000,5.629732177734375,-0.9805908203125,0.014923095703125,-0.00054931640625
1690838457903772200,5.639772216796875,-0.9807281494140625,0.0158538818359375,0.0008697509765625
1690838457913813000,5.64981298828125,-0.9818115234375,0.015533447265625,0.0020751953125
1690838457923852800,5.659852783203125,-0.9813079833984375,0.015411376953125,0.0018768310546875
1690838457933892900,5.669892822265625,-0.980255126953125,0.0160064697265625,0.001861572265625
1690838457943934000,5.679933837890625,-0.98089599609375,0.0153961181640625,0.0015106201171875
1690838457953974000,5.68997412109375,-0.9813232421875,0.0157623291015625,0.0010986328125
1690838457964014000,5.70001416015625,-0.9799957275390625,0.01531982421875,0.000762939453125
1690838457974054100,5.71005419921875,-0.9809112548828125,0.0157470703125,0.0016632080078125
1690838457984095000,5.720094970703125,-0.98101806640625,0.01580810546875,0.0014190673828125
1690838457994134800,5.730134765625,-0.9813079833984375,0.014801025390625,0.00067138671875
1690838458004205800,5.740205810546875,-0.9812164306640625,0.014678955078125,0.0002899169921875
1690838458014246000,5.750245849609375,-0.9803009033203125,0.0151824951171875,-0.0002899169921875
1690838458024286000,5.760285888671875,-0.9800262451171875,0.015228271484375,0.0002288818359375
1690838458034327000,5.7703271484375,-0.981231689453125,0.015472412109375,0.00006103515625
1690838458044367000,5.7803671875,-0.9801025390625,0.0159149169921875,0.001190185546875
1690838458054407000,5.790406982421875,-0.9805450439453125,0.0159149169921875,0.0016326904296875
1690838458064447000,5.800447021484375,-0.980621337890625,0.014923095703125,0.0020599365234375
1690838458074487800,5.81048779296875,-0.9816131591796875,0.015625,0.0019683837890625
1690838458084527900,5.82052783203125,-0.981964111328125,0.0162353515625,0.00225830078125
1690838458094568000,5.83056787109375,-0.9811553955078125,0.0153656005859375,0.0020599365234375
1690838458104609000,5.840609130859375,-0.9806365966796875,0.0142059326171875,0.0015106201171875
1690838458114649000,5.850649169921875,-0.9816436767578125,0.0149993896484375,0.000396728515625
1690838458124689200,5.860689208984375,-0.9806365966796875,0.0151824951171875,0.00006103515625
1690838458134729000,5.87072900390625,-0.9806365966796875,0.014862060546875,0.000244140625
1690838458144769800,5.880769775390625,-0.9820709228515625,0.0154571533203125,0.00079345703125
1690838458154809900,5.890809814453125,-0.9808349609375,0.015380859375,0.0011444091796875
1690838458164850000,5.900849853515625,-0.9814300537109375,0.015289306640625,0.0013580322265625
1690838458174921000,5.9109208984375,-0.9802703857421875,0.01507568359375,0.001800537109375
1690838458184961000,5.9209609375,-0.98040771484375,0.015533447265625,0.00164794921875
1690838458195002000,5.931002197265625,-0.981414794921875,0.0153045654296875,0.00250244140625
1690838458205042000,5.9410419921875,-0.9808349609375,0.0149688720703125,0.001373291015625
1690838458215082000,5.95108203125,-0.982025146484375,0.014984130859375,0.0004425048828125
1690838458225122000,5.9611220703125,-0.9820404052734375,0.0149993896484375,0.0003509521484375
1690838458235163000,5.971162841796875,-0.98199462890625,0.014984130859375,0.0011444091796875
1690838458245203000,5.981202880859375,-0.981781005859375,0.015411376953125,0.0012359619140625
1690838458255243000,5.991242919921875,-0.9815216064453125,0.0151824951171875,0.0007781982421875
1690838458265284000,6.0012841796875,-0.981658935546875,0.016082763671875,-0.0000457763671875
1690838458275324200,6.01132421875,-0.98065185546875,0.01593017578125,0.0007781982421875
1690838458285364000,6.021364013671875,-0.981048583984375,0.0158843994140625,0.00201416015625
1690838458295404000,6.031404052734375,-0.9817962646484375,0.015655517578125,0.002044677734375
1690838458305444900,6.04144482421875,-0.9810028076171875,0.015350341796875,0.0023345947265625
1690838458315485000,6.05148486328125,-0.980987548828125,0.01531982421875,0.001922607421875
1690838458325525000,6.06152490234375,-0.981170654296875,0.0159149169921875,0.0019989013671875
1690838458335596000,6.071595947265625,-0.9813995361328125,0.015228271484375,0.0015411376953125
1690838458345635800,6.0816357421875,-0.98046875,0.0152435302734375,0.0008087158203125
1690838458355677000,6.091677001953125,-0.979827880859375,0.0144195556640625,0.0004425048828125
1690838458365709300,6.101709228515625,-0.98114013671875,0.015533447265625,0.00042724609375
1690838458375749000,6.1117490234375,-0.9818572998046875,0.0148468017578125,0.0005645751953125
1690838458385790200,6.121790283203125,-0.9809112548828125,0.015045166015625,0.0011138916015625
1690838458395830300,6.131830322265625,-0.980865478515625,0.0150146484375,0.0018157958984375
1690838458405870000,6.1418701171875,-0.98065185546875,0.015472412109375,0.0015716552734375
1690838458415910100,6.15191015625,-0.981842041015625,0.0160064697265625,0.0018157958984375
1690838458425951200,6.161951171875,-0.9814605712890625,0.0158843994140625,0.00189208984375
1690838458435991300,6.1719912109375,-0.9808807373046875,0.015625,0.001220703125
1690838458446031000,6.182031005859375,-0.9812774658203125,0.0159454345703125,0.0017852783203125
1690838458456072200,6.192072265625,-0.9804840087890625,0.015838623046875,0.0020904541015625
1690838458466112300,6.2021123046875,-0.98052978515625,0.0147552490234375,0.0011749267578125
1690838458476152000,6.212152099609375,-0.981170654296875,0.015594482421875,0.0006866455078125
1690838458486192000,6.222192138671875,-0.9806671142578125,0.0156097412109375,0.000732421875
1690838458496263200,6.23226318359375,-0.9810028076171875,0.0151214599609375,0.0003662109375
1690838458506303200,6.24230322265625,-0.9814300537109375,0.0164031982421875,0.00115966796875
1690838458516344300,6.25234423828125,-0.98193359375,0.015899658203125,0.0011749267578125
1690838458526384000,6.262384033203125,-0.9810333251953125,0.0146942138671875,0.0018768310546875
1690838458536424200,6.272424072265625,-0.9814605712890625,0.0152587890625,0.0026092529296875
1690838458546465300,6.28246533203125,-0.98199462890625,0.0153350830078125,0.0022125244140625
1690838458556505000,6.292505126953125,-0.9809417724609375,0.01556396484375,0.00115966796875
1690838458566545200,6.302545166015625,-0.981353759765625,0.01531982421875,0.0010223388671875
1690838458576585200,6.312585205078125,-0.9811248779296875,0.015106201171875,0.0006866455078125
1690838458586626300,6.322626220703125,-0.9813232421875,0.014984130859375,0.0006561279296875
1690838458596666000,6.332666015625,-0.9817352294921875,0.015594482421875,-0.000030517578125
1690838458606706200,6.3427060546875,-0.9808349609375,0.0160675048828125,0.00091552734375
1690838458616747300,6.352747314453125,-0.9806060791015625,0.015350341796875,0.000640869140625
1690838458626787000,6.362787109375,-0.9810791015625,0.0158233642578125,0.0007781982421875
1690838458636827100,6.3728271484375,-0.9818878173828125,0.0148468017578125,0.0007171630859375
1690838458646867200,6.3828671875,-0.9810638427734375,0.0147705078125,0.0012359619140625
1690838458656908300,6.392908203125,-0.981597900390625,0.0150299072265625,0.0010986328125
1690838458666979300,6.402979248046875,-0.981964111328125,0.01495361328125,0.0025482177734375
1690838458677019100,6.41301904296875,-0.9817962646484375,0.0151519775390625,0.001678466796875
1690838458687059200,6.42305908203125,-0.9821319580078125,0.0157928466796875,0.001678466796875
1690838458697099300,6.433099365234375,-0.981689453125,0.015167236328125,0.0010986328125
1690838458707140000,6.44314013671875,-0.9815673828125,0.01593017578125,0.000762939453125
1690838458717180200,6.45318017578125,-0.9813232421875,0.0149383544921875,0.00054931640625
1690838458727220200,6.46322021484375,-0.9811859130859375,0.015045166015625,0.0001373291015625
1690838458737260000,6.473260009765625,-0.9813690185546875,0.014892578125,0.00054931640625
1690838458747301000,6.483301025390625,-0.9808197021484375,0.0156097412109375,0.00054931640625
1690838458757341200,6.493341064453125,-0.9810943603515625,0.0150299072265625,0.000946044921875
1690838458767381200,6.50338134765625,-0.9814453125,0.0148773193359375,0.0017852783203125
1690838458777422000,6.513422119140625,-0.981903076171875,0.0145263671875,0.001007080078125
1690838458787462100,6.523462158203125,-0.981781005859375,0.0151214599609375,0.001434326171875
1690838458797502200,6.533502197265625,-0.982421875,0.0154571533203125,0.001373291015625
1690838458807542300,6.543542236328125,-0.9817047119140625,0.0150909423828125,0.0009918212890625
1690838458817583400,6.553583251953125,-0.981201171875,0.0153656005859375,0.000152587890625
1690838458827654100,6.563654052734375,-0.9809112548828125,0.01507568359375,0.0002899169921875
1690838458837694200,6.573694091796875,-0.9813079833984375,0.01593017578125,0.0005035400390625
1690838458847734300,6.583734375,-0.9813385009765625,0.0157012939453125,0.00146484375
1690838458857774300,6.5937744140625,-0.981292724609375,0.0158538818359375,0.001312255859375
1690838458867815200,6.603815185546875,-0.9812774658203125,0.015625,0.0009002685546875
1690838458877855200,6.613855224609375,-0.9822998046875,0.01470947265625,0.0004730224609375
1690838458887895000,6.62389501953125,-0.9825897216796875,0.015380859375,0.00067138671875
1690838458897936100,6.63393603515625,-0.98199462890625,0.0155029296875,0.0007781982421875
1690838458907976200,6.64397607421875,-0.980987548828125,0.0157928466796875,0.0008392333984375
1690838458918016300,6.654016357421875,-0.9802093505859375,0.0153656005859375,0.0012664794921875
1690838458928056300,6.664056396484375,-0.98150634765625,0.014739990234375,0.0008697509765625
1690838458938097200,6.67409716796875,-0.98126220703125,0.0153961181640625,0.0016632080078125
1690838458948137200,6.68413720703125,-0.9806060791015625,0.015350341796875,0.0009307861328125
1690838458958177000,6.694177001953125,-0.9813232421875,0.0149383544921875,0.00189208984375
1690838458968218000,6.704218017578125,-0.9814910888671875,0.014495849609375,0.0016326904296875
1690838458978258200,6.714258056640625,-0.9807281494140625,0.01556396484375,0.0012054443359375
1690838458988298200,6.72429833984375,-0.9804534912109375,0.016021728515625,0.0010833740234375
1690838458998369300,6.734369384765625,-0.979583740234375,0.0150604248046875,0.0020599365234375
1690838459008409300,6.744409423828125,-0.979278564453125,0.0134429931640625,0.0024261474609375
1690838459018449400,6.754449462890625,-0.983551025390625,0.0124664306640625,0.0030059814453125
1690838459028490200,6.764490234375,-0.9857330322265625,0.0136260986328125,0.0025787353515625
1690838459038530000,6.774530029296875,-0.9797515869140625,0.01416015625,-0.0003204345703125
1690838459048570000,6.784570068359375,-0.9814910888671875,0.01593017578125,-0.0022430419921875
1690838459058611200,6.794611083984375,-0.982025146484375,0.016845703125,-0.0030059814453125
1690838459068651300,6.8046513671875,-0.9810028076171875,0.0172119140625,-0.002166748046875
1690838459078691300,6.81469140625,-0.980316162109375,0.016937255859375,0.0006561279296875
1690838459088731400,6.8247314453125,-0.979034423828125,0.0167999267578125,0.002960205078125
1690838459098772200,6.834772216796875,-0.9807891845703125,0.0169525146484375,0.0055389404296875
1690838459108812000,6.84481201171875,-0.98101806640625,0.01715087890625,0.006500244140625
1690838459118852000,6.85485205078125,-0.9812469482421875,0.0158843994140625,0.00518798828125
1690838459128893200,6.86489306640625,-0.9813385009765625,0.0143280029296875,0.000885009765625
1690838459138933200,6.874933349609375,-0.982666015625,0.0133209228515625,-0.0011444091796875
1690838459148973300,6.884973388671875,-0.9808807373046875,0.013275146484375,-0.002349853515625
1690838459159013400,6.895013427734375,-0.9822845458984375,0.013763427734375,-0.0009002685546875
1690838459169084400,6.90508447265625,-0.9832763671875,0.0154876708984375,0.0000762939453125
1690838459179125200,6.915125244140625,-0.981658935546875,0.01531982421875,0.001495361328125
1690838459189165000,6.9251650390625,-0.9825592041015625,0.015625,0.0016326904296875
1690838459199205000,6.935205078125,-0.9799957275390625,0.016021728515625,-0.0004119873046875
1690838459209245200,6.9452451171875,-0.9803466796875,0.016265869140625,-0.00103759765625
1690838459219286300,6.955286376953125,-0.9794464111328125,0.0164794921875,-0.0003662109375
1690838459229326300,6.965326416015625,-0.9788970947265625,0.0169219970703125,0.001373291015625
1690838459239366400,6.975366455078125,-0.9818878173828125,0.01690673828125,0.0040740966796875
1690838459249406200,6.98540625,-0.9814910888671875,0.0164794921875,0.00567626953125
1690838459259447000,6.995447021484375,-0.983154296875,0.0151824951171875,0.0053253173828125
1690838459269487000,7.005487060546875,-0.98529052734375,0.0144500732421875,0.0019683837890625
1690838459279527200,7.015527099609375,-0.98199462890625,0.014495849609375,-0.000732421875
1690838459289568300,7.025568359375,-0.981201171875,0.014190673828125,-0.0037689208984375
1690838459299608300,7.0356083984375,-0.9818572998046875,0.0138702392578125,-0.0052947998046875
1690838459309648400,7.0456484375,-0.9796142578125,0.0143890380859375,-0.0034027099609375
1690838459319688400,7.0556884765625,-0.980712890625,0.014739990234375,0.0002593994140625
1690838459329759200,7.06575927734375,-0.9805450439453125,0.0151824951171875,0.003753662109375
1690838459339800000,7.075800048828125,-0.98114013671875,0.0160980224609375,0.0072784423828125
1690838459349840100,7.085840087890625,-0.98236083984375,0.015899658203125,0.0077362060546875
1690838459359873800,7.095873779296875,-0.98223876953125,0.0155181884765625,0.005889892578125
1690838459369913900,7.105913818359375,-0.982421875,0.015716552734375,0.001983642578125
1690838459379954700,7.11595458984375,-0.9812164306640625,0.01629638671875,-0.0013427734375
1690838459389994500,7.125994384765625,-0.98095703125,0.0159149169921875,-0.0033111572265625
1690838459400034600,7.13603466796875,-0.9808807373046875,0.0155029296875,-0.0025787353515625
1690838459410075600,7.14607568359375,-0.97955322265625,0.0150299072265625,-0.0029144287109375
1690838459420115700,7.15611572265625,-0.9805450439453125,0.01458740234375,-0.0007171630859375
1690838459430155800,7.16615576171875,-0.9818878173828125,0.0153350830078125,0.0023956298828125
1690838459440195800,7.17619580078125,-0.98114013671875,0.0148773193359375,0.0037841796875
1690838459450236700,7.186236572265625,-0.9817352294921875,0.014923095703125,0.0044708251953125
1690838459460276500,7.1962763671875,-0.98199462890625,0.0150604248046875,0.0039520263671875
1690838459470316500,7.206316650390625,-0.9819793701171875,0.01605224609375,0.002227783203125
1690838459480357600,7.216357666015625,-0.9830474853515625,0.014984130859375,0.0022430419921875
1690838459490397700,7.226397705078125,-0.9815521240234375,0.0154571533203125,0.000396728515625
1690838459500468700,7.23646875,-0.9813385009765625,0.0159454345703125,-0.0001220703125
1690838459510508800,7.2465087890625,-0.981689453125,0.01556396484375,-0.0008392333984375
1690838459520548900,7.256548828125,-0.9805755615234375,0.0165863037109375,-0.0010986328125
1690838459530588700,7.266588623046875,-0.981536865234375,0.0161285400390625,-0.0005340576171875
1690838459540629500,7.27662939453125,-0.98095703125,0.015899658203125,0.0003509521484375
1690838459550669600,7.286669677734375,-0.979461669921875,0.01568603515625,0.0006103515625
1690838459560709600,7.296709716796875,-0.981201171875,0.0150299072265625,0.0019378662109375
1690838459570750700,7.306750732421875,-0.981781005859375,0.0145416259765625,0.0038909912109375
1690838459580790800,7.316790771484375,-0.982086181640625,0.0146942138671875,0.0041961669921875
1690838459590830800,7.326830810546875,-0.9836578369140625,0.0150299072265625,0.0025787353515625
1690838459600870700,7.33687060546875,-0.982879638671875,0.015411376953125,0.0013580322265625
1690838459610911500,7.346911376953125,-0.9814605712890625,0.01483154296875,0.0005340576171875
1690838459620951600,7.35695166015625,-0.9810943603515625,0.0153350830078125,-0.00152587890625
1690838459630991600,7.36699169921875,-0.980255126953125,0.0149383544921875,-0.0019378662109375
1690838459641032700,7.37703271484375,-0.980560302734375,0.0158843994140625,-0.001220703125
1690838459651072800,7.38707275390625,-0.979949951171875,0.014739990234375,0.0006866455078125
1690838459661112800,7.39711279296875,-0.980865478515625,0.01507568359375,0.001617431640625
1690838459671184000,7.407183837890625,-0.9819793701171875,0.015655517578125,0.0025787353515625
1690838459681223700,7.4172236328125,-0.981475830078125,0.0162200927734375,0.0034942626953125
1690838459691263700,7.427263671875,-0.9813385009765625,0.016082763671875,0.0028533935546875
1690838459701304600,7.4373046875,-0.9814453125,0.01519775390625,0.0018157958984375
1690838459711344600,7.4473447265625,-0.981231689453125,0.015625,0.0012969970703125
1690838459721384700,7.457384765625,-0.9813232421875,0.0154571533203125,0.000335693359375
1690838459731425800,7.46742578125,-0.9813995361328125,0.0158843994140625,-0.0005340576171875
1690838459741465900,7.4774658203125,-0.9801788330078125,0.015594482421875,-0.0004730224609375
1690838459751505700,7.487505615234375,-0.98089599609375,0.0153350830078125,0.000091552734375
1690838459761545700,7.497545654296875,-0.9818878173828125,0.0152130126953125,0.0007171630859375
1690838459771586600,7.507586669921875,-0.9815216064453125,0.0151824951171875,0.0017242431640625
1690838459781626600,7.517626708984375,-0.9814910888671875,0.0163116455078125,0.00250244140625
1690838459791666700,7.527666748046875,-0.9817047119140625,0.0157623291015625,0.00286865234375
1690838459801707800,7.537707763671875,-0.9812774658203125,0.015533447265625,0.0030059814453125
1690838459811747800,7.547747802734375,-0.9818878173828125,0.016571044921875,0.0026397705078125
1690838459821787600,7.55778759765625,-0.981292724609375,0.0162353515625,0.00140380859375
1690838459831858700,7.567858642578125,-0.981414794921875,0.015350341796875,-0.000030517578125
1690838459841898800,7.577898681640625,-0.980712890625,0.0158538818359375,-0.0010986328125
1690838459851939600,7.587939697265625,-0.9806060791015625,0.0152435302734375,-0.0013885498046875
1690838459861979600,7.597979736328125,-0.9812469482421875,0.014373779296875,-0.000244140625
1690838459872019700,7.608019775390625,-0.980743408203125,0.014556884765625,0.000701904296875
1690838459882059800,7.618059814453125,-0.9817962646484375,0.0154571533203125,0.002197265625
1690838459892100900,7.628100830078125,-0.9818572998046875,0.0153656005859375,0.0027008056640625
1690838459902140700,7.638140625,-0.982696533203125,0.01513671875,0.002532958984375
1690838459912180700,7.6481806640625,-0.9824676513671875,0.01605224609375,0.0018463134765625
1690838459922221600,7.6582216796875,-0.9813079833984375,0.0154571533203125,0.0009307861328125
1690838459932261600,7.66826171875,-0.9825897216796875,0.0153350830078125,0.0004730224609375
1690838459942301700,7.6783017578125,-0.9817657470703125,0.0156402587890625,-0.0000762939453125
1690838459952341800,7.688341796875,-0.9819183349609375,0.0152587890625,0.0005645751953125
1690838459962382800,7.6983828125,-0.980682373046875,0.015594482421875,0.0001373291015625
1690838459972422700,7.708422607421875,-0.9811859130859375,0.0159149169921875,0.0004425048828125
1690838459982462700,7.718462646484375,-0.9819488525390625,0.015289306640625,0.0001983642578125
1690838459992503600,7.728503662109375,-0.9819488525390625,0.01470947265625,0.001007080078125
1690838460002573800,7.73857373046875,-0.9813079833984375,0.014801025390625,0.0020599365234375
1690838460012614700,7.74861474609375,-0.981964111328125,0.0155029296875,0.0020599365234375
1690838460022654700,7.75865478515625,-0.982025146484375,0.0156707763671875,0.0015869140625
1690838460032694800,7.76869482421875,-0.9826812744140625,0.0150604248046875,0.001190185546875
1690838460042734600,7.778734619140625,-0.9815826416015625,0.015228271484375,0.0019683837890625
1690838460052775700,7.788775634765625,-0.980804443359375,0.0155792236328125,0.0009002685546875
1690838460062815700,7.798815673828125,-0.9810791015625,0.01544189453125,-0.000274658203125
1690838460072855800,7.808855712890625,-0.9812164306640625,0.0154876708984375,0.0000457763671875
1690838460082896600,7.818896728515625,-0.9813232421875,0.01556396484375,0.0007171630859375
1690838460092936700,7.828936767578125,-0.981170654296875,0.0155029296875,0.000396728515625
1690838460102976800,7.838976806640625,-0.980987548828125,0.016143798828125,0.002044677734375
1690838460113016600,7.8490166015625,-0.9814453125,0.015228271484375,0.00299072265625
1690838460123057700,7.8590576171875,-0.981781005859375,0.0152130126953125,0.002410888671875
1690838460133097700,7.86909765625,-0.98126220703125,0.015167236328125,0.00128173828125
1690838460143137800,7.8791376953125,-0.981475830078125,0.015289306640625,0.001861572265625
1690838460153178600,7.8891787109375,-0.9813995361328125,0.0153656005859375,0.0006256103515625
1690838460163218700,7.89921875,-0.9814300537109375,0.0147552490234375,0.0007781982421875
1690838460173289700,7.909289794921875,-0.9821319580078125,0.015472412109375,0.0011444091796875
1690838460183329800,7.919329833984375,-0.982421875,0.016265869140625,0.000885009765625
1690838460193369600,7.92936962890625,-0.981658935546875,0.0162506103515625,-0.0000457763671875
1690838460203409700,7.93940966796875,-0.9818878173828125,0.015350341796875,0.0019683837890625
1690838460213450800,7.94945068359375,-0.9819183349609375,0.01483154296875,0.0016326904296875
1690838460223490800,7.95949072265625,-0.981964111328125,0.0156097412109375,0.00152587890625
1690838460233531000,7.96953076171875,-0.9818115234375,0.0156097412109375,0.00103759765625
1690838460243571700,7.97957177734375,-0.9816436767578125,0.0152740478515625,0.0022125244140625
1690838460253611800,7.98961181640625,-0.9814910888671875,0.014892578125,0.0012969970703125
1690838460263651600,7.999651611328125,-0.9813079833984375,0.0155181884765625,0.001068115234375
1690838460273691600,8.009691650390625,-0.9818267822265625,0.014984130859375,0.001007080078125
1690838460283732700,8.019732666015624,-0.98095703125,0.015167236328125,0.0010833740234375
1690838460293772800,8.029772705078125,-0.9815216064453125,0.0157623291015625,0.0012359619140625
1690838460303812900,8.039812744140624,-0.9817962646484375,0.0154876708984375,0.0010986328125
1690838460313853700,8.049853759765625,-0.981231689453125,0.0141448974609375,0.001312255859375
1690838460323893800,8.059893798828124,-0.981201171875,0.01544189453125,0.0019683837890625
1690838460333933600,8.06993359375,-0.9809722900390625,0.0158538818359375,0.0014801025390625
1690838460344004600,8.080004638671875,-0.9820709228515625,0.016021728515625,0.0009307861328125
1690838460354044700,8.090044677734374,-0.9813995361328125,0.0164794921875,0.0013885498046875
1690838460364091600,8.100091552734375,-0.9819183349609375,0.0161895751953125,0.001556396484375
1690838460374131700,8.110131591796875,-0.9820709228515625,0.014984130859375,0.0006866455078125
1690838460384171800,8.120171875,-0.9814453125,0.015045166015625,0.0003814697265625
1690838460394211800,8.1302119140625,-0.9810791015625,0.0146484375,0.0016632080078125
1690838460404252700,8.140252685546875,-0.981781005859375,0.01544189453125,0.0012054443359375
1690838460414292700,8.150292724609375,-0.981292724609375,0.015655517578125,0.0016326904296875
1690838460424332500,8.16033251953125,-0.9813079833984375,0.0148468017578125,0.0014495849609375
1690838460434373600,8.17037353515625,-0.9803009033203125,0.01495361328125,0.0012969970703125
1690838460444413700,8.18041357421875,-0.980987548828125,0.01507568359375,0.0016326904296875
1690838460454453800,8.190453857421875,-0.9821929931640625,0.0153350830078125,0.00140380859375
1690838460464493800,8.200493896484375,-0.9812164306640625,0.0154571533203125,-0.0002593994140625
1690838460474534700,8.21053466796875,-0.9813232421875,0.0149993896484375,0.00140380859375
1690838460484574700,8.22057470703125,-0.981292724609375,0.0146636962890625,0.0009613037109375
1690838460494614500,8.230614501953125,-0.9808807373046875,0.0146484375,0.001739501953125
1690838460504685600,8.240685546875,-0.9819793701171875,0.0153961181640625,0.001708984375
1690838460514725600,8.2507255859375,-0.981781005859375,0.01556396484375,0.001129150390625
1690838460524766700,8.2607666015625,-0.981048583984375,0.0154876708984375,0.0022735595703125
1690838460534806800,8.270806884765625,-0.98175048828125,0.0160980224609375,0.001556396484375
1690838460544846800,8.280846923828125,-0.9815521240234375,0.0154571533203125,0.001129150390625
1690838460554887000,8.290886962890625,-0.9823455810546875,0.0155487060546875,0.0014801025390625
1690838460564927700,8.300927734375,-0.981842041015625,0.0149078369140625,0.00115966796875
1690838460574967600,8.310967529296875,-0.981719970703125,0.0152740478515625,0.0006561279296875
1690838460585007600,8.321007568359375,-0.98223876953125,0.01519775390625,0.0008544921875
1690838460595048700,8.331048583984375,-0.98077392578125,0.0153961181640625,0.00146484375
1690838460605088800,8.3410888671875,-0.980926513671875,0.0159454345703125,0.0013275146484375
1690838460615128800,8.35112890625,-0.981719970703125,0.014617919921875,0.0010528564453125
1690838460625169000,8.3611689453125,-0.9814910888671875,0.015106201171875,0.001861572265625
1690838460635209700,8.371209716796875,-0.9818267822265625,0.014678955078125,0.0015411376953125
1690838460645249500,8.38124951171875,-0.9819183349609375,0.0147552490234375,0.001068115234375
1690838460655289600,8.39128955078125,-0.9819488525390625,0.015533447265625,0.0011749267578125
1690838460665330700,8.40133056640625,-0.98028564453125,0.01605224609375,0.001556396484375
1690838460675400700,8.411400634765625,-0.9814910888671875,0.0152435302734375,0.0013427734375
1690838460685441800,8.42144189453125,-0.9819488525390625,0.01513671875,0.000579833984375
1690838460695481900,8.43148193359375,-0.9806976318359375,0.0151519775390625,0.000885009765625
1690838460705522000,8.44152197265625,-0.9813232421875,0.01568603515625,0.000946044921875
1690838460715561700,8.451561767578125,-0.9817657470703125,0.0152435302734375,0.001312255859375
1690838460725602600,8.4616025390625,-0.98211669921875,0.0157318115234375,0.0018768310546875
1690838460735642600,8.471642578125,-0.9814910888671875,0.01556396484375,0.0011749267578125
1690838460745682700,8.4816826171875,-0.98138427734375,0.015167236328125,0.0010223388671875
1690838460755723800,8.491723876953126,-0.9809722900390625,0.015380859375,0.000946044921875
1690838460765763800,8.501763916015625,-0.9823760986328125,0.0146026611328125,0.000732421875
1690838460775804000,8.511803955078125,-0.9817047119140625,0.0149688720703125,0.0009613037109375
1690838460785843700,8.52184375,-0.9818878173828125,0.0151824951171875,0.0003509521484375
1690838460795884500,8.531884521484375,-0.9817962646484375,0.015594482421875,0.001220703125
1690838460805924600,8.541924560546875,-0.98162841796875,0.0143280029296875,0.0011444091796875
1690838460815964700,8.551964599609375,-0.9823760986328125,0.015655517578125,0.0008697509765625
1690838460826005800,8.562005859375,-0.9827117919921875,0.015960693359375,0.0013427734375
1690838460836045800,8.5720458984375,-0.981689453125,0.0150146484375,0.00225830078125
1690838460846116900,8.582116943359376,-0.9809722900390625,0.0157318115234375,0.0012969970703125
1690838460856157000,8.592156982421875,-0.98077392578125,0.0155792236328125,0.0009765625
1690838460866196700,8.60219677734375,-0.9806671142578125,0.0157623291015625,0.0013580322265625
1690838460876237600,8.612237548828125,-0.98187255859375,0.0160369873046875,0.00048828125
1690838460886277600,8.622277587890625,-0.982269287109375,0.0151824951171875,0.000732421875
1690838460896317700,8.632317626953125,-0.9816436767578125,0.0157470703125,0.0003204345703125
1690838460906357800,8.642357666015625,-0.9806976318359375,0.01605224609375,0.000762939453125
1690838460916398800,8.65239892578125,-0.9821014404296875,0.0153045654296875,0.001068115234375
1690838460926439000,8.66243896484375,-0.9821319580078125,0.015777587890625,0.0009613037109375
1690838460936478700,8.672478759765625,-0.98138427734375,0.0155029296875,0.000518798828125
1690838460946519600,8.68251953125,-0.9812164306640625,0.015380859375,0.0014495849609375
1690838460956559600,8.6925595703125,-0.9810638427734375,0.0150604248046875,0.0013275146484375
1690838460966599700,8.702599609375,-0.9819793701171875,0.0153961181640625,0.00030517578125
1690838460976639700,8.7126396484375,-0.981292724609375,0.0153656005859375,0.0003662109375
1690838460986680800,8.722680908203126,-0.98138427734375,0.0158233642578125,0.00140380859375
1690838460996721000,8.732720947265625,-0.9813995361328125,0.0154571533203125,0.001312255859375
1690838461006760700,8.7427607421875,-0.982574462890625,0.015899658203125,0.001068115234375
1690838461016831700,8.752831787109375,-0.9819488525390625,0.0157318115234375,0.001434326171875
1690838461026871800,8.762871826171875,-0.9813995361328125,0.0153656005859375,0.001617431640625
1690838461036912600,8.77291259765625,-0.98101806640625,0.015625,0.0008392333984375
1690838461046952700,8.78295263671875,-0.98077392578125,0.0157928466796875,0.0007171630859375
1690838461056992800,8.79299267578125,-0.981170654296875,0.0157012939453125,0.0010223388671875
1690838461067032800,8.80303271484375,-0.98101806640625,0.0157470703125,0.0012969970703125
1690838461077074000,8.813073974609376,-0.98193359375,0.0157470703125,0.0010223388671875
1690838461087113700,8.82311376953125,-0.98211669921875,0.0157470703125,0.000823974609375
1690838461097153500,8.833153564453125,-0.98101806640625,0.0153350830078125,0.0013427734375
1690838461107194600,8.843194580078125,-0.9814605712890625,0.0146331787109375,0.00128173828125
1690838461117234700,8.853234619140625,-0.9812469482421875,0.0155181884765625,0.0014190673828125
1690838461127274800,8.863274658203125,-0.980926513671875,0.0151824951171875,0.00091552734375
1690838461137314800,8.873314697265625,-0.981109619140625,0.01519775390625,0.00115966796875
1690838461147356000,8.88335595703125,-0.9807281494140625,0.0149688720703125,0.001708984375
1690838461157395700,8.893395751953125,-0.981536865234375,0.0152130126953125,0.0010986328125
1690838461167435500,8.903435546875,-0.9804840087890625,0.016204833984375,0.00115966796875
1690838461177506600,8.913506591796875,-0.9815216064453125,0.01568603515625,0.0018310546875
1690838461187546600,8.923546630859375,-0.981536865234375,0.015533447265625,0.001190185546875
1690838461197587700,8.933587646484375,-0.9812164306640625,0.0154571533203125,0.00091552734375
1690838461207627800,8.943627685546875,-0.974578857421875,0.01556396484375,0.0016937255859375
1690838461217667800,8.953667724609375,-1.007080078125,-0.01739501953125,-0.029388427734375
1690838461227707600,8.963707763671875,-1.024200439453125,-0.0530853271484375,0.0435638427734375
1690838461237748700,8.973748779296875,-0.9793853759765625,0.0449066162109375,0.0134735107421875
1690838461247788500,8.98378857421875,-0.952301025390625,0.0337677001953125,-0.0105438232421875
1690838461257828600,8.99382861328125,-0.9962615966796875,0.0308837890625,-0.00836181640625
1690838461267869700,9.00386962890625,-0.96160888671875,0.051971435546875,0.0166168212890625
1690838461277909800,9.01390966796875,-0.9787750244140625,0.0343780517578125,0.00390625
1690838461287949800,9.02394970703125,-0.9720458984375,0.0305023193359375,-0.0186767578125
1690838461297989600,9.03398974609375,-0.973175048828125,0.035858154296875,-0.0110931396484375
1690838461308030700,9.04403076171875,-0.9730224609375,0.036651611328125,-0.0011138916015625
1690838461318070500,9.054070556640625,-0.9747314453125,0.0338287353515625,-0.00140380859375
1690838461328110600,9.064110595703125,-0.9787750244140625,0.0289154052734375,0.0024566650390625
1690838461338151700,9.074151611328125,-0.9807586669921875,0.0234832763671875,0.0030059814453125
1690838461348221700,9.0842216796875,-0.98150634765625,0.017578125,0.001373291015625
1690838461358262800,9.0942626953125,-0.9825439453125,0.0137939453125,0.003326416015625
1690838461368299000,9.104299072265626,-0.98809814453125,0.010955810546875,0.0081024169921875
1690838461378339000,9.114339111328125,-0.987579345703125,0.0056610107421875,0.003692626953125
1690838461388380200,9.124380126953126,-0.98492431640625,0.0025634765625,0.0013427734375
1690838461398420000,9.134419921875,-0.992401123046875,0.001953125,-0.000579833984375
1690838461408460000,9.1444599609375,-0.9839630126953125,0.002410888671875,-0.0030364990234375
1690838461418500000,9.1545,-0.9866180419921875,0.0045623779296875,-0.0019683837890625
1690838461428541200,9.164541259765626,-0.983245849609375,0.0086212158203125,-0.00018310546875
1690838461438581000,9.1745810546875,-0.981536865234375,0.0117950439453125,0.001617431640625
1690838461448621000,9.18462109375,-0.983154296875,0.0155181884765625,0.004669189453125
1690838461458662100,9.194662109375,-0.9769439697265625,0.019317626953125,0.0063018798828125
1690838461468702000,9.204701904296876,-0.98193359375,0.0227813720703125,0.004425048828125
1690838461478742000,9.214741943359375,-0.9788055419921875,0.0259246826171875,0.0031280517578125
1690838461488782000,9.224781982421876,-0.9767913818359375,0.027862548828125,-0.00048828125
1690838461498823200,9.2348232421875,-0.978179931640625,0.0287933349609375,-0.0025634765625
1690838461508863000,9.244863037109376,-0.9781036376953125,0.0296478271484375,-0.0036773681640625
1690838461518934000,9.25493408203125,-0.9751434326171875,0.028564453125,-0.004486083984375
1690838461528974000,9.26497412109375,-0.97857666015625,0.0276336669921875,-0.0032958984375
1690838461539014100,9.27501416015625,-0.9788055419921875,0.0255279541015625,-0.00238037109375
1690838461549055000,9.285054931640625,-0.9792022705078125,0.0227813720703125,0.0002899169921875
1690838461559095000,9.295094970703126,-0.9813995361328125,0.020843505859375,0.002166748046875
1690838461569135000,9.305135009765625,-0.9806671142578125,0.0181732177734375,0.0043792724609375
1690838461579175000,9.3151748046875,-0.983734130859375,0.0156097412109375,0.0052947998046875
1690838461589216000,9.325216064453125,-0.9821929931640625,0.0140228271484375,0.00494384765625
1690838461599256000,9.335256103515626,-0.9842529296875,0.012054443359375,0.00341796875
1690838461609296100,9.345296142578125,-0.9867095947265625,0.01055908203125,0.0018157958984375
1690838461619337000,9.3553369140625,-0.9825592041015625,0.01019287109375,0.0002899169921875
1690838461629377000,9.365376953125,-0.9860382080078125,0.0106353759765625,-0.0016632080078125
1690838461639417000,9.3754169921875,-0.985076904296875,0.0116729736328125,-0.001129150390625
1690838461649457000,9.385456787109375,-0.9824676513671875,0.01226806640625,0.0004425048828125
1690838461659498000,9.395498046875,-0.9822845458984375,0.0142822265625,0.000640869140625
1690838461669538000,9.4055380859375,-0.982269287109375,0.0166778564453125,0.0020904541015625
1690838461679578000,9.415578125,-0.9804534912109375,0.0187835693359375,0.0033111572265625
1690838461689649200,9.425649169921876,-0.979400634765625,0.020782470703125,0.0041046142578125
1690838461699689200,9.435689208984375,-0.9811553955078125,0.0222320556640625,0.003021240234375
1690838461709730000,9.44572998046875,-0.9808502197265625,0.02471923828125,0.0012054443359375
1690838461719770000,9.45577001953125,-0.9800872802734375,0.02508544921875,0.0007476806640625
1690838461729810000,9.465809814453126,-0.979339599609375,0.0250396728515625,-0.00115966796875
1690838461739850000,9.47585009765625,-0.980682373046875,0.024871826171875,-0.0023956298828125
1690838461749891000,9.48589111328125,-0.9788360595703125,0.02288818359375,-0.00146484375
1690838461759931100,9.49593115234375,-0.9786376953125,0.0219268798828125,0.0001983642578125
1690838461769971200,9.50597119140625,-0.9811248779296875,0.0207977294921875,0.0001373291015625
1690838461780012000,9.516011962890625,-0.97991943359375,0.0193023681640625,0.0014495849609375
1690838461790052000,9.526052001953126,-0.9820709228515625,0.0176239013671875,0.001739501953125
1690838461800092000,9.536091796875,-0.9826812744140625,0.0164947509765625,0.0034027099609375
1690838461810132000,9.546132080078126,-0.983673095703125,0.0155487060546875,0.0035858154296875
1690838461820173000,9.556173095703125,-0.985321044921875,0.014678955078125,0.0028228759765625
1690838461830213000,9.566213134765626,-0.9841156005859375,0.0142364501953125,0.002288818359375
1690838461840253200,9.576253173828125,-0.98419189453125,0.0139007568359375,0
1690838461850294000,9.5862939453125,-0.9828338623046875,0.01348876953125,-0.000518798828125
1690838461860364300,9.5963642578125,-0.98272705078125,0.0142669677734375,-0.0008697509765625
1690838461870405000,9.606405029296875,-0.9822235107421875,0.015533447265625,-0.0009002685546875
1690838461880445000,9.61644482421875,-0.9807891845703125,0.016265869140625,0.000274658203125
1690838461890485000,9.626485107421875,-0.9803619384765625,0.0174713134765625,0.00079345703125
1690838461900526000,9.636526123046876,-0.981201171875,0.018707275390625,0.0012664794921875
1690838461910566100,9.646566162109375,-0.980712890625,0.01995849609375,0.0018463134765625
1690838461920606200,9.656606201171876,-0.98052978515625,0.021148681640625,0.0038909912109375
1690838461930646300,9.666646240234375,-0.9814605712890625,0.022064208984375,0.0038604736328125
1690838461940687000,9.67668701171875,-0.98004150390625,0.0222015380859375,0.001617431640625
1690838461950727000,9.686726806640625,-0.980682373046875,0.022216796875,0.0002899169921875
1690838461960767000,9.69676708984375,-0.9791412353515625,0.021392822265625,-0.000335693359375
1690838461970808000,9.70680810546875,-0.97955322265625,0.02001953125,-0.0010223388671875
1690838461980848000,9.71684814453125,-0.9806671142578125,0.0192108154296875,-0.0013427734375
1690838461990888200,9.72688818359375,-0.9806671142578125,0.0191497802734375,-0.000885009765625
1690838462000928300,9.73692822265625,-0.981292724609375,0.01824951171875,0.0002288818359375
1690838462010969000,9.746968994140625,-0.9821319580078125,0.0177001953125,0.0004730224609375
1690838462021009000,9.7570087890625,-0.9823150634765625,0.017333984375,0.00201416015625
1690838462031080000,9.767079833984376,-0.98193359375,0.01702880859375,0.0045318603515625
1690838462041120000,9.7771201171875,-0.9831695556640625,0.0164337158203125,0.0042266845703125
1690838462051160000,9.78716015625,-0.982879638671875,0.0162811279296875,0.0030517578125
1690838462061201200,9.797201171875,-0.983306884765625,0.0161590576171875,0.00189208984375
1690838462071241200,9.8072412109375,-0.9833221435546875,0.0160369873046875,-0.000244140625
1690838462081281300,9.81728125,-0.9816741943359375,0.0169219970703125,-0.0007171630859375
1690838462091321000,9.827321044921876,-0.9803314208984375,0.017181396484375,-0.001708984375
1690838462101362000,9.83736181640625,-0.9803466796875,0.01806640625,-0.00225830078125
1690838462111402000,9.847402099609376,-0.9811248779296875,0.019134521484375,-0.0000762939453125
1690838462121442000,9.857442138671875,-0.9799957275390625,0.019744873046875,0.0010833740234375
1690838462131483100,9.867483154296876,-0.9806671142578125,0.0202789306640625,0.0027008056640625
1690838462141523200,9.877523193359375,-0.9823760986328125,0.02093505859375,0.003753662109375
1690838462151563300,9.887563232421876,-0.981201171875,0.021484375,0.004180908203125
1690838462161603000,9.89760302734375,-0.9812469482421875,0.0215911865234375,0.003814697265625
1690838462171644000,9.907643798828126,-0.981231689453125,0.0202789306640625,0.002471923828125
1690838462181684000,9.91768408203125,-0.980865478515625,0.0190277099609375,0.000946044921875
1690838462191755000,9.927755126953125,-0.9803466796875,0.0185699462890625,-0.0006866455078125
1690838462201795000,9.937795166015626,-0.9808807373046875,0.018157958984375,-0.003204345703125
1690838462211835100,9.947835205078125,-0.9810333251953125,0.0178070068359375,-0.0028839111328125
1690838462221876200,9.957876220703126,-0.98126220703125,0.0169219970703125,-0.00213623046875
1690838462231916300,9.967916259765625,-0.980987548828125,0.0176544189453125,-0.0003662109375
1690838462241956000,9.9779560546875,-0.981170654296875,0.016937255859375,0.0010528564453125
1690838462251996200,9.98799609375,-0.982391357421875,0.0167999267578125,0.0035858154296875
1690838462262037000,9.998037109375,-0.9813232421875,0.017730712890625,0.004302978515625
1690838462272077000,10.0080771484375,-0.982421875,0.0163421630859375,0.0051422119140625
1690838462282117000,10.0181171875,-0.9818572998046875,0.0171966552734375,0.0037689208984375
1690838462292158200,10.028158203125,-0.9812774658203125,0.0181121826171875,0.0023193359375
1690838462302198300,10.0381982421875,-0.9815216064453125,0.017791748046875,0
1690838462312238000,10.048238037109375,-0.9809722900390625,0.018218994140625,-0.001495361328125
1690838462322278100,10.058278076171876,-0.9810028076171875,0.018829345703125,-0.00244140625
1690838462332319000,10.068319091796875,-0.9812469482421875,0.0186309814453125,-0.0018310546875
1690838462342359000,10.078359130859376,-0.97930908203125,0.0190887451171875,-0.0006561279296875
1690838462352399000,10.088399169921875,-0.9808502197265625,0.0189208984375,0.0011749267578125
1690838462362442200,10.098442138671874,-0.980224609375,0.0191497802734375,0.003143310546875
1690838462372482300,10.108482421875,-0.98187255859375,0.019744873046875,0.0031890869140625
1690838462382523400,10.1185234375,-0.98175048828125,0.01953125,0.0041961669921875
1690838462392563500,10.1285634765625,-0.981536865234375,0.018829345703125,0.0040130615234375
1690838462402603300,10.138603271484374,-0.980926513671875,0.0191192626953125,0.0019073486328125
1690838462412644400,10.148644287109375,-0.981292724609375,0.0185089111328125,0.00103759765625
1690838462422684400,10.158684326171874,-0.9806365966796875,0.018157958984375,-0.0001068115234375
1690838462432724500,10.168724365234375,-0.980712890625,0.0176544189453125,-0.0008697509765625
1690838462442764300,10.178764404296874,-0.9814300537109375,0.01776123046875,-0.0015106201171875
1690838462452805400,10.188805419921875,-0.9817962646484375,0.0172271728515625,-0.0008697509765625
1690838462462845400,10.198845458984374,-0.982269287109375,0.0177459716796875,0.0010986328125
1690838462472885200,10.20888525390625,-0.981292724609375,0.0181732177734375,0.0023651123046875
1690838462482926300,10.21892626953125,-0.980987548828125,0.0176544189453125,0.0039825439453125
1690838462492966400,10.22896630859375,-0.98260498046875,0.0179901123046875,0.0041961669921875
1690838462503006500,10.23900634765625,-0.9825439453125,0.019012451171875,0.00274658203125
1690838462513046300,10.24904638671875,-0.980743408203125,0.018646240234375,0.001373291015625
1690838462523087400,10.25908740234375,-0.981231689453125,0.018280029296875,0.00042724609375
1690838462533157400,10.269157470703124,-0.979461669921875,0.01922607421875,-0.0010528564453125
1690838462543198500,10.279198486328125,-0.981170654296875,0.019134521484375,-0.001800537109375
1690838462553238300,10.28923828125,-0.9812469482421875,0.0193328857421875,-0.001190185546875
1690838462563278300,10.2992783203125,-0.98138427734375,0.0182037353515625,-0.0001068115234375
1690838462573319400,10.3093193359375,-0.98272705078125,0.0193328857421875,0.0020751953125
1690838462583359500,10.319359375,-0.9821319580078125,0.0199432373046875,0.00341796875
1690838462593399300,10.3293994140625,-0.981842041015625,0.019195556640625,0.0034027099609375
1690838462603439400,10.339439453125,-0.9826812744140625,0.0184478759765625,0.002471923828125
1690838462613480400,10.34948046875,-0.9805755615234375,0.0183258056640625,0.0010833740234375
1690838462623520300,10.359520263671875,-0.981170654296875,0.0185546875,0.0000457763671875
1690838462633560300,10.369560302734374,-0.9814453125,0.018218994140625,-0.0004119873046875
1690838462643601400,10.379601318359375,-0.980316162109375,0.018524169921875,-0.0004425048828125
1690838462653641500,10.389641357421874,-0.9814605712890625,0.018218994140625,0.0005035400390625
1690838462663681300,10.399681396484375,-0.981842041015625,0.0176849365234375,0.001220703125
1690838462673721300,10.409721435546874,-0.9812774658203125,0.0183258056640625,0.00128173828125
1690838462683762400,10.419762451171875,-0.981597900390625,0.0185546875,0.0012359619140625
1690838462693802200,10.42980224609375,-0.981353759765625,0.018646240234375,0.0009765625
1690838462703873300,10.439873291015624,-0.981292724609375,0.0187530517578125,0.001220703125
1690838462713913300,10.449913330078125,-0.9794158935546875,0.01873779296875,0.001800537109375
1690838462723953400,10.459953369140624,-0.98114013671875,0.0187835693359375,0.00103759765625
1690838462733994500,10.469994384765625,-0.981231689453125,0.0192413330078125,0.000885009765625
1690838462744034300,10.480034423828124,-0.98101806640625,0.020050048828125,0.0010223388671875
1690838462754074400,10.490074462890625,-0.98089599609375,0.01934814453125,0.0004730224609375
1690838462764114400,10.500114501953124,-0.9809722900390625,0.0189208984375,0.0006256103515625
1690838462774155300,10.5101552734375,-0.981109619140625,0.0192718505859375,0.000244140625
1690838462784195300,10.5201953125,-0.9824066162109375,0.0179443359375,0.0011138916015625
1690838462794235400,10.5302353515625,-0.9817962646484375,0.018218994140625,0.001678466796875
1690838462804276500,10.5402763671875,-0.98175048828125,0.018646240234375,0.001495361328125
1690838462814316300,10.55031640625,-0.9811248779296875,0.0186920166015625,0.0014190673828125
1690838462824356400,10.5603564453125,-0.9814910888671875,0.017852783203125,0.000152587890625
1690838462834396400,10.570396484375,-0.9809112548828125,0.017822265625,-0.000030517578125
1690838462844437200,10.580437255859374,-0.9812469482421875,0.017578125,-0.0002899169921875
1690838462854477300,10.590477294921875,-0.9810028076171875,0.0173492431640625,0.0000762939453125
1690838462864517400,10.600517333984374,-0.9814910888671875,0.01849365234375,-0.000396728515625
1690838462874588400,10.61058837890625,-0.9817047119140625,0.018280029296875,0.000518798828125
1690838462884628200,10.620628173828125,-0.9813232421875,0.0187835693359375,0.00140380859375
1690838462894669300,10.63066943359375,-0.9813385009765625,0.0186004638671875,0.0013275146484375
1690838462904709400,10.64070947265625,-0.9815216064453125,0.01806640625,0.0011749267578125
1690838462914749400,10.65074951171875,-0.98065185546875,0.018341064453125,0.0016021728515625
1690838462924790300,10.660790283203125,-0.9816436767578125,0.01885986328125,0.00030517578125
1690838462934830300,10.670830322265624,-0.9816741943359375,0.0186614990234375,0.0008392333984375
1690838462944870400,10.680870361328125,-0.9805145263671875,0.018218994140625,0.000457763671875
1690838462954910200,10.69091015625,-0.9813385009765625,0.0188446044921875,0.00115966796875
1690838462964951300,10.700951416015625,-0.9815521240234375,0.0187225341796875,0.0018157958984375
1690838462974991400,10.710991455078124,-0.98065185546875,0.0189361572265625,0.001861572265625
1690838462985031400,10.721031494140625,-0.9817352294921875,0.0194549560546875,0.00189208984375
1690838462995072300,10.731072265625,-0.9816436767578125,0.0179443359375,0.0011138916015625
1690838463005112300,10.7411123046875,-0.9802398681640625,0.01904296875,0.0003509521484375
1690838463015152400,10.75115234375,-0.9801483154296875,0.0180206298828125,0.00030517578125
1690838463025192200,10.761192138671875,-0.9815216064453125,0.0187225341796875,-0.000030517578125
1690838463035233300,10.7712333984375,-0.982025146484375,0.01849365234375,0.000762939453125
1690838463045303300,10.78130322265625,-0.981414794921875,0.018585205078125,0.000762939453125
1690838463055344400,10.791344482421875,-0.980499267578125,0.0184326171875,0.0011444091796875
1690838463065384400,10.801384521484374,-0.981689453125,0.0185546875,0.00091552734375
1690838463075424500,10.811424560546875,-0.982147216796875,0.018951416015625,0.001220703125
1690838463085465300,10.82146533203125,-0.9809722900390625,0.019256591796875,0.0012054443359375
1690838463095505400,10.83150537109375,-0.98077392578125,0.018157958984375,0.00128173828125
1690838463105545200,10.841545166015624,-0.9816131591796875,0.0184478759765625,0.00079345703125
1690838463115585300,10.851585205078125,-0.9817352294921875,0.019073486328125,0.0009002685546875
1690838463125626400,10.86162646484375,-0.9817657470703125,0.0189208984375,0.000030517578125
1690838463135666400,10.87166650390625,-0.981689453125,0.0181427001953125,0.0001678466796875
1690838463145706500,10.88170654296875,-0.981353759765625,0.0182647705078125,0.0010223388671875
1690838463155747300,10.891747314453125,-0.980987548828125,0.0190277099609375,0.0003662109375
1690838463165787400,10.901787353515624,-0.981964111328125,0.0185546875,0.0008697509765625
1690838463175827200,10.9118271484375,-0.9815521240234375,0.0186614990234375,0.0012054443359375
1690838463185867300,10.9218671875,-0.98187255859375,0.0183563232421875,0.001007080078125
1690838463195908400,10.931908447265625,-0.98138427734375,0.017852783203125,0.00103759765625
1690838463205978400,10.941978271484375,-0.981170654296875,0.0180816650390625,0.0008697509765625
1690838463216019500,10.95201953125,-0.98162841796875,0.0190887451171875,0.00103759765625
1690838463226059500,10.9620595703125,-0.98138427734375,0.01873779296875,0.001495361328125
1690838463236099600,10.972099609375,-0.981109619140625,0.0185089111328125,0.000732421875
1690838463246140400,10.982140380859375,-0.98126220703125,0.01800537109375,0.0015869140625
1690838463256180200,10.99218017578125,-0.981719970703125,0.018402099609375,0.000823974609375
1690838463266220300,11.00222021484375,-0.9820709228515625,0.0186920166015625,0.00091552734375
1690838463276260400,11.01226025390625,-0.9811553955078125,0.0189666748046875,0.0001068115234375
1690838463286301400,11.022301513671875,-0.9811859130859375,0.0185089111328125,0.0009765625
1690838463296341500,11.032341552734374,-0.9813385009765625,0.019317626953125,0.001251220703125
1690838463306381600,11.042381591796875,-0.9808502197265625,0.0186309814453125,0.001434326171875
1690838463316422400,11.05242236328125,-0.9819183349609375,0.01898193359375,0.0012664794921875
1690838463326462200,11.062462158203125,-0.981170654296875,0.019012451171875,0.000701904296875
1690838463336502300,11.072502197265624,-0.98052978515625,0.018157958984375,0.001495361328125
1690838463346542300,11.082542236328125,-0.9814910888671875,0.018280029296875,0.00115966796875
1690838463356583400,11.09258349609375,-0.981231689453125,0.0193023681640625,0.000579833984375
1690838463366629600,11.102629638671875,-0.98089599609375,0.0187225341796875,0.0006561279296875
1690838463376700700,11.11270068359375,-0.9801177978515625,0.019073486328125,0.0008697509765625
1690838463386740700,11.12274072265625,-0.9820098876953125,0.0182647705078125,0.0013427734375
1690838463396780800,11.13278076171875,-0.9823455810546875,0.0187225341796875,0.000518798828125
1690838463406821600,11.142821533203126,-0.98199462890625,0.018524169921875,0.0001068115234375
1690838463416861400,11.152861328125,-0.9813232421875,0.0181732177734375,0.0005645751953125
1690838463426901500,11.162901611328126,-0.9808807373046875,0.0190277099609375,0.0010223388671875
1690838463436942600,11.172942626953125,-0.9808502197265625,0.019012451171875,0.0014801025390625
1690838463446982700,11.182982666015626,-0.981689453125,0.018310546875,0.0016326904296875
1690838463457022700,11.193022705078125,-0.981689453125,0.0184173583984375,0.0009918212890625
1690838463467062800,11.203062744140626,-0.9816131591796875,0.0185394287109375,0.0015106201171875
1690838463477103600,11.213103515625,-0.98199462890625,0.0189056396484375,0.0019989013671875
1690838463487143400,11.223143310546876,-0.9805450439453125,0.019287109375,0.0011138916015625
1690838463497183500,11.23318359375,-0.9805450439453125,0.0189971923828125,-0.000091552734375
1690838463507224600,11.243224609375,-0.9818572998046875,0.0177001953125,0.000396728515625
1690838463517264600,11.2532646484375,-0.9817962646484375,0.018157958984375,0.0011138916015625
1690838463527304700,11.2633046875,-0.981475830078125,0.0189208984375,0.000579833984375
1690838463537344800,11.2733447265625,-0.9820709228515625,0.0194091796875,0.0005340576171875
1690838463547415800,11.283415771484375,-0.9816741943359375,0.01885986328125,0.0009307861328125
1690838463557455600,11.29345556640625,-0.9814605712890625,0.01800537109375,0.000762939453125
1690838463567496400,11.303496337890625,-0.981231689453125,0.0186004638671875,0.001190185546875
1690838463577536500,11.31353662109375,-0.98175048828125,0.019317626953125,0.0018768310546875
1690838463587576600,11.32357666015625,-0.98187255859375,0.01904296875,0.001922607421875
1690838463597617700,11.33361767578125,-0.98199462890625,0.018218994140625,0.001678466796875
1690838463607657700,11.34365771484375,-0.982940673828125,0.0186309814453125,0.0011138916015625
1690838463617697800,11.35369775390625,-0.9824676513671875,0.0184326171875,0.00018310546875
1690838463627737600,11.363737548828125,-0.981048583984375,0.018035888671875,-0.00048828125
1690838463637778400,11.3737783203125,-0.98187255859375,0.0191497802734375,-0.00054931640625
1690838463647818500,11.383818603515625,-0.98162841796875,0.0185699462890625,-0.000762939453125
1690838463657858600,11.393858642578126,-0.9807281494140625,0.0175323486328125,0.00067138671875
1690838463667899600,11.403899658203125,-0.9809417724609375,0.0181427001953125,0.00213623046875
1690838463677939700,11.413939697265626,-0.9807586669921875,0.019805908203125,0.0020599365234375
1690838463687979800,11.423979736328125,-0.9812469482421875,0.01922607421875,0.00201416015625
1690838463698019800,11.434019775390626,-0.981597900390625,0.0182342529296875,0.00213623046875
1690838463708060700,11.444060791015625,-0.9819488525390625,0.01861572265625,0.0012664794921875
1690838463718130700,11.454130615234375,-0.9820098876953125,0.01806640625,-0.000091552734375
1690838463728171500,11.464171630859376,-0.981353759765625,0.0173797607421875,-0.000213623046875
1690838463738211600,11.474211669921875,-0.981048583984375,0.0180816650390625,0.000244140625
1690838463748251600,11.484251708984376,-0.9809112548828125,0.0193023681640625,0.0001068115234375
1690838463758292700,11.494292724609375,-0.981689453125,0.01898193359375,0.00067138671875
1690838463768332800,11.504332763671876,-0.9811859130859375,0.018890380859375,0.000640869140625
1690838463778372600,11.51437255859375,-0.9817047119140625,0.0185089111328125,0.00115966796875
1690838463788412700,11.52441259765625,-0.982208251953125,0.018310546875,0.0024566650390625
1690838463798453500,11.53445361328125,-0.9809722900390625,0.018310546875,0.0012664794921875
1690838463808493600,11.54449365234375,-0.981719970703125,0.0183258056640625,0.0006256103515625
1690838463818533600,11.55453369140625,-0.981964111328125,0.01800537109375,0.0015869140625
1690838463828574700,11.56457470703125,-0.9812469482421875,0.0187835693359375,0.001556396484375
1690838463838614800,11.57461474609375,-0.9817962646484375,0.0190582275390625,0.0010833740234375
1690838463848654600,11.584654541015626,-0.980438232421875,0.0191192626953125,0.0006256103515625
1690838463858694700,11.594694580078125,-0.98028564453125,0.0184326171875,-0.000244140625
1690838463868735500,11.604735595703126,-0.98052978515625,0.0182342529296875,0.000244140625
1690838463878775600,11.614775634765625,-0.9810028076171875,0.018585205078125,0.0013275146484375
1690838463888846600,11.6248466796875,-0.9810791015625,0.0178985595703125,0.001068115234375
1690838463898886700,11.63488671875,-0.981536865234375,0.018585205078125,0.00140380859375
1690838463908926700,11.6449267578125,-0.9811248779296875,0.0194091796875,0.0015869140625
1690838463918967800,11.6549677734375,-0.981048583984375,0.0187530517578125,0.0020904541015625
1690838463929007600,11.665007568359375,-0.981201171875,0.0191192626953125,0.0012664794921875
1690838463939047700,11.675047607421876,-0.9818267822265625,0.019073486328125,0.0010833740234375
1690838463949088500,11.685088623046875,-0.9813995361328125,0.0186614990234375,-0.0000762939453125
1690838463959128600,11.695128662109376,-0.9811248779296875,0.019073486328125,0.000579833984375
1690838463969168600,11.705168701171875,-0.98150634765625,0.0186004638671875,0.00067138671875
1690838463979208700,11.715208740234376,-0.9810638427734375,0.0186920166015625,0.00018310546875
1690838463989249800,11.725249755859375,-0.981231689453125,0.0189361572265625,0.0003204345703125
1690838463999289600,11.73528955078125,-0.981353759765625,0.01904296875,0.0005645751953125
1690838464009329700,11.74532958984375,-0.98114013671875,0.018798828125,0.0010986328125
1690838464019369700,11.75536962890625,-0.9815521240234375,0.0188140869140625,0.0006256103515625
1690838464029410600,11.76541064453125,-0.9820098876953125,0.0185546875,0.0005035400390625
1690838464039450600,11.77545068359375,-0.9811859130859375,0.0193328857421875,0.0006866455078125
1690838464049490700,11.78549072265625,-0.9806060791015625,0.0191802978515625,0.0009307861328125
1690838464059561700,11.795561767578125,-0.9818572998046875,0.0189056396484375,0.0016021728515625
1690838464069601500,11.8056015625,-0.980987548828125,0.0183868408203125,0.000457763671875
1690838464079642600,11.815642578125,-0.9804534912109375,0.01971435546875,0.0009613037109375
1690838464089682700,11.8256826171875,-0.9808197021484375,0.0196990966796875,0.000762939453125
1690838464099722500,11.835722412109375,-0.9814910888671875,0.0181121826171875,0.000762939453125
1690838464109763600,11.845763671875,-0.9813232421875,0.0188751220703125,0.000946044921875
1690838464119803600,11.8558037109375,-0.981536865234375,0.0183563232421875,0.001373291015625
1690838464129843700,11.86584375,-0.9813079833984375,0.0186614990234375,0.001495361328125
1690838464139883500,11.875883544921875,-0.9815521240234375,0.0189971923828125,0.0015411376953125
1690838464149924600,11.885924560546876,-0.9812774658203125,0.018707275390625,0.0016937255859375
1690838464159964700,11.895964599609375,-0.98138427734375,0.0188140869140625,0.0009307861328125
1690838464170004500,11.90600439453125,-0.9814910888671875,0.0180206298828125,0.000640869140625
1690838464180045600,11.916045654296875,-0.981536865234375,0.0182952880859375,0.0005645751953125
1690838464190085600,11.926085693359376,-0.9808502197265625,0.0184478759765625,0.0003509521484375
1690838464200125700,11.936125732421875,-0.9810333251953125,0.0187530517578125,-0.00018310546875
1690838464210165800,11.946165771484376,-0.9807586669921875,0.0184783935546875,0.0002593994140625
1690838464220206800,11.956206787109375,-0.979949951171875,0.018829345703125,0.00189208984375
1690838464230276600,11.966276611328125,-0.98040771484375,0.01904296875,0.001922607421875
1690838464240317700,11.976317626953126,-0.981597900390625,0.0190582275390625,0.0017242431640625
1690838464250357500,11.986357421875,-0.980865478515625,0.018341064453125,0.0014495849609375
1690838464260397600,11.9963974609375,-0.9811859130859375,0.0186920166015625,0.0013580322265625
1690838464270438700,12.006438720703125,-0.9814910888671875,0.0190277099609375,0.0012969970703125
1690838464280478700,12.016478759765626,-0.9819488525390625,0.0190887451171875,0.0010528564453125
1690838464290518500,12.0265185546875,-0.9805450439453125,0.018890380859375,0.0014190673828125
1690838464300558600,12.03655859375,-0.9808197021484375,0.01904296875,0.00103759765625
1690838464310599700,12.046599609375,-0.981231689453125,0.019500732421875,0.00054931640625
1690838464320639500,12.056639404296876,-0.9813232421875,0.01873779296875,-0.00006103515625
1690838464330679600,12.066679443359375,-0.981903076171875,0.0187225341796875,-0.00079345703125
1690838464340720600,12.076720703125,-0.98065185546875,0.0186309814453125,0.000091552734375
1690838464350760700,12.0867607421875,-0.9798126220703125,0.0187530517578125,0.0019683837890625
1690838464360800500,12.096800537109376,-0.9815521240234375,0.018341064453125,0.0023040771484375
1690838464370818800,12.10681884765625,-0.9813079833984375,0.0184326171875,0.001922607421875
1690838464380860000,12.11685986328125,-0.9807891845703125,0.0188446044921875,0.0015106201171875
1690838464390900000,12.12689990234375,-0.9803466796875,0.019256591796875,0.0013885498046875
1690838464400971000,12.136970947265626,-0.9809722900390625,0.0193023681640625,0.0012664794921875
1690838464411010800,12.1470107421875,-0.982025146484375,0.0186614990234375,0.0007781982421875
1690838464421051000,12.15705078125,-0.979644775390625,0.0189666748046875,0.0005950927734375
1690838464431091700,12.167091796875,-0.9725341796875,0.018798828125,0.0009918212890625
1690838464441131800,12.1771318359375,-0.9897613525390625,0.01690673828125,-0.0001678466796875
1690838464451171800,12.187171875,-0.99493408203125,0.018280029296875,0.000518798828125
1690838464461213000,12.197212890625,-0.9671173095703125,0.0185394287109375,0.0016632080078125
1690838464471253000,12.2072529296875,-0.9831085205078125,0.020294189453125,0.00201416015625
1690838464481292800,12.217292724609376,-0.982177734375,0.0215911865234375,0.0026092529296875
1690838464491332900,12.227332763671875,-0.98358154296875,0.0200042724609375,0.00347900390625
1690838464501373700,12.237373779296876,-0.9802398681640625,0.019439697265625,0.0028533935546875
1690838464511413800,12.247413818359375,-0.9792327880859375,0.0180511474609375,0.0006103515625
1690838464521453800,12.257453857421876,-0.9821624755859375,0.0173187255859375,-0.0007476806640625
1690838464531494000,12.267493896484375,-0.9781951904296875,0.0176849365234375,-0.00177001953125
1690838464541535000,12.277534912109376,-0.9782562255859375,0.018035888671875,-0.0029144287109375
1690838464551575000,12.287574951171875,-0.980499267578125,0.0185089111328125,-0.0029449462890625
1690838464561614800,12.29761474609375,-0.98382568359375,0.0188446044921875,-0.000762939453125
1690838464571686000,12.307685791015626,-0.974334716796875,0.019378662109375,0.00146484375
1690838464581726000,12.317725830078125,-0.9882659912109375,0.0187835693359375,0.0048065185546875
1690838464591766800,12.327766845703126,-0.9854278564453125,0.018585205078125,0.0063323974609375
1690838464601806800,12.337806884765625,-0.9770660400390625,0.0192413330078125,0.00579833984375
1690838464611847000,12.347846923828126,-0.98590087890625,0.01910400390625,0.0031280517578125
1690838464621888000,12.357887939453125,-0.9788818359375,0.0183563232421875,0.0005950927734375
1690838464631927800,12.367927734375,-0.9813079833984375,0.0181732177734375,-0.002471923828125
1690838464641967900,12.3779677734375,-0.9788970947265625,0.0184173583984375,-0.0052032470703125
1690838464652008000,12.388008056640626,-0.978179931640625,0.0180511474609375,-0.0043487548828125
1690838464662048800,12.398048828125,-0.983856201171875,0.0189971923828125,-0.003204345703125
1690838464672088800,12.4080888671875,-0.97430419921875,0.0191497802734375,0.0001220703125
1690838464682129000,12.41812890625,-0.98388671875,0.019195556640625,0.0036773681640625
1690838464692170000,12.428169921875,-0.9854278564453125,0.0204315185546875,0.0069427490234375
1690838464702210000,12.4382099609375,-0.9791259765625,0.0203094482421875,0.008209228515625
1690838464712249900,12.448249755859376,-0.9815673828125,0.0192108154296875,0.0067596435546875
1690838464722290000,12.4582900390625,-0.986663818359375,0.0186920166015625,0.004058837890625
1690838464732330800,12.468330810546876,-0.978729248046875,0.0180511474609375,-0.0003509521484375
1690838464742400800,12.47840087890625,-0.980377197265625,0.0176544189453125,-0.0035858154296875
1690838464752441900,12.48844189453125,-0.9800872802734375,0.0163116455078125,-0.005462646484375
1690838464762482000,12.49848193359375,-0.97930908203125,0.0167694091796875,-0.00531005859375
1690838464772521700,12.508521728515625,-0.9806060791015625,0.017578125,-0.00347900390625
1690838464782562800,12.518562744140626,-0.980316162109375,0.0185089111328125,0.001220703125
1690838464792603000,12.528602783203125,-0.9851531982421875,0.0182647705078125,0.0046539306640625
1690838464802643000,12.538642822265626,-0.982696533203125,0.01904296875,0.007568359375
1690838464812682800,12.548682861328125,-0.980865478515625,0.0203857421875,0.0081634521484375
1690838464822723800,12.558723876953126,-0.986419677734375,0.0204010009765625,0.0069732666015625
1690838464832764000,12.568763916015625,-0.9796600341796875,0.0190582275390625,0.00390625
1690838464842803700,12.5788037109375,-0.9808197021484375,0.0186309814453125,-0.000152587890625
1690838464852844800,12.5888447265625,-0.982177734375,0.01776123046875,-0.00408935546875
1690838464862884900,12.598884765625,-0.9788818359375,0.0187225341796875,-0.005615234375
1690838464872925000,12.608925048828125,-0.9791107177734375,0.0186614990234375,-0.0059356689453125
1690838464882964700,12.61896484375,-0.9804840087890625,0.0192718505859375,-0.004058837890625
1690838464893005800,12.629005859375,-0.981353759765625,0.0193939208984375,-0.00054931640625
1690838464903076900,12.639076904296875,-0.9816741943359375,0.0203704833984375,0.003509521484375
1690838464913117000,12.649116943359376,-0.9814605712890625,0.02020263671875,0.0067138671875
1690838464923156700,12.65915673828125,-0.981658935546875,0.0192108154296875,0.00738525390625
1690838464933196800,12.66919677734375,-0.9832000732421875,0.019378662109375,0.005706787109375
1690838464943238000,12.67923779296875,-0.9785003662109375,0.0189666748046875,0.0036468505859375
1690838464953278000,12.68927783203125,-0.98223876953125,0.0182037353515625,0.0003509521484375
1690838464963317800,12.69931787109375,-0.98114013671875,0.0175933837890625,-0.003173828125
1690838464973358800,12.70935888671875,-0.9784088134765625,0.017608642578125,-0.0037384033203125
1690838464983399000,12.71939892578125,-0.98126220703125,0.018035888671875,-0.004425048828125
1690838464993438700,12.729438720703126,-0.98089599609375,0.0176239013671875,-0.003143310546875
1690838465003478800,12.739478759765625,-0.9813690185546875,0.019073486328125,0.0009613037109375
1690838465013520000,12.749519775390626,-0.9823455810546875,0.02008056640625,0.0036468505859375
1690838465023560000,12.759559814453125,-0.98291015625,0.0195465087890625,0.004669189453125
1690838465033599700,12.769599853515626,-0.982208251953125,0.01904296875,0.0047607421875
1690838465043639800,12.779639892578125,-0.9799652099609375,0.0192108154296875,0.0033721923828125
1690838465053681000,12.789680908203126,-0.9817657470703125,0.01824951171875,0.0017547607421875
1690838465063721000,12.799720947265625,-0.9810333251953125,0.0183563232421875,-0.0001373291015625
1690838465073791700,12.809791748046875,-0.978515625,0.0183868408203125,-0.0017852783203125
1690838465083831800,12.819831787109376,-0.97991943359375,0.0187835693359375,-0.0029754638671875
1690838465093871900,12.829871826171875,-0.9809112548828125,0.018951416015625,-0.0013885498046875
1690838465103912700,12.83991259765625,-0.9791412353515625,0.0192718505859375,-0.00042724609375
1690838465113952800,12.849952880859375,-0.98150634765625,0.019622802734375,0.00048828125
1690838465123992800,12.859992919921876,-0.9817047119140625,0.01904296875,0.0027313232421875
1690838465134034000,12.870033935546875,-0.9823760986328125,0.0186309814453125,0.004547119140625
1690838465144073700,12.88007373046875,-0.9824066162109375,0.018646240234375,0.0036773681640625
1690838465154113800,12.89011376953125,-0.9807891845703125,0.018768310546875,0.0030364990234375
1690838465164153900,12.90015380859375,-0.9805450439453125,0.01837158203125,0.0022430419921875
1690838465174194700,12.910194580078125,-0.98016357421875,0.0186920166015625,0.0009613037109375
1690838465184234800,12.92023486328125,-0.9802703857421875,0.0187835693359375,-0.0009765625
1690838465194274800,12.93027490234375,-0.9814605712890625,0.0182342529296875,-0.001373291015625
1690838465204316000,12.94031591796875,-0.9793548583984375,0.0187530517578125,-0.0006561279296875
1690838465214356000,12.95035595703125,-0.98052978515625,0.018798828125,0.0004119873046875
1690838465224395800,12.960395751953126,-0.9829559326171875,0.0196533203125,0.00115966796875
1690838465234435800,12.970435791015625,-0.981414794921875,0.01898193359375,0.0016021728515625
1690838465244507000,12.9805068359375,-0.980499267578125,0.018280029296875,0.00177001953125
1690838465254547000,12.990546875,-0.9809417724609375,0.019439697265625,0.0023193359375
1690838465264587800,13.000587890625,-0.9807891845703125,0.01922607421875,0.001678466796875
1690838465274627800,13.0106279296875,-0.980804443359375,0.01922607421875,0.001617431640625
1690838465284667600,13.020667724609375,-0.9806365966796875,0.0181732177734375,0.0015411376953125
1690838465294708700,13.030708740234376,-0.9802093505859375,0.0185089111328125,-0.0001068115234375
1690838465304748800,13.040748779296875,-0.9802093505859375,0.019073486328125,-0.00042724609375
1690838465314788900,13.050788818359376,-0.9815216064453125,0.01904296875,0.0006103515625
1690838465324829000,13.060828857421875,-0.9822235107421875,0.018707275390625,0.0011749267578125
