time,seconds_elapsed,z,y,x
1690841333506112300,0.0351123046875,-0.982940673828125,-0.0092010498046875,-0.0019683837890625
1690841333516122400,0.045122314453125,-0.9850921630859375,-0.0203857421875,-0.0061492919921875
1690841333526162400,0.055162353515625,-0.9839324951171875,-0.02557373046875,-0.006317138671875
1690841333536202500,0.065202392578125,-0.9828033447265625,-0.0296630859375,-0.00811767578125
1690841333546242300,0.0752421875,-0.9831695556640625,-0.0298919677734375,-0.0082550048828125
1690841333556283100,0.085283203125,-0.9795989990234375,-0.0262298583984375,-0.0069580078125
1690841333566323200,0.0953232421875,-0.9783477783203125,-0.0216827392578125,-0.0064849853515625
1690841333576363300,0.10536328125,-0.9763946533203125,-0.0142669677734375,-0.0041961669921875
1690841333586434300,0.115434326171875,-0.9744873046875,-0.0058135986328125,-0.0020599365234375
1690841333596474400,0.125474365234375,-0.971038818359375,0.004364013671875,0.0002288818359375
1690841333606515500,0.135515380859375,-0.9672698974609375,0.01373291015625,0.0023040771484375
1690841333616555300,0.14555517578125,-0.9665679931640625,0.0211334228515625,0.0023040771484375
1690841333626595300,0.15559521484375,-0.966217041015625,0.0236663818359375,0.0029754638671875
1690841333636635400,0.165635498046875,-0.9652252197265625,0.0228118896484375,0.001556396484375
1690841333646676200,0.17567626953125,-0.9666595458984375,0.017822265625,0.000244140625
1690841333656716300,0.18571630859375,-0.969635009765625,0.0107574462890625,-0.0012664794921875
1690841333666756400,0.19575634765625,-0.97222900390625,0.0023651123046875,-0.00311279296875
1690841333676797400,0.20579736328125,-0.9749908447265625,-0.0061798095703125,-0.0034942626953125
1690841333686837500,0.21583740234375,-0.9759674072265625,-0.0128936767578125,-0.003631591796875
1690841333696877300,0.225877197265625,-0.9774169921875,-0.0178680419921875,-0.0043487548828125
1690841333706917400,0.23591748046875,-0.9774017333984375,-0.0199432373046875,-0.0042877197265625
1690841333716988400,0.245988525390625,-0.9786834716796875,-0.01910400390625,-0.00408935546875
1690841333727029200,0.256029296875,-0.9776153564453125,-0.0170440673828125,-0.0030975341796875
1690841333737069300,0.2660693359375,-0.9761962890625,-0.012664794921875,-0.0034637451171875
1690841333747109400,0.276109375,-0.9750213623046875,-0.006683349609375,-0.0031890869140625
1690841333757149200,0.286149169921875,-0.973175048828125,-0.00006103515625,-0.002105712890625
1690841333767190300,0.296190185546875,-0.9717559814453125,0.0057220458984375,-0.0010986328125
1690841333777230300,0.306230224609375,-0.969970703125,0.01116943359375,-0.00054931640625
1690841333787270400,0.3162705078125,-0.9688873291015625,0.0140380859375,0.000396728515625
1690841333797311200,0.326311279296875,-0.9685211181640625,0.0132598876953125,0.0008087158203125
1690841333807351300,0.336351318359375,-0.969390869140625,0.011138916015625,-0.000244140625
1690841333817391400,0.346391357421875,-0.97064208984375,0.007080078125,-0.00042724609375
1690841333827431400,0.356431396484375,-0.972412109375,0.0022735595703125,-0.0014190673828125
1690841333837472500,0.366472412109375,-0.9743804931640625,-0.0035247802734375,-0.002471923828125
1690841333847542300,0.376542236328125,-0.975372314453125,-0.007659912109375,-0.0036163330078125
1690841333857583400,0.386583251953125,-0.9765472412109375,-0.0114898681640625,-0.0032501220703125
1690841333867623400,0.39662353515625,-0.9776763916015625,-0.0122528076171875,-0.0030059814453125
1690841333877663500,0.40666357421875,-0.977142333984375,-0.0124359130859375,-0.0037384033203125
1690841333887704300,0.416704345703125,-0.976348876953125,-0.01068115234375,-0.003997802734375
1690841333897744400,0.426744384765625,-0.97625732421875,-0.0074310302734375,-0.003082275390625
1690841333907784200,0.4367841796875,-0.9753570556640625,-0.004302978515625,-0.002471923828125
1690841333917824300,0.44682421875,-0.9732208251953125,0.000335693359375,-0.00225830078125
1690841333927865300,0.456865234375,-0.9727020263671875,0.002838134765625,-0.0015106201171875
1690841333937905400,0.466905517578125,-0.9717559814453125,0.005523681640625,-0.0015869140625
1690841333947945500,0.476945556640625,-0.9717559814453125,0.0069732666015625,-0.0011444091796875
1690841333957986300,0.486986328125,-0.9717254638671875,0.0071563720703125,-0.0012054443359375
1690841333968026400,0.4970263671875,-0.9714508056640625,0.00579833984375,-0.00128173828125
1690841333978097400,0.507097412109375,-0.97308349609375,0.0027618408203125,-0.0005035400390625
1690841333988137200,0.51713720703125,-0.97454833984375,-0.000274658203125,-0.0018157958984375
1690841333998177300,0.52717724609375,-0.97509765625,-0.0032806396484375,-0.00213623046875
1690841334008217300,0.53721728515625,-0.9759521484375,-0.006683349609375,-0.001922607421875
1690841334018258400,0.547258544921875,-0.9756622314453125,-0.0075836181640625,-0.003143310546875
1690841334028298500,0.557298583984375,-0.975799560546875,-0.0081787109375,-0.0042266845703125
1690841334038338300,0.56733837890625,-0.97607421875,-0.0068359375,-0.0032958984375
1690841334048379400,0.57737939453125,-0.975311279296875,-0.0062713623046875,-0.003326416015625
1690841334058419200,0.587419189453125,-0.975616455078125,-0.004486083984375,-0.00311279296875
1690841334068459300,0.597459228515625,-0.9744110107421875,-0.0012969970703125,-0.002166748046875
1690841334078499300,0.607499267578125,-0.9744110107421875,0.001007080078125,-0.0016632080078125
1690841334088540400,0.61754052734375,-0.973541259765625,0.002044677734375,-0.0013580322265625
1690841334098580500,0.62758056640625,-0.9735870361328125,0.0030975341796875,-0.0016937255859375
1690841334108651500,0.637651611328125,-0.9734649658203125,0.003509521484375,-0.001983642578125
1690841334118691300,0.64769140625,-0.9725341796875,0.0022125244140625,-0.00152587890625
1690841334128731100,0.657731201171875,-0.973388671875,0.0013885498046875,-0.002105712890625
1690841334138772200,0.667772216796875,-0.9744110107421875,-0.0000457763671875,-0.001312255859375
1690841334148812300,0.677812255859375,-0.974945068359375,-0.0026397705078125,-0.001800537109375
1690841334158852400,0.687852294921875,-0.9760589599609375,-0.0039215087890625,-0.0031280517578125
1690841334168893400,0.6978935546875,-0.97491455078125,-0.0045166015625,-0.003204345703125
1690841334178933500,0.70793359375,-0.975799560546875,-0.0057220458984375,-0.00347900390625
1690841334188973300,0.717973388671875,-0.975860595703125,-0.005035400390625,-0.0030975341796875
1690841334199013000,0.72801318359375,-0.9758453369140625,-0.0044708251953125,-0.0024261474609375
1690841334209054200,0.73805419921875,-0.975006103515625,-0.0022735595703125,-0.0019683837890625
1690841334219094300,0.74809423828125,-0.97564697265625,-0.001922607421875,-0.0023651123046875
1690841334229134300,0.75813427734375,-0.9749603271484375,-0.0001373291015625,-0.0018310546875
1690841334239205400,0.768205322265625,-0.9741668701171875,0.000762939453125,-0.002532958984375
1690841334249245400,0.778245361328125,-0.9737701416015625,0.0008544921875,-0.001861572265625
1690841334259286500,0.78828662109375,-0.9744415283203125,0.0014190673828125,-0.00115966796875
1690841334269326300,0.798326416015625,-0.9747467041015625,0.0007781982421875,-0.0023040771484375
1690841334279366100,0.8083662109375,-0.97528076171875,0.0001068115234375,-0.002410888671875
1690841334289406200,0.81840625,-0.975799560546875,-0.0003662109375,-0.0016937255859375
1690841334299445000,0.828445068359375,-0.9752960205078125,-0.001556396484375,-0.0020294189453125
1690841334309485000,0.838485107421875,-0.9766998291015625,-0.0025177001953125,-0.0033721923828125
1690841334319524900,0.84852490234375,-0.9767913818359375,-0.003387451171875,-0.00286865234375
1690841334329565700,0.858565673828125,-0.9766082763671875,-0.002655029296875,-0.002685546875
1690841334339605800,0.868605712890625,-0.9761962890625,-0.00335693359375,-0.0028533935546875
1690841334349645800,0.878645751953125,-0.97625732421875,-0.0028533935546875,-0.0021820068359375
1690841334359686000,0.888685791015625,-0.976531982421875,-0.0019683837890625,-0.001922607421875
1690841334369757000,0.8987568359375,-0.9763641357421875,-0.0013427734375,-0.001251220703125
1690841334379798000,0.908798095703125,-0.975494384765625,-0.000518798828125,-0.0019683837890625
1690841334389838000,0.918838134765625,-0.9758453369140625,-0.000030517578125,-0.00201416015625
1690841334399878000,0.9288779296875,-0.9755401611328125,-0.0005035400390625,-0.0027923583984375
1690841334409918000,0.93891796875,-0.975250244140625,-0.000396728515625,-0.002288818359375
1690841334419958800,0.948958740234375,-0.9757232666015625,-0.0000152587890625,-0.0014801025390625
1690841334429998800,0.958998779296875,-0.97601318359375,-0.000152587890625,-0.002349853515625
1690841334440039000,0.969038818359375,-0.976226806640625,-0.0009002685546875,-0.0025787353515625
1690841334450080000,0.979080078125,-0.975616455078125,-0.0012054443359375,-0.00238037109375
1690841334460120000,0.9891201171875,-0.9753570556640625,-0.0023651123046875,-0.0022430419921875
1690841334470160000,0.999159912109375,-0.9763641357421875,-0.002197265625,-0.0026702880859375
1690841334480200000,1.009199951171875,-0.9770660400390625,-0.002349853515625,-0.0023193359375
1690841334490271000,1.01927099609375,-0.9772186279296875,-0.002685546875,-0.0022430419921875
1690841334500310800,1.029310791015625,-0.9764251708984375,-0.00244140625,-0.0022430419921875
1690841334510352000,1.039351806640625,-0.9756011962890625,-0.00115966796875,-0.0017242431640625
1690841334520392000,1.049391845703125,-0.9759674072265625,-0.001434326171875,-0.0018463134765625
1690841334530432000,1.059431884765625,-0.9759368896484375,-0.000701904296875,-0.00177001953125
1690841334540473000,1.06947314453125,-0.9754486083984375,-0.0006103515625,-0.002044677734375
1690841334550513000,1.079512939453125,-0.9763031005859375,-0.0001220703125,-0.0019378662109375
1690841334560553000,1.089552978515625,-0.9769134521484375,-0.0005035400390625,-0.002288818359375
1690841334570592800,1.0995927734375,-0.975982666015625,-0.0004119873046875,-0.0023193359375
1690841334580633900,1.1096337890625,-0.9759979248046875,-0.0006103515625,-0.00225830078125
1690841334590674000,1.119673828125,-0.976409912109375,-0.000762939453125,-0.0019683837890625
1690841334600714000,1.1297138671875,-0.976959228515625,-0.0010223388671875,-0.0013580322265625
1690841334610755000,1.139755126953125,-0.9766998291015625,-0.001861572265625,-0.0018463134765625
1690841334620824800,1.149824951171875,-0.9774017333984375,-0.00164794921875,-0.0029144287109375
1690841334630866000,1.159865966796875,-0.97735595703125,-0.002105712890625,-0.0027008056640625
1690841334640906000,1.169906005859375,-0.9772491455078125,-0.0020751953125,-0.001678466796875
1690841334650945800,1.17994580078125,-0.977020263671875,-0.0018463134765625,-0.00140380859375
1690841334660985900,1.18998583984375,-0.9763946533203125,-0.0018310546875,-0.002655029296875
1690841334671027000,1.20002685546875,-0.9763031005859375,-0.001251220703125,-0.0026397705078125
1690841334681066800,1.210066650390625,-0.97674560546875,-0.00128173828125,-0.00244140625
1690841334691106800,1.22010693359375,-0.9758758544921875,-0.0008392333984375,-0.0015106201171875
1690841334701148000,1.23014794921875,-0.976043701171875,-0.0008697509765625,-0.0023956298828125
1690841334711187700,1.240187744140625,-0.9766082763671875,-0.0013580322265625,-0.00238037109375
1690841334721227800,1.250227783203125,-0.977081298828125,-0.001312255859375,-0.001922607421875
1690841334731267800,1.260267822265625,-0.977325439453125,-0.000579833984375,-0.0016021728515625
1690841334741309000,1.270308837890625,-0.9773406982421875,-0.0005035400390625,-0.0028839111328125
1690841334751380000,1.2803798828125,-0.97747802734375,-0.001129150390625,-0.0012359619140625
1690841334761419800,1.290419677734375,-0.977020263671875,-0.0020599365234375,-0.00250244140625
1690841334771459800,1.3004599609375,-0.976409912109375,-0.0020294189453125,-0.00274658203125
1690841334781500000,1.3105,-0.9765472412109375,-0.0018463134765625,-0.00286865234375
1690841334791540700,1.320540771484375,-0.976837158203125,-0.0021209716796875,-0.0025482177734375
1690841334801580800,1.330580810546875,-0.977264404296875,-0.0015106201171875,-0.002227783203125
1690841334811620900,1.340620849609375,-0.9762725830078125,-0.0016632080078125,-0.0017852783203125
1690841334821662000,1.350661865234375,-0.9765777587890625,-0.00091552734375,-0.00152587890625
1690841334831701800,1.36070166015625,-0.97711181640625,-0.00079345703125,-0.0016326904296875
1690841334841741800,1.370741943359375,-0.9755859375,-0.00146484375,-0.0020599365234375
1690841334851782000,1.380781982421875,-0.97564697265625,-0.001373291015625,-0.00274658203125
1690841334861822700,1.39082275390625,-0.9764404296875,-0.0008544921875,-0.0021820068359375
1690841334871862800,1.40086279296875,-0.9770355224609375,-0.001373291015625,-0.0023040771484375
1690841334881933800,1.410933837890625,-0.9763641357421875,-0.0019378662109375,-0.0019683837890625
1690841334891974000,1.420973876953125,-0.9764862060546875,-0.001129150390625,-0.0020904541015625
1690841334902013700,1.431013671875,-0.976715087890625,-0.0017547607421875,-0.002105712890625
1690841334912054800,1.4410546875,-0.976226806640625,-0.0021820068359375,-0.001861572265625
1690841334922094800,1.4510947265625,-0.9767913818359375,-0.0016326904296875,-0.00201416015625
1690841334932135000,1.461135009765625,-0.9775848388671875,-0.0015716552734375,-0.000946044921875
1690841334942175000,1.471175048828125,-0.977264404296875,-0.001708984375,-0.00146484375
1690841334952215800,1.4812158203125,-0.9762115478515625,-0.0020294189453125,-0.0012969970703125
1690841334962256000,1.491255859375,-0.9765472412109375,-0.0010223388671875,-0.00262451171875
1690841334972295700,1.501295654296875,-0.9766082763671875,-0.000823974609375,-0.0021514892578125
1690841334982336800,1.511336669921875,-0.9763946533203125,-0.001251220703125,-0.0012969970703125
1690841334992376800,1.521376953125,-0.97607421875,-0.001373291015625,-0.001953125
1690841335002417000,1.5314169921875,-0.976959228515625,-0.001861572265625,-0.0018768310546875
1690841335012488000,1.541488037109375,-0.97613525390625,-0.000762939453125,-0.0013427734375
1690841335022528000,1.551528076171875,-0.9764404296875,-0.0015411376953125,-0.001800537109375
1690841335032568800,1.56156884765625,-0.9773101806640625,-0.0021820068359375,-0.002105712890625
1690841335042609000,1.57160888671875,-0.9766693115234375,-0.0014801025390625,-0.002655029296875
1690841335052648700,1.581648681640625,-0.9767303466796875,-0.00201416015625,-0.0019683837890625
1690841335062688800,1.591688720703125,-0.9774017333984375,-0.0016021728515625,-0.001953125
1690841335072729900,1.601729736328125,-0.97662353515625,-0.0003814697265625,-0.003082275390625
1690841335082770000,1.61177001953125,-0.9769287109375,-0.0014801025390625,-0.002471923828125
1690841335092810000,1.62181005859375,-0.9769287109375,-0.001708984375,-0.0023956298828125
1690841335102850800,1.631850830078125,-0.9769134521484375,-0.0015716552734375,-0.00286865234375
1690841335112891000,1.641890869140625,-0.9763641357421875,-0.001373291015625,-0.0026397705078125
1690841335122930700,1.6519306640625,-0.9769744873046875,-0.0004730224609375,-0.0023193359375
1690841335132970800,1.661970703125,-0.9765777587890625,-0.0013580322265625,-0.002349853515625
1690841335143041800,1.672041748046875,-0.9766845703125,-0.0020751953125,-0.0019073486328125
1690841335153081900,1.682081787109375,-0.976959228515625,-0.001678466796875,-0.0015869140625
1690841335163123000,1.692123046875,-0.977081298828125,-0.0009613037109375,-0.001922607421875
1690841335173163000,1.7021630859375,-0.9767608642578125,-0.000732421875,-0.0013885498046875
1690841335183203000,1.712203125,-0.976348876953125,-0.00164794921875,-0.0011444091796875
1690841335193244000,1.722243896484375,-0.97662353515625,-0.0012969970703125,-0.00189208984375
1690841335203283700,1.73228369140625,-0.9759368896484375,-0.0014801025390625,-0.0020751953125
1690841335213323800,1.74232373046875,-0.976593017578125,-0.0016021728515625,-0.0027313232421875
1690841335223363800,1.75236376953125,-0.9774017333984375,-0.0014801025390625,-0.0025634765625
1690841335233405000,1.762405029296875,-0.976654052734375,-0.00128173828125,-0.002288818359375
1690841335243445000,1.772445068359375,-0.97637939453125,-0.0013885498046875,-0.001617431640625
1690841335253485000,1.782485107421875,-0.976654052734375,-0.0015411376953125,-0.00201416015625
1690841335263555800,1.792555908203125,-0.9769439697265625,-0.001678466796875,-0.0015869140625
1690841335273596000,1.802595947265625,-0.976470947265625,-0.0017547607421875,-0.0015411376953125
1690841335283636700,1.81263671875,-0.9769744873046875,-0.000640869140625,-0.0026702880859375
1690841335293676800,1.8226767578125,-0.9771728515625,-0.000823974609375,-0.0024871826171875
1690841335303701500,1.832701416015625,-0.9774322509765625,-0.0016937255859375,-0.001617431640625
1690841335313741600,1.842741455078125,-0.977203369140625,-0.000701904296875,-0.001708984375
1690841335323782400,1.852782470703125,-0.9765167236328125,-0.00115966796875,-0.0024566650390625
1690841335333822500,1.862822509765625,-0.9776763916015625,-0.001007080078125,-0.002227783203125
1690841335343862500,1.872862548828125,-0.976959228515625,-0.0007171630859375,-0.00201416015625
1690841335353903600,1.882903564453125,-0.9780731201171875,-0.00201416015625,-0.0016632080078125
1690841335363943400,1.892943359375,-0.976165771484375,-0.00164794921875,-0.0020599365234375
1690841335373983500,1.9029833984375,-0.9763031005859375,-0.0012664794921875,-0.0019989013671875
1690841335384023600,1.9130234375,-0.9775238037109375,-0.0011749267578125,-0.0018463134765625
1690841335394094600,1.923094482421875,-0.976531982421875,-0.0012359619140625,-0.00213623046875
1690841335404135400,1.933135498046875,-0.9764251708984375,-0.001678466796875,-0.0026397705078125
1690841335414175500,1.943175537109375,-0.976226806640625,-0.001983642578125,-0.001739501953125
1690841335424215600,1.953215576171875,-0.9773101806640625,-0.0010833740234375,-0.0019378662109375
1690841335434255400,1.96325537109375,-0.97711181640625,-0.0008544921875,-0.0020294189453125
1690841335444296400,1.97329638671875,-0.9763031005859375,-0.002197265625,-0.00164794921875
1690841335454336500,1.98333642578125,-0.9765777587890625,-0.001251220703125,-0.002166748046875
1690841335464376600,1.99337646484375,-0.97601318359375,-0.001190185546875,-0.0023651123046875
1690841335474417400,2.00341748046875,-0.9771575927734375,-0.0008544921875,-0.0030517578125
1690841335484457500,2.01345751953125,-0.976837158203125,-0.000457763671875,-0.003082275390625
1690841335494497500,2.02349755859375,-0.97589111328125,-0.00128173828125,-0.00238037109375
1690841335504537300,2.033537353515625,-0.9764251708984375,-0.001220703125,-0.001861572265625
1690841335514578400,2.043578369140625,-0.9764862060546875,-0.0017242431640625,-0.0022125244140625
1690841335524648400,2.0536484375,-0.9755706787109375,-0.00152587890625,-0.0024566650390625
1690841335534689500,2.063689453125,-0.9764862060546875,-0.0013275146484375,-0.001434326171875
1690841335544729300,2.073729248046875,-0.9763946533203125,-0.001708984375,-0.001708984375
1690841335554769400,2.083769287109375,-0.976776123046875,-0.00146484375,-0.0021514892578125
1690841335564810500,2.093810546875,-0.975616455078125,-0.000640869140625,-0.0025482177734375
1690841335574850600,2.1038505859375,-0.9763946533203125,-0.0010833740234375,-0.0027923583984375
1690841335584890400,2.113890380859375,-0.976715087890625,-0.001708984375,-0.002716064453125
1690841335594930400,2.123930419921875,-0.9756927490234375,-0.00177001953125,-0.001922607421875
1690841335604971500,2.133971435546875,-0.9752960205078125,-0.0013275146484375,-0.0010833740234375
1690841335615011300,2.14401123046875,-0.9764251708984375,-0.0009765625,-0.0019683837890625
1690841335625051400,2.154051513671875,-0.97686767578125,-0.001251220703125,-0.0022430419921875
1690841335635092500,2.164092529296875,-0.9764404296875,-0.0020294189453125,-0.00225830078125
1690841335645162200,2.174162353515625,-0.9764862060546875,-0.00238037109375,-0.0016632080078125
1690841335655203300,2.184203369140625,-0.9763336181640625,-0.002044677734375,-0.0023345947265625
1690841335665243400,2.194243408203125,-0.9770355224609375,-0.00164794921875,-0.0033721923828125
1690841335675283500,2.204283447265625,-0.977386474609375,-0.0024261474609375,-0.002227783203125
1690841335685324500,2.214324462890625,-0.976776123046875,-0.0023040771484375,-0.0021209716796875
1690841335695364400,2.2243642578125,-0.9767608642578125,-0.001190185546875,-0.0019989013671875
1690841335705404400,2.234404296875,-0.9760894775390625,-0.0008544921875,-0.002471923828125
1690841335715444500,2.244444580078125,-0.9766693115234375,-0.0012664794921875,-0.00189208984375
1690841335725485600,2.254485595703125,-0.977020263671875,-0.00140380859375,-0.0021209716796875
1690841335735525400,2.264525390625,-0.976593017578125,-0.0005645751953125,-0.001861572265625
1690841335745565400,2.2745654296875,-0.9781341552734375,-0.0015716552734375,-0.0018310546875
1690841335755605500,2.28460546875,-0.9767608642578125,-0.0019378662109375,-0.0021209716796875
1690841335765646300,2.294646240234375,-0.976470947265625,-0.0021820068359375,-0.002655029296875
1690841335775717400,2.30471728515625,-0.97686767578125,-0.001220703125,-0.0022430419921875
1690841335785757400,2.31475732421875,-0.9766693115234375,-0.0008697509765625,-0.0021514892578125
1690841335795797200,2.32479736328125,-0.9770355224609375,-0.001495361328125,-0.002288818359375
1690841335805837300,2.33483740234375,-0.976470947265625,-0.001708984375,-0.001495361328125
1690841335815878400,2.34487841796875,-0.9762725830078125,-0.0017242431640625,-0.0024261474609375
1690841335825918500,2.35491845703125,-0.9769744873046875,-0.0010528564453125,-0.0017547607421875
1690841335835958500,2.36495849609375,-0.9761810302734375,-0.0021820068359375,-0.001800537109375
1690841335845999400,2.374999267578125,-0.9756927490234375,-0.002166748046875,-0.00213623046875
1690841335856039400,2.385039306640625,-0.976409912109375,-0.00091552734375,-0.00286865234375
1690841335866079500,2.39507958984375,-0.97625732421875,-0.0011749267578125,-0.002349853515625
1690841335876119300,2.405119384765625,-0.976593017578125,-0.00146484375,-0.0017547607421875
1690841335886160400,2.415160400390625,-0.9774169921875,-0.00152587890625,-0.0025177001953125
1690841335896230400,2.42523046875,-0.9762420654296875,-0.00115966796875,-0.0023345947265625
1690841335906271500,2.435271484375,-0.97601318359375,-0.0009918212890625,-0.0023040771484375
1690841335916311600,2.4453115234375,-0.977142333984375,-0.0013885498046875,-0.0023956298828125
1690841335926351600,2.4553515625,-0.9759674072265625,-0.0022125244140625,-0.001953125
1690841335936392400,2.465392333984375,-0.9764251708984375,-0.0010223388671875,-0.0020904541015625
1690841335946432300,2.475432373046875,-0.9770355224609375,-0.000762939453125,-0.00189208984375
1690841335956472300,2.485472412109375,-0.975128173828125,-0.0013885498046875,-0.001983642578125
1690841335966512400,2.495512451171875,-0.976287841796875,-0.001312255859375,-0.0017852783203125
1690841335976553500,2.505553466796875,-0.9763946533203125,-0.0013580322265625,-0.002655029296875
1690841335986593500,2.515593505859375,-0.9764862060546875,-0.0015869140625,-0.0022125244140625
1690841335996633600,2.525633544921875,-0.9767913818359375,-0.0016937255859375,-0.0037384033203125
1690841336006674400,2.53567431640625,-0.9772186279296875,-0.00213623046875,-0.001861572265625
1690841336016714200,2.54571435546875,-0.976287841796875,-0.0022430419921875,-0.0013885498046875
1690841336026785300,2.555785400390625,-0.97723388671875,-0.0019073486328125,-0.00244140625
1690841336036825300,2.565825439453125,-0.9776763916015625,-0.00152587890625,-0.0027923583984375
1690841336046865400,2.575865478515625,-0.9771881103515625,-0.00030517578125,-0.002593994140625
1690841336056906500,2.585906494140625,-0.976043701171875,-0.001068115234375,-0.0022430419921875
1690841336066946600,2.595946533203125,-0.976654052734375,-0.001983642578125,-0.0021820068359375
1690841336076986600,2.605986572265625,-0.9770660400390625,-0.0009613037109375,-0.002105712890625
1690841336087026400,2.6160263671875,-0.9762420654296875,-0.001312255859375,-0.0020904541015625
1690841336097067300,2.6260673828125,-0.97589111328125,-0.00103759765625,-0.0021209716796875
1690841336107107300,2.636107421875,-0.9764862060546875,-0.00164794921875,-0.0015716552734375
1690841336117147400,2.6461474609375,-0.976287841796875,-0.0012054443359375,-0.0017242431640625
1690841336127188500,2.6561884765625,-0.977142333984375,-0.001495361328125,-0.0013580322265625
1690841336137228500,2.666228515625,-0.977264404296875,-0.00115966796875,-0.0023040771484375
1690841336147299600,2.676299560546875,-0.977508544921875,-0.0021514892578125,-0.0019378662109375
1690841336157339400,2.68633935546875,-0.97747802734375,-0.00128173828125,-0.0024871826171875
1690841336167379500,2.69637939453125,-0.9772186279296875,-0.0013580322265625,-0.0026092529296875
1690841336177419500,2.70641943359375,-0.9779052734375,-0.001312255859375,-0.0025787353515625
1690841336187460400,2.71646044921875,-0.97723388671875,-0.001434326171875,-0.002044677734375
1690841336197500400,2.72650048828125,-0.9770355224609375,-0.0020599365234375,-0.0021209716796875
1690841336207540500,2.73654052734375,-0.9763946533203125,-0.0018310546875,-0.0015869140625
1690841336217581600,2.74658154296875,-0.977142333984375,-0.00177001953125,-0.001861572265625
1690841336227621600,2.75662158203125,-0.97772216796875,-0.0010986328125,-0.00244140625
1690841336237661400,2.766661376953125,-0.9779815673828125,-0.0015716552734375,-0.0025787353515625
1690841336247701500,2.776701416015625,-0.9771728515625,-0.0019989013671875,-0.002288818359375
1690841336257742300,2.786742431640625,-0.977691650390625,-0.0017242431640625,-0.001678466796875
1690841336267782400,2.796782470703125,-0.978057861328125,-0.001800537109375,-0.001800537109375
1690841336277853400,2.806853515625,-0.9770660400390625,-0.0002899169921875,-0.0030975341796875
1690841336287893500,2.8168935546875,-0.9774017333984375,-0.0012054443359375,-0.0019683837890625
1690841336297933300,2.826933349609375,-0.976959228515625,-0.0009918212890625,-0.002105712890625
1690841336307974100,2.83697412109375,-0.9767303466796875,-0.0010833740234375,-0.0024261474609375
1690841336318014200,2.84701416015625,-0.97845458984375,-0.0008392333984375,-0.0017547607421875
1690841336328054300,2.85705419921875,-0.9771881103515625,-0.001220703125,-0.0020599365234375
1690841336338095000,2.86709521484375,-0.97637939453125,-0.0011138916015625,-0.0024871826171875
1690841336348135000,2.877135009765625,-0.9779052734375,-0.001129150390625,-0.0023040771484375
1690841336358175000,2.887175048828125,-0.9778289794921875,-0.00189208984375,-0.0020751953125
1690841336368215000,2.897215087890625,-0.9770965576171875,-0.0018157958984375,-0.002655029296875
1690841336378256100,2.907256103515625,-0.9775543212890625,-0.001312255859375,-0.0030670166015625
1690841336388296200,2.917296142578125,-0.9778289794921875,-0.0009765625,-0.00213623046875
1690841336398367200,2.9273671875,-0.977081298828125,-0.0022430419921875,-0.002532958984375
1690841336408407000,2.937406982421875,-0.97735595703125,-0.0019378662109375,-0.0019378662109375
1690841336418447000,2.947447021484375,-0.9782562255859375,-0.0011444091796875,-0.0016021728515625
1690841336428488000,2.957488037109375,-0.9776153564453125,-0.001129150390625,-0.0028076171875
1690841336438528000,2.967528076171875,-0.977874755859375,-0.00115966796875,-0.001983642578125
1690841336448568000,2.977568115234375,-0.978057861328125,-0.00128173828125,-0.00140380859375
1690841336458608000,2.987608154296875,-0.977752685546875,-0.001312255859375,-0.001861572265625
1690841336468649200,2.997649169921875,-0.9779815673828125,-0.0019073486328125,-0.002044677734375
1690841336478689300,3.007689208984375,-0.9778594970703125,-0.0018310546875,-0.001434326171875
1690841336488729000,3.01772900390625,-0.97802734375,-0.0018310546875,-0.00225830078125
1690841336498770000,3.02777001953125,-0.9777069091796875,-0.0023651123046875,-0.0026702880859375
1690841336508810000,3.03781005859375,-0.9780120849609375,-0.00152587890625,-0.0019378662109375
1690841336518850000,3.04785009765625,-0.9774627685546875,-0.001190185546875,-0.00238037109375
1690841336528921000,3.057921142578125,-0.97857666015625,-0.0008544921875,-0.00244140625
1690841336538961200,3.067961181640625,-0.9776763916015625,-0.000579833984375,-0.0018768310546875
1690841336549001000,3.0780009765625,-0.9778594970703125,-0.0012969970703125,-0.0024566650390625
1690841336559042000,3.0880419921875,-0.9773712158203125,-0.0014801025390625,-0.0030059814453125
1690841336569082000,3.09808203125,-0.978485107421875,-0.0016326904296875,-0.003021240234375
1690841336579122200,3.1081220703125,-0.9783477783203125,-0.001800537109375,-0.00201416015625
1690841336589163000,3.1181630859375,-0.9779510498046875,-0.001739501953125,-0.001739501953125
1690841336599203000,3.128203125,-0.9786834716796875,-0.001739501953125,-0.0014190673828125
1690841336609243100,3.1382431640625,-0.9786224365234375,-0.001800537109375,-0.0017852783203125
1690841336619283000,3.148282958984375,-0.9780731201171875,-0.00189208984375,-0.001739501953125
1690841336629324000,3.158323974609375,-0.9786376953125,-0.0016021728515625,-0.0023193359375
1690841336639364000,3.168364013671875,-0.978729248046875,-0.0014801025390625,-0.0022735595703125
1690841336649435100,3.17843505859375,-0.9778594970703125,-0.0011138916015625,-0.0023651123046875
1690841336659475200,3.18847509765625,-0.9785308837890625,-0.0020599365234375,-0.0028839111328125
1690841336669515000,3.198514892578125,-0.979583740234375,-0.0026092529296875,-0.0028839111328125
1690841336679556000,3.20855615234375,-0.9789276123046875,-0.001434326171875,-0.002410888671875
1690841336689596200,3.21859619140625,-0.9788665771484375,-0.0008392333984375,-0.0020599365234375
1690841336699636000,3.228635986328125,-0.9784393310546875,-0.0018310546875,-0.002593994140625
1690841336709677000,3.238677001953125,-0.9779510498046875,-0.0014495849609375,-0.001312255859375
1690841336719717000,3.248717041015625,-0.978851318359375,-0.00164794921875,-0.002197265625
1690841336729757200,3.258757080078125,-0.9783172607421875,-0.0016632080078125,-0.0026702880859375
1690841336739797000,3.268796875,-0.978973388671875,-0.0009765625,-0.0028839111328125
1690841336749838000,3.278838134765625,-0.9797515869140625,-0.00115966796875,-0.002105712890625
1690841336759878100,3.288878173828125,-0.9788665771484375,-0.0009765625,-0.001861572265625
1690841336769949000,3.298948974609375,-0.97943115234375,-0.00140380859375,-0.001800537109375
1690841336779989000,3.308989013671875,-0.9794158935546875,-0.0015869140625,-0.0018157958984375
1690841336790029000,3.319029052734375,-0.9794921875,-0.0019683837890625,-0.001861572265625
1690841336800070100,3.329070068359375,-0.9797210693359375,-0.001434326171875,-0.0027313232421875
1690841336810110200,3.339110107421875,-0.9793548583984375,-0.001373291015625,-0.0019989013671875
1690841336820150000,3.34914990234375,-0.979705810546875,-0.0016326904296875,-0.0018157958984375
1690841336830190000,3.359190185546875,-0.97930908203125,-0.001556396484375,-0.0020294189453125
1690841336840231200,3.369231201171875,-0.979278564453125,-0.0013580322265625,-0.00225830078125
1690841336850271000,3.37927099609375,-0.9790191650390625,-0.0016937255859375,-0.0020599365234375
1690841336860311000,3.38931103515625,-0.9802398681640625,-0.0015106201171875,-0.0028076171875
1690841336870352100,3.39935205078125,-0.9803619384765625,-0.001861572265625,-0.002471923828125
1690841336880392200,3.40939208984375,-0.979888916015625,-0.00103759765625,-0.0018310546875
1690841336890432000,3.419431884765625,-0.9795074462890625,-0.001312255859375,-0.002349853515625
1690841336900503000,3.4295029296875,-0.97869873046875,-0.0007476806640625,-0.00250244140625
1690841336910542800,3.43954296875,-0.97967529296875,-0.0021514892578125,-0.0020904541015625
1690841336920584000,3.449583984375,-0.9802703857421875,-0.0016937255859375,-0.002471923828125
1690841336930624000,3.4596240234375,-0.9790802001953125,-0.0014190673828125,-0.0025177001953125
1690841336940664000,3.4696640625,-0.9791412353515625,-0.00164794921875,-0.00213623046875
1690841336950704000,3.4797041015625,-0.9808349609375,-0.0016021728515625,-0.002197265625
1690841336960745200,3.4897451171875,-0.9799652099609375,-0.002166748046875,-0.00177001953125
1690841336970785000,3.499784912109375,-0.9787139892578125,-0.0012969970703125,-0.002410888671875
1690841336980825000,3.5098251953125,-0.980010986328125,-0.001556396484375,-0.00177001953125
1690841336990866200,3.5198662109375,-0.979034423828125,-0.001190185546875,-0.0024261474609375
1690841337000906000,3.529906005859375,-0.9788055419921875,-0.0009307861328125,-0.00335693359375
1690841337010946000,3.539946044921875,-0.9801788330078125,-0.001739501953125,-0.0026092529296875
1690841337021017000,3.55001708984375,-0.9812469482421875,-0.00128173828125,-0.00213623046875
1690841337031057200,3.56005712890625,-0.98065185546875,-0.0007781982421875,-0.0018157958984375
1690841337041097200,3.57009716796875,-0.9790496826171875,-0.0012664794921875,-0.00225830078125
1690841337051138000,3.580137939453125,-0.979736328125,-0.00140380859375,-0.002838134765625
1690841337061177900,3.590177734375,-0.9792022705078125,-0.001220703125,-0.0019683837890625
1690841337071218000,3.600218017578125,-0.977874755859375,-0.0011749267578125,-0.002532958984375
1690841337081259000,3.610259033203125,-0.9791107177734375,-0.00103759765625,-0.0019378662109375
1690841337091299000,3.620299072265625,-0.979583740234375,-0.001251220703125,-0.0022125244140625
1690841337101339100,3.630339111328125,-0.9802398681640625,-0.0015106201171875,-0.0021209716796875
1690841337111379200,3.640379150390625,-0.98004150390625,-0.0006561279296875,-0.0026397705078125
1690841337121420000,3.650419921875,-0.9802398681640625,-0.0007781982421875,-0.0025177001953125
1690841337131460000,3.660460205078125,-0.980712890625,-0.001678466796875,-0.0023651123046875
1690841337141531000,3.67053076171875,-0.980377197265625,-0.0014801025390625,-0.0020904541015625
1690841337151571000,3.680571044921875,-0.979156494140625,-0.0017852783203125,-0.0018157958984375
1690841337161611000,3.690611083984375,-0.9796600341796875,-0.0019073486328125,-0.001953125
1690841337171652000,3.700652099609375,-0.980224609375,-0.0018157958984375,-0.0024261474609375
1690841337181692200,3.710692138671875,-0.979766845703125,-0.001190185546875,-0.0025787353515625
1690841337191732200,3.720732177734375,-0.979156494140625,-0.0010986328125,-0.0018768310546875
1690841337201772000,3.73077197265625,-0.9638214111328125,-0.0051422119140625,-0.001922607421875
1690841337211812900,3.740812744140625,-0.990234375,-0.0177154541015625,-0.0485382080078125
1690841337221853000,3.75085302734375,-1.025909423828125,-0.057708740234375,0.054962158203125
1690841337231893000,3.76089306640625,-0.9944915771484375,0.0075836181640625,0.0146331787109375
1690841337241934000,3.77093408203125,-0.9539642333984375,0.01983642578125,-0.0133056640625
1690841337251974100,3.78097412109375,-0.981964111328125,0.0305023193359375,-0.006744384765625
1690841337262014200,3.79101416015625,-0.9588775634765625,0.02813720703125,-0.011871337890625
1690841337272085200,3.801085205078125,-0.975799560546875,0.0267791748046875,-0.000579833984375
1690841337282125000,3.811125,-0.9683074951171875,0.0235443115234375,0.0004119873046875
1690841337292166000,3.821165771484375,-0.981781005859375,0.0132598876953125,0.002288818359375
1690841337302206000,3.8312060546875,-0.9777374267578125,0.0029144287109375,0.0034027099609375
1690841337312241000,3.841240966796875,-0.9881744384765625,-0.007232666015625,0.0026092529296875
1690841337322280700,3.85128076171875,-0.9826507568359375,-0.01556396484375,-0.0004730224609375
1690841337332321500,3.861321533203125,-0.989837646484375,-0.0210723876953125,-0.0024871826171875
1690841337342361600,3.871361572265625,-0.984527587890625,-0.022491455078125,-0.0048980712890625
1690841337352401700,3.881401611328125,-0.986846923828125,-0.0205078125,-0.0063018798828125
1690841337362442800,3.89144287109375,-0.98199462890625,-0.0162811279296875,-0.007110595703125
1690841337372482800,3.90148291015625,-0.98614501953125,-0.009246826171875,-0.0054168701171875
1690841337382523000,3.91152294921875,-0.9745330810546875,-0.0012664794921875,-0.0041351318359375
1690841337392594000,3.921593994140625,-0.9829864501953125,0.0052490234375,-0.0014190673828125
1690841337402633700,3.9316337890625,-0.97381591796875,0.010467529296875,0.00103759765625
1690841337412673800,3.941673828125,-0.9774322509765625,0.0144195556640625,0.0023193359375
1690841337422714600,3.951714599609375,-0.9741973876953125,0.0162200927734375,0.0028839111328125
1690841337432754700,3.961754638671875,-0.9760284423828125,0.01556396484375,0.0023345947265625
1690841337442794800,3.971794677734375,-0.977447509765625,0.012786865234375,0.0013275146484375
1690841337452835800,3.9818359375,-0.9754791259765625,0.00799560546875,-0.0005035400390625
1690841337462876000,3.9918759765625,-0.978179931640625,0.0023193359375,-0.002197265625
1690841337472915700,4.001915771484375,-0.98150634765625,-0.0032196044921875,-0.003631591796875
1690841337482955800,4.011955810546875,-0.9803314208984375,-0.0077667236328125,-0.0046539306640625
1690841337492996600,4.02199658203125,-0.9837799072265625,-0.0108642578125,-0.0042266845703125
1690841337503036700,4.03203662109375,-0.9837799072265625,-0.0125579833984375,-0.00323486328125
1690841337513107700,4.042107666015625,-0.9827117919921875,-0.011749267578125,-0.002899169921875
1690841337523147800,4.052147705078125,-0.9839630126953125,-0.00958251953125,-0.001739501953125
1690841337533187600,4.0621875,-0.981475830078125,-0.0061492919921875,-0.0006103515625
1690841337543228700,4.072228759765625,-0.9797821044921875,-0.0013885498046875,-0.0013427734375
1690841337553268700,4.082268798828125,-0.9792022705078125,0.003204345703125,-0.0007171630859375
1690841337563308800,4.092308837890625,-0.977874755859375,0.0063018798828125,-0.000457763671875
1690841337573349600,4.102349609375,-0.9766998291015625,0.0092315673828125,-0.001007080078125
1690841337583389700,4.1123896484375,-0.9764862060546875,0.01080322265625,-0.0009002685546875
1690841337593429800,4.1224296875,-0.9752044677734375,0.0103607177734375,-0.0014190673828125
1690841337603469800,4.1324697265625,-0.9791259765625,0.00738525390625,-0.0016937255859375
1690841337613511000,4.142510986328125,-0.9779815673828125,0.003662109375,-0.00152587890625
1690841337623550700,4.15255078125,-0.978973388671875,0.000579833984375,-0.00091552734375
1690841337633590800,4.1625908203125,-0.980224609375,-0.002410888671875,-0.0014495849609375
1690841337643661800,4.172661865234375,-0.980712890625,-0.0047149658203125,-0.001220703125
1690841337653702000,4.182701904296875,-0.9805908203125,-0.006561279296875,-0.0023345947265625
1690841337663742700,4.19274267578125,-0.981170654296875,-0.0071563720703125,-0.002227783203125
1690841337673782800,4.20278271484375,-0.9804840087890625,-0.0069580078125,-0.00250244140625
1690841337683822600,4.212822509765625,-0.981048583984375,-0.00433349609375,-0.0024871826171875
1690841337693862700,4.222862548828125,-0.978851318359375,-0.0019989013671875,-0.00140380859375
1690841337703903700,4.23290380859375,-0.978729248046875,0.000762939453125,-0.0010223388671875
1690841337713943800,4.24294384765625,-0.9781951904296875,0.00323486328125,-0.00146484375
1690841337723984000,4.25298388671875,-0.97784423828125,0.00445556640625,-0.0004425048828125
1690841337734024700,4.263024658203125,-0.9782562255859375,0.0054168701171875,0.000030517578125
1690841337744064800,4.273064697265625,-0.977783203125,0.0055084228515625,-0.00079345703125
1690841337754104800,4.283104736328125,-0.9774932861328125,0.004791259765625,-0.0012969970703125
1690841337764175600,4.293175537109375,-0.978302001953125,0.003021240234375,-0.00244140625
1690841337774215700,4.303215576171875,-0.9785919189453125,0.001373291015625,-0.002685546875
1690841337784256800,4.3132568359375,-0.9798431396484375,-0.000244140625,-0.0013275146484375
1690841337794296800,4.323296875,-0.9797210693359375,-0.0023193359375,-0.00146484375
1690841337804337000,4.3333369140625,-0.97979736328125,-0.00408935546875,-0.0015869140625
1690841337814376700,4.343376708984375,-0.98095703125,-0.004302978515625,-0.0014801025390625
1690841337824417800,4.353417724609375,-0.9802398681640625,-0.0025634765625,-0.0022735595703125
1690841337834457600,4.36345751953125,-0.979400634765625,-0.0024871826171875,-0.00213623046875
1690841337844497700,4.37349755859375,-0.9802398681640625,-0.0008087158203125,-0.002166748046875
1690841337854537700,4.383537841796875,-0.978790283203125,0.0005340576171875,-0.002105712890625
1690841337864578800,4.393578857421875,-0.9783935546875,0.002410888671875,-0.0015716552734375
1690841337874619000,4.403618896484375,-0.978668212890625,0.0030364990234375,-0.0017547607421875
1690841337884690000,4.41368994140625,-0.978179931640625,0.0040283203125,-0.001739501953125
1690841337894729700,4.423729736328125,-0.9785919189453125,0.0037994384765625,-0.00146484375
1690841337904769500,4.43376953125,-0.9774627685546875,0.0025177001953125,-0.0012054443359375
1690841337914810600,4.443810546875,-0.9780731201171875,0.0015869140625,-0.000640869140625
1690841337924850700,4.4538505859375,-0.978607177734375,0.0009765625,-0.0011138916015625
1690841337934890800,4.463890869140625,-0.9792022705078125,-0.0001373291015625,-0.0016937255859375
1690841337944931800,4.473931884765625,-0.9806365966796875,-0.00152587890625,-0.0014495849609375
1690841337954972000,4.483971923828125,-0.9793243408203125,-0.001373291015625,-0.002716064453125
1690841337965011700,4.49401171875,-0.979248046875,-0.001007080078125,-0.00213623046875
1690841337975051500,4.504051513671875,-0.9792327880859375,-0.0015106201171875,-0.0021820068359375
1690841337985092600,4.514092529296875,-0.97821044921875,-0.00146484375,-0.0018768310546875
1690841337995132700,4.524132568359375,-0.977813720703125,-0.0002288818359375,-0.001800537109375
1690841338005203700,4.53420361328125,-0.9789581298828125,-0.000518798828125,-0.0022430419921875
1690841338015243800,4.544243896484375,-0.9785614013671875,0.0010833740234375,-0.0017852783203125
1690841338025283800,4.554283935546875,-0.97760009765625,0.001861572265625,-0.0005035400390625
1690841338035325000,4.564324951171875,-0.97821044921875,0.0020599365234375,-0.000885009765625
1690841338045364700,4.57436474609375,-0.9774932861328125,0.0030517578125,-0.001312255859375
1690841338055404500,4.584404541015625,-0.97906494140625,0.0019683837890625,-0.0016021728515625
1690841338065444600,4.594444580078125,-0.97869873046875,0.001495361328125,-0.0016326904296875
1690841338075485700,4.604485595703125,-0.9783477783203125,0.000244140625,-0.0016632080078125
1690841338085525800,4.61452587890625,-0.9777374267578125,0.000091552734375,-0.0023651123046875
1690841338095565800,4.62456591796875,-0.977569580078125,-0.00030517578125,-0.0013427734375
1690841338105607000,4.63460693359375,-0.978485107421875,0.0001678466796875,-0.0018463134765625
1690841338115646700,4.644646728515625,-0.978729248046875,-0.0002593994140625,-0.0021514892578125
1690841338125686500,4.6546865234375,-0.9774322509765625,-0.0004730224609375,-0.0021209716796875
1690841338135757600,4.664757568359375,-0.979156494140625,-0.0010223388671875,-0.0016937255859375
1690841338145797600,4.674797607421875,-0.97894287109375,-0.0001373291015625,-0.0016632080078125
1690841338155838700,4.684838623046875,-0.9784698486328125,0.00079345703125,-0.0010528564453125
1690841338165878800,4.694878662109375,-0.9774017333984375,0.000457763671875,-0.0009613037109375
1690841338175918800,4.7049189453125,-0.977386474609375,0.0009918212890625,-0.0011444091796875
1690841338185958700,4.714958740234375,-0.97882080078125,0.000885009765625,-0.0013427734375
1690841338195999700,4.724999755859375,-0.9778900146484375,0.00201416015625,-0.0013885498046875
1690841338206039600,4.73503955078125,-0.97747802734375,0.001739501953125,-0.001983642578125
1690841338216079600,4.74507958984375,-0.9778900146484375,0.00140380859375,-0.00213623046875
1690841338226120700,4.75512060546875,-0.9786376953125,0.00030517578125,-0.0011749267578125
1690841338236160800,4.765160888671875,-0.97821044921875,0.0001983642578125,-0.001708984375
1690841338246200800,4.775200927734375,-0.9783477783203125,-0.000091552734375,-0.0009002685546875
1690841338256272000,4.78527197265625,-0.9783172607421875,-0.0012664794921875,-0.001953125
1690841338266311700,4.795311767578125,-0.9782867431640625,-0.001434326171875,-0.0017242431640625
1690841338276351700,4.805351806640625,-0.978912353515625,-0.0010833740234375,-0.0017547607421875
1690841338286392600,4.815392578125,-0.9783782958984375,0.0001678466796875,-0.00177001953125
1690841338296432600,4.8254326171875,-0.97802734375,0.00067138671875,-0.0015411376953125
1690841338306462200,4.835462158203125,-0.9769439697265625,0.000335693359375,-0.0011749267578125
1690841338316503300,4.84550341796875,-0.9769439697265625,0.0010223388671875,-0.001953125
1690841338326543400,4.85554345703125,-0.9775543212890625,0.000946044921875,-0.00152587890625
1690841338336583200,4.865583251953125,-0.9779205322265625,0.0008697509765625,-0.001434326171875
1690841338346623200,4.875623291015625,-0.977752685546875,0.001220703125,-0.001800537109375
1690841338356664000,4.8856640625,-0.9777069091796875,0.0015869140625,-0.0011444091796875
1690841338366704000,4.8957041015625,-0.97760009765625,0.0008697509765625,-0.0008087158203125
1690841338376775200,4.905775146484375,-0.9767608642578125,0.0002288818359375,-0.00189208984375
1690841338386815200,4.915815185546875,-0.976715087890625,-0.0005035400390625,-0.00152587890625
1690841338396855300,4.925855224609375,-0.977264404296875,0.0001373291015625,-0.001922607421875
1690841338406896400,4.935896484375,-0.9781494140625,0.00042724609375,-0.0021514892578125
1690841338416936200,4.945936279296875,-0.9775390625,-0.0001373291015625,-0.0014495849609375
1690841338426976300,4.955976318359375,-0.9769744873046875,-0.0002288818359375,-0.0020904541015625
1690841338437016300,4.966016357421875,-0.9772796630859375,0.00048828125,-0.0017547607421875
1690841338447057200,4.97605712890625,-0.9766082763671875,0.000732421875,-0.0023193359375
1690841338457097200,4.98609716796875,-0.9769439697265625,0.000732421875,-0.001861572265625
1690841338467137300,4.99613720703125,-0.9773101806640625,0.0009307861328125,-0.00115966796875
1690841338477178400,5.006178466796875,-0.9774017333984375,0.001434326171875,-0.001983642578125
1690841338487218200,5.01621826171875,-0.9768524169921875,0.000885009765625,-0.002105712890625
1690841338497289200,5.026289306640625,-0.977783203125,0.0006561279296875,-0.0011444091796875
1690841338507329300,5.036329345703125,-0.977935791015625,0.001068115234375,-0.002197265625
1690841338517369300,5.046369384765625,-0.9771728515625,0.0006256103515625,-0.0009765625
1690841338527410200,5.05641015625,-0.9770965576171875,0.000274658203125,-0.000823974609375
1690841338537450200,5.0664501953125,-0.97808837890625,0.000579833984375,-0.00128173828125
1690841338547490300,5.076490234375,-0.9769134521484375,-0.000274658203125,-0.001739501953125
1690841338557530000,5.086530029296875,-0.977752685546875,0,-0.0018768310546875
1690841338567571200,5.0965712890625,-0.977447509765625,0.000335693359375,-0.0010833740234375
1690841338577611300,5.106611328125,-0.976226806640625,0.0009307861328125,-0.0012664794921875
1690841338587651300,5.1166513671875,-0.9771728515625,0.0004119873046875,-0.001708984375
1690841338597692200,5.126692138671875,-0.9769439697265625,0.0006866455078125,-0.0025634765625
1690841338607732200,5.136732177734375,-0.9768829345703125,0.0006561279296875,-0.0027618408203125
1690841338617803300,5.14680322265625,-0.977386474609375,0.000823974609375,-0.00225830078125
1690841338627843000,5.156843017578125,-0.9765625,0.0007476806640625,-0.0015869140625
1690841338637883100,5.166883056640625,-0.977386474609375,0.0006561279296875,-0.0013580322265625
1690841338647923200,5.176923095703125,-0.9769287109375,0.0009765625,-0.0006103515625
1690841338657964300,5.18696435546875,-0.9776153564453125,0.0003509521484375,-0.000762939453125
1690841338668004400,5.19700439453125,-0.97698974609375,0.0013427734375,-0.0005340576171875
1690841338678044400,5.20704443359375,-0.97784423828125,0.0006256103515625,-0.00103759765625
1690841338688085200,5.217085205078125,-0.977294921875,0.000091552734375,-0.00177001953125
1690841338698125000,5.227125,-0.97662353515625,0.000762939453125,-0.003143310546875
1690841338708165000,5.2371650390625,-0.9768829345703125,0.000244140625,-0.003387451171875
1690841338718205200,5.247205078125,-0.975982666015625,0.00006103515625,-0.002960205078125
1690841338728246300,5.257246337890625,-0.976715087890625,0.0007171630859375,-0.0026397705078125
1690841338738317300,5.2673173828125,-0.9762420654296875,0.0002899169921875,-0.0024871826171875
1690841338748357400,5.277357421875,-0.9770355224609375,-0.000274658203125,-0.001922607421875
1690841338758397400,5.2873974609375,-0.9774169921875,0.001007080078125,-0.0008697509765625
1690841338768437200,5.297437255859375,-0.9769287109375,0.000518798828125,-0.0004425048828125
1690841338778478000,5.30747802734375,-0.97601318359375,0.00042724609375,0.000274658203125
1690841338788518100,5.31751806640625,-0.9760894775390625,0.00018310546875,-0.0000762939453125
1690841338798558200,5.32755810546875,-0.97662353515625,0,-0.001495361328125
1690841338808599300,5.337599365234375,-0.9769744873046875,0.00018310546875,-0.0015869140625
1690841338818639400,5.347639404296875,-0.9768829345703125,0.0001373291015625,-0.002593994140625
1690841338828679400,5.357679443359375,-0.97735595703125,0.0000152587890625,-0.003387451171875
1690841338838719200,5.36771923828125,-0.9764404296875,0.0003509521484375,-0.0022430419921875
1690841338848760000,5.377760009765625,-0.9766082763671875,0.000732421875,-0.0012969970703125
1690841338858800000,5.387800048828125,-0.97607421875,0.0003204345703125,-0.0010223388671875
1690841338868871200,5.39787109375,-0.9761962890625,0.0005950927734375,-0.0003814697265625
1690841338878911200,5.4079111328125,-0.9769744873046875,0.0001983642578125,-0.00054931640625
1690841338888951300,5.417951416015625,-0.97686767578125,0.000823974609375,0.0003509521484375
1690841338898992400,5.427992431640625,-0.975982666015625,0.000457763671875,-0.000091552734375
1690841338909032400,5.438032470703125,-0.975677490234375,0.0010528564453125,-0.0017852783203125
1690841338919072300,5.448072265625,-0.9761505126953125,0.0012969970703125,-0.00244140625
1690841338929112300,5.4581123046875,-0.975860595703125,0.0004425048828125,-0.0025482177734375
1690841338939153200,5.468153076171875,-0.976776123046875,0.000091552734375,-0.002197265625
1690841338949193200,5.478193115234375,-0.9764862060546875,0.00042724609375,-0.000946044921875
1690841338959233300,5.4882333984375,-0.9773406982421875,0.000396728515625,-0.001556396484375
1690841338969274400,5.4982744140625,-0.9767608642578125,0.0001068115234375,-0.00103759765625
1690841338979314400,5.508314453125,-0.9754638671875,-0.00018310546875,-0.0008544921875
1690841338989385200,5.51838525390625,-0.9757537841796875,0.000396728515625,-0.0012664794921875
1690841338999425300,5.52842529296875,-0.976715087890625,0.00054931640625,-0.0009613037109375
1690841339009465300,5.53846533203125,-0.9769134521484375,0.00048828125,-0.001556396484375
1690841339019506200,5.548506103515625,-0.976348876953125,0.0006866455078125,-0.0012054443359375
1690841339029546200,5.558546142578125,-0.977020263671875,0.000762939453125,-0.001983642578125
1690841339039586300,5.56858642578125,-0.97662353515625,0.0004425048828125,-0.0014495849609375
1690841339049626400,5.57862646484375,-0.9757080078125,0.000274658203125,-0.0023193359375
1690841339059667500,5.58866748046875,-0.97607421875,-0.0003204345703125,-0.0019073486328125
1690841339069707300,5.598707275390625,-0.9764251708984375,0.0008697509765625,-0.0025787353515625
1690841339079747300,5.608747314453125,-0.97607421875,0.0004425048828125,-0.0014495849609375
1690841339089787100,5.618787109375,-0.975067138671875,0.00006103515625,-0.0008087158203125
1690841339099828200,5.628828125,-0.9759521484375,-0.0000762939453125,-0.001129150390625
1690841339109899300,5.638899169921875,-0.975555419921875,0.000457763671875,-0.0002593994140625
1690841339119939300,5.648939208984375,-0.97625732421875,0.0007781982421875,-0.0007476806640625
1690841339129979100,5.658979248046875,-0.9756927490234375,0.000579833984375,-0.0017852783203125
1690841339140019200,5.669019287109375,-0.975250244140625,0.0008392333984375,-0.0032196044921875
1690841339150060300,5.679060302734375,-0.975830078125,0.0001678466796875,-0.0025482177734375
1690841339160100000,5.68910009765625,-0.975616455078125,-0.000396728515625,-0.00244140625
1690841339170140200,5.69914013671875,-0.975830078125,-0.00006103515625,-0.0018768310546875
1690841339180181200,5.70918115234375,-0.9763336181640625,0.000030517578125,-0.0019378662109375
1690841339190221300,5.71922119140625,-0.975921630859375,0.000579833984375,-0.0007476806640625
1690841339200261400,5.729261474609375,-0.9754486083984375,0.0004119873046875,-0.0013427734375
1690841339210301200,5.73930126953125,-0.9763031005859375,0.001129150390625,-0.00244140625
1690841339220342300,5.74934228515625,-0.9755706787109375,0.00054931640625,-0.001800537109375
1690841339230412300,5.759412353515625,-0.9752044677734375,0.0003814697265625,-0.0015869140625
1690841339240453000,5.769453125,-0.9761505126953125,0.0005645751953125,-0.0017852783203125
1690841339250493200,5.7794931640625,-0.9761810302734375,0.00048828125,-0.0015716552734375
1690841339260533200,5.789533203125,-0.9755096435546875,0.0008697509765625,-0.0019073486328125
1690841339270574300,5.79957421875,-0.9763031005859375,0.0010833740234375,-0.0022735595703125
1690841339280614100,5.8096142578125,-0.975799560546875,0.0011138916015625,-0.002471923828125
1690841339290654200,5.819654296875,-0.975372314453125,0.0011138916015625,-0.001983642578125
1690841339300694300,5.8296943359375,-0.9755706787109375,0.0001678466796875,-0.0012664794921875
1690841339310739700,5.83973974609375,-0.9755096435546875,0.0000457763671875,-0.0011749267578125
1690841339320779800,5.84977978515625,-0.975860595703125,0.0006866455078125,-0.0014190673828125
1690841339330819800,5.85981982421875,-0.976104736328125,0.0006866455078125,-0.0007476806640625
1690841339340861000,5.86986083984375,-0.9748382568359375,0.0000457763671875,-0.001373291015625
1690841339350930700,5.8799306640625,-0.9758148193359375,0.0005950927734375,-0.0013580322265625
1690841339360971800,5.8899716796875,-0.9748382568359375,0.0001373291015625,-0.0011444091796875
1690841339371011800,5.90001171875,-0.9756011962890625,0.0003204345703125,-0.0010986328125
1690841339381052000,5.910052001953125,-0.975799560546875,0.00091552734375,-0.00189208984375
1690841339391092700,5.9200927734375,-0.97589111328125,0.00018310546875,-0.0015106201171875
1690841339401132800,5.9301328125,-0.975555419921875,0.00018310546875,-0.0009307861328125
1690841339411172600,5.940172607421875,-0.97454833984375,0.00048828125,-0.0013275146484375
1690841339421212700,5.950212646484375,-0.97467041015625,0.0009613037109375,-0.00177001953125
1690841339431253800,5.960253662109375,-0.9755401611328125,0.0006103515625,-0.001068115234375
1690841339441293800,5.9702939453125,-0.975372314453125,0.0005950927734375,-0.001861572265625
1690841339451334000,5.980333984375,-0.974945068359375,0.000457763671875,-0.0016937255859375
1690841339461374700,5.990374755859375,-0.975006103515625,0.0009613037109375,-0.000946044921875
1690841339471444700,6.00044482421875,-0.9756317138671875,0.0007781982421875,-0.0010986328125
1690841339481485800,6.01048583984375,-0.97479248046875,-0.0001983642578125,-0.0010528564453125
1690841339491525600,6.020525634765625,-0.9751129150390625,0.000885009765625,-0.000885009765625
1690841339501565700,6.030565673828125,-0.9747314453125,0.00091552734375,-0.0008392333984375
1690841339511605800,6.040605712890625,-0.974365234375,-0.0002899169921875,-0.0012359619140625
1690841339521646800,6.050646728515625,-0.9744415283203125,0.000274658203125,-0.0019073486328125
1690841339531686700,6.060686767578125,-0.9741668701171875,-0.0001220703125,-0.0018310546875
1690841339541726700,6.070726806640625,-0.9756622314453125,0.000457763671875,-0.001922607421875
1690841339551767800,6.080767822265625,-0.9756317138671875,0.0004730224609375,-0.0010833740234375
1690841339561807600,6.0908076171875,-0.9752044677734375,0.0009002685546875,-0.00115966796875
1690841339571847700,6.10084765625,-0.974884033203125,0.001068115234375,-0.0021820068359375
1690841339581918700,6.110918701171875,-0.9746551513671875,-0.000030517578125,-0.0015106201171875
1690841339591958800,6.120958740234375,-0.975006103515625,-0.0000152587890625,-0.00152587890625
1690841339602000000,6.130999755859375,-0.9755859375,0.0006256103515625,-0.0019378662109375
1690841339612039700,6.141039794921875,-0.9748382568359375,0.00067138671875,-0.00164794921875
1690841339622079700,6.151079833984375,-0.97454833984375,0.00030517578125,-0.001129150390625
1690841339632119600,6.16111962890625,-0.9744873046875,-0.000030517578125,-0.00067138671875
1690841339642160600,6.17116064453125,-0.975128173828125,0.000579833984375,-0.0016021728515625
1690841339652200700,6.18120068359375,-0.9757537841796875,0.0004730224609375,-0.001220703125
1690841339662240800,6.19124072265625,-0.9750213623046875,0.0012054443359375,-0.0018157958984375
1690841339672281900,6.20128173828125,-0.975341796875,0.0005950927734375,-0.00140380859375
1690841339682321700,6.21132177734375,-0.9751434326171875,-0.0007476806640625,-0.0018463134765625
1690841339692361700,6.22136181640625,-0.9749298095703125,-0.000091552734375,-0.0016326904296875
1690841339702432500,6.2314326171875,-0.9745635986328125,-0.0000762939453125,-0.0002593994140625
1690841339712472600,6.24147265625,-0.974639892578125,0.000640869140625,-0.0010833740234375
1690841339722512600,6.2515126953125,-0.97503662109375,0.0008392333984375,-0.00079345703125
1690841339732553700,6.2615537109375,-0.975006103515625,-0.000335693359375,-0.0015411376953125
1690841339742593800,6.27159375,-0.9740142822265625,0.0001068115234375,-0.00140380859375
1690841339752633900,6.2816337890625,-0.97467041015625,0.0001983642578125,-0.0021514892578125
1690841339762674700,6.2916748046875,-0.9738311767578125,0.0006866455078125,-0.0022125244140625
1690841339772714800,6.30171484375,-0.974884033203125,0.000732421875,-0.001861572265625
1690841339782754600,6.311754638671875,-0.9750823974609375,-0.0001068115234375,-0.001312255859375
1690841339792794600,6.321794677734375,-0.9756317138671875,0.0003814697265625,-0.0012969970703125
1690841339802835700,6.331835693359375,-0.9748687744140625,0.0006103515625,-0.0014495849609375
1690841339812875800,6.341875732421875,-0.9743194580078125,-0.0003814697265625,-0.002105712890625
1690841339822946800,6.35194677734375,-0.9755706787109375,0.0003662109375,-0.0014801025390625
1690841339832987000,6.36198681640625,-0.9741668701171875,0.0004730224609375,-0.0015411376953125
1690841339843026700,6.372026611328125,-0.9736175537109375,0.0010833740234375,-0.001434326171875
1690841339853067500,6.382067626953125,-0.974609375,-0.0001373291015625,-0.001708984375
1690841339863107600,6.392107666015625,-0.974395751953125,0.000030517578125,-0.001190185546875
1690841339873147600,6.402147705078125,-0.974334716796875,-0.000335693359375,-0.001495361328125
1690841339883187700,6.412187744140625,-0.974395751953125,0.0003509521484375,-0.0012359619140625
1690841339893228800,6.422228759765625,-0.9732818603515625,0.000640869140625,-0.0016632080078125
1690841339903268900,6.432268798828125,-0.97430419921875,-0.00030517578125,-0.0017852783203125
1690841339913309000,6.442308837890625,-0.9739532470703125,-0.0000457763671875,-0.001220703125
1690841339923349800,6.452349853515625,-0.97442626953125,0.0002593994140625,-0.001251220703125
1690841339933389600,6.4623896484375,-0.9749908447265625,0.000732421875,-0.0010833740234375
1690841339943460600,6.472460693359375,-0.9748077392578125,0.0011138916015625,-0.00115966796875
1690841339953500700,6.482500732421875,-0.9750518798828125,0.00048828125,-0.00103759765625
1690841339963540700,6.492540771484375,-0.9743499755859375,0.0002288818359375,-0.0012054443359375
1690841339973581800,6.502581787109375,-0.9737548828125,0.0004119873046875,-0.0009765625
1690841339983622000,6.512621826171875,-0.9734954833984375,0.0003204345703125,-0.001495361328125
1690841339993661700,6.52266162109375,-0.974517822265625,-0.0002288818359375,-0.0011444091796875
1690841340003701800,6.53270166015625,-0.9740753173828125,0.0005035400390625,-0.001129150390625
1690841340013742600,6.54274267578125,-0.9744720458984375,0.0001983642578125,-0.0010986328125
1690841340023782700,6.55278271484375,-0.9742584228515625,0.0003814697265625,-0.00164794921875
1690841340033822700,6.56282275390625,-0.975128173828125,0.00042724609375,-0.0014190673828125
1690841340043863800,6.57286376953125,-0.9742584228515625,0.00042724609375,-0.0015411376953125
1690841340053904000,6.58290380859375,-0.97418212890625,-0.0001220703125,-0.0013427734375
1690841340063975000,6.592974853515625,-0.974365234375,-0.000030517578125,-0.001617431640625
1690841340074014700,6.6030146484375,-0.974578857421875,0.000701904296875,-0.0016937255859375
1690841340084054800,6.6130546875,-0.9743804931640625,0.0004730224609375,-0.0011444091796875
1690841340094094800,6.6230947265625,-0.9730072021484375,0.0020294189453125,-0.001800537109375
1690841340104135700,6.6331357421875,-0.973724365234375,0.0005340576171875,-0.0019378662109375
1690841340114175700,6.64317578125,-0.973419189453125,0.001129150390625,-0.0016326904296875
1690841340124215800,6.6532158203125,-0.9749603271484375,0.0003509521484375,-0.0014495849609375
1690841340134257000,6.6632568359375,-0.974700927734375,0.0006866455078125,-0.00115966796875
1690841340144296700,6.673296630859375,-0.974853515625,0.0003662109375,-0.0012664794921875
1690841340154336800,6.683336669921875,-0.974456787109375,0.000396728515625,-0.0010223388671875
1690841340164376800,6.693376953125,-0.974273681640625,0.0004119873046875,-0.001861572265625
1690841340174447900,6.70344775390625,-0.9737548828125,0.000518798828125,-0.001190185546875
1690841340184488700,6.71348876953125,-0.97442626953125,0.0007171630859375,-0.00128173828125
1690841340194528800,6.72352880859375,-0.9742889404296875,0.000885009765625,-0.001190185546875
1690841340204568600,6.733568603515625,-0.973785400390625,0.0005645751953125,-0.0017242431640625
1690841340214608600,6.743608642578125,-0.97332763671875,0.0005035400390625,-0.001861572265625
1690841340224649700,6.753649658203125,-0.9737701416015625,0.0009765625,-0.0014801025390625
1690841340234689800,6.763689697265625,-0.9738616943359375,0.0006866455078125,-0.001800537109375
1690841340244729900,6.773729736328125,-0.97406005859375,0.0006103515625,-0.0006256103515625
1690841340254770700,6.783770751953125,-0.974761962890625,0.000396728515625,-0.001251220703125
1690841340264810800,6.793810791015625,-0.973846435546875,0.000244140625,-0.000946044921875
1690841340274850800,6.803850830078125,-0.973785400390625,0.0006103515625,-0.0009765625
1690841340284890600,6.813890625,-0.9741363525390625,0.0002593994140625,-0.0018157958984375
1690841340294961700,6.823961669921875,-0.9744720458984375,-0.0000457763671875,-0.001373291015625
1690841340305001700,6.834001708984375,-0.9733428955078125,-0.0000152587890625,-0.0012664794921875
1690841340315018000,6.84401806640625,-0.973297119140625,0.000762939453125,-0.002166748046875
1690841340325058000,6.85405810546875,-0.97406005859375,0.0007171630859375,-0.002105712890625
1690841340335098000,6.86409814453125,-0.9742431640625,0.00048828125,-0.001495361328125
1690841340345139000,6.874138916015625,-0.97393798828125,0.0005035400390625,-0.0020904541015625
1690841340355178800,6.8841787109375,-0.9744110107421875,0.000579833984375,-0.0013580322265625
1690841340365218800,6.89421875,-0.97320556640625,0.000640869140625,-0.001739501953125
1690841340375259000,6.9042587890625,-0.9739990234375,0.0012664794921875,-0.0022125244140625
1690841340385300000,6.914300048828125,-0.9727783203125,0.0002593994140625,-0.001220703125
1690841340395340000,6.924340087890625,-0.9738922119140625,0.0000457763671875,-0.000457763671875
1690841340405380000,6.934380126953125,-0.9748687744140625,0.0003662109375,-0.001190185546875
1690841340415451100,6.944451171875,-0.973724365234375,0.0014495849609375,-0.0016021728515625
1690841340425491000,6.954490966796875,-0.9736328125,-0.00018310546875,-0.0014801025390625
1690841340435531800,6.96453173828125,-0.9736785888671875,-0.0005035400390625,-0.0014190673828125
1690841340445571800,6.97457177734375,-0.9740142822265625,0.0003509521484375,-0.001495361328125
1690841340455612000,6.98461181640625,-0.9741973876953125,0.0004425048828125,-0.0017242431640625
1690841340465653000,6.994653076171875,-0.9735870361328125,0.000579833984375,-0.0002899169921875
1690841340475693000,7.004693115234375,-0.9740447998046875,0.000457763671875,-0.0006866455078125
1690841340485733000,7.014733154296875,-0.9744110107421875,0.0007171630859375,-0.0009307861328125
1690841340495773000,7.02477294921875,-0.9742889404296875,0.0003204345703125,-0.001556396484375
1690841340505813800,7.034813720703125,-0.97314453125,0.0000762939453125,-0.0016021728515625
1690841340515853800,7.044853759765625,-0.973358154296875,0.0001068115234375,-0.0010528564453125
1690841340525924900,7.0549248046875,-0.9738616943359375,0.0007476806640625,-0.001312255859375
1690841340535965000,7.06496484375,-0.97479248046875,0.0003662109375,-0.002410888671875
1690841340546005000,7.0750048828125,-0.973907470703125,0.000274658203125,-0.00225830078125
1690841340556046000,7.085046142578125,-0.97406005859375,0.000030517578125,-0.00152587890625
1690841340566086100,7.095086181640625,-0.97332763671875,0.00115966796875,-0.0018310546875
1690841340576126000,7.1051259765625,-0.9736785888671875,0.000732421875,-0.001617431640625
1690841340586166000,7.115166015625,-0.97406005859375,0.0000762939453125,-0.001007080078125
1690841340596206800,7.125206787109375,-0.9732818603515625,0.0005950927734375,-0.0013275146484375
1690841340606247000,7.135246826171875,-0.9734039306640625,0.0005035400390625,-0.0015106201171875
1690841340616287000,7.145286865234375,-0.97357177734375,0.0004119873046875,-0.0016632080078125
1690841340626328000,7.155328125,-0.973724365234375,0.0009307861328125,-0.0018768310546875
1690841340636368100,7.1653681640625,-0.97344970703125,0.00152587890625,-0.0019378662109375
1690841340646439000,7.17543896484375,-0.9731292724609375,0.001220703125,-0.0017242431640625
1690841340656479000,7.18547900390625,-0.97314453125,0.00091552734375,-0.0011138916015625
1690841340666519000,7.19551904296875,-0.9731903076171875,0.00079345703125,-0.0016326904296875
1690841340676558800,7.205558837890625,-0.973236083984375,0.000213623046875,-0.0020294189453125
1690841340686600000,7.215599853515625,-0.97369384765625,-0.0001373291015625,-0.001861572265625
1690841340696640000,7.225639892578125,-0.9739990234375,0.0002593994140625,-0.0009918212890625
1690841340706680000,7.23568017578125,-0.973358154296875,0.000030517578125,-0.001708984375
1690841340716721200,7.24572119140625,-0.9727325439453125,0.0001220703125,-0.002288818359375
1690841340726761000,7.255760986328125,-0.96173095703125,-0.0120391845703125,-0.0074920654296875
1690841340736801000,7.265801025390625,-1.0676422119140625,-0.081390380859375,-0.023406982421875
1690841340746840800,7.2758408203125,-0.96405029296875,0.037139892578125,0.0323486328125
1690841340756911900,7.285911865234375,-0.948394775390625,0.0206756591796875,-0.009124755859375
1690841340766953000,7.295952880859375,-0.9814605712890625,0.028839111328125,0.0189208984375
1690841340776993000,7.305992919921875,-0.9662933349609375,0.0331268310546875,0.0196075439453125
1690841340787032800,7.31603271484375,-0.965484619140625,0.0300445556640625,-0.0015106201171875
1690841340797073000,7.326072998046875,-0.959930419921875,0.024322509765625,-0.015106201171875
1690841340807114000,7.336114013671875,-0.9657440185546875,0.014984130859375,-0.0164337158203125
1690841340817154000,7.346154052734375,-0.967803955078125,0.0080413818359375,-0.017303466796875
1690841340827193900,7.35619384765625,-0.9703216552734375,-0.001251220703125,-0.0140838623046875
1690841340837235000,7.36623486328125,-0.975677490234375,-0.00970458984375,-0.0077362060546875
1690841340847275000,7.37627490234375,-0.98187255859375,-0.015380859375,0.0001068115234375
1690841340857315000,7.386315185546875,-0.9846954345703125,-0.0192108154296875,0.007293701171875
1690841340867355000,7.39635498046875,-0.979522705078125,-0.0200653076171875,0.011138916015625
1690841340877426000,7.406426025390625,-0.9885711669921875,-0.01824951171875,0.0111236572265625
1690841340887466000,7.416466064453125,-0.980865478515625,-0.0142822265625,0.0072784423828125
1690841340897507000,7.426507080078125,-0.9711151123046875,-0.006500244140625,0.0001678466796875
1690841340907547000,7.436546875,-0.9766082763671875,0.0014495849609375,-0.004913330078125
1690841340917587000,7.4465869140625,-0.9670257568359375,0.008880615234375,-0.008148193359375
1690841340927628000,7.4566279296875,-0.9675445556640625,0.01446533203125,-0.0092926025390625
1690841340937667800,7.466667724609375,-0.966094970703125,0.0174407958984375,-0.008941650390625
1690841340947708000,7.4767080078125,-0.964813232421875,0.018707275390625,-0.00726318359375
1690841340957748000,7.486748046875,-0.970001220703125,0.0186614990234375,-0.003570556640625
1690841340967789000,7.4967890625,-0.9649505615234375,0.0152435302734375,-0.000335693359375
1690841340977828900,7.506828857421875,-0.975616455078125,0.0102996826171875,0.002532958984375
1690841340987900000,7.51689990234375,-0.9761505126953125,0.0054168701171875,0.0059661865234375
1690841340997940000,7.52693994140625,-0.97381591796875,-0.00006103515625,0.0067901611328125
1690841341007979800,7.536979736328125,-0.9782562255859375,-0.00469970703125,0.0045623779296875
1690841341018020900,7.547020751953125,-0.9784698486328125,-0.0084228515625,0.0008544921875
1690841341028061000,7.55706103515625,-0.972991943359375,-0.0104827880859375,-0.0037078857421875
1690841341038101000,7.56710107421875,-0.9770050048828125,-0.0100555419921875,-0.0063323974609375
1690841341048142000,7.57714208984375,-0.9748687744140625,-0.008636474609375,-0.0083770751953125
1690841341058182000,7.587181884765625,-0.974273681640625,-0.006500244140625,-0.0087127685546875
1690841341068222000,7.597221923828125,-0.9735260009765625,-0.0023040771484375,-0.006561279296875
1690841341078261800,7.60726171875,-0.971832275390625,0.0012969970703125,-0.00384521484375
1690841341088302800,7.617302734375,-0.972686767578125,0.0045318603515625,-0.0008697509765625
1690841341098343000,7.627343017578125,-0.9714813232421875,0.007415771484375,0.0016937255859375
1690841341108414000,7.6374140625,-0.9710845947265625,0.009613037109375,0.0037994384765625
1690841341118454000,7.6474541015625,-0.9752655029296875,0.01129150390625,0.0038604736328125
1690841341128494000,7.657494140625,-0.9682464599609375,0.0111236572265625,0.0034027099609375
1690841341138535000,7.667534912109375,-0.9712677001953125,0.0097808837890625,0.001068115234375
1690841341148575000,7.677574951171875,-0.972625732421875,0.0074005126953125,-0.001495361328125
1690841341158614800,7.68761474609375,-0.96954345703125,0.0044097900390625,-0.0025177001953125
1690841341168654800,7.69765478515625,-0.9729461669921875,0.001495361328125,-0.0043182373046875
1690841341178696000,7.707696044921875,-0.9742584228515625,-0.0008392333984375,-0.0045318603515625
1690841341188736000,7.717736083984375,-0.972747802734375,-0.0028533935546875,-0.004730224609375
1690841341198776000,7.727776123046875,-0.9754486083984375,-0.004791259765625,-0.0038909912109375
1690841341208817000,7.73781689453125,-0.9746856689453125,-0.0050201416015625,-0.001495361328125
1690841341218887000,7.747886962890625,-0.975830078125,-0.00433349609375,-0.0012054443359375
1690841341228927700,7.757927734375,-0.9751129150390625,-0.0023651123046875,0.000213623046875
1690841341238967800,7.7679677734375,-0.97265625,-0.000152587890625,0.001190185546875
1690841341249007900,7.7780078125,-0.9741363525390625,0.0019683837890625,-0.0004730224609375
1690841341259049000,7.788049072265625,-0.9716796875,0.004638671875,-0.001007080078125
1690841341269089000,7.798089111328125,-0.97064208984375,0.006072998046875,-0.000946044921875
1690841341279129000,7.808129150390625,-0.97174072265625,0.00775146484375,-0.0020904541015625
1690841341289169000,7.8181689453125,-0.9696807861328125,0.008148193359375,-0.0016632080078125
1690841341299209700,7.828209716796875,-0.9719696044921875,0.0068817138671875,-0.0017547607421875
1690841341309255700,7.838255615234375,-0.9713897705078125,0.0053558349609375,-0.001495361328125
1690841341319295700,7.848295654296875,-0.9711456298828125,0.0038299560546875,-0.001861572265625
1690841341329335800,7.858335693359375,-0.9737091064453125,0.0022430419921875,-0.00115966796875
1690841341339406800,7.86840673828125,-0.973175048828125,0.00054931640625,-0.0012664794921875
1690841341349447700,7.87844775390625,-0.9741363525390625,-0.0008544921875,-0.00140380859375
1690841341359487700,7.88848779296875,-0.975067138671875,-0.0019989013671875,-0.0009765625
1690841341369527800,7.89852783203125,-0.9726715087890625,-0.0014801025390625,-0.001129150390625
1690841341379567600,7.908567626953125,-0.9741058349609375,-0.00164794921875,-0.002349853515625
1690841341389608700,7.918608642578125,-0.97271728515625,0.0003509521484375,-0.0023040771484375
1690841341399648800,7.928648681640625,-0.972564697265625,0.0009002685546875,-0.003021240234375
1690841341409688800,7.938688720703125,-0.973541259765625,0.002197265625,-0.0025787353515625
1690841341419729700,7.948729736328125,-0.9720611572265625,0.003448486328125,-0.001312255859375
1690841341429769700,7.958769775390625,-0.9713134765625,0.0048370361328125,-0.0021514892578125
1690841341439809800,7.968809814453125,-0.971160888671875,0.0055084228515625,-0.0020599365234375
1690841341449880600,7.978880615234375,-0.9709014892578125,0.0056304931640625,-0.001129150390625
1690841341459920600,7.988920654296875,-0.9715576171875,0.0054168701171875,-0.0003509521484375
1690841341469960700,7.998960693359375,-0.97198486328125,0.004608154296875,-0.00115966796875
1690841341480001800,8.009001708984375,-0.972137451171875,0.004119873046875,-0.0009918212890625
1690841341490041900,8.019041748046876,-0.9720916748046875,0.0023956298828125,-0.0004119873046875
1690841341500081700,8.02908154296875,-0.97125244140625,0.0012969970703125,-0.001312255859375
1690841341510122800,8.039122802734376,-0.9725494384765625,0.0002899169921875,-0.0017242431640625
1690841341520162600,8.04916259765625,-0.9718780517578125,-0.0000457763671875,-0.002288818359375
1690841341530202600,8.05920263671875,-0.971160888671875,-0.0003662109375,-0.0023345947265625
1690841341540242700,8.06924267578125,-0.9724884033203125,0.0000762939453125,-0.0024871826171875
1690841341550283800,8.07928369140625,-0.9720611572265625,0.000457763671875,-0.0017547607421875
1690841341560354800,8.089354736328126,-0.9727020263671875,0.0015106201171875,-0.0018463134765625
1690841341570395000,8.099394775390625,-0.972930908203125,0.001708984375,-0.0021209716796875
1690841341580434700,8.1094345703125,-0.9712677001953125,0.0023345947265625,-0.0010223388671875
1690841341590474500,8.119474609375,-0.9717864990234375,0.0034637451171875,-0.0014190673828125
1690841341600515600,8.129515625,-0.972137451171875,0.003936767578125,-0.0010528564453125
1690841341610555600,8.1395556640625,-0.9713897705078125,0.0037689208984375,-0.000885009765625
1690841341620595700,8.149595703125,-0.971710205078125,0.0046539306640625,-0.001068115234375
1690841341630636800,8.15963671875,-0.9710540771484375,0.00311279296875,-0.0009307861328125
1690841341640676900,8.1696767578125,-0.9704437255859375,0.0026092529296875,-0.0017242431640625
1690841341650716700,8.179716552734375,-0.9710540771484375,0.00274658203125,-0.0020751953125
1690841341660756500,8.189756591796876,-0.9712982177734375,0.00238037109375,-0.0015106201171875
1690841341670827500,8.19982763671875,-0.9725189208984375,0.0017852783203125,-0.002288818359375
1690841341680867600,8.20986767578125,-0.9725494384765625,0.0003204345703125,-0.0023956298828125
1690841341690908700,8.21990869140625,-0.9727020263671875,0.0003662109375,-0.001220703125
1690841341700948700,8.22994873046875,-0.9716033935546875,0.000640869140625,-0.001800537109375
1690841341710988800,8.23998876953125,-0.972076416015625,0.0021209716796875,-0.0021514892578125
1690841341721029600,8.250029541015625,-0.9717864990234375,0.001922607421875,-0.000732421875
1690841341731069700,8.260069580078126,-0.9725341796875,0.0016937255859375,-0.0011444091796875
1690841341741109500,8.270109619140625,-0.9723052978515625,0.00299072265625,-0.0010986328125
1690841341751149600,8.280149658203126,-0.97125244140625,0.0028076171875,-0.0011444091796875
1690841341761190700,8.290190673828125,-0.9716339111328125,0.00323486328125,-0.001617431640625
1690841341771230700,8.300230712890626,-0.9713592529296875,0.0036163330078125,-0.001556396484375
1690841341781270800,8.310270751953125,-0.9719085693359375,0.0032958984375,-0.0016937255859375
1690841341791341800,8.320341796875,-0.9701690673828125,0.0030059814453125,-0.0017242431640625
1690841341801381600,8.330381591796876,-0.97137451171875,0.002685546875,-0.0023651123046875
1690841341811422500,8.34042236328125,-0.9715118408203125,0.0023651123046875,-0.002044677734375
1690841341821462500,8.350462646484376,-0.9712371826171875,0.00201416015625,-0.00177001953125
1690841341831502600,8.360502685546875,-0.9715728759765625,0.0018310546875,-0.00115966796875
1690841341841543700,8.370543701171876,-0.97174072265625,0.0008087158203125,-0.0008087158203125
1690841341851583700,8.380583740234375,-0.9717864990234375,0.0009765625,-0.0015106201171875
1690841341861623800,8.390623779296876,-0.97271728515625,0.001983642578125,-0.0012969970703125
1690841341871663900,8.400663818359375,-0.9718017578125,0.0016632080078125,-0.0012969970703125
1690841341881704700,8.41070458984375,-0.9711151123046875,0.002166748046875,-0.0014495849609375
1690841341891744500,8.42074462890625,-0.9716796875,0.0025177001953125,-0.0018768310546875
1690841341901815600,8.430815673828125,-0.9712371826171875,0.002593994140625,-0.00140380859375
1690841341911855600,8.440855712890626,-0.971099853515625,0.003570556640625,-0.001708984375
1690841341921895700,8.450895751953125,-0.970458984375,0.0034332275390625,-0.0011138916015625
1690841341931936800,8.460936767578126,-0.9721527099609375,0.0034942626953125,-0.0011444091796875
1690841341941976800,8.470976806640625,-0.970611572265625,0.0033721923828125,-0.0005340576171875
1690841341952016600,8.4810166015625,-0.9712677001953125,0.003082275390625,-0.0021514892578125
1690841341962056700,8.491056640625,-0.9725799560546875,0.002349853515625,-0.0013885498046875
1690841341972097500,8.50109765625,-0.97210693359375,0.00213623046875,-0.0014190673828125
1690841341982137600,8.5111376953125,-0.9707489013671875,0.001708984375,-0.0010223388671875
1690841341992177700,8.521177734375,-0.9715576171875,0.001251220703125,-0.00079345703125
1690841342002218800,8.53121875,-0.9713897705078125,0.0017852783203125,-0.000732421875
1690841342012288800,8.541288818359375,-0.97186279296875,0.001800537109375,-0.0014801025390625
1690841342022329900,8.551329833984376,-0.9718170166015625,0.0016021728515625,-0.000732421875
1690841342032369700,8.56136962890625,-0.9716644287109375,0.0025787353515625,-0.0011444091796875
1690841342042409700,8.57140966796875,-0.9739227294921875,0.002288818359375,-0.001190185546875
1690841342052449800,8.58144970703125,-0.9712677001953125,0.0021209716796875,-0.001190185546875
1690841342062490600,8.59149072265625,-0.9711761474609375,0.002655029296875,0.0001983642578125
1690841342072530700,8.60153076171875,-0.971588134765625,0.0016021728515625,-0.000946044921875
1690841342082570800,8.61157080078125,-0.97210693359375,0.002166748046875,-0.00189208984375
1690841342092611800,8.62161181640625,-0.9708709716796875,0.00335693359375,-0.0017547607421875
1690841342102651600,8.631651611328126,-0.9702606201171875,0.003082275390625,-0.001800537109375
1690841342112691700,8.641691650390625,-0.9710693359375,0.0033721923828125,-0.00177001953125
1690841342122762800,8.6517626953125,-0.9716949462890625,0.002288818359375,-0.0013885498046875
1690841342132802800,8.661802734375,-0.9723968505859375,0.0012054443359375,-0.00140380859375
1690841342142843600,8.67184375,-0.9718475341796875,0.0015106201171875,-0.0012359619140625
1690841342152883700,8.6818837890625,-0.9723358154296875,0.0016326904296875,-0.0012664794921875
1690841342162923800,8.691923828125,-0.9715576171875,0.00189208984375,-0.001708984375
1690841342172963600,8.701963623046876,-0.9706268310546875,0.001983642578125,-0.0013580322265625
1690841342183004700,8.712004638671875,-0.9716644287109375,0.0026092529296875,-0.001312255859375
1690841342193044700,8.722044677734376,-0.9708251953125,0.0023193359375,-0.00189208984375
1690841342203084800,8.732084716796875,-0.97186279296875,0.002532958984375,-0.00250244140625
1690841342213125600,8.742125732421876,-0.9725341796875,0.0023193359375,-0.0018768310546875
1690841342223165700,8.752165771484375,-0.9720611572265625,0.0015716552734375,-0.001678466796875
1690841342233236700,8.76223681640625,-0.972381591796875,0.0022125244140625,-0.0021209716796875
1690841342243276500,8.772276611328126,-0.972259521484375,0.0024566650390625,-0.001434326171875
1690841342253316600,8.782316650390625,-0.9722747802734375,0.003082275390625,-0.0009765625
1690841342263356700,8.792356689453126,-0.97174072265625,0.00250244140625,-0.0008087158203125
1690841342273397800,8.802397705078125,-0.9716949462890625,0.0019073486328125,-0.0006103515625
1690841342283437800,8.812437744140626,-0.9727935791015625,0.0019073486328125,-0.0009307861328125
1690841342293478000,8.822477783203125,-0.9727630615234375,0.00262451171875,-0.00140380859375
1690841342303518700,8.832518798828126,-0.97125244140625,0.0026092529296875,-0.002532958984375
1690841342313560000,8.84256005859375,-0.972564697265625,0.0022735595703125,-0.0021820068359375
1690841342323600100,8.85260009765625,-0.971832275390625,0.0020751953125,-0.002288818359375
1690841342333640200,8.86264013671875,-0.9718017578125,0.0027313232421875,-0.002105712890625
1690841342343711200,8.872711181640625,-0.9720458984375,0.0020294189453125,-0.0015716552734375
1690841342353752000,8.882751953125,-0.9713592529296875,0.00189208984375,-0.0006866455078125
1690841342363792100,8.892792236328125,-0.972137451171875,0.0025634765625,-0.00115966796875
1690841342373832000,8.90283203125,-0.9722747802734375,0.0018157958984375,-0.001068115234375
1690841342383872000,8.9128720703125,-0.9732666015625,0.001708984375,-0.0007171630859375
1690841342393913000,8.9229130859375,-0.97344970703125,0.001739501953125,-0.00140380859375
1690841342403953200,8.932953125,-0.972320556640625,0.001953125,-0.00189208984375
1690841342413993200,8.9429931640625,-0.9716644287109375,0.00299072265625,-0.002288818359375
1690841342424034000,8.953033935546875,-0.971221923828125,0.003082275390625,-0.00164794921875
1690841342434074000,8.96307421875,-0.9718170166015625,0.0029144287109375,-0.00189208984375
1690841342444114000,8.973114013671875,-0.9728240966796875,0.0026397705078125,-0.002349853515625
1690841342454185000,8.98318505859375,-0.9727630615234375,0.00225830078125,-0.0016632080078125
1690841342464225000,8.99322509765625,-0.9722747802734375,0.0013580322265625,-0.00189208984375
1690841342474265000,9.00326513671875,-0.972320556640625,0.0023193359375,-0.001861572265625
1690841342484306200,9.01330615234375,-0.9723358154296875,0.0021514892578125,-0.000640869140625
1690841342494346200,9.02334619140625,-0.9733428955078125,0.0020904541015625,-0.0008392333984375
1690841342504386300,9.03338623046875,-0.97332763671875,0.0026702880859375,-0.000457763671875
1690841342514427100,9.04342724609375,-0.9719085693359375,0.0020904541015625,-0.0005340576171875
1690841342524467000,9.053467041015624,-0.9723968505859375,0.0021514892578125,-0.002105712890625
1690841342534507000,9.063507080078125,-0.97174072265625,0.0018310546875,-0.0021514892578125
1690841342544547000,9.073547119140626,-0.972747802734375,0.0020904541015625,-0.0019683837890625
1690841342554588200,9.083588134765625,-0.9729766845703125,0.0024261474609375,-0.0019989013671875
1690841342564659200,9.0936591796875,-0.9729461669921875,0.0025177001953125,-0.001953125
1690841342574699300,9.10369921875,-0.972869873046875,0.002593994140625,-0.0012359619140625
1690841342584739000,9.113739013671875,-0.973541259765625,0.0025787353515625,-0.001190185546875
1690841342594779100,9.123779052734376,-0.9734039306640625,0.000946044921875,-0.0007171630859375
1690841342604820000,9.133820068359375,-0.973480224609375,0.0018768310546875,-0.00128173828125
1690841342614860000,9.143860107421874,-0.973968505859375,0.0022125244140625,-0.0010223388671875
1690841342624900000,9.153900146484375,-0.973541259765625,0.00189208984375,-0.0014495849609375
1690841342634941200,9.163941162109374,-0.973114013671875,0.00250244140625,-0.001739501953125
1690841342644981200,9.173981201171875,-0.9729766845703125,0.0025482177734375,-0.002288818359375
1690841342655021300,9.184021240234374,-0.9735260009765625,0.0023345947265625,-0.0011138916015625
1690841342665061000,9.19406103515625,-0.9737091064453125,0.003021240234375,-0.0009307861328125
1690841342675132200,9.204132080078125,-0.9732208251953125,0.0028076171875,-0.00177001953125
1690841342685172000,9.214171875,-0.973419189453125,0.0030517578125,-0.0009613037109375
1690841342695213000,9.224213134765625,-0.9727325439453125,0.0020751953125,-0.001312255859375
1690841342705253000,9.234253173828124,-0.9728851318359375,0.002288818359375,-0.00103759765625
1690841342715293200,9.244293212890625,-0.9735870361328125,0.0013275146484375,-0.000732421875
1690841342725334300,9.254334228515624,-0.9739990234375,0.0023651123046875,-0.0018310546875
1690841342735374000,9.2643740234375,-0.9731903076171875,0.0026397705078125,-0.0014495849609375
1690841342745414100,9.2744140625,-0.9738006591796875,0.0020751953125,-0.0012359619140625
1690841342755454000,9.284453857421875,-0.9734344482421875,0.0023193359375,-0.00189208984375
1690841342765495000,9.2944951171875,-0.9734344482421875,0.0029449462890625,-0.0015869140625
1690841342775535000,9.30453515625,-0.9745330810546875,0.0029144287109375,-0.0014190673828125
1690841342785606100,9.314606201171875,-0.9742584228515625,0.0025482177734375,-0.00164794921875
1690841342795646200,9.324646240234374,-0.97418212890625,0.00244140625,-0.0008697509765625
1690841342805686000,9.33468603515625,-0.974639892578125,0.001800537109375,-0.000946044921875
1690841342815727000,9.34472705078125,-0.973907470703125,0.001953125,-0.001251220703125
1690841342825767200,9.35476708984375,-0.974273681640625,0.0028076171875,-0.0013427734375
1690841342835807000,9.364806884765626,-0.9736175537109375,0.002899169921875,-0.0001983642578125
1690841342845847000,9.374846923828125,-0.97430419921875,0.002471923828125,-0.000946044921875
1690841342855888100,9.38488818359375,-0.9735870361328125,0.0028228759765625,-0.0016632080078125
1690841342865928200,9.39492822265625,-0.9735870361328125,0.00311279296875,-0.0020294189453125
1690841342875968000,9.404968017578126,-0.973419189453125,0.0031585693359375,-0.001708984375
1690841342886009000,9.415009033203125,-0.9737091064453125,0.002288818359375,-0.002410888671875
1690841342896079000,9.4250791015625,-0.9744415283203125,0.0025634765625,-0.00201416015625
1690841342906120000,9.435119873046874,-0.974395751953125,0.0029449462890625,-0.0016021728515625
1690841342916160000,9.445159912109375,-0.9738616943359375,0.0039520263671875,-0.0016632080078125
1690841342926200000,9.455199951171876,-0.9745635986328125,0.0029296875,-0.0016937255859375
1690841342936241200,9.4652412109375,-0.9744110107421875,0.0024261474609375,-0.0015106201171875
1690841342946281200,9.47528125,-0.973602294921875,0.00177001953125,-0.0008087158203125
1690841342956321000,9.485321044921875,-0.9739837646484375,0.0014190673828125,-0.001495361328125
1690841342966361000,9.495361083984376,-0.97454833984375,0.002227783203125,-0.0013885498046875
1690841342976402000,9.50540185546875,-0.9737396240234375,0.0028228759765625,-0.0013427734375
1690841342986442000,9.51544189453125,-0.9740142822265625,0.0025787353515625,-0.0013275146484375
1690841342996513000,9.525512939453124,-0.97393798828125,0.0027313232421875,-0.0019989013671875
1690841343006553000,9.535552978515625,-0.974334716796875,0.002593994140625,-0.0023040771484375
1690841343016593000,9.545593017578126,-0.9745025634765625,0.0026397705078125,-0.001861572265625
1690841343026634000,9.555634033203125,-0.9738922119140625,0.0029296875,-0.001220703125
1690841343036674000,9.565674072265624,-0.9739990234375,0.002899169921875,-0.00091552734375
1690841343046714000,9.575714111328125,-0.9741363525390625,0.0025482177734375,-0.0014495849609375
1690841343056754200,9.585754150390626,-0.9745330810546875,0.0031890869140625,-0.00103759765625
1690841343066795000,9.595794921875,-0.9748382568359375,0.002471923828125,-0.0009765625
1690841343076835000,9.6058349609375,-0.9751129150390625,0.0022125244140625,-0.0016326904296875
1690841343086875000,9.615875,-0.9754791259765625,0.0026092529296875,-0.0024261474609375
1690841343096916000,9.625916015625,-0.975830078125,0.0025482177734375,-0.0011749267578125
1690841343106986000,9.635986083984376,-0.97540283203125,0.002105712890625,-0.000457763671875
1690841343117027000,9.646027099609375,-0.9748992919921875,0.0013580322265625,-0.0007781982421875
1690841343127067100,9.656067138671874,-0.9756011962890625,0.0020751953125,-0.0010223388671875
1690841343137107200,9.666107177734375,-0.9744110107421875,0.002105712890625,-0.001007080078125
1690841343147148000,9.67614794921875,-0.9747314453125,0.0023345947265625,-0.001251220703125
1690841343157188000,9.68618798828125,-0.9745330810546875,0.0024261474609375,-0.001556396484375
1690841343167228000,9.696227783203126,-0.97503662109375,0.0025787353515625,-0.001434326171875
1690841343177268000,9.70626806640625,-0.97515869140625,0.002227783203125,-0.000640869140625
1690841343187309000,9.71630908203125,-0.9757843017578125,0.0025482177734375,-0.0009307861328125
1690841343197349000,9.72634912109375,-0.9746246337890625,0.002105712890625,-0.00189208984375
1690841343207389200,9.73638916015625,-0.9740753173828125,0.0023651123046875,-0.0014190673828125
1690841343217460200,9.746460205078124,-0.974945068359375,0.00274658203125,-0.0009918212890625
1690841343227500000,9.7565,-0.9745025634765625,0.002105712890625,-0.001983642578125
1690841343237540900,9.766540771484374,-0.97528076171875,0.002288818359375,-0.00128173828125
1690841343247581000,9.776580810546875,-0.9759521484375,0.002471923828125,-0.00201416015625
1690841343257621000,9.78662109375,-0.975128173828125,0.001708984375,-0.0001068115234375
1690841343267661000,9.7966611328125,-0.9745025634765625,0.0023193359375,-0.001251220703125
1690841343277702100,9.8067021484375,-0.97430419921875,0.0022125244140625,-0.0009765625
1690841343287742200,9.8167421875,-0.9755096435546875,0.0024566650390625,-0.001617431640625
1690841343297782300,9.8267822265625,-0.9755859375,0.002655029296875,-0.002197265625
1690841343307823000,9.836822998046875,-0.9761962890625,0.0020751953125,-0.0017242431640625
1690841343317853700,9.846853759765626,-0.97601318359375,0.0021514892578125,-0.0014190673828125
1690841343327924500,9.856924560546876,-0.97589111328125,0.0022735595703125,-0.00152587890625
1690841343337964500,9.866964599609375,-0.975738525390625,0.00225830078125,-0.0016937255859375
1690841343348004600,9.877004638671876,-0.97467041015625,0.0020904541015625,-0.0010223388671875
1690841343358045700,9.887045654296875,-0.9751739501953125,0.0023193359375,-0.0014801025390625
1690841343368085500,9.89708544921875,-0.9756927490234375,0.003509521484375,-0.001495361328125
1690841343378125600,9.90712548828125,-0.975067138671875,0.0027923583984375,-0.00152587890625
1690841343388165400,9.917165283203126,-0.975677490234375,0.0021514892578125,-0.0010833740234375
1690841343398206500,9.92720654296875,-0.97509765625,0.002716064453125,-0.0011138916015625
1690841343408246500,9.93724658203125,-0.9753265380859375,0.0024566650390625,-0.001708984375
1690841343418286600,9.94728662109375,-0.975860595703125,0.002960205078125,-0.0008392333984375
1690841343428327700,9.95732763671875,-0.9752960205078125,0.0029754638671875,-0.0018157958984375
1690841343438397700,9.967397705078126,-0.9755859375,0.002410888671875,-0.0016326904296875
1690841343448438500,9.9774384765625,-0.9756011962890625,0.0025482177734375,-0.0019683837890625
1690841343458478600,9.987478515625,-0.9756011962890625,0.0023193359375,-0.0021820068359375
1690841343468518400,9.997518310546875,-0.9758453369140625,0.001800537109375,-0.0019073486328125
1690841343478558500,10.007558349609376,-0.975250244140625,0.001922607421875,-0.001861572265625
1690841343488599600,10.017599609375,-0.9756927490234375,0.001861572265625,-0.00201416015625
1690841343498639600,10.0276396484375,-0.9760894775390625,0.002838134765625,-0.0012359619140625
1690841343508679700,10.0376796875,-0.9760894775390625,0.0023651123046875,-0.0017547607421875
1690841343518720500,10.047720458984376,-0.97601318359375,0.0019378662109375,-0.002044677734375
1690841343528760600,10.057760498046875,-0.9762115478515625,0.00244140625,-0.002471923828125
1690841343538831400,10.067831298828125,-0.976043701171875,0.0032196044921875,-0.001617431640625
1690841343548871400,10.077871337890626,-0.9759674072265625,0.0027313232421875,-0.0006866455078125
1690841343558911500,10.087911376953125,-0.9755706787109375,0.0025787353515625,-0.001708984375
1690841343568952600,10.09795263671875,-0.97650146484375,0.002349853515625,-0.0022430419921875
1690841343578992600,10.10799267578125,-0.9759063720703125,0.003021240234375,-0.0014495849609375
1690841343589032700,10.11803271484375,-0.9758453369140625,0.0018768310546875,-0.002105712890625
1690841343599072800,10.12807275390625,-0.9757843017578125,0.001800537109375,-0.0017852783203125
1690841343609113600,10.138113525390626,-0.9755859375,0.0017852783203125,-0.001373291015625
1690841343619153400,10.1481533203125,-0.976593017578125,0.002044677734375,-0.001678466796875
1690841343629193500,10.158193359375,-0.97540283203125,0.002105712890625,-0.0015869140625
1690841343639233500,10.168233642578125,-0.974700927734375,0.0029296875,-0.0014495849609375
1690841343649304600,10.1783046875,-0.9759521484375,0.0028076171875,-0.00177001953125
1690841343659345700,10.188345703125,-0.975738525390625,0.002532958984375,-0.0012664794921875
1690841343669385700,10.1983857421875,-0.9757080078125,0.00201416015625,-0.0012969970703125
1690841343679425500,10.208425537109376,-0.97637939453125,0.0022125244140625,-0.0013427734375
1690841343689465600,10.218465576171875,-0.9762725830078125,0.0018310546875,-0.001190185546875
1690841343699506400,10.22850634765625,-0.9761962890625,0.0019378662109375,-0.0011138916015625
1690841343709546500,10.23854638671875,-0.9766998291015625,0.0020904541015625,-0.001739501953125
1690841343719586600,10.248586669921876,-0.9761505126953125,0.002593994140625,-0.0008544921875
1690841343729627600,10.258627685546875,-0.9768524169921875,0.002716064453125,-0.00152587890625
1690841343739667700,10.268667724609376,-0.9756622314453125,0.0026702880859375,-0.00146484375
1690841343749707500,10.27870751953125,-0.97589111328125,0.00177001953125,-0.0015869140625
1690841343759778600,10.288778564453125,-0.97662353515625,0.002288818359375,-0.00152587890625
1690841343769818600,10.298818603515626,-0.9769744873046875,0.002410888671875,-0.0015106201171875
1690841343779858700,10.308858642578125,-0.975738525390625,0.0023956298828125,-0.001068115234375
1690841343789899500,10.3188994140625,-0.9754486083984375,0.001983642578125,-0.001678466796875
1690841343799939600,10.328939697265625,-0.9756011962890625,0.00262451171875,-0.0006256103515625
1690841343809979600,10.338979736328126,-0.9763031005859375,0.003814697265625,-0.001800537109375
1690841343820020700,10.349020751953125,-0.9766387939453125,0.0029754638671875,-0.001373291015625
1690841343830060500,10.359060546875,-0.9766998291015625,0.0028839111328125,-0.002105712890625
1690841343840100600,10.3691005859375,-0.9768829345703125,0.002532958984375,-0.001068115234375
1690841343850140700,10.379140625,-0.9769134521484375,0.0022125244140625,-0.001007080078125
1690841343860181500,10.389181396484375,-0.9764251708984375,0.0022735595703125,-0.0019378662109375
1690841343870252500,10.39925244140625,-0.97607421875,0.0028076171875,-0.001434326171875
1690841343880292600,10.409292724609376,-0.97650146484375,0.00213623046875,-0.002532958984375
1690841343890332400,10.41933251953125,-0.977020263671875,0.0018463134765625,-0.00164794921875
1690841343900372500,10.42937255859375,-0.9761962890625,0.0030670166015625,-0.0017852783203125
1690841343910413600,10.43941357421875,-0.97625732421875,0.002838134765625,-0.0020599365234375
1690841343920453600,10.44945361328125,-0.9763336181640625,0.0016937255859375,-0.00152587890625
1690841343930493700,10.45949365234375,-0.976287841796875,0.00225830078125,-0.0009765625
1690841343940534500,10.469534423828126,-0.976806640625,0.00238037109375,-0.0007781982421875
1690841343950574600,10.47957470703125,-0.976776123046875,0.002044677734375,-0.0009307861328125
1690841343960614700,10.48961474609375,-0.9766693115234375,0.002349853515625,-0.0015869140625
1690841343970685400,10.499685546875,-0.975860595703125,0.002655029296875,-0.0015716552734375
1690841343980725500,10.5097255859375,-0.9759674072265625,0.002288818359375,-0.001708984375
1690841343990765600,10.519765625,-0.976043701171875,0.0027618408203125,-0.0022735595703125
1690841344000806700,10.529806640625,-0.97589111328125,0.0026397705078125,-0.00244140625
1690841344010846700,10.5398466796875,-0.9766998291015625,0.002288818359375,-0.001434326171875
1690841344020886800,10.54988671875,-0.976837158203125,0.003173828125,-0.00091552734375
1690841344030927600,10.559927734375,-0.976226806640625,0.0023345947265625,-0.0004425048828125
1690841344040967400,10.569967529296875,-0.97613525390625,0.00201416015625,-0.001220703125
1690841344051007500,10.580007568359376,-0.9758148193359375,0.001953125,-0.00128173828125
1690841344061047600,10.590047607421875,-0.975738525390625,0.00238037109375,-0.0018463134765625
1690841344071088600,10.600088623046876,-0.9765625,0.0020294189453125,-0.0018310546875
1690841344081159700,10.61015966796875,-0.9766387939453125,0.0023651123046875,-0.001800537109375
1690841344091199700,10.62019970703125,-0.9769439697265625,0.0025787353515625,-0.0009613037109375
1690841344101239800,10.63023974609375,-0.9762115478515625,0.0024261474609375,-0.001434326171875
1690841344111279400,10.640279296875,-0.9763641357421875,0.001861572265625,-0.001861572265625
1690841344121320400,10.650320556640626,-0.9759979248046875,0.00274658203125,-0.0016632080078125
1690841344131360500,10.660360595703125,-0.9762725830078125,0.0029144287109375,-0.0011138916015625
1690841344141400600,10.670400634765626,-0.976318359375,0.002288818359375,-0.0013275146484375
1690841344151441700,10.680441650390625,-0.9778900146484375,0.0022735595703125,-0.0010528564453125
1690841344161481700,10.690481689453126,-0.9771270751953125,0.00244140625,-0.00103759765625
1690841344171521500,10.700521484375,-0.976409912109375,0.0031585693359375,-0.001739501953125
1690841344181561300,10.710561279296876,-0.9770660400390625,0.00262451171875,-0.002197265625
1690841344191632400,10.72063232421875,-0.97625732421875,0.0027923583984375,-0.0016326904296875
1690841344201672400,10.73067236328125,-0.9759368896484375,0.00238037109375,-0.00213623046875
1690841344211713500,10.740713623046876,-0.97686767578125,0.0024261474609375,-0.0013580322265625
1690841344221753600,10.750753662109375,-0.9775238037109375,0.0024566650390625,-0.0009307861328125
1690841344231793700,10.760793701171876,-0.9777679443359375,0.001861572265625,-0.000640869140625
1690841344241834800,10.770834716796875,-0.9777374267578125,0.002227783203125,-0.001556396484375
1690841344251874600,10.78087451171875,-0.9768218994140625,0.0032501220703125,-0.0016021728515625
1690841344261914400,10.790914306640625,-0.976898193359375,0.0030670166015625,-0.001678466796875
1690841344271954400,10.800954345703126,-0.9769287109375,0.0025634765625,-0.001983642578125
1690841344281995500,10.81099560546875,-0.97662353515625,0.0023956298828125,-0.0020751953125
1690841344292066600,10.821066650390625,-0.97607421875,0.0021209716796875,-0.0013275146484375
1690841344302106600,10.831106689453126,-0.9760589599609375,0.002593994140625,-0.0014495849609375
1690841344312145000,10.841144775390624,-0.976837158203125,0.0028076171875,-0.0013275146484375
1690841344322185000,10.85118505859375,-0.976104736328125,0.0027923583984375,-0.0013275146484375
1690841344332226000,10.86122607421875,-0.976409912109375,0.00225830078125,-0.0009002685546875
1690841344342265900,10.871265869140625,-0.977569580078125,0.0015106201171875,-0.0008392333984375
1690841344352306000,10.881305908203124,-0.977386474609375,0.0026397705078125,-0.000396728515625
1690841344362347000,10.891346923828126,-0.977691650390625,0.0028228759765625,-0.0015869140625
1690841344372386800,10.90138671875,-0.978271484375,0.0022735595703125,-0.0013427734375
1690841344382427000,10.911427001953125,-0.977294921875,0.002593994140625,-0.000885009765625
1690841344392467000,10.921467041015624,-0.9759521484375,0.0027618408203125,-0.0015411376953125
1690841344402538000,10.9315380859375,-0.9765777587890625,0.003173828125,-0.0019378662109375
1690841344412577800,10.941577880859375,-0.9781341552734375,0.0030364990234375,-0.001708984375
1690841344422619000,10.951618896484375,-0.9776458740234375,0.0026092529296875,-0.001434326171875
1690841344432659000,10.961658935546875,-0.9779052734375,0.0015716552734375,-0.0007171630859375
1690841344442699000,10.971698974609374,-0.9772186279296875,0.0027923583984375,-0.001373291015625
1690841344452739800,10.98173974609375,-0.9774627685546875,0.00262451171875,-0.00244140625
1690841344462780000,10.99177978515625,-0.9771270751953125,0.0025634765625,-0.0008544921875
1690841344472820000,11.001820068359375,-0.9767608642578125,0.0020751953125,-0.00140380859375
1690841344482859800,11.01185986328125,-0.9768218994140625,0.002655029296875,-0.0025177001953125
1690841344492900900,11.02190087890625,-0.9780426025390625,0.002227783203125,-0.0013275146484375
1690841344502941000,11.03194091796875,-0.9770660400390625,0.0025482177734375,-0.001495361328125
1690841344513012000,11.042011962890625,-0.97723388671875,0.0035400390625,-0.0022430419921875
1690841344523052000,11.052052001953125,-0.9776153564453125,0.0026397705078125,-0.00146484375
1690841344533092000,11.062092041015624,-0.9777069091796875,0.00238037109375,-0.00225830078125
1690841344543133000,11.0721328125,-0.977813720703125,0.00250244140625,-0.0011138916015625
1690841344553173000,11.082173095703125,-0.9781951904296875,0.0030517578125,-0.001129150390625
1690841344563212800,11.092212890625,-0.9777069091796875,0.00213623046875,-0.0019989013671875
1690841344573252900,11.1022529296875,-0.9767303466796875,0.00225830078125,-0.001251220703125
1690841344583294000,11.1122939453125,-0.977569580078125,0.0027008056640625,-0.0015411376953125
1690841344593334000,11.122333984375,-0.9777069091796875,0.002593994140625,-0.0009765625
1690841344603374000,11.1323740234375,-0.977081298828125,0.0021820068359375,-0.0002593994140625
1690841344613445000,11.142445068359375,-0.9775543212890625,0.002532958984375,-0.0013580322265625
1690841344623485000,11.15248486328125,-0.9779510498046875,0.0018463134765625,-0.0009765625
1690841344633525800,11.16252587890625,-0.97796630859375,0.0026702880859375,-0.0020599365234375
1690841344643565800,11.17256591796875,-0.9771270751953125,0.0022430419921875,-0.0012664794921875
1690841344653606000,11.18260595703125,-0.977386474609375,0.001739501953125,-0.0009918212890625
1690841344663647000,11.19264697265625,-0.9777984619140625,0.0024566650390625,-0.000640869140625
1690841344673687000,11.20268701171875,-0.9777984619140625,0.0029754638671875,-0.0018463134765625
1690841344683727000,11.21272705078125,-0.9773101806640625,0.0027008056640625,-0.0009765625
1690841344693767000,11.222766845703125,-0.9778289794921875,0.0023956298828125,-0.0006103515625
1690841344703808000,11.23280810546875,-0.9778900146484375,0.0019073486328125,-0.001068115234375
1690841344713847800,11.242847900390625,-0.9776153564453125,0.0018310546875,-0.0016021728515625
1690841344723918800,11.2529189453125,-0.978363037109375,0.0029754638671875,-0.0015106201171875
1690841344733959000,11.262958984375,-0.9780120849609375,0.002349853515625,-0.00140380859375
1690841344743999000,11.2729990234375,-0.9781951904296875,0.0018310546875,-0.00164794921875
1690841344754040000,11.2830400390625,-0.9779510498046875,0.0022735595703125,-0.0018463134765625
1690841344764080000,11.293080078125,-0.977935791015625,0.001434326171875,-0.00140380859375
1690841344774120000,11.303119873046874,-0.9777984619140625,0.0019683837890625,-0.0020751953125
1690841344784160000,11.313159912109375,-0.97698974609375,0.0023651123046875,-0.001556396484375
1690841344794200800,11.323200927734375,-0.9772796630859375,0.0026702880859375,-0.0009765625
1690841344804241000,11.333240966796875,-0.977264404296875,0.0025787353515625,-0.000732421875
1690841344814281000,11.343281005859374,-0.9777679443359375,0.0019989013671875,-0.002044677734375
1690841344824322000,11.353322021484376,-0.9785308837890625,0.0025177001953125,-0.0022430419921875
1690841344834391800,11.363391845703125,-0.9784088134765625,0.0026702880859375,-0.0013275146484375
1690841344844433200,11.37343310546875,-0.97857666015625,0.0016632080078125,-0.001251220703125
1690841344854473000,11.383472900390625,-0.9783477783203125,0.001953125,-0.002288818359375
1690841344864513000,11.393512939453124,-0.9662933349609375,0.00225830078125,-0.00128173828125
1690841344874553900,11.403553955078126,-1.0069732666015625,-0.0494537353515625,-0.0484161376953125
1690841344884594000,11.413593994140625,-1.03106689453125,-0.0683135986328125,0.058441162109375
1690841344894634000,11.423634033203125,-0.976715087890625,0.026214599609375,-0.0149993896484375
1690841344904674000,11.433674072265624,-0.95196533203125,0.03875732421875,-0.0201263427734375
1690841344914715100,11.443715087890626,-0.9815521240234375,0.0453643798828125,0.02496337890625
1690841344924755000,11.4537548828125,-0.97088623046875,0.012725830078125,0.0095672607421875
1690841344934826000,11.463825927734375,-0.97564697265625,0.03338623046875,0.0043182373046875
1690841344944866000,11.473865966796875,-0.9655609130859375,0.0296478271484375,-0.0015106201171875
1690841344954906000,11.483906005859374,-0.9740142822265625,0.02581787109375,-0.0053558349609375
1690841344964947000,11.493947021484376,-0.9696502685546875,0.02264404296875,-0.00787353515625
1690841344974987000,11.503987060546875,-0.974395751953125,0.0170745849609375,-0.0084686279296875
1690841344985026800,11.51402685546875,-0.972991943359375,0.010589599609375,-0.0071563720703125
1690841344995067000,11.52406689453125,-0.980072021484375,0.003753662109375,-0.005279541015625
1690841345005108000,11.53410791015625,-0.978179931640625,-0.0030364990234375,-0.001708984375
1690841345015148000,11.54414794921875,-0.98406982421875,-0.0103607177734375,0.0016021728515625
1690841345025188000,11.55418798828125,-0.9869537353515625,-0.01495361328125,0.004302978515625
1690841345035229000,11.56422900390625,-0.9867706298828125,-0.0167694091796875,0.004364013671875
1690841345045299000,11.574298828125,-0.98358154296875,-0.0167999267578125,0.0029754638671875
1690841345055340000,11.584340087890626,-0.9886627197265625,-0.0147705078125,0.0010223388671875
1690841345065379800,11.5943798828125,-0.979278564453125,-0.0104522705078125,-0.00225830078125
1690841345075420000,11.604419921875,-0.9826812744140625,-0.0044097900390625,-0.0036773681640625
1690841345085461000,11.6144609375,-0.9768218994140625,0.0019989013671875,-0.0054473876953125
1690841345095501000,11.6245009765625,-0.975921630859375,0.0076904296875,-0.00567626953125
1690841345105540900,11.634540771484374,-0.973480224609375,0.0123748779296875,-0.0042877197265625
1690841345115581000,11.644580810546875,-0.9717254638671875,0.0155487060546875,-0.0039215087890625
1690841345125622000,11.6546220703125,-0.975250244140625,0.0179290771484375,-0.00140380859375
1690841345135661800,11.664661865234375,-0.972747802734375,0.020111083984375,0.00006103515625
1690841345145702000,11.674701904296874,-0.973724365234375,0.019805908203125,0.0017547607421875
1690841345155773000,11.68477294921875,-0.9770965576171875,0.0177001953125,0.003021240234375
1690841345165813000,11.69481298828125,-0.9758758544921875,0.0158843994140625,0.0037841796875
1690841345175854000,11.70485400390625,-0.9765472412109375,0.0129852294921875,0.0035247802734375
1690841345185894000,11.714893798828125,-0.9803924560546875,0.007476806640625,0.0013580322265625
1690841345195934000,11.724933837890624,-0.9783935546875,0.00323486328125,0.000396728515625
1690841345205973800,11.734973876953125,-0.9800872802734375,-0.00048828125,-0.001434326171875
1690841345216014800,11.745014892578125,-0.9806060791015625,-0.003387451171875,-0.0039520263671875
1690841345226055000,11.755054931640625,-0.9813079833984375,-0.006866455078125,-0.0045166015625
1690841345236095000,11.765094970703124,-0.9822540283203125,-0.00732421875,-0.0045318603515625
1690841345246136000,11.775135986328126,-0.9809417724609375,-0.00750732421875,-0.003936767578125
1690841345256206000,11.7852060546875,-0.9810791015625,-0.004852294921875,-0.00299072265625
1690841345266247000,11.795246826171875,-0.9817047119140625,-0.0022735595703125,-0.0024261474609375
1690841345276286700,11.80528662109375,-0.979278564453125,0.0005035400390625,-0.00140380859375
1690841345286326800,11.815326904296874,-0.98028564453125,0.0034942626953125,0.000213623046875
1690841345296366800,11.825366943359375,-0.97845458984375,0.0072021484375,0.0018768310546875
1690841345306408000,11.835407958984375,-0.9768524169921875,0.008697509765625,0.001739501953125
1690841345316444000,11.84544384765625,-0.9758453369140625,0.011505126953125,0.0015411376953125
1690841345326484000,11.85548388671875,-0.9758453369140625,0.01416015625,0.001434326171875
1690841345336525000,11.865525146484375,-0.9752044677734375,0.014404296875,0.000762939453125
1690841345346565000,11.875565185546876,-0.9754791259765625,0.01422119140625,-0.0003662109375
1690841345356605000,11.88560498046875,-0.976165771484375,0.0128326416015625,-0.0011444091796875
1690841345366676000,11.895676025390625,-0.9781951904296875,0.009979248046875,-0.0016632080078125
1690841345376715800,11.9057158203125,-0.976806640625,0.0067596435546875,-0.002288818359375
1690841345386756900,11.9157568359375,-0.9776763916015625,0.004486083984375,-0.001373291015625
1690841345396797000,11.925796875,-0.979522705078125,0.002655029296875,-0.00213623046875
1690841345406837000,11.9358369140625,-0.979217529296875,-0.00006103515625,-0.0010528564453125
1690841345416877000,11.945876953125,-0.9795684814453125,-0.00091552734375,-0.0013885498046875
1690841345426918100,11.955918212890625,-0.9815826416015625,-0.002227783203125,-0.001129150390625
1690841345436958000,11.9659580078125,-0.979400634765625,-0.002716064453125,-0.0007781982421875
1690841345446997800,11.975997802734375,-0.9810638427734375,-0.001129150390625,-0.0002593994140625
1690841345457038800,11.986038818359376,-0.9805908203125,0.0004730224609375,-0.001007080078125
1690841345467079000,11.996078857421875,-0.9785614013671875,0.00262451171875,-0.001495361328125
1690841345477150000,12.00614990234375,-0.9783172607421875,0.0052337646484375,-0.0014190673828125
1690841345487190000,12.01618994140625,-0.9767608642578125,0.006011962890625,-0.001800537109375
1690841345497230000,12.02622998046875,-0.9772796630859375,0.008392333984375,-0.001953125
1690841345507270000,12.036269775390625,-0.9768218994140625,0.008941650390625,-0.001129150390625
1690841345517311000,12.04631103515625,-0.9762115478515625,0.00927734375,-0.000244140625
1690841345527350800,12.056350830078125,-0.977264404296875,0.009857177734375,-0.0005340576171875
1690841345537390800,12.066390869140625,-0.977264404296875,0.008819580078125,-0.0003509521484375
1690841345547432000,12.076431884765626,-0.9774932861328125,0.008270263671875,-0.0007781982421875
1690841345557472000,12.086471923828125,-0.978240966796875,0.0078277587890625,-0.000152587890625
1690841345567512000,12.096511962890625,-0.97906494140625,0.00653076171875,0.0002899169921875
1690841345577582800,12.106582763671875,-0.978729248046875,0.004058837890625,-0.00018310546875
1690841345587623000,12.116622802734375,-0.9794769287109375,0.0033721923828125,-0.0012359619140625
1690841345597664000,12.1266640625,-0.979400634765625,0.00262451171875,-0.0015716552734375
1690841345607703800,12.136703857421875,-0.9789886474609375,0.002349853515625,-0.00128173828125
1690841345617744000,12.146743896484375,-0.9789581298828125,0.002349853515625,-0.002471923828125
1690841345627784000,12.156783935546875,-0.9791717529296875,0.0014801025390625,-0.0018768310546875
1690841345637825000,12.166824951171876,-0.97930908203125,0.00128173828125,-0.001220703125
1690841345647865000,12.176864990234375,-0.9780120849609375,0.0028076171875,-0.0015106201171875
1690841345657905000,12.18690478515625,-0.97943115234375,0.0048675537109375,-0.001708984375
1690841345667946000,12.196946044921875,-0.97802734375,0.00579833984375,-0.00079345703125
1690841345677985800,12.20698583984375,-0.977569580078125,0.00616455078125,-0.0007781982421875
1690841345688056800,12.217056884765626,-0.978271484375,0.0068511962890625,-0.000091552734375
1690841345698097000,12.227096923828125,-0.9776611328125,0.00762939453125,-0.0001983642578125
1690841345708137000,12.237136962890625,-0.9786376953125,0.007110595703125,-0.00079345703125
1690841345718176800,12.2471767578125,-0.9783935546875,0.00787353515625,-0.0002288818359375
1690841345728217900,12.2572177734375,-0.9770050048828125,0.007659912109375,-0.0008544921875
1690841345738258000,12.2672578125,-0.9767608642578125,0.0077056884765625,-0.0007781982421875
1690841345748298000,12.277298095703125,-0.9777679443359375,0.0059967041015625,-0.00115966796875
1690841345758338800,12.2873388671875,-0.9783782958984375,0.005584716796875,-0.00115966796875
1690841345768379000,12.29737890625,-0.978759765625,0.0046539306640625,-0.00115966796875
1690841345778419000,12.3074189453125,-0.9793548583984375,0.0037841796875,-0.001251220703125
1690841345788490000,12.317489990234375,-0.978607177734375,0.0034942626953125,-0.001800537109375
1690841345798529800,12.32752978515625,-0.979156494140625,0.0029144287109375,-0.0012359619140625
1690841345808571000,12.33757080078125,-0.9796142578125,0.003173828125,-0.0015106201171875
1690841345818611000,12.34761083984375,-0.9799346923828125,0.0033111572265625,-0.0006103515625
1690841345828651000,12.357651123046875,-0.978485107421875,0.003936767578125,0.00006103515625
1690841345838691000,12.367691162109375,-0.9790496826171875,0.0048675537109375,-0.00140380859375
1690841345848732000,12.37773193359375,-0.9791717529296875,0.0052337646484375,-0.00103759765625
1690841345858772000,12.38777197265625,-0.97772216796875,0.0064239501953125,-0.00115966796875
1690841345868811800,12.397811767578125,-0.9778900146484375,0.0064239501953125,-0.0016632080078125
1690841345878852900,12.407852783203126,-0.9785003662109375,0.0057830810546875,-0.0013275146484375
1690841345888893000,12.417892822265625,-0.9777069091796875,0.006683349609375,-0.001312255859375
1690841345898964000,12.4279638671875,-0.9784088134765625,0.0070648193359375,-0.0019073486328125
1690841345909004000,12.438004150390626,-0.9783782958984375,0.0054931640625,-0.0017852783203125
1690841345919044000,12.448044189453125,-0.977142333984375,0.0056915283203125,0.00006103515625
1690841345929084200,12.458084228515625,-0.97857666015625,0.00592041015625,0.000091552734375
1690841345939125000,12.468125,-0.9792327880859375,0.0051116943359375,-0.00115966796875
1690841345949164800,12.478164794921875,-0.978790283203125,0.0045013427734375,-0.00140380859375
1690841345959204900,12.488204833984375,-0.9786224365234375,0.00372314453125,-0.00030517578125
1690841345969246000,12.498245849609376,-0.9793243408203125,0.00347900390625,-0.000701904296875
1690841345979286000,12.5082861328125,-0.9794158935546875,0.0031280517578125,-0.00079345703125
1690841345989326000,12.518326171875,-0.97869873046875,0.0041961669921875,-0.000823974609375
1690841345999366100,12.5283662109375,-0.978057861328125,0.00390625,-0.0011444091796875
1690841346009437000,12.53843701171875,-0.9793701171875,0.0041961669921875,-0.0015869140625
1690841346019477800,12.548477783203126,-0.9793701171875,0.0047760009765625,-0.0006103515625
1690841346029517800,12.558517822265625,-0.9790191650390625,0.005706787109375,-0.000640869140625
1690841346039558000,12.568557861328125,-0.9782867431640625,0.0057220458984375,-0.0009613037109375
1690841346049598000,12.578597900390625,-0.977996826171875,0.0061492919921875,-0.0005035400390625
1690841346059639000,12.58863916015625,-0.9787750244140625,0.005615234375,-0.0004730224609375
1690841346069679000,12.59867919921875,-0.9795074462890625,0.0065155029296875,-0.0003662109375
1690841346079719200,12.60871923828125,-0.97821044921875,0.0067291259765625,-0.0014495849609375
1690841346089759000,12.618759033203125,-0.97894287109375,0.0059967041015625,-0.0019989013671875
1690841346099799800,12.6287998046875,-0.97735595703125,0.0053863525390625,-0.0012664794921875
1690841346109870800,12.638870849609376,-0.9813690185546875,0.0049285888671875,-0.001800537109375
1690841346119911000,12.648910888671875,-0.9797210693359375,0.005523681640625,-0.001556396484375
1690841346129951000,12.658950927734375,-0.98040771484375,0.0055694580078125,-0.0004425048828125
1690841346139991000,12.668990966796875,-0.9778900146484375,0.00457763671875,-0.0001068115234375
1690841346150032100,12.6790322265625,-0.9803619384765625,0.0040740966796875,-0.000640869140625
1690841346160072000,12.689072021484375,-0.9782867431640625,0.00439453125,-0.0015869140625
1690841346170112000,12.699112060546875,-0.9799957275390625,0.00433349609375,-0.000457763671875
1690841346180152800,12.70915283203125,-0.9794921875,0.0043487548828125,0.00006103515625
1690841346190193000,12.71919287109375,-0.9792022705078125,0.0040435791015625,-0.00067138671875
1690841346200233000,12.72923291015625,-0.9802398681640625,0.00518798828125,0.000213623046875
1690841346210273000,12.73927294921875,-0.978485107421875,0.006378173828125,-0.0007476806640625
1690841346220344000,12.749343994140625,-0.980987548828125,0.0062255859375,-0.000518798828125
1690841346230383900,12.7593837890625,-0.9789581298828125,0.005340576171875,-0.0016937255859375
1690841346240425000,12.769425048828126,-0.978515625,0.0046234130859375,-0.000762939453125
1690841346250465000,12.779465087890625,-0.977935791015625,0.0054779052734375,-0.0009307861328125
1690841346260505000,12.789505126953125,-0.979736328125,0.00634765625,-0.000518798828125
1690841346270546000,12.7995458984375,-0.9793243408203125,0.0059967041015625,-0.0001983642578125
1690841346280586000,12.8095859375,-0.9791259765625,0.005096435546875,-0.0005950927734375
1690841346290626000,12.8196259765625,-0.9801788330078125,0.0056610107421875,-0.0010833740234375
1690841346300665900,12.829665771484375,-0.9790496826171875,0.0056610107421875,-0.0013275146484375
1690841346310707000,12.83970703125,-0.97930908203125,0.0049591064453125,-0.0011138916015625
1690841346320757500,12.849757568359376,-0.9790802001953125,0.0049896240234375,-0.0008697509765625
1690841346330797600,12.859797607421875,-0.9781341552734375,0.005096435546875,-0.0016021728515625
1690841346340837400,12.86983740234375,-0.979888916015625,0.0051727294921875,-0.001495361328125
1690841346350877400,12.87987744140625,-0.9781036376953125,0.004791259765625,-0.0008392333984375
1690841346360918500,12.88991845703125,-0.9805908203125,0.0049591064453125,-0.0016021728515625
1690841346370958600,12.89995849609375,-0.979644775390625,0.0048675537109375,-0.0017547607421875
