time,seconds_elapsed,z,y,x
1690841333656716300,0.18571630859375,0.297625102224946,0.15317631754623726,0.014836594898928888
1690841333666756400,0.19575634765625,0.2721329335719347,0.08020911661610007,-0.0019137520662974566
1690841333676797400,0.20579736328125,0.24499358223378656,0.004858619012311101,-0.004810455321916379
1690841333686837500,0.21583740234375,0.23537001384198664,-0.05466661514849402,-0.005421753337385598
1690841333696877300,0.225877197265625,0.22112638443410396,-0.09985145412920973,-0.012094493116554804
1690841333706917400,0.23591748046875,0.2212725149065256,-0.11967518522436729,-0.011561651181755587
1690841333716988400,0.245988525390625,0.20872166089117525,-0.11381183701576664,-0.009893539873021655
1690841333727029200,0.256029296875,0.21923253351151942,-0.09839784865425899,-0.0007452197435777634
1690841333737069300,0.2660693359375,0.23319500789046285,-0.06196675926113966,-0.005231288249604404
1690841333747109400,0.276109375,0.24489772064387796,-0.08261574849956668,-0.0018507173170452004
1690841333757149200,0.286149169921875,0.2630009480893612,0.01420922938135918,0.010953997294942381
1690841333767190300,0.296190185546875,0.27681203129887577,0.10327323613828047,0.021756713018310257
1690841333777230300,0.306230224609375,0.29412498514950275,0.18623084774492307,0.029420137485396115
1690841333787270400,0.3162705078125,0.30452947478592396,0.2381416339797899,0.04022047630529851
1690841333797311200,0.326311279296875,0.3079296386182308,0.24735656677177176,0.04531070298324339
1690841333807351300,0.336351318359375,0.2992605944722891,0.23784915383923796,0.03451418182193301
1690841333817391400,0.346391357421875,0.28692542903423307,0.2027286858203821,0.033196646649693136
1690841333827431400,0.356431396484375,0.26959493952691554,0.15351871950943022,0.023672314548399298
1690841333837472500,0.366472412109375,0.25040274780094623,0.08836852160631678,0.012403141223907004
1690841333847542300,0.376542236328125,0.24083529351055621,0.03502221354246139,-0.0007072760530980304
1690841333857583400,0.386583251953125,0.22949147719740867,-0.018987727795587852,0.0006846395296044647
1690841333867623400,0.39662353515625,0.21858137612640857,-0.04426198394817765,0.0002578814679174684
1690841333877663500,0.40666357421875,0.22394027281105516,-0.0625182876300998,-0.009820036245393566
1690841333887704300,0.416704345703125,0.2318032612711191,-0.05963750346282031,-0.014377930161904078
1690841333897744400,0.426744384765625,0.23275077125430105,-0.038932783715473485,-0.007277050931425765
1690841333907784200,0.4367841796875,0.24160510883927344,-0.015725410664547235,-0.0025248377359239384
1690841333917824300,0.44682421875,0.2625637257158756,0.026491397406987378,-0.0008945650863926857
1690841333927865300,0.456865234375,0.267650819721818,0.05101854096972383,0.0067391149796894746
1690841333937905400,0.466905517578125,0.2769195833265781,0.08058402347625233,0.0061907101495773526
1690841333947945500,0.476945556640625,0.27690555480122564,0.09939485120181925,0.01072942215829389
1690841333957986300,0.486986328125,0.2771832026988268,0.10694862758223898,0.011018153138912749
1690841333968026400,0.4970263671875,0.27985096060335635,0.09931554802106693,0.011389322255575098
1690841333978097400,0.507097412109375,0.26381752516925333,0.07411628420029301,0.019607617826177738
1690841333988137200,0.51713720703125,0.2494365331172943,0.04733547767596319,0.007124853761109989
1690841333998177300,0.52717724609375,0.244047241294384,0.01821265176986344,0.004178459295001812
1690841334008217300,0.53721728515625,0.23567454974651336,-0.016398789014620704,0.006014230204664636
1690841334018258400,0.547258544921875,0.23853344630897044,-0.028417741810088045,-0.006274799103301484
1690841334028298500,0.557298583984375,0.23720775066316127,-0.038593834084691477,-0.017468432106706313
1690841334038338300,0.56733837890625,0.2345359011054039,-0.03043173938046675,-0.008984044362267013
1690841334048379400,0.57737939453125,0.24203648599386213,-0.02991152859837748,-0.009981505850842221
1690841334058419200,0.587419189453125,0.23905893148779866,-0.01657976247156039,-0.008887442986841779
1690841334068459300,0.597459228515625,0.25088907001316546,0.011670883709890768,-0.00006521757318405435
1690841334078499300,0.607499267578125,0.250893746188283,0.03271486589856213,0.0046212369097280315
1690841334088540400,0.61754052734375,0.2594230896025896,0.04294741705115884,0.007379545474809128
1690841334098580500,0.62758056640625,0.25897125418186184,0.05449656494436785,0.004234365617146249
1690841334108651500,0.637651611328125,0.2601613407492637,0.06067562347205821,0.0020728858674759977
1690841334118691300,0.64769140625,0.26928105127215385,0.050381229446874926,0.007026302457193378
1690841334128731100,0.657731201171875,0.26089199311137196,0.04499191022450104,0.0017959069734439252
1690841334138772200,0.667772216796875,0.2508580903530121,0.03316944126564776,0.00999478774081217
1690841334148812300,0.677812255859375,0.24561609804630277,0.009032036806014367,0.005212496784166433
1690841334158852400,0.687852294921875,0.23469255297183989,-0.0034688063384382983,-0.007783835976361297
1690841334168893400,0.6978935546875,0.24591712681949138,-0.009726889485667925,-0.00877315297438763
1690841334178933500,0.70793359375,0.2372445755422115,-0.023264610530342907,-0.011637881056009792
1690841334188973300,0.717973388671875,0.23665537747740745,-0.019256585031957364,-0.008196133971144444
1690841334199013000,0.72801318359375,0.23681261386573313,-0.01572560474408092,-0.0021764489899389443
1690841334209054200,0.73805419921875,0.2450496963351965,0.003473334099794738,0.0018744475357932969
1690841334219094300,0.74809423828125,0.2387701776742935,0.005086377053312025,-0.0023717363833100536
1690841334229134300,0.75813427734375,0.2455067924529314,0.021704701986571307,0.0025908818595926277
1690841334239205400,0.768205322265625,0.2532897014141083,0.029567341103474608,-0.004125183321360964
1690841334249245400,0.778245361328125,0.2571791100680828,0.03094923533237306,0.002506075953238178
1690841334259286500,0.78828662109375,0.250591548371315,0.03778880131212063,0.009523674514167942
1690841334269326300,0.798326416015625,0.24759587368667124,0.03255851314293686,-0.0015215515780495478
1690841334279366100,0.8083662109375,0.24235446590185164,0.027324749808455815,-0.002342526271846145
1690841334289406200,0.81840625,0.23726561833024024,0.02314773811844643,0.00473076854867395
1690841334299445000,0.828445068359375,0.24220190568864344,0.011938455454760697,0.0016717417376581579
1690841334309485000,0.838485107421875,0.22843349257707596,0.00315484273515176,-0.011487375802570022
1690841334319524900,0.84852490234375,0.22753683599829672,-0.005796612248476594,-0.0064782378370873625
1690841334329565700,0.858565673828125,0.22933482533097266,0.0006250639626290649,-0.004879976894170977
1690841334339605800,0.868605712890625,0.23337971680760383,-0.007557936532306485,-0.006942403016425669
1690841334349645800,0.878645751953125,0.23278584256768226,-0.004462989024538546,-0.000574105526949279
1690841334359686000,0.888685791015625,0.23009470378756522,0.0034109158384730107,0.0019057171736028976
1690841334369757000,0.8987568359375,0.2317430555164814,0.008468352208379656,0.008328587544662877
1690841334379798000,0.908798095703125,0.24027532154023645,0.015545218092319554,0.001150268296955619
1690841334389838000,0.918838134765625,0.23683365665376185,0.020152727870794477,0.0008492007078602909
1690841334399878000,0.9288779296875,0.2398246551632881,0.016044566466182002,-0.006661074457550421
1690841334409918000,0.93891796875,0.24266835415661334,0.01700090820979094,-0.0016915104506304486
1690841334419958800,0.948958740234375,0.23802725035250186,0.021507857390353456,0.00645827961115865
1690841334429998800,0.958998779296875,0.23518296683728693,0.02065222694170661,-0.002033510555024259
1690841334440039000,0.969038818359375,0.23308628681898116,0.01401221353849396,-0.004253364861849695
1690841334450080000,0.979080078125,0.23907062192559242,0.0115051991536282,-0.0023343429653905332
1690841334460120000,0.9891201171875,0.2416144611895084,0.00014501394428079946,-0.0009389202513499185
1690841334470160000,0.999159912109375,0.2317372102975845,0.0023374071387341246,-0.005198698870965745
1690841334480200000,1.009199951171875,0.22485504956841468,0.0004109919536858797,-0.001804802665952593
1690841334490271000,1.01927099609375,0.22336042709648607,-0.0036621506531839257,-0.001056724245008081
1690841334500310800,1.029310791015625,0.23114333605766296,-0.001849788018572144,-0.0011999914734857156
1690841334510352000,1.039351806640625,0.23922610474824904,0.009713004807499237,0.003767741335951723
1690841334520392000,1.049391845703125,0.23563538677990437,0.006786248906911351,0.002526225975411944
1690841334530432000,1.059431884765625,0.23593583103120325,0.01377343634655699,0.003040367776318453
1690841334540473000,1.06947314453125,0.24072540339529513,0.014064644695341121,0.00033886971567990255
1690841334550513000,1.079512939453125,0.23234511306285857,0.01909320203063544,0.001537176122155506
1690841334560553000,1.089552978515625,0.22635843986868856,0.015620539217698386,-0.0018172876881901174
1690841334570592800,1.0995927734375,0.2354857491761446,0.01684383165166946,-0.0020116366499336436
1690841334580633900,1.1096337890625,0.23533435800671576,0.015730157621612305,-0.0014292039693449624
1690841334590674000,1.119673828125,0.23129472722709177,0.01404287582152756,0.001341395538439974
1690841334600714000,1.1297138671875,0.22590718896985051,0.011642287803068757,0.007454530956759117
1690841334610755000,1.139755126953125,0.22845044371187687,0.0036400141699006777,0.0025757322395220396
1690841334620824800,1.149824951171875,0.22156769846081734,0.0054112547762575555,-0.007926443334424401
1690841334630866000,1.159865966796875,0.2220171957939863,0.0008465041439863853,-0.005835325407225173
1690841334640906000,1.169906005859375,0.22306582806408404,0.00052343021905981,0.004089504653203766
1690841334650945800,1.17994580078125,0.22531273020803927,0.0017874473890638909,0.006824564773438032
1690841334660985900,1.18998583984375,0.23144845648407936,0.0016965245524654163,-0.005646093295305036
1690841334671027000,1.20002685546875,0.23234745115041733,0.006973789101955481,-0.005654383916326332
1690841334681066800,1.210066650390625,0.2280085451632738,0.006532215921982424,-0.003889479435922112
1690841334691106800,1.22010693359375,0.23653788857758043,0.011130963580333627,0.005200735564425122
1690841334701148000,1.23014794921875,0.2348924594581127,0.010384994918084704,-0.003357893309870269
1690841334711187700,1.240187744140625,0.2293552835971117,0.005788076173927402,-0.0031878705052076836
1690841334721227800,1.250227783203125,0.22471593335866927,0.006628626642806921,0.0011519510806770996
1690841334731267800,1.260267822265625,0.22232231622040272,0.013814405394473577,0.0041504730262444355
1690841334741309000,1.270308837890625,0.22217150957286358,0.015161819681746418,-0.00839372976932209
1690841334751380000,1.2803798828125,0.22082477113902568,0.009104348556976765,0.007593204208509996
1690841334761419800,1.290419677734375,0.22531389925181863,-0.00007586454807315021,-0.004823593364702537
1690841334771459800,1.3004599609375,0.23129881888031958,0.0005873851336305961,-0.007418242650537286
1690841334781500000,1.3105,0.22995266496837138,0.002225491746456828,-0.008624140991712919
1690841334791540700,1.320540771484375,0.22710955049693582,-0.0005592207683599553,-0.0054963917594635855
1690841334801580800,1.330580810546875,0.22292028211355208,0.005302778016659431,-0.0023481248955707994
1690841334811620900,1.340620849609375,0.2326484799236059,0.0028407604008563792,0.0019662905377103015
1690841334821662000,1.350661865234375,0.2296551433265209,0.010278294557041953,0.004711515858932398
1690841334831701800,1.36070166015625,0.22441782719492911,0.011604387495073023,0.003551189675554633
1690841334841741800,1.370741943359375,0.23938158757090566,0.004970045780821238,-0.0004975605588639155
1690841334851782000,1.380781982421875,0.23878245263397693,0.0061675667360075745,-0.007220206177653744
1690841334861822700,1.39082275390625,0.2310018817603588,0.0108428924701293,-0.0017342262143502012
1690841334871862800,1.40086279296875,0.22516601521372795,0.005640031163988169,-0.0028134819515747947
1690841334881933800,1.410933837890625,0.23174948525726793,0.0003331843269872479,0.000552624347503297
1690841334891974000,1.420973876953125,0.2305529689490795,0.008161859525495673,-0.000700280056730844
1690841334902013700,1.431013671875,0.228308404892683,0.0020650861535104923,-0.0009100640496239066
1690841334912054800,1.4410546875,0.2330973927348852,-0.0023651365375204477,0.0013128041981952264
1690841334922094800,1.4510947265625,0.22756197043955326,0.002502660153445322,-0.00027322745081037283
1690841334932135000,1.461135009765625,0.21978023052215576,0.003457274589204462,0.010310192099225242
1690841334942175000,1.471175048828125,0.2229232047230005,0.0017261559306818526,0.005139294550637714
1690841334952215800,1.4812158203125,0.23324878390431403,-0.0017451939912920351,0.00674608129330445
1690841334962256000,1.491255859375,0.22995734114348887,0.008035698695445898,-0.006366521090921014
1690841334972295700,1.501295654296875,0.22935995977222917,0.009266253128909737,-0.0017258191456086933
1690841334982336800,1.511336669921875,0.2314548862248659,0.005234281641000415,0.0066489113790099506
1690841334992376800,1.521376953125,0.2345966913819313,0.004552403748995857,-0.000060329052223823964
1690841335002417000,1.5314169921875,0.22591829488575457,-0.0004737549915909767,0.0006123437616624869
1690841335012488000,1.541488037109375,0.2339993100106716,0.010356732371402904,0.005624293597094947
1690841335022528000,1.551528076171875,0.23100655793547628,0.0027380386702541724,0.001019535181421088
1690841335032568800,1.56156884765625,0.22247779904305934,-0.0036726606307551264,-0.0020472194199683143
1690841335042609000,1.57160888671875,0.2287614093571901,0.0038038926448556594,-0.007473265339981298
1690841335052648700,1.581648681640625,0.22816344346404074,-0.0015640995200548785,-0.0007995414634118787
1690841335062688800,1.591688720703125,0.22157938889861106,0.002388185194612015,-0.0006204003455990459
1690841335072729900,1.601729736328125,0.2292109066903591,0.014377056804002494,-0.011672398671897826
1690841335082770000,1.61177001953125,0.22621815461516379,0.003313933153846301,-0.005606094645056873
1690841335092810000,1.62181005859375,0.2262175700932741,0.0014936360912397504,-0.0048977545794565225
1690841335102850800,1.631850830078125,0.2263666231751442,0.003053143917856505,-0.009481945131137036
1690841335112891000,1.641890869140625,0.23175416143238542,0.00463621528315125,-0.007141184983047423
1690841335122930700,1.6519306640625,0.2257686572819948,0.013618367940786993,-0.00416724378124345
1690841335132970800,1.661970703125,0.2296598195016384,0.004866345661040395,-0.004577567873004591
1690841335143041800,1.672041748046875,0.22861235627532003,-0.0022600721527822314,-0.00018926636124961076
1690841335153081900,1.682081787109375,0.22591771036386488,0.0020927710281684994,0.0031015302288928065
1690841335163123000,1.692123046875,0.22472119405567645,0.008637605544773396,-0.00021493052546866237
1690841335173163000,1.7021630859375,0.22786358373463153,0.010815975922095822,0.005189967575238551
1690841335183203000,1.712203125,0.2319037990361452,0.001978377126081614,0.007574708428949816
1690841335193244000,1.722243896484375,0.22921032216846943,0.005335580882785143,0.00036118543712073005
1690841335203283700,1.73228369140625,0.2359428452938795,0.003988164312223671,-0.001445746395480819
1690841335213323800,1.74232373046875,0.22950901285409925,0.0026989932930096983,-0.00798421966995811
1690841335223363800,1.75236376953125,0.22157880437672137,0.003536843773082364,-0.006442618534434587
1690841335233405000,1.762405029296875,0.22891046243906019,0.005688936923188157,-0.0036747544064302928
1690841335243445000,1.772445068359375,0.23160452382862567,0.004532246876956196,0.002819658247323241
1690841335253485000,1.782485107421875,0.22891163148283958,0.0029118231929372994,-0.00116607664579642
1690841335263555800,1.792555908203125,0.22606793248951434,0.001860006876842817,0.0028742014461546205
1690841335273596000,1.802595947265625,0.23070786724984643,0.0003858689288725145,0.0034309631126583553
1690841335283636700,1.81263671875,0.2257698263257742,0.011357783189706969,-0.007571305187244434
1690841335293676800,1.8226767578125,0.22382395295500754,0.009845155845273984,-0.005630360294989077
1690841335303701500,1.832701416015625,0.22127952916920185,0.0013558932796062435,0.0029686017313390036
1690841335313741600,1.842741455078125,0.22352350870370863,0.011587541391549166,0.001974211265973281
1690841335323782400,1.852782470703125,0.23025778539478778,0.006746541375963715,-0.005308155161386821
1690841335333822500,1.862822509765625,0.21888591203093527,0.007934538734267698,-0.003022118591930484
1690841335343862500,1.872862548828125,0.22591771036386488,0.011287799251504475,-0.0010206597010721451
1690841335353903600,1.882903564453125,0.21499474981129169,-0.001511137498600874,0.002404032359359553
1690841335363943400,1.892943359375,0.2336988657593727,0.0021646592290897387,-0.001406188419938553
1690841335373983500,1.9029833984375,0.2323521273255348,0.006106494473334168,-0.0008537478771700989
1690841335384023600,1.9130234375,0.22038170354664324,0.0063193483477924015,0.0007448818168602884
1690841335394094600,1.923094482421875,0.230108147791028,0.005880616720521357,-0.002163560967257945
1690841335404135400,1.933135498046875,0.23115561101734636,0.0016628449035051745,-0.007088597420928999
1690841335414175500,1.943175537109375,0.23310089986622332,-0.0013845839429064654,0.0017581162633025086
1690841335424215600,1.953215576171875,0.22247604547739028,0.007618100046104518,-0.00021473187935771418
1690841335434255400,1.96325537109375,0.2244225033700466,0.00931443622725783,-0.00108843684081221
1690841335444296400,1.97329638671875,0.23235329636931418,-0.00399451071297517,0.002863434598612366
1690841335454336500,1.98333642578125,0.22965865045785902,0.005790760179713834,-0.0022016131139476784
1690841335464376600,1.99337646484375,0.23519524179697035,0.006248803862230852,-0.004002139180293306
1690841335474417400,2.00341748046875,0.22397183699309825,0.009696764917107066,-0.010666382842464371
1690841335484457500,2.01345751953125,0.22711422667205333,0.01360310301464051,-0.010984344484144822
1690841335494497500,2.02349755859375,0.23639234262704847,0.005117163775576045,-0.004030945149669424
1690841335504537300,2.033537353515625,0.231154441973567,0.006039878385863267,0.0010774085567216388
1690841335514578400,2.043578369140625,0.23055589155852793,0.0010185465174436103,-0.0023009978182148188
1690841335524648400,2.0536484375,0.23953473230600356,0.0027059459068928845,-0.004676451395417097
1690841335534689500,2.063689453125,0.23055647608041763,0.004660253745864611,0.005303449303517118
1690841335544729300,2.073729248046875,0.2314554707467556,0.0002676859093015082,0.0027081584135768932
1690841335554769400,2.083769287109375,0.22771394613087176,0.0026303085460385772,-0.0014017063243547453
1690841335564810500,2.093810546875,0.23908581949472427,0.010976034455170156,-0.0052406040672212835
1690841335574850600,2.1038505859375,0.2314548862248659,0.00634035003662575,-0.00759592588855885
1690841335584890400,2.113890380859375,0.22831249654591082,0.00019529081830405628,-0.006801743303565308
1690841335594930400,2.123930419921875,0.23833821599781513,-0.0004980206415231804,0.0010218355947174131
1690841335604971500,2.133971435546875,0.24222879369556902,0.003527297343313694,0.009481888048921246
1690841335615011300,2.14401123046875,0.2311550264954567,0.0075063890081597485,0.0006952339888550341
1690841335625051400,2.154051513671875,0.22681612050831318,0.004669511339621385,-0.0021128160190652125
1690841335635092500,2.164092529296875,0.2310059734135866,-0.0030843713148264213,-0.0023725286844652146
1690841335645162200,2.174162353515625,0.230557645124197,-0.006686286530620418,0.003497735605400521
1690841335655203300,2.184203369140625,0.23205343663990496,-0.0034053229229699354,-0.0029777851182152515
1690841335665243400,2.194243408203125,0.22516952234506607,0.0009972365846449974,-0.013070165181718767
1690841335675283500,2.204283447265625,0.22172727293670177,-0.006093545943504432,-0.002025697141326964
1690841335685324500,2.214324462890625,0.2277127770870924,-0.004949237029877258,-0.0011383837796282022
1690841335695364400,2.2243642578125,0.22786299921274183,0.005845252004551002,0.0001115317997871898
1690841335705404400,2.234404296875,0.23444646925628185,0.00911522614401765,-0.004423597729066387
1690841335715444500,2.244444580078125,0.22876024031341075,0.005084785601135808,0.001407818688021507
1690841335725485600,2.254485595703125,0.22531799090504645,0.003965009482210734,-0.0007653469328652135
1690841335735525400,2.264525390625,0.22950784381031988,0.012249633445916697,0.0017844151817611419
1690841335745565400,2.2745654296875,0.21439444583058356,0.002414301449980121,0.0020491944646346383
1690841335755605500,2.28460546875,0.22786183016896247,-0.0011305829240183811,-0.0008674647336243651
1690841335765646300,2.294646240234375,0.230704944640398,-0.003514859128493117,-0.0061711035500979046
1690841335775717400,2.30471728515625,0.22681436694264412,0.0059680837997759225,-0.002258371102751698
1690841335785757400,2.31475732421875,0.22875965579152105,0.009403726512484717,-0.0011725851600407622
1690841335795797200,2.32479736328125,0.225167768779397,0.003297009418508969,-0.002371998961502686
1690841335805837300,2.33483740234375,0.23070377559661864,0.0012436308274569455,0.005518078434886411
1690841335815878400,2.34487841796875,0.23264964896738527,0.0010744003239495214,-0.003634052503283601
1690841335825918500,2.35491845703125,0.22576631919443607,0.00767281106665032,0.0028544920986867508
1690841335835958500,2.36495849609375,0.23354747458994388,-0.003438271919568069,0.0025077815698459744
1690841335845999400,2.374999267578125,0.23833529338836668,-0.0032357236683485096,-0.0006653388908016495
1690841335856039400,2.385039306640625,0.2313023260116577,0.009041690550348721,-0.007851416753279045
1690841335866079500,2.39507958984375,0.23279870204925535,0.00651193232742371,-0.002783589136810042
1690841335876119300,2.405119384765625,0.22950667476654052,0.00369089497376699,0.00304118291035993
1690841335886160400,2.415160400390625,0.22142624416351317,0.0030525514044566077,-0.004367239315772894
1690841335896230400,2.42523046875,0.23294775513112545,0.006649401144421426,-0.0024504618920385838
1690841335906271500,2.435271484375,0.2351929037094116,0.008349712531082331,-0.0022525144674116746
1690841335916311600,2.4453115234375,0.22411913650929927,0.004535397815267788,-0.0030469984465045855
1690841335926351600,2.4553515625,0.23564123199880121,-0.003486104533111211,0.0012780388454906642
1690841335936392400,2.465392333984375,0.23115210388600824,0.008038253695424645,-0.000059671465097926554
1690841335946432300,2.475432373046875,0.22516659973561762,0.010630677916487911,0.0020089857518323694
1690841335956472300,2.485472412109375,0.24387071568369864,0.004461585943674435,0.001240378282801248
1690841335966512400,2.495512451171875,0.23249825779795646,0.005155932874896098,0.0032808437349973246
1690841335976553500,2.505553466796875,0.23145079457163809,0.0047018267236242535,-0.005265480496862437
1690841335986593500,2.515593505859375,0.2305529689490795,0.002481016860506497,-0.0008520456854952499
1690841335996633600,2.525633544921875,0.2275596323519945,0.0014758846637734676,-0.015728212259698192
1690841336006674400,2.53567431640625,0.22336977944672107,-0.0028121074118185787,0.0026743840081384406
1690841336016714200,2.54571435546875,0.23249825779795646,-0.003966486769955372,0.00731685321885161
1690841336026785300,2.555785400390625,0.223220726364851,-0.0008332039877073839,-0.0029111290731932966
1690841336036825300,2.565825439453125,0.21888123585581779,0.002858693349768873,-0.0064044830477097995
1690841336046865400,2.575865478515625,0.22366963917613028,0.014739351919398177,-0.004393956076051108
1690841336056906500,2.585906494140625,0.2348924594581127,0.0072710070664179505,-0.0009060865608276798
1690841336066946600,2.595946533203125,0.22890695530772207,-0.001654855676583247,-0.000353827539505437
1690841336076986600,2.605986572265625,0.2248667400062084,0.008361893875931855,0.0004860801836242899
1690841336087026400,2.6160263671875,0.23294717060923575,0.004827059396845288,0.0005176101163378916
1690841336097067300,2.6260673828125,0.23638942001760005,0.0076315406246343625,0.00008211619234643876
1690841336107107300,2.636107421875,0.23055355347096917,0.0015657434878696222,0.005462519172613974
1690841336117147400,2.6461474609375,0.23249884231984613,0.005879669155739248,0.003927149131766054
1690841336127188500,2.6561884765625,0.22411913650929927,0.002993247548828367,0.0075169789008330545
1690841336137228500,2.666228515625,0.22292203567922114,0.006233987602300476,-0.001719505852542352
1690841336147299600,2.676299560546875,0.2205284185409546,-0.0035797102338518015,0.001750812022970058
1690841336157339400,2.68633935546875,0.2208282782703638,0.0048718369701993645,-0.003802723601076286
1690841336167379500,2.69637939453125,0.22337211753427982,0.003954973287030588,-0.005018442366656381
1690841336177419500,2.70641943359375,0.21663900988698004,0.004419129333214368,-0.004827719267259817
1690841336187460400,2.71646044921875,0.22322306445240972,0.0033121681717340834,0.0002801138493232429
1690841336197500400,2.72650048828125,0.22516835330128668,-0.0028219164197798817,-0.00046467663599178194
1690841336207540500,2.73654052734375,0.23145313265919684,-0.0006589445409888867,0.00469850796359824
1690841336217581600,2.74658154296875,0.22412089007496833,-0.000011625364067731425,0.0020579645762685687
1690841336227621600,2.75662158203125,0.21843466113209722,0.0066075301974953616,-0.0035501781786908392
1690841336237661400,2.766661376953125,0.2158908218681812,0.001847836948436452,-0.004833895563008264
1690841336247701500,2.776701416015625,0.22382161486744878,-0.002500003547122469,-0.0018723651765612883
1690841336257742300,2.786742431640625,0.21873393633961677,0.00019300296309520488,0.004188740943709854
1690841336267782400,2.796782470703125,0.2151420493274927,-0.0004603406708803959,0.0030417948317131957
1690841336277853400,2.806853515625,0.22486849357187746,0.014372046127100474,-0.009609416568861343
1690841336287893500,2.8168935546875,0.22157588176727294,0.005383904403384076,0.0015636280209524555
1690841336297933300,2.826933349609375,0.22591595679819582,0.007490785013651475,0.00018125658472999928
1690841336307974100,2.83697412109375,0.22815993633270262,0.006515428042318671,-0.002880873215536121
1690841336318014200,2.84701416015625,0.21125088710784912,0.0089716974789917,0.0037775754600879734
1690841336328054300,2.85705419921875,0.22367080821990964,0.005317676474980544,0.0007496379070798866
1690841336338095000,2.86709521484375,0.23160160121917722,0.006323823593510315,-0.0034624565127538516
1690841336348135000,2.877135009765625,0.21663784084320067,0.006241398015554295,-0.0017083086050930431
1690841336358175000,2.887175048828125,0.21738661338388918,-0.0013657844859582837,0.0005072873684344813
1690841336368215000,2.897215087890625,0.22456921836435795,-0.0006838586448924616,-0.0052095901577384205
1690841336378256100,2.907256103515625,0.22008009025156497,0.004129470195766771,-0.009173328989825676
1690841336388296200,2.917296142578125,0.21738661338388918,0.007367598167044343,-0.000024682350107468663
1690841336398367200,2.9273671875,0.2247188559681177,-0.005144258420122787,-0.003866048327984754
1690841336408407000,2.937406982421875,0.22202537910044193,-0.0022045243069529533,0.001980264264135621
1690841336418447000,2.947447021484375,0.21319676047861574,0.005561043077067006,0.005284904433251358
1690841336428488000,2.957488037109375,0.2194815398365259,0.005653235422144643,-0.006517145075369626
1690841336438528000,2.967528076171875,0.2169377005726099,0.005399009499326348,0.0015711628734366967
1690841336448568000,2.977568115234375,0.2151420493274927,0.004366346549917944,0.007235563576989807
1690841336458608000,2.987608154296875,0.218134801402688,0.004123894404928432,0.002668392658769153
1690841336468649200,2.997649169921875,0.21589023734629154,-0.0017746084570884704,0.0008097157975542359
1690841336478689300,3.007689208984375,0.21708733817636966,-0.0008972057096951175,0.006637300856318324
1690841336488729000,3.01772900390625,0.21544132453501225,-0.0007963380094617604,-0.0013915182904805988
1690841336498770000,3.02777001953125,0.2185837142139673,-0.0060977688858285545,-0.005418600115785375
1690841336508810000,3.03781005859375,0.2155915466606617,0.002040178899472812,0.0016413397495285607
1690841336518850000,3.04785009765625,0.22097850039601324,0.005358797361591132,-0.0026263732980820347
1690841336528921000,3.057921142578125,0.21005495532155036,0.008619053824641742,-0.0032494987486628812
1690841336538961200,3.067961181640625,0.21888298942148685,0.011458827844809274,0.0023105784973129627
1690841336549001000,3.0780009765625,0.21708733817636966,0.004535699209367158,-0.0034161194532644
1690841336559042000,3.0880419921875,0.22187574149668216,0.0027356697582989,-0.008913703089393675
1690841336569082000,3.09808203125,0.21095278094410896,0.0012720223799464292,-0.009284431531350128
1690841336579122200,3.1081220703125,0.21229951937794683,-0.00031363595136790534,0.0005524531008559278
1690841336589163000,3.1181630859375,0.21619009707570075,0.00025426816365798,0.0033353892171173356
1690841336599203000,3.128203125,0.2090069075733423,0.00032952307366649616,0.0065507916166447095
1690841336609243100,3.1382431640625,0.20960545798838137,-0.000297452001547208,0.0029750017893733455
1690841336619283000,3.148282958984375,0.21499299624562263,-0.0012894781215349212,0.0033259181358735075
1690841336629324000,3.158323974609375,0.2094564049065113,0.0014913961850921622,-0.002326509002095554
1690841336639364000,3.168364013671875,0.2085585792839527,0.002751189271127805,-0.0018743173883412963
1690841336649435100,3.17843505859375,0.21708792269825933,0.00622150029677432,-0.002774334967986215
1690841336659475200,3.18847509765625,0.21050445265471934,-0.0031064267413632475,-0.007902217642043251
1690841336669515000,3.198514892578125,0.20017887347340582,-0.008452505043632118,-0.007891949693066998
1690841336679556000,3.20855615234375,0.20661329043507576,0.003397111075406428,-0.0033764039308065547
1690841336689596200,3.21859619140625,0.20721184085011482,0.009091097491403343,0.000032292551116552204
1690841336699636000,3.228635986328125,0.21140227827727792,-0.0008748443224816583,-0.005149678947334178
1690841336709677000,3.238677001953125,0.21619068159759045,0.00284839571804041,0.007437538722762838
1690841336719717000,3.248717041015625,0.20736206297576426,0.0008704273006238508,-0.0013255335323163308
1690841336729757200,3.258757080078125,0.21259937910735605,0.0006846532293362542,-0.0059686534802895035
1690841336739797000,3.268796875,0.20616554666757583,0.007314799400727497,-0.008050300326244906
1690841336749838000,3.278838134765625,0.19853402887582777,0.005513636296853656,-0.0004668891426757909
1690841336759878100,3.288878173828125,0.20721300989389418,0.0074402957937854805,0.001820418076904025
1690841336769949000,3.298948974609375,0.20167641855478285,0.0032729686725069766,0.0022819574743160047
1690841336779989000,3.308989013671875,0.2018266406804323,0.001470082827360602,0.0020236809974652713
1690841336790029000,3.319029052734375,0.2010784526616335,-0.0023884363563614897,0.0015046095764031633
1690841336800070100,3.329070068359375,0.19883388860523699,0.002768909874197561,-0.007020496054203249
1690841336810110200,3.339110107421875,0.20242519109547136,0.003476964528718963,0.00017416469024028627
1690841336820150000,3.34914990234375,0.19898411073088645,0.0009406213013804517,0.0018239708740147762
1690841336830190000,3.359190185546875,0.20287410390675067,0.0017773906442860607,-0.00023323336713947353
1690841336840231200,3.369231201171875,0.2031739636361599,0.003486939075106056,-0.002466682374477386
1690841336850271000,3.37927099609375,0.20571838742196558,-0.00017095210313564164,-0.00043168311526533214
1690841336860311000,3.38931103515625,0.19374621007740497,0.0021001471920928452,-0.007770656834379769
1690841336870352100,3.39935205078125,0.19254969376921652,-0.0015107755973527673,-0.004519144225143827
1690841336880392200,3.40939208984375,0.19718845948576927,0.0063397175656748,0.0018936362934531643
1690841336890432000,3.419431884765625,0.2009293995797634,0.003780193250504089,-0.003144351023889612
1690841336900503000,3.4295029296875,0.208860192579031,0.00934571385657764,-0.004730537936522159
1690841336910542800,3.43954296875,0.1992828014165163,-0.0043470413445378655,-0.0006202485069050453
1690841336920584000,3.449583984375,0.19344751939177512,0.00010533267115242778,-0.004423348850605543
1690841336930624000,3.4596240234375,0.20511925248503685,0.0024439590860158202,-0.004761460514459759
1690841336940664000,3.4696640625,0.20452070206999778,0.00046476225931546647,-0.0010555415014969183
1690841336950704000,3.4797041015625,0.1879109280526638,0.0008034173458639997,-0.0016297794591868294
1690841336960745200,3.4897451171875,0.19644027146697043,-0.004900457993196323,0.0025458348581800234
1690841336970785000,3.499784912109375,0.20870997045338152,0.0041406731514376585,-0.0038032601739047094
1690841336980825000,3.5098251953125,0.19599135865569114,0.001210491176258074,0.0024506103057996367
1690841336990866200,3.5198662109375,0.20556874981820583,0.004556474852625979,-0.003941538416722324
1690841337000906000,3.529906005859375,0.2078133138746023,0.00718704826014582,-0.013154966521495953
1690841337010946000,3.539946044921875,0.1943465140581131,-0.001040921604388859,-0.0058305807334487324
1690841337021017000,3.55001708984375,0.18387071275115013,0.0040672677052207284,-0.0011670185023569502
1690841337031057200,3.56005712890625,0.18970599477589128,0.009414180549484443,0.0018744886349886655
1690841337041097200,3.57009716796875,0.2054179431706667,0.00439436820964911,-0.0023508146095788103
1690841337051138000,3.580137939453125,0.1986848355233669,0.003125445394020062,-0.008140204816113692
1690841337061177900,3.590177734375,0.20392215165495872,0.004768380020657787,0.0004075807204702869
1690841337071218000,3.600218017578125,0.216941207703948,0.004777296262764139,-0.005033569153840654
1690841337081259000,3.610259033203125,0.204820561799407,0.005749535403470509,0.0009521724585676565
1690841337091299000,3.620299072265625,0.20018121156096458,0.004262572223256575,-0.001759445137286093
1690841337101339100,3.630339111328125,0.19374679459929464,0.0018199602775333915,-0.0009696327667334117
1690841337111379200,3.640379150390625,0.1956920834481716,0.010208720469148828,-0.006046922331291716
1690841337121420000,3.650419921875,0.19374679459929464,0.009028997748845722,-0.004880705263244454
1690841337131460000,3.660460205078125,0.18910744436085222,0.0005664291105698793,-0.003456204868480563
1690841337141531000,3.67053076171875,0.19240005616545677,0.002422685685835313,-0.0008509793897042982
1690841337151571000,3.680571044921875,0.2043716489881277,-0.0011327840142592322,0.0019140557436854578
1690841337161611000,3.690611083984375,0.19943302354216574,-0.002111570485116681,0.000518783726694528
1690841337171652000,3.700652099609375,0.1938970167249441,-0.0014967230974696575,-0.004179034683736972
1690841337181692200,3.710692138671875,0.19838614483773706,0.004665175374509999,-0.005694017240393441
1690841337191732200,3.720732177734375,0.2043716489881277,0.005908132631820626,0.0010425861218012868
1690841337201772000,3.73077197265625,0.3547720538139343,-0.03216612999159842,-0.02517407229730161
1690841337211812900,3.740812744140625,0.095758714056015,-0.16388932514255866,-0.485259880217351
1690841337221853000,3.75085302734375,-0.2540910809248686,-0.5745249579377472,0.5315874046934769
1690841337231893000,3.76089306640625,0.053992286950349806,0.05153571041135583,0.1411086530711036
1690841337241934000,3.77093408203125,0.4514069661825895,0.1632499495267868,-0.13204374147537162
1690841337251974100,3.78097412109375,0.17681144188940523,0.26464690693179144,-0.06650298248524777
1690841337262014200,3.79101416015625,0.4032178125530481,0.24290665642451492,-0.11711829468263313
1690841337272085200,3.801085205078125,0.23728841468393802,0.23565679489411412,-0.0068652198691677765
1690841337282125000,3.811125,0.310780936396122,0.21310151994321494,0.0025751023372708004
1690841337292166000,3.821165771484375,0.17866554532349108,0.12385171285718678,0.02274511213430669
1690841337302200800,3.831200927734375,0.2183189257979393,0.035299060005752836,0.03253819872398162
1690841337312241000,3.841240966796875,0.11595745247602463,-0.055849815317383034,0.025624613093375225
1690841337322280700,3.85128076171875,0.17011515912115574,-0.13156907316832803,-0.002436792984645581
1690841337332321500,3.861321533203125,0.09963058705329894,-0.18349992494368925,-0.020440034079307223
1690841337342361600,3.871361572265625,0.1517073957711458,-0.1990760085317306,-0.042678409117739645
1690841337352401700,3.881401611328125,0.12897124782800673,-0.1841006855821237,-0.05634065844109282
1690841337362442800,3.89144287109375,0.17656711173951625,-0.15053594083897767,-0.06494062853935174
1690841337372482800,3.90148291015625,0.1358703596919775,-0.09036881944490596,-0.04982840416997205
1690841337382523000,3.91152294921875,0.2497422380656004,-0.019984604762273372,-0.03940111817985307
1690841337392594000,3.921593994140625,0.1668348222762346,0.03677085872452007,-0.014739119023957754
1690841337402633700,3.9316337890625,0.25675883882939815,0.08318442436615005,0.007944675964969792
1690841337412673800,3.941673828125,0.22128946604132652,0.11966012465255334,0.01981468242231058
1690841337422714600,3.951714599609375,0.2530132225602865,0.13736777690919116,0.025725529884314164
1690841337432754700,3.961754638671875,0.23506430889368055,0.1348297463315539,0.021392546747880988
1690841337442794800,3.971794677734375,0.22115677957236765,0.11309174258029088,0.013051918280619428
1690841337452835800,3.9818359375,0.24046587567627428,0.07234390423290897,-0.0033667781567579365
1690841337462876000,3.9918759765625,0.21398118885457515,0.023373845341766716,-0.018531315522798103
1690841337472915700,4.001915771484375,0.18135843766927717,-0.02587711056669941,-0.03184522290758323
1690841337482955800,4.011955810546875,0.1928776105493307,-0.06684278606597799,-0.041509461236489
1690841337492996600,4.02199658203125,0.15905775853395462,-0.09513854546421206,-0.03767050184482941
1690841337503036700,4.03203662109375,0.159058927577734,-0.11262416160115972,-0.028447187100281005
1690841337513107700,4.042107666015625,0.16953589792847631,-0.1074175785345491,-0.02575091548732016
1690841337523147800,4.052147705078125,0.15726853702962398,-0.0904854863608256,-0.015111690079839899
1690841337533187600,4.0621875,0.18166005096435545,-0.062403241849108594,-0.004424121172985178
1690841337543228700,4.072228759765625,0.1982674868941307,-0.020102908796141853,-0.011986004940513521
1690841337553268700,4.082268798828125,0.20395079322755336,0.020945095241325908,-0.006017221883594175
1690841337563308800,4.092308837890625,0.21696575762331485,0.04851301985562313,-0.0035825777589619974
1690841337573349600,4.102349609375,0.22848609954714774,0.07623155932121443,-0.00910687159091467
1690841337583389700,4.1123896484375,0.23058219504356384,0.09244964430695399,-0.007998564430786063
1690841337593429800,4.1224296875,0.24315467636883256,0.09049389799614437,-0.012983778097986941
1690841337603469800,4.1324697265625,0.20470190385580062,0.06515383289861493,-0.015590879298374057
1690841337613511000,4.142510986328125,0.2159264777034521,0.03202989985868335,-0.013657721561996732
1690841337623550700,4.15255078125,0.206200617980957,0.005273321310023311,-0.007283150737005053
1690841337633590800,4.1625908203125,0.19392974995076656,-0.021299888611922505,-0.012127705832989886
1690841337643661800,4.172661865234375,0.18914134663045407,-0.042558116339473054,-0.00951023279399378
1690841337653702000,4.182701904296875,0.1903378629386425,-0.059652746697724794,-0.02029699746298138
1690841337663742700,4.19274267578125,0.1846516339957714,-0.06640791547978296,-0.019272974477754903
1690841337673782800,4.20278271484375,0.1913864952087402,-0.06680877419852185,-0.022007895317382644
1690841337683822600,4.212822509765625,0.1858499038696289,-0.04349660276598297,-0.02232038848279044
1690841337693862700,4.222862548828125,0.20739713428914547,-0.023481095975369678,-0.012242555251158773
1690841337703903700,4.23290380859375,0.2085930660754442,0.0012099294872547034,-0.00895827459594875
1690841337713943800,4.24294384765625,0.21382921316325662,0.02392071351862978,-0.013696792055416154
1690841337723984000,4.25298388671875,0.21726970900595186,0.03429683786038076,-0.0038211822771962033
1690841337734024700,4.263024658203125,0.2132289091825485,0.04368352647309657,0.0007964784317126032
1690841337744064800,4.273064697265625,0.2178688439428806,0.045321192411216904,-0.007030732607960817
1690841337754104800,4.283104736328125,0.22071312745809554,0.0397760661392007,-0.011452846770238828
1690841337764175600,4.293175537109375,0.21278350350260733,0.025008737084199675,-0.022282661704730707
1690841337774215700,4.303215576171875,0.20994097355306146,0.010534143898077308,-0.02453089043938089
1690841337784256800,4.3132568359375,0.19767127456665037,-0.0037231010453266204,-0.011042877729859901
1690841337794296800,4.323296875,0.1988683753967285,-0.02262150402094703,-0.01243909160341136
1690841337804337000,4.3333369140625,0.19812018737792966,-0.03962329586343839,-0.013568023709749103
1690841337814376700,4.343376708984375,0.1867477294921875,-0.04171467408554162,-0.012532241788069949
1690841337824417800,4.353417724609375,0.19378069686889648,-0.025303185419552027,-0.020620073671196587
1690841337834457600,4.36345751953125,0.20201076507568358,-0.026546847071405498,-0.019459608207212296
1690841337844497700,4.37349755859375,0.1937801123470068,-0.011612204333703266,-0.01980436424098443
1690841337854537700,4.383537841796875,0.20799510018229483,-0.000026380546027212402,-0.019260382140951694
1690841337864578800,4.393578857421875,0.21188450883626936,0.01701042724009603,-0.014110622136871098
1690841337874619000,4.403618896484375,0.2091910319685936,0.022588072108803314,-0.015982409641408592
1690841337884690000,4.41368994140625,0.2139788507670164,0.0318998665711144,-0.01586373114820453
1690841337894729700,4.423729736328125,0.20993863546550273,0.029929877105820922,-0.013080137444817227
1690841337904769500,4.43376953125,0.22101298718750476,0.018495884591457432,-0.010384857920766807
1690841337914810600,4.443810546875,0.2150280675590038,0.010429863822984043,-0.004841332234081347
1690841337924850700,4.4538505859375,0.20979133594930172,0.00606081100521551,-0.009438469603125122
1690841337934890800,4.463890869140625,0.20395546940267084,-0.003880046028940705,-0.014944443754153325
1690841337944931800,4.473931884765625,0.18988953464925287,-0.017426450420281615,-0.01237107471836498
1690841337954972000,4.483971923828125,0.2027589530944824,-0.015447185094922315,-0.024643447435763664
1690841337965011700,4.49401171875,0.20350655659139155,-0.011982529775216244,-0.01883537992822239
1690841337975051500,4.504051513671875,0.20365619419515132,-0.01749800069448538,-0.019278509169397873
1690841337985092600,4.514092529296875,0.2136819136470556,-0.0174239193948335,-0.016464200667338443
1690841337995132700,4.524132568359375,0.21757190682291982,-0.006395203762711026,-0.015803930677298923
1690841338005203700,4.53420361328125,0.20634908654093742,-0.010240586045291274,-0.020261823401611763
1690841338015243800,4.544243896484375,0.21023907971680164,0.0051985339033621125,-0.015927135790215107
1690841338025283800,4.554283935546875,0.21966624875366686,0.012233712074288632,-0.0034057025197049367
1690841338035325000,4.564324951171875,0.21368074460327624,0.014288435522344661,-0.00715926634572097
1690841338045364700,4.57436474609375,0.2207137119799852,0.024282747197477146,-0.011414640501566464
1690841338055404500,4.584404541015625,0.20530162331461904,0.014187421691638882,-0.014242855373036581
1690841338065444600,4.594444580078125,0.2088935103267431,0.010706870116479694,-0.014444395552325294
1690841338075485700,4.604485595703125,0.21233517521321774,-0.0008541423152812058,-0.014662068307440494
1690841338085525800,4.61452587890625,0.21832067936360836,-0.0016338488503504776,-0.02155818335508229
1690841338095565800,4.62456591796875,0.21996727752685546,-0.004791859648478567,-0.011510789785842643
1690841338105607000,4.63460693359375,0.2109890213012695,-0.0005558529176283627,-0.016452764816227136
1690841338115646700,4.644646728515625,0.20859481964111326,-0.0049360698751610465,-0.019498540561669504
1690841338125686500,4.6546865234375,0.22131401596069333,-0.007063931053841952,-0.01922455049245618
1690841338135757600,4.664757568359375,0.20440438221395016,-0.013170016818511066,-0.015175762583775213
1690841338145797600,4.674797607421875,0.20649930866658686,-0.004842260961732245,-0.014878502378473057
1690841338155838700,4.684838623046875,0.21113748986124992,0.0035225857772224114,-0.008881763877192861
1690841338165878800,4.694878662109375,0.2216121221244335,-0.0007982137310726102,-0.007823131373710929
1690841338175918800,4.7049189453125,0.2217611752063036,0.004290609866008163,-0.00968524115938344
1690841338185958700,4.714958740234375,0.2076958249747753,0.003307766562074539,-0.011717844107176642
1690841338195999700,4.724999755859375,0.21682371880412102,0.014593488591746426,-0.012201618169283028
1690841338206039600,4.73503955078125,0.22086393410563468,0.012443464101140852,-0.01795931975454441
1690841338216079600,4.74507958984375,0.21682371880412102,0.008904688665876164,-0.019215853446058462
1690841338226120700,4.75512060546875,0.2094914762198925,-0.0011385501742872293,-0.009679492980253416
1690841338236160800,4.765160888671875,0.2136819136470556,-0.0016346645552141126,-0.014891917840827953
1690841338246200800,4.775200927734375,0.21233517521321774,-0.004603807711369882,-0.006936583484525909
1690841338256272000,4.78527197265625,0.21263445042073725,-0.01604996073557413,-0.01726471481170738
1690841338266311700,4.795311767578125,0.2129337256282568,-0.018071110707591286,-0.015036332421842961
1690841338276351700,4.805351806640625,0.2067979993522167,-0.015154033667512702,-0.015252768776164157
1690841338286392600,4.815392578125,0.2120353154838085,-0.0025880988161618005,-0.015386225855036172
1690841338296432600,4.8254326171875,0.21547698037028312,0.0019879760714888108,-0.013199623080552555
1690841338306462200,4.835462158203125,0.22610125023722646,-0.001719670249323826,-0.009631218550360062
1690841338316503300,4.84550341796875,0.22610125023722646,0.00482764506037929,-0.017376730668684465
1690841338326543400,4.85554345703125,0.22011574608683585,0.004007688713312382,-0.013103001155529636
1690841338336583200,4.865583251953125,0.21652444359660147,0.003288114867644617,-0.012190666375361614
1690841338346623200,4.875623291015625,0.2181704572379589,0.006775770895380992,-0.015722290550632168
1690841338356664000,4.8856640625,0.2186193700492382,0.010501819380919914,-0.00924291449416196
1690841338366704000,4.8957041015625,0.21966683327555656,0.003724157922551967,-0.005934664445719682
1690841338376775200,4.905775146484375,0.22789690148234365,-0.0025694452042749616,-0.0164768181203166
1690841338386815200,4.915815185546875,0.22834581429362297,-0.009745621585601475,-0.012777703307475893
1690841338396855300,4.925855224609375,0.22295944508016108,-0.0025700288699314114,-0.01669432533700601
1690841338406896400,4.935896484375,0.214279879540205,-0.0000020763655993505378,-0.018971392007073155
1690841338416936200,4.945936279296875,0.22026538369059562,-0.005725256053806515,-0.012163592280412559
1690841338426976300,4.955976318359375,0.22580197502970695,-0.006595775827619946,-0.018497558242024387
1690841338437016300,4.966016357421875,0.22280922295451164,-0.00008087636661948636,-0.015180744719569338
1690841338447057200,4.97605712890625,0.22939327751994132,0.0022677303028525784,-0.020747867052617948
1690841338457097200,4.98609716796875,0.22610125023722646,0.0021072042664309265,-0.01639558441902627
1690841338467137300,4.99613720703125,0.22250936322510242,0.0034280507780087644,-0.00949856119333126
1690841338477178400,5.006178466796875,0.22161153760254382,0.008220107360131805,-0.017487143657042178
1690841338487218200,5.01621826171875,0.22699849133789538,0.002789404102132539,-0.018666556991735705
1690841338497289200,5.026289306640625,0.21787059750854967,0.0007008862698625307,-0.009217785190304858
1690841338507329300,5.036329345703125,0.2163748059928417,0.005567157724022399,-0.019622491168323902
1690841338517369300,5.046369384765625,0.22385668618083,0.000957808756554732,-0.007564774981758091
1690841338527410200,5.05641015625,0.22460487419962882,-0.002337121727655176,-0.005915029305132338
1690841338537450200,5.0664501953125,0.21487842995524406,0.0008109190906630828,-0.010409008264623116
1690841338547490300,5.076490234375,0.226400525444746,-0.007745529813811299,-0.014926960613101255
1690841338557530000,5.086530029296875,0.2181704572379589,-0.004668471301649697,-0.016336017985205398
1690841338567571200,5.0965712890625,0.2211632093131542,-0.0014723261584411375,-0.008759305399659205
1690841338577611300,5.106611328125,0.23313363309204577,0.003704140901940991,-0.010615577387122902
1690841338587651300,5.1166513671875,0.2238561016589403,-0.0015673389358009443,-0.01462371248336276
1690841338597692200,5.126692138671875,0.2261006657153368,0.0009478753093630075,-0.022843441959226038
1690841338607732200,5.136732177734375,0.22669921613037586,0.0005479618721175939,-0.024679078154859597
1690841338617803300,5.14680322265625,0.2217611752063036,0.0025751585632533534,-0.019884633252827914
1690841338627843000,5.156843017578125,0.22984160580933094,0.0012217557807220145,-0.01352376101798145
1690841338637883100,5.166883056640625,0.2217605906844139,0.000008501254397560842,-0.011569049036921932
1690841338647923200,5.176923095703125,0.22625030331909654,0.0032719760127743937,-0.004468012544939119
1690841338657964300,5.18696435546875,0.2195166111499071,-0.002842941512321704,-0.0058986261596030085
1690841338668004400,5.19700439453125,0.22565175290405748,0.007380551834273501,-0.003492009402923577
1690841338678044400,5.20704443359375,0.2172720470935106,0.0004981370892433915,-0.00813652187155094
1690841338688085200,5.217085205078125,0.22265900082886217,-0.00512385894866602,-0.014949980729084926
1690841338698125000,5.227125,0.22924305539429188,0.001665508359693922,-0.02815671853701351
1690841338708165000,5.2371650390625,0.22669921613037586,-0.003538602476150845,-0.030493082212842998
1690841338718205200,5.247205078125,0.23552783475220201,-0.0053190647144685495,-0.02645106083002174
1690841338728246300,5.257246337890625,0.22834522977173327,0.0013433614499517715,-0.02363627512063831
1690841338738317300,5.2673173828125,0.232983995488286,-0.0033566928708722112,-0.022453696006257087
1690841338748357400,5.277357421875,0.2252028400927782,-0.008959095438211807,-0.017024791408877353
1690841338758397400,5.2873974609375,0.22146189999878405,0.003912502976838732,-0.006981249747559195
1690841338768437200,5.297437255859375,0.22625030331909654,-0.000754604059853591,-0.0028586468277630047
1690841338778478000,5.30747802734375,0.2352285595446825,-0.0013804705984366591,0.004217534925820655
1690841338788518100,5.31751806640625,0.23448037152588366,-0.0039369644187710945,0.0010348180884655449
1690841338798558200,5.32755810546875,0.22924305539429188,-0.005950896344601642,-0.012520133508456637
1690841338808599300,5.337599365234375,0.22580139050781725,-0.003503763487387914,-0.013247149733419063
1690841338818639400,5.347639404296875,0.22669980065226553,-0.00373579641552933,-0.02310673482120037
1690841338828679400,5.357679443359375,0.2220604504138231,-0.004984631428599823,-0.03089587031047558
1690841338838719200,5.36771923828125,0.23103929116129873,-0.001655427069563302,-0.0198815097139799
1690841338848760000,5.377760009765625,0.22939269299805162,0.0013932644354616058,-0.010943520425056339
1690841338858800000,5.387800048828125,0.2346305936515331,-0.0022620511932036607,-0.008598009894968709
1690841338868871200,5.39787109375,0.23343349282145498,0.0007364159534365172,-0.0025904280559770993
1690841338878911200,5.4079111328125,0.22580197502970695,-0.003293899008570588,-0.004239338619785849
1690841338888951300,5.417951416015625,0.2268494382560253,0.002691919664829038,0.004700682796019828
1690841338898992400,5.427992431640625,0.23552783475220201,-0.0013136244696361245,0.0005239038587453251
1690841338909032400,5.438032470703125,0.23852058682739732,0.004307422291024704,-0.015572109524178085
1690841338919072300,5.448072265625,0.2338818211108446,0.007099725598897202,-0.021616338716528842
1690841338929112300,5.4581123046875,0.23672493558228014,-0.0009705460821860469,-0.02264935100909788
1690841338939153200,5.468153076171875,0.2277466793566942,-0.004361032195627922,-0.019369742533250245
1690841338949193200,5.478193115234375,0.23059037835001944,-0.000755979170431965,-0.007382010284886928
1690841338959233300,5.4882333984375,0.22221067253947258,-0.0012494126850942848,-0.013499622090568299
1690841338969274400,5.4982744140625,0.22789690148234365,-0.0039968174053152325,-0.008457394706236663
1690841338979314400,5.508314453125,0.24061609780192375,-0.0065498177940433375,-0.006626029401988489
1690841338989385200,5.51838525390625,0.23777298333048819,-0.0011081010933296056,-0.010481116802897303
1690841338999425300,5.52842529296875,0.22834581429362297,0.0004416713613842148,-0.007218309335623053
1690841339009465300,5.53846533203125,0.226400525444746,-0.00005717012240202166,-0.012891261525923618
1690841339019506200,5.548506103515625,0.23193711678385734,0.0020553584877066895,-0.009281758942006854
1690841339029546200,5.558546142578125,0.22535306221842766,0.0033880829521571285,-0.01678411223751027
1690841339039586300,5.56858642578125,0.22924363991618155,-0.00006673538930190261,-0.011401177090150304
1690841339049626400,5.57862646484375,0.23822189614176748,-0.0019929818964024887,-0.019918622287397738
1690841339059667500,5.58866748046875,0.2346305936515331,-0.007881323267775587,-0.016014032047311774
1690841339069707300,5.598707275390625,0.2311889287650585,0.0035613406059885164,-0.022718728734168688
1690841339079747300,5.608747314453125,0.2346305936515331,0.00009037484732689335,-0.011811031966097653
1690841339089787100,5.618787109375,0.24450667549967764,-0.003320405135472538,-0.00573857162228378
1690841339099828200,5.628828125,0.23582769448161123,-0.004902520944474963,-0.009029270601837197
1690841339109899300,5.638899169921875,0.23971827217936514,0.0003509520228850306,-0.0005009907719162583
1690841339119939300,5.648939208984375,0.23283494240641592,0.0032450520440528634,-0.0052143736474215985
1690841339129979100,5.658979248046875,0.23837153374552725,0.0010260642452631144,-0.015126926464878487
1690841339140019200,5.669019287109375,0.24271102425456045,0.0037541740349028257,-0.029164669453562237
1690841339150060300,5.679060302734375,0.23702479531168935,-0.0028520369925856357,-0.02265267319405684
1690841339160100000,5.68910009765625,0.23911972176432608,-0.008571547721372917,-0.021636098296346606
1690841339170140200,5.69914013671875,0.23702479531168935,-0.005244979989883722,-0.016186790231755004
1690841339180181200,5.70918115234375,0.2320867543876171,-0.004539470060542225,-0.016985480028507298
1690841339190221300,5.71922119140625,0.23612696968913077,0.0010033700687316013,-0.005441807461436837
1690841339200261400,5.729261474609375,0.2407657354056835,-0.0007460965264122932,-0.011514344866242027
1690841339210301200,5.73930126953125,0.23238602959513663,0.00593774288961722,-0.022362446659384295
1690841339220342300,5.74934228515625,0.23956863457560537,0.00021785713067220058,-0.01599519605774549
1690841339230412300,5.759412353515625,0.24315993706583974,-0.001576700419190456,-0.013809944990131771
1690841339240453000,5.769453125,0.2338824056327343,0.0003234946208569454,-0.015690560830163302
1690841339250493200,5.7794931640625,0.23358313042521475,0.00017372686964517924,-0.013579046285618096
1690841339260533200,5.789533203125,0.24016718499064443,0.003798820033749507,-0.016865255748899653
1690841339270574300,5.79957421875,0.23238602959513663,0.00556445659357123,-0.020324766819318756
1690841339280614100,5.8096142578125,0.2373240705192089,0.005885556615475798,-0.022291991222079376
1690841339290654200,5.819654296875,0.24151333890259263,0.005603217130558914,-0.01739934664258035
1690841339300694300,5.8296943359375,0.23956863457560537,-0.00339445047332847,-0.010329242717922897
1690841339310739700,5.83973974609375,0.24016718499064443,-0.004246944254217669,-0.009486760586861055
1690841339320779800,5.84977978515625,0.23672552010416983,0.00174811602991831,-0.01200025836979621
1690841339330819800,5.85981982421875,0.2343313184440136,0.002139672345361032,-0.005515905885753455
1690841339340861000,5.86986083984375,0.24675123955607411,-0.003932222599105443,-0.01166286480021663
1690841339350930700,5.8799306640625,0.23717443291544912,0.0013055927164634339,-0.011535120509500847
1690841339360971800,5.8899716796875,0.2467518240779638,-0.002710312125578639,-0.009595071808033389
1690841339371011800,5.90001171875,0.23926935936808585,-0.001409920455206884,-0.009100000033777905
1690841339381052000,5.910052001953125,0.2373240705192089,0.0041149484800698695,-0.016746861525130226
1690841339391092700,5.9200927734375,0.2364262448966503,-0.002782517989030748,-0.0129696148586052
1690841339401132800,5.9301328125,0.23971827217936514,-0.0025687299641111165,-0.00745713048086618
1690841339411172600,5.940172607421875,0.24959435402750968,0.0004836998552258592,-0.011467668738390785
1690841339421212700,5.950212646484375,0.24839783771932122,0.00521633841728908,-0.015901591498649212
1690841339431253800,5.960253662109375,0.23986849430501458,0.0019192185446925576,-0.009042300759235513
1690841339441293800,5.9702939453125,0.24151450794637203,0.002216522417889791,-0.01675324674178846
1690841339451334000,5.980333984375,0.24570436085164546,0.0008915682700637262,-0.015170628609287086
1690841339461374700,5.990374755859375,0.2451058104366064,0.006125496001326246,-0.007894642261185799
1690841339471444700,6.00044482421875,0.238970668682456,0.004356284667740692,-0.00954700515740551
1690841339481485800,6.01048583984375,0.2472007368892431,-0.0059024797799909715,-0.009012766420785918
1690841339491525600,6.020525634765625,0.24405834721028805,0.004635250593704404,-0.00736664089828555
1690841339501565700,6.030565673828125,0.24779928730428216,0.004892787285038502,-0.007068298414172022
1690841339511605800,6.040605712890625,0.25139058979451656,-0.006780793559548328,-0.01094245070433244
1690841339521646800,6.050646728515625,0.2506424017757177,-0.0007811518567730672,-0.017494832631509052
1690841339531686700,6.060686767578125,0.2533358786433935,-0.004823322794999694,-0.016827017514186443
1690841339541726700,6.070726806640625,0.23867139347493646,0.0006348364379722625,-0.017517694058932828
1690841339551767800,6.080767822265625,0.238970668682456,0.001058810599995195,-0.009230286195562803
1690841339561807600,6.0908076171875,0.24316052158772944,0.005246756388439098,-0.01001356093994109
1690841339571847700,6.10084765625,0.24630291126668452,0.007138736155990045,-0.020073246593528892
1690841339581918700,6.110918701171875,0.248547475323081,-0.003399241954521858,-0.013497997530706924
1690841339591958800,6.120958740234375,0.2451058104366064,-0.003990429334546206,-0.013557922440842958
1690841339602000000,6.130999755859375,0.2394195814937353,0.0024784110573556973,-0.017452839528641198
1690841339612039700,6.141039794921875,0.2467518240779638,0.003105345033374033,-0.014450052399910054
1690841339622079700,6.151079833984375,0.24959493854939935,-0.0004733245916839223,-0.009260786935925715
1690841339632119600,6.16111962890625,0.25019348896443844,-0.003451086877012858,-0.004728624540648888
1690841339642160600,6.17116064453125,0.24390870960652827,0.0022331615983814117,-0.013967804716253885
1690841339652200700,6.18120068359375,0.23777356785237788,0.0006220300428598421,-0.010280207952915225
1690841339662240800,6.19124072265625,0.24495617283284662,0.008171186759555712,-0.016173253755102632
1690841339672281900,6.20128173828125,0.24181378315389154,0.0021685593714835705,-0.012231667389319044
1690841339682321700,6.21132177734375,0.2437590720027685,-0.010976226251415208,-0.01662444414679194
1690841339692361700,6.22136181640625,0.24585399845540523,-0.004399017841536261,-0.014523229517263826
1690841339702432500,6.2314326171875,0.2494453009456396,-0.004856689062595251,-0.0009843127428735897
1690841339712472600,6.24147265625,0.24869711292684077,0.0023643784856947603,-0.009023966522346017
1690841339722512600,6.2515126953125,0.24480653522908685,0.004476520078380417,-0.00628696332348627
1690841339732553700,6.2615537109375,0.2451058104366064,-0.00706748727588565,-0.013685155274905264
1690841339742593800,6.27159375,0.25483225468099113,-0.0024927715157929925,-0.012345031528233083
1690841339752633900,6.2816337890625,0.24839783771932122,-0.0017844648432888788,-0.019532456531003117
1690841339762674700,6.2916748046875,0.25662790592610835,0.0029260857553745153,-0.020017865427769718
1690841339772714800,6.30171484375,0.24630291126668452,0.0037627803205774395,-0.01658815241563716
1690841339782754600,6.311754638671875,0.24435762241780756,-0.004559390897619596,-0.011137967568211024
1690841339792794600,6.321794677734375,0.238970668682456,0.00011711900706868619,-0.010957798970513976
1690841339802835700,6.331835693359375,0.2464525488704443,0.0020729087003623133,-0.012461139038437976
1690841339812875800,6.341875732421875,0.2518389180839062,-0.008038479170177014,-0.018883246791095005
1690841339822946800,6.35194677734375,0.23956921909749507,-0.000303723339184944,-0.01284689722781186
1690841339832987000,6.36198681640625,0.2533358786433935,0.0011472723368598963,-0.013494439025374593
1690841339843026700,6.372026611328125,0.25872283237874505,0.00687428224174655,-0.012412141947692724
1690841339853067500,6.382067626953125,0.24899638813436029,-0.00512415463454381,-0.01510162762684049
1690841339863107600,6.392107666015625,0.251091314586997,-0.0037907035134863687,-0.009918256472458597
1690841339873147600,6.402147705078125,0.2516892804801464,-0.007715811670626863,-0.012908994687080849
1690841339883187700,6.412187744140625,0.251091314586997,-0.0005159033580857794,-0.010396890851855278
1690841339893228800,6.422228759765625,0.2620142751395702,0.0021172961167714673,-0.014559784968255553
1690841339903268900,6.432268798828125,0.2519885556876659,-0.007347876832311157,-0.015637597667064983
1690841339913309000,6.442308837890625,0.25543022057414055,-0.004733788768711383,-0.010094203269475837
1690841339923349800,6.452349853515625,0.2507914548575878,-0.0022370531784428748,-0.010372344357421388
1690841339933389600,6.4623896484375,0.24525486351847647,0.002741446478536818,-0.008749390789598691
1690841339943460600,6.472460693359375,0.24705051476359366,0.006519676100817742,-0.009639014839392621
1690841339953500700,6.482500732421875,0.2446563131034374,-0.0000327777499507647,-0.008429189812592813
1690841339963540700,6.492540771484375,0.25153964287638664,-0.002389604829318705,-0.010100563369959126
1690841339973581800,6.502581787109375,0.2573755094230175,-0.0007411255216502468,-0.00780283293777611
1690841339983622000,6.512621826171875,0.2599193486869335,-0.0018421783883852184,-0.012704918915766757
1690841339993661700,6.52266162109375,0.2498936292350292,-0.006633536284186993,-0.009276308732043253
1690841340003701800,6.53270166015625,0.25423311974406243,0.0002506220371244126,-0.009201426568903843
1690841340013742600,6.54274267578125,0.2503425420463085,-0.002878710941202007,-0.008786712854748475
1690841340023782700,6.55278271484375,0.2524374684989452,-0.0009461714052216848,-0.014246074810007121
1690841340033822700,6.56282275390625,0.24390812508463858,-0.00047460665825055907,-0.011978061379364226
1690841340043863800,6.57286376953125,0.2524374684989452,0.000026500418680370782,-0.01317586774562951
1690841340053904000,6.58290380859375,0.2531862410396337,-0.005236712201748741,-0.011383875470544444
1690841340063975000,6.592974853515625,0.25139000527262684,-0.004900742262630956,-0.014003377211489714
1690841340074014700,6.6030146484375,0.24929507881999013,0.0023463621967472134,-0.014707790020643733
1690841340084054800,6.6130546875,0.2512403676688671,0.00011904524644050979,-0.009379841030109673
1690841340094094800,6.6230947265625,0.264707752007246,0.015521773284650407,-0.015745382590207736
1690841340104135700,6.6331357421875,0.2576753691524267,0.0014455945567868184,-0.01717324855241459
1690841340114175700,6.64317578125,0.26066753670573234,0.006945904439542209,-0.014268125669966684
1690841340124215800,6.6532158203125,0.245554138725996,-0.0007546799792005913,-0.012389054474694421
1690841340134257000,6.6632568359375,0.248097977989912,0.0025699783521704374,-0.009570124596444657
1690841340144296700,6.673296630859375,0.24660218647420404,-0.00046832162088103355,-0.010640442400320898
1690841340154336800,6.683336669921875,0.250492764171958,0.00008909791815967765,-0.008218886942358221
1690841340164376800,6.693376953125,0.25228841541707514,0.0004993846210694755,-0.01659253290487686
1690841340174447900,6.70344775390625,0.2573760939449072,0.0009601145926615572,-0.00997166944341734
1690841340184488700,6.71348876953125,0.25079203937947747,0.0030219413516504572,-0.010875146205339114
1690841340194528800,6.72352880859375,0.2521387778133154,0.004649579371511936,-0.009993827617942588
1690841340204568600,6.733568603515625,0.25707623421549797,0.0013569572921085637,-0.015217888117383699
1690841340214608600,6.743608642578125,0.2615659468501806,0.0007783220059252926,-0.0166284604514949
1690841340224649700,6.753649658203125,0.2572258718192577,0.004984941955853719,-0.012829293072462314
1690841340234689800,6.763689697265625,0.25632804619669913,0.002044399843919382,-0.01586308269423316
1690841340244729900,6.773729736328125,0.2543827573478222,0.001569669888082717,-0.00429543416947563
1690841340254770700,6.783770751953125,0.24749942757487295,-0.0005855790523230098,-0.010499896851892117
1690841340264810800,6.793810791015625,0.2564782683223486,-0.0017445889198046643,-0.007619249681930523
1690841340274850800,6.803850830078125,0.25707623421549797,0.001787757345495629,-0.007976201901928288
1690841340284890600,6.813890625,0.25363456932902334,-0.002049012657777348,-0.016100645176618127
1690841340294961700,6.823961669921875,0.2503425420463085,-0.00476593347688904,-0.011689070103841367
1690841340305001700,6.834001708984375,0.2614157247245312,-0.004468190070630226,-0.010628103508555795
1690841340315018000,6.84401806640625,0.26186522205770013,0.0034089536373052396,-0.019400404816283842
1690841340325058000,6.85405810546875,0.25438334186971184,0.003111880090848717,-0.018914546111656817
1690841340335098000,6.86409814453125,0.25258710610270496,0.0005026728421100415,-0.012868472022091737
1690841340345139000,6.874138916015625,0.2555798581779003,0.0003525540352711687,-0.018613832432299384
1690841340355178800,6.8841787109375,0.25094109246134755,0.001395337661539088,-0.011426088910765247
1690841340365218800,6.89421875,0.26276246315836904,0.0019180757587324477,-0.01528122540237964
1690841340375259000,6.9042587890625,0.25498130776286126,0.008265842773066833,-0.019924284843204076
1690841340385300000,6.914300048828125,0.26695290058553217,-0.001549558967226767,-0.010243687892897287
1690841340395340000,6.924340087890625,0.2560287709891796,-0.00395169676784426,-0.002694728966079128
1690841340405380000,6.934380126953125,0.2464525488704443,-0.0004645613299158867,-0.009811621185141848
1690841340415451100,6.944451171875,0.2576753691524267,0.010307001203362597,-0.014046557624445994
1690841340425491000,6.954490966796875,0.2585731947749853,-0.005666511603893014,-0.012822814240970183
1690841340435531800,6.96453173828125,0.258124281963706,-0.008850537051045103,-0.01214497091997764
1690841340445571800,6.97457177734375,0.25483225468099113,-0.0005270960389578249,-0.012959575238492105
1690841340455612000,6.98461181640625,0.253036603435874,0.0005454077283720835,-0.015067385147232562
1690841340465653000,6.994653076171875,0.2590221075862646,0.0023493033579157782,-0.0010212302378189632
1690841340475693000,7.004693115234375,0.25453297947347164,0.0011195415110181784,-0.005028858158571529
1690841340485733000,7.014733154296875,0.25094167698323727,0.0037150005080839035,-0.007480592413200065
1690841340495773000,7.02477294921875,0.2521387778133154,-0.00010626539455843158,-0.013618204685649834
1690841340505813800,7.034813720703125,0.2633615980952978,-0.0029642309460759858,-0.01398070758031099
1690841340515853800,7.044853759765625,0.2612666716426611,-0.0027391212344766245,-0.008536011187933035
1690841340525924900,7.0549248046875,0.2563286307185888,0.003982541999379464,-0.011254500911745707
1690841340535965000,7.06496484375,0.2472007368892431,0.0003397402194706956,-0.022094025531143414
1690841340546005000,7.0750048828125,0.2558797179073095,-0.0003508604059286881,-0.02063514337616507
1690841340556046000,7.085046142578125,0.25438334186971184,-0.002676232901107869,-0.013575506046594818
1690841340566086100,7.095086181640625,0.2615659468501806,0.00814706153187435,-0.016442700079939095
1690841340576126000,7.1051259765625,0.258124281963706,0.004031607588783663,-0.014511566478933672
1690841340586166000,7.115166015625,0.25438334186971184,-0.002134251247327484,-0.008735620275861583
1690841340596206800,7.125206787109375,0.26201485966145993,0.0028168814829361505,-0.011881831038341624
1690841340606247000,7.135246826171875,0.2608177588313818,0.0019472915784179347,-0.013727152944350382
1690841340616287000,7.145286865234375,0.25917174519002434,0.0006737391096772625,-0.015127536102943121
1690841340626328000,7.155328125,0.2576753691524267,0.005592115781232132,-0.017054693356796633
1690841340636368100,7.1653681640625,0.26036884602010246,0.011561047251912532,-0.01772686156389536
1690841340646439000,7.17543896484375,0.26351123569905754,0.008453162059935857,-0.015699506755021866
1690841340656479000,7.18547900390625,0.2633615980952978,0.005478398303402354,-0.009578523673675954
1690841340666519000,7.19551904296875,0.2629126852840185,0.004066124348438461,-0.014656874967447947
1690841340676558800,7.205558837890625,0.2624637724727392,-0.00194036037036567,-0.018550282801460708
1690841340686600000,7.215599853515625,0.2579746443599462,-0.005210922456654952,-0.016880277504806872
1690841340696640000,7.225639892578125,0.25498189228475093,-0.0014501597069946001,-0.008269573666690849
1690841340706680000,7.23568017578125,0.2612660871207714,-0.003955167651975353,-0.01521529544314253
1690841340716721200,7.24572119140625,0.2674012288749218,-0.003191634221105778,-0.020911903074488508
1690841340726761000,7.255760986328125,0.37524844013154507,-0.1438061211273074,-0.06013005448642652
1690841340736801000,7.265801025390625,-0.6635165159463882,-0.8455022186685353,-0.19549875283315776
1690841340746840800,7.2758408203125,0.3523012797862291,0.3029029330300167,0.3495224992552772
1690841340756911900,7.285911865234375,0.5057675019234419,0.13258058829843067,-0.05635451800308656
1690841340766953000,7.295952880859375,0.18145663734674453,0.2072624019935727,0.22038579519987106
1690841340776993000,7.305992919921875,0.33018063339293,0.2500089261777699,0.23271367238061502
1690841340787032800,7.31603271484375,0.3381254549175501,0.22511899773422628,0.03131159552149475
1690841340797073000,7.326072998046875,0.39263738182783126,0.1782753038968891,-0.09841695521352813
1690841340807114000,7.336114013671875,0.3356839069843292,0.0981470339646563,-0.11046331203915179
1690841340817154000,7.346154052734375,0.31554362075328823,0.04251393927102908,-0.12022853565765544
1690841340827193900,7.35619384765625,0.29090719214677807,-0.038217422537331,-0.09295155681394972
1690841340837235000,7.36623486328125,0.23842297167181967,-0.11304341905969194,-0.03551564134890214
1690841340847275000,7.37627490234375,0.17769699255228041,-0.1636118781743571,0.03650245357929961
1690841340857315000,7.386315185546875,0.15002806438207625,-0.1994232693331316,0.10355770650231279
1690841340867355000,7.39635498046875,0.2007552120566368,-0.2102506057578139,0.14039784705378114
1690841340877426000,7.406426025390625,0.11200433093607425,-0.19812977719018235,0.14206947006043047
1690841340887466000,7.416466064453125,0.1875409256964922,-0.1671553594674915,0.10765617306339553
1690841340897507000,7.426507080078125,0.2831160998791456,-0.10005353430625982,0.04146835290796589
1690841340907547000,7.436546875,0.22919921625256537,-0.0306605112016201,-0.005501652456470765
1690841340917587000,7.4465869140625,0.3231301303595304,0.03483081915620714,-0.03618158531119115
1690841340927628000,7.4566279296875,0.318011472171545,0.08390571524486877,-0.04765873198069166
1690841340937667800,7.466667724609375,0.33221827670037746,0.11041987475622445,-0.045802660351805385
1690841340947708000,7.4767080078125,0.3447977722883224,0.12275142346508801,-0.03194589310334995
1690841340957748000,7.486748046875,0.29394962858259677,0.12514863906623794,0.0013309289433527736
1690841340967789000,7.4967890625,0.3435200074374676,0.09711251241830177,0.030338530971948056
1690841340977828900,7.506828857421875,0.23895956276655195,0.054875371661502866,0.057021210884046734
1690841340987900000,7.51689990234375,0.23375030368566513,0.013461794847808777,0.09078833263176493
1690841340997940000,7.52693994140625,0.25666297723948955,-0.034169640417292244,0.10033236951394937
1690841341007979800,7.536979736328125,0.21312369524240493,-0.07513399617574178,0.08107507666251622
1690841341018020900,7.547020751953125,0.21102701522409914,-0.10837683375445194,0.04746188053460791
1690841341028061000,7.55706103515625,0.26474106975495815,-0.12747763000307605,0.0048169672610936685
1690841341038101000,7.56710107421875,0.2253770276159048,-0.12478499338561669,-0.019545000918745063
1690841341048142000,7.57714208984375,0.246316939792037,-0.11373493585465476,-0.039380321986996564
1690841341058182000,7.587181884765625,0.25214462303221225,-0.09702867919290438,-0.043819975801720285
1690841341068222000,7.597221923828125,0.2594680977880955,-0.060556650434620676,-0.024737071402813306
1690841341078261800,7.60726171875,0.27606968849897384,-0.02948555827126838,-0.00047486923644319174
1690841341088302800,7.617302734375,0.26767770772874355,-0.0023057744580321014,0.026407271920645143
1690841341098343000,7.627343017578125,0.2794908951193094,0.023244554123003035,0.050091726714698595
1690841341108414000,7.6374140625,0.28337621212005615,0.04336682977331802,0.07014414286604151
1690841341118454000,7.6474541015625,0.2423737551242113,0.05967985390035901,0.07110322455600834
1690841341128494000,7.657494140625,0.31121114450693127,0.05974993259503972,0.06780703255482949
1690841341138535000,7.667534912109375,0.2815922513127327,0.04939345138538628,0.04629583242991939
1690841341148575000,7.677574951171875,0.26828151884078977,0.028933696542168034,0.02270161091929767
1690841341158614800,7.68761474609375,0.29851883619427677,0.003135580912255682,0.013918306443654
1690841341168654800,7.69765478515625,0.2651613409936428,-0.021967787069280164,-0.0033239887569798156
1690841341178696000,7.707696044921875,0.2523030284643173,-0.042018200776493174,-0.005418189123831689
1690841341188736000,7.717736083984375,0.2671265035867691,-0.05964057676931843,-0.00801037017465569
1690841341198776000,7.727776123046875,0.24064532389640805,-0.07833316667638719,-0.0006692478809389286
1690841341208817000,7.73781689453125,0.24812661956250667,-0.08156651344127021,0.02205320718027651
1690841341218887000,7.747886962890625,0.23690087667107582,-0.07652782515431754,0.024250628176296595
1690841341228927700,7.757927734375,0.24392624526321888,-0.059755654516350475,0.03777412661608541
1690841341238967800,7.7679677734375,0.26800854711830613,-0.04056229831317905,0.047259745558630675
1690841341249007900,7.7780078125,0.25348317815959454,-0.022346701100980863,0.030825430856191084
1690841341259049000,7.788049072265625,0.27756197288334367,0.0011230857457965612,0.025898119105398652
1690841341269089000,7.798089111328125,0.28772973115444184,0.013748073576437309,0.02679675757871009
1690841341279129000,7.808129150390625,0.27695290107429027,0.029731203595409168,0.015736594212264754
1690841341289169000,7.8181689453125,0.2971557311475277,0.03406007224572822,0.019971727014391216
1690841341299209700,7.828209716796875,0.27471827389001846,0.023258833810104986,0.01885951657234691
1690841341309255700,7.838255615234375,0.28041327066123484,0.01004920079219155,0.021133916361292356
1690841341319295700,7.848295654296875,0.282815071105957,-0.0031042541922302914,0.01755603732492309
1690841341329335800,7.858335693359375,0.25768530602455136,-0.016415603152103723,0.024422753889788873
1690841341339406800,7.86840673828125,0.2629290518969297,-0.03133710442208685,0.023339659944374577
1690841341349447700,7.87844775390625,0.2535059745132923,-0.04397187386122532,0.021975550250627564
1690841341359487700,7.88848779296875,0.24437924972772596,-0.054774290473782454,0.026247441716433968
1690841341369527800,7.89852783203125,0.26786943090856075,-0.05041763876739423,0.024938055601320227
1690841341379567600,7.908567626953125,0.25379940450191496,-0.05305568652024958,0.013093459292338228
1690841341389608700,7.918608642578125,0.2674123347908258,-0.03454114517738344,0.013502508167398628
1690841341399648800,7.928648681640625,0.2689034501314163,-0.03063538132694084,0.006258055747766047
1690841341409688800,7.938688720703125,0.25932138279378414,-0.019464350597700103,0.010257674177410081
1690841341419729700,7.948729736328125,0.2738309696614742,-0.00887347154370509,0.022229796723043545
1690841341429769700,7.958769775390625,0.28115795154869555,0.003446861651400104,0.013762832754151895
1690841341439809800,7.968809814453125,0.28265549663007256,0.009836288693873211,0.014238855051354039
1690841341449880600,7.978880615234375,0.28519992041587827,0.011027512339013628,0.023161280303320382
1690841341459920600,7.988920654296875,0.2787684260636568,0.009615796077298,0.030798314520402343
1690841341469960700,7.998960693359375,0.27458324933350087,0.002870011611515656,0.022949605747440364
1690841341480001800,8.009001708984375,0.2730903804272413,-0.0010707390706287696,0.024738016684306783
1690841341490041900,8.019041748046876,0.27354221584796906,-0.016906163148023186,0.03076149420792935
1690841341500081700,8.02908154296875,0.2817775447517633,-0.026253622578759676,0.02216133231342537
1690841341510122800,8.039122802734376,0.269060686519742,-0.03542656340951798,0.0182732867827639
1690841341520162600,8.04916259765625,0.2756470791727304,-0.03808720886996016,0.012709343929134774
1690841341530202600,8.05920263671875,0.2826806310713291,-0.04122855736929923,0.012111558415787293
1690841341540242700,8.06924267578125,0.26966040597856045,-0.03745152076532831,0.010473602500010747
1690841341550283800,8.07928369140625,0.2738485053181648,-0.03422475672157015,0.017544616315187885
1690841341560354800,8.089354736328126,0.2675613878726959,-0.024692213914357126,0.016361703840666448
1690841341570395000,8.099394775390625,0.26531448572874067,-0.023591358266677707,0.01343014161750907
1690841341580434700,8.1094345703125,0.28162323097288605,-0.018044496695301494,0.023988143598497845
1690841341590474500,8.119474609375,0.2765326298356056,-0.007803896950278431,0.019890766166092363
1690841341600515600,8.129515625,0.2730897959053516,-0.003435860766773112,0.023533305653219577
1690841341610555600,8.1395556640625,0.28042437657713887,-0.0045560421694302924,0.025153250988270155
1690841341620595700,8.149595703125,0.2772831559419632,0.004422762045427226,0.02342139482751954
1690841341630636800,8.15963671875,0.2837210800349712,-0.009773982313694432,0.024761427242646458
1690841341640676900,8.1696767578125,0.2897095067948103,-0.014099284467170946,0.016953787982300853
1690841341650716700,8.179716552734375,0.2837257562100887,-0.012243733428092672,0.013545315262663643
1690841341660756500,8.189756591796876,0.2813350616812706,-0.014975843539414927,0.01913412084620213
1690841341670827500,8.19982763671875,0.26936697598993775,-0.020181488174397962,0.011370128931337967
1690841341680867600,8.20986767578125,0.26906828530430793,-0.03439470189441927,0.010269426263996864
1690841341690908700,8.21990869140625,0.26757190926671026,-0.0340079401996918,0.021713357933773658
1690841341700948700,8.22994873046875,0.2783440631717443,-0.032003731087676714,0.01583443084683968
1690841341710988800,8.23998876953125,0.27370295936763284,-0.018143938481784423,0.012281158812053035
1690841341721029600,8.250029541015625,0.2765460738390684,-0.020207857874804176,0.02594135774221504
1690841341731069700,8.260069580078126,0.2692126622110605,-0.022942264974489805,0.02174398140090052
1690841341741109500,8.270109619140625,0.27145547270178794,-0.010697645630408079,0.02219567297444446
1690841341751149600,8.280149658203126,0.2817798828393221,-0.012709177249064669,0.021602326174196787
1690841341761190700,8.290190673828125,0.27803718917965886,-0.008998047771444544,0.016941574671410487
1690841341771230700,8.300230712890626,0.2807312505692243,-0.005106127499975264,0.017522116789012214
1690841341781270800,8.310270751953125,0.27534371231198307,-0.008240301906433887,0.016332470896316224
1690841341791341800,8.320341796875,0.29240298366248607,-0.010832478390680625,0.01613121041988488
1690841341801381600,8.330381591796876,0.2805839510530233,-0.013439710880164057,0.009816465181973762
1690841341811422500,8.34042236328125,0.27923955070674417,-0.016000437346799297,0.012998300955328158
1690841341821462500,8.350462646484376,0.28193419661819935,-0.019139155497634782,0.015663727622164877
1690841341831502600,8.360502685546875,0.27864392290115353,-0.020667282946943304,0.021486042850767263
1690841341841543700,8.370543701171876,0.27699732473790645,-0.03081817684820853,0.02487945956516778
1690841341851583700,8.380583740234375,0.27654724288284777,-0.029584684963920152,0.01785351330100093
1690841341861623800,8.390623779296876,0.26741934905350206,-0.019734472775971516,0.019997603524453005
1690841341871663900,8.400663818359375,0.2763935136258602,-0.023752896370785308,0.02008372460505925
1690841341881704700,8.41070458984375,0.28312545222938057,-0.0192401362206554,0.018662448213843164
1690841341891744500,8.42074462890625,0.2775906144559383,-0.015479701408324763,0.014391070487978868
1690841341901815600,8.430815673828125,0.28192835139930245,-0.015190280874539165,0.018985547254944685
1690841341911855600,8.440855712890626,0.28327450531125065,-0.005662770435470156,0.016002832516573834
1690841341921895700,8.450895751953125,0.2895604537129402,-0.006933790451707318,0.02170079299643403
1690841341931936800,8.460936767578126,0.2729495106518268,-0.006668243983853608,0.021287567986466454
1690841341941976800,8.470976806640625,0.28806407767534253,-0.0075872311254497615,0.027270921278966125
1690841341952016600,8.4810166015625,0.281630829757452,-0.010108132471772842,0.011489743572880979
1690841341962056700,8.491056640625,0.2687614113122225,-0.017219284217804668,0.01909961350511294
1690841341972097500,8.50109765625,0.2734007615506649,-0.018997911262884734,0.01902327859958168
1690841341982137600,8.5111376953125,0.286718508285284,-0.023243704739632085,0.022885787830187472
1690841341992177700,8.521177734375,0.27878713076412676,-0.02784497885685414,0.025158484285813756
1690841342002218800,8.53121875,0.2804360670149326,-0.021934215876529925,0.02579537796684308
1690841342012288800,8.541288818359375,0.2757967167764902,-0.02197817374926526,0.018381793225114233
1690841342022329900,8.551329833984376,0.2762450450658798,-0.02406524112243205,0.02565141433533281
1690841342032369700,8.56136962890625,0.27774200562536716,-0.014474848914449102,0.021529827193566598
1690841342042409700,8.57140966796875,0.2555933021813631,-0.01788555697365664,0.021057702470058573
1690841342052449800,8.58144970703125,0.281630829757452,-0.019407852903800083,0.020958308632636907
1690841342062490600,8.59149072265625,0.28252982442379,-0.013939458829537033,0.03448728011527564
1690841342072530700,8.60153076171875,0.2784866865128279,-0.024859757067565803,0.023428000381530728
1690841342082570800,8.61157080078125,0.27339900798499583,-0.019347345755062997,0.014191675458359532
1690841342092611800,8.62161181640625,0.2855184848457575,-0.007943784911581315,0.01563371607639128
1690841342102651600,8.631651611328126,0.29150223543047904,-0.010981659336714073,0.015187006638641469
1690841342112691700,8.641691650390625,0.28357670312821864,-0.007156634855573065,0.015205695356091018
1690841342122762800,8.6517626953125,0.2774433149397373,-0.017577564170141703,0.018658557490014934
1690841342132802800,8.661802734375,0.2705599851667881,-0.02819775151701178,0.018503088367090095
1690841342142843600,8.67184375,0.27594869246780873,-0.024868844556319526,0.020063389636506324
1690841342152883700,8.6818837890625,0.2711597046256065,-0.023761431303690187,0.019797069133806508
1690841342162923800,8.691923828125,0.27879239146113394,-0.020881099227559752,0.015524182154156732
1690841342172963600,8.701963623046876,0.28792262337803837,-0.01938633975831326,0.018871572336321696
1690841342183004700,8.712004638671875,0.27774492823481556,-0.013803635121998377,0.019354732193786185
1690841342193044700,8.722044677734376,0.28597382739782334,-0.01694464112804271,0.013731878210173453
1690841342203084800,8.732084716796875,0.27579847034215926,-0.015015280500659717,0.007592197278223465
1690841342213125600,8.742125732421876,0.2692126622110605,-0.017593656788417136,0.013670533094508573
1690841342223165700,8.752165771484375,0.2738543505370617,-0.0243396376170218,0.015428361663443501
1690841342233236700,8.76223681640625,0.27071312990188595,-0.017961905578919687,0.010715900523017626
1690841342243276500,8.772276611328126,0.27191139977574347,-0.015368646815861574,0.017371940329135395
1690841342253316600,8.782316650390625,0.27176293121576306,-0.009034178530750796,0.021707065190305002
1690841342263356700,8.792356689453126,0.27700083186924457,-0.01469671607078053,0.023244800718175244
1690841342273397800,8.802397705078125,0.27744974468052386,-0.020473212546412833,0.025319830593676304
1690841342283437800,8.812437744140626,0.26667875981926914,-0.019726152472198007,0.022157316008722408
1690841342293478000,8.822477783203125,0.26697569693922996,-0.013152190042519942,0.01767934404418338
1690841342303518700,8.832518798828126,0.2817886506676674,-0.01345773059404455,0.006830044666153844
1690841342313560000,8.84256005859375,0.2689198167443275,-0.01669317798446864,0.010257911639427766
1690841342323600100,8.85260009765625,0.27610242172479627,-0.01882417583090719,0.009101592627598437
1690841342333640200,8.86264013671875,0.27640403501987454,-0.0119072223495692,0.010750524311827029
1690841342343711200,8.872711181640625,0.27401158692538735,-0.018546897826064376,0.015607026715576648
1690841342353752000,8.882751953125,0.28074469457268714,-0.020312893718434498,0.024103862949635367
1690841342363792100,8.892792236328125,0.2731137613028288,-0.013506908064591698,0.019389061438362113
1690841342373832000,8.90283203125,0.2717676073908806,-0.020763304367056114,0.0202500439155614
1690841342383872000,8.9128720703125,0.26203999410271644,-0.022062596063129603,0.02382999617800815
1690841342393913000,8.9229130859375,0.260246680945158,-0.021163311419135425,0.017123271930846385
1690841342403953200,8.932953125,0.2713169410139322,-0.019593292473303152,0.012512789310573133
1690841342413993200,8.9429931640625,0.27774960440993307,-0.009724763743951917,0.008803723925875966
1690841342424034000,8.953033935546875,0.28209084848463534,-0.00860553675594274,0.014885710720682982
1690841342434074000,8.96307421875,0.27625498193800446,-0.01030212524048984,0.01228057657345198
1690841342444114000,8.973114013671875,0.2663818226993084,-0.012444493864313698,0.007704941504274029
1690841342454185000,8.98318505859375,0.26698329572379587,-0.0155100919800112,0.01431906241440447
1690841342464225000,8.99322509765625,0.2717699454784393,-0.02470603694373276,0.012054040091868955
1690841342474265000,9.00326513671875,0.2713222017109394,-0.0150549046915723,0.012360354678239673
1690841342484306200,9.01330615234375,0.271173733150959,-0.01642085928253364,0.024204492046206724
1690841342494346200,9.02334619140625,0.26129823582470413,-0.017001214170467575,0.022178577992459758
1690841342504386300,9.03338623046875,0.26145021151602266,-0.010668414969346486,0.025858903623151127
1690841342514427100,9.04342724609375,0.2753659241437912,-0.016632047497935128,0.025044479684438556
1690841342524467000,9.053467041015624,0.27057518273591996,-0.01650391618979629,0.009823109551891683
1690841342534507000,9.063507080078125,0.27701018421947954,-0.019452970687160266,0.009471855278674047
1690841342544547000,9.073547119140626,0.26713351784944533,-0.01699916606056504,0.011206608932698144
1690841342554588200,9.083588134765625,0.2648901228368282,-0.013577224221290088,0.010820132649049628
1690841342564659200,9.0936591796875,0.2651929051756859,-0.012015646593528799,0.010818570879625622
1690841342574699300,9.10369921875,0.26593992415070533,-0.011774853257730138,0.01774834959320724
1690841342584739000,9.113739013671875,0.25935645410716535,-0.011799720554216764,0.018085812803090084
1690841342594779100,9.123779052734376,0.2607043615847826,-0.0275427901730407,0.022592054164176804
1690841342604820000,9.133820068359375,0.2599561735659838,-0.01851396595413098,0.017090851515566465
1690841342614860000,9.143860107421874,0.2551677702456713,-0.015085991666291374,0.019750713808008004
1690841342624900000,9.153900146484375,0.259357038629055,-0.018327724950318224,0.01557107405278366
1690841342634941200,9.163941162109374,0.2635445534467697,-0.012905165612045674,0.012873548914364073
1690841342644981200,9.173981201171875,0.26489246092438695,-0.012105272522184532,0.007526915772957727
1690841342655021300,9.184021240234374,0.25950667623281476,-0.014070761625585146,0.0188586123900488
1690841342665061000,9.19406103515625,0.2577110249876976,-0.007289618152054026,0.020641408720170146
1690841342675132200,9.204132080078125,0.26250118187367916,-0.009085614173754584,0.012235417690896429
1690841342685172000,9.214171875,0.26055413945913314,-0.007146862380229868,0.020077746955421753
1690841342695213000,9.224213134765625,0.2672872471064329,-0.016893102737050504,0.016720075124548747
1690841342705253000,9.234253173828124,0.2657926246345043,-0.014398365595156792,0.019331903874047564
1690841342715293200,9.244293212890625,0.2589087103396654,-0.02396039250846952,0.022280204886163116
1690841342725334300,9.254334228515624,0.2548702486038208,-0.013377815491938963,0.011422786133759655
1690841342735374000,9.2643740234375,0.26280221064686776,-0.010495839447993784,0.015100867291726171
1690841342745414100,9.2744140625,0.25681436840891836,-0.01666017533058766,0.01717629902602639
1690841342755454000,9.284453857421875,0.26040625542104245,-0.01404200132198166,0.010804823198774828
1690841342765495000,9.2944951171875,0.2604074244648218,-0.007663403917488176,0.01371594542210223
1690841342775535000,9.30453515625,0.24963351699411868,-0.008081485482375137,0.015253210592514369
1690841342785606100,9.314606201171875,0.2523293319493532,-0.011020233214856125,0.012909547242929692
1690841342795646200,9.324646240234374,0.25307751996815203,-0.01212654592236504,0.02052305445395177
1690841342805686000,9.33468603515625,0.2485872228115797,-0.01871122610887978,0.019868876277981326
1690841342815727000,9.34472705078125,0.2557709968358278,-0.016877578657644336,0.016823193005728536
1690841342825767200,9.35476708984375,0.25217910982370373,-0.008660372215718961,0.01597909544795984
1690841342835807000,9.364806884765626,0.2586135267853737,-0.007707003313908353,0.027252563638368154
1690841342845847000,9.374846923828125,0.2518815881818533,-0.011451601236290299,0.019794580349198076
1690841342855888100,9.38488818359375,0.2589139710366726,-0.008210970780672506,0.012784375076857394
1690841342865928200,9.39492822265625,0.25891455555856224,-0.0052265207429416476,0.009245732072333339
1690841342875968000,9.404968017578126,0.26056232276558877,-0.004291673878510482,0.01222693755691871
1690841342886009000,9.415009033203125,0.2577197928160429,-0.012821994540351442,0.005226404295221436
1690841342896079000,9.4250791015625,0.2505389414012432,-0.009740249007451348,0.008924941436038352
1690841342906120000,9.435119873046874,0.2509878542125225,-0.006189881315804086,0.012785525854327715
1690841342916160000,9.445159912109375,0.2562240013003349,0.0034148590779397633,0.012324742225452791
1690841342926200000,9.455199951171876,0.24934125604927537,-0.0063566435843007635,0.01202187312162714
1690841342936241200,9.4652412109375,0.2508382166087627,-0.011292855594179127,0.013783580997947137
1690841342946281200,9.47528125,0.2587684250861406,-0.01791663024864392,0.02062447813496692
1690841342956321000,9.485321044921875,0.25502982307970523,-0.02089846135431435,0.013633459336997474
1690841342966361000,9.495361083984376,0.2494926472187042,-0.013287751171865965,0.014507616389601024
1690841342976402000,9.50540185546875,0.2574234402179718,-0.007309973670204636,0.014972811332112177
1690841342986442000,9.51544189453125,0.25473230143785475,-0.009199000003910622,0.015052895397576503
1690841342996513000,9.525512939453124,0.2554799049347639,-0.007857344170566648,0.00836802450590767
1690841343006553000,9.535552978515625,0.25159049628078933,-0.008975730908359401,0.005278798919450492
1690841343016593000,9.545593017578126,0.2499456516832113,-0.008379013974091503,0.009526170148642267
1690841343026634000,9.555634033203125,0.2559282332241535,-0.006191397419455461,0.01592933345552301
1690841343036674000,9.565674072265624,0.25488076999783515,-0.006400014651857782,0.01898185746051604
1690841343046714000,9.575714111328125,0.25353461608588695,-0.00965408226107247,0.013816885045927483
1690841343056754200,9.585754150390626,0.24964345386624334,-0.0034971351004904135,0.017888586897670755
1690841343066795000,9.595794921875,0.2466524553567171,-0.010138239915668965,0.018364230168960056
1690841343076835000,9.6058349609375,0.24395780944526194,-0.013059725986095144,0.01180500408411026
1690841343086875000,9.615875,0.24036592243313787,-0.009564435782819054,0.0038394274658290666
1690841343096916000,9.625916015625,0.23692484206855297,-0.010010416851495393,0.01597043950075749
1690841343106986000,9.635986083984376,0.2411146949738264,-0.014500992569280788,0.022886911208194215
1690841343117027000,9.646027099609375,0.24605332041978834,-0.021875592440913895,0.019575510221440343
1690841343127067100,9.656067138671874,0.2391711596906185,-0.014695131468470207,0.016896212576166726
1690841343137107200,9.666107177734375,0.2508405546963215,-0.015080568855791352,0.01700777862528339
1690841343147148000,9.67614794921875,0.24769816501736638,-0.012796809866745024,0.014542281277605797
1690841343157188000,9.68618798828125,0.24964403838813304,-0.011803398932202253,0.011618553017743397
1690841343167228000,9.696227783203126,0.2447048284202814,-0.010565087025612593,0.012787265720264986
1690841343177268000,9.70626806640625,0.24350889663398265,-0.013823367302352561,0.020439157296472693
1690841343187309000,9.71630908203125,0.23737375487983225,-0.010837652322719804,0.017310656862263567
1690841343197349000,9.72634912109375,0.24874445919990537,-0.015669629923277535,0.007871975484117865
1690841343207389200,9.73638916015625,0.2541325819790363,-0.012758439201291183,0.01256087080257712
1690841343217460200,9.746460205078124,0.24560323856472968,-0.00910392386529129,0.016742145392461678
1690841343227500000,9.7565,0.2499427290737629,-0.01546043273556279,0.0069568197008455165
1690841343237540900,9.766540771484374,0.24231238032579422,-0.013304786788346245,0.013741207727522122
1690841343247581000,9.776580810546875,0.23572657219469545,-0.012156874845258426,0.006513236085232347
1690841343257621000,9.78662109375,0.2438064182758331,-0.019730479304154867,0.02528243260917952
1690841343267661000,9.7966611328125,0.24994389811754225,-0.013179381726833526,0.0139595654692268
1690841343277702100,9.8067021484375,0.25188860244452954,-0.014190054323431104,0.016747360423696227
1690841343287742200,9.8167421875,0.24006781626939772,-0.0116389587682439,0.010480701244366354
1690841343297782300,9.8267822265625,0.23932021277248858,-0.009622118503518868,0.004715981971495784
1690841343307823000,9.836822998046875,0.2333323705345392,-0.015891634076926855,0.009433596494363155
1690841343317853700,9.846853759765626,0.23513035986721514,-0.014588990513142197,0.012378557055210694
1690841343327924500,9.856924560546876,0.23632804521918296,-0.013218825537944212,0.011307843100756871
1690841343337964500,9.866964599609375,0.23782383673489094,-0.013509629744640551,0.009734568185335956
1690841343348004600,9.877004638671876,0.2482996380418539,-0.014826509613043161,0.016275464029051362
1690841343358045700,9.887045654296875,0.24336042807400224,-0.012926050853158812,0.011689177418407052
1690841343368085500,9.89708544921875,0.23827216502428053,-0.0014573774677701294,0.011650281596567946
1690841343378125600,9.90712548828125,0.24440906034409998,-0.007972198155312799,0.011338724579499103
1690841343388165400,9.917165283203126,0.23842355619370936,-0.014297012696089222,0.015584088797983713
1690841343398206500,9.92720654296875,0.24411036965847013,-0.008662703453411814,0.015143984914245083
1690841343408246500,9.93724658203125,0.24186697464585302,-0.010991851937165483,0.00912248471857747
1690841343418286600,9.94728662109375,0.23662732042670248,-0.0066810669328086075,0.017714906264620366
1690841343428327700,9.95732763671875,0.2421644962877035,-0.0063546616897685445,0.008117671040608548
1690841343438397700,9.967397705078126,0.239323135381937,-0.011622601288487203,0.009677725714852568
1690841343448438500,9.9774384765625,0.23917291325628756,-0.010580305144342127,0.006320268513110932
1690841343458478600,9.987478515625,0.23917349777817726,-0.012686424277850892,0.004189416797144804
1690841343468518400,9.997518310546875,0.23677812707424162,-0.018057796851580495,0.006957794665091205
1690841343478558500,10.007558349609376,0.24261165553331374,-0.0173703214774956,0.007548933525232132
1690841343488599600,10.017599609375,0.2382745031118393,-0.01727670436031185,0.006013220991089474
1690841343498639600,10.0276396484375,0.23438450993597507,-0.007688485843106173,0.013477389709162525
1690841343508679700,10.0376796875,0.23438392541408537,-0.012544415141409263,0.008429963276616763
1690841343518720500,10.047720458984376,0.23513328247666357,-0.016464433562778866,0.0054088961391011246
1690841343528760600,10.057760498046875,0.23318624006211755,-0.012044769940024706,0.0010831259114551356
1690841343538831400,10.067831298828125,0.234832253703475,-0.004392412572936154,0.009477227856824174
1690841343548871400,10.077871337890626,0.23558277980983255,-0.00859249917785637,0.01853056774577126
1690841343558911500,10.087911376953125,0.23947277298569677,-0.010304796688188797,0.008495167150069028
1690841343568952600,10.09795263671875,0.23034546367824077,-0.012450804874091408,0.0031908364971401167
1690841343578992600,10.10799267578125,0.23618133022487162,-0.005960664253367576,0.010938254019827582
1690841343589032700,10.11803271484375,0.23677754255235195,-0.017757284101622643,0.004451184422313235
1690841343599072800,10.12807275390625,0.23737843105494974,-0.01800675393422134,0.007485697846580297
1690841343609113600,10.138113525390626,0.23932488894760606,-0.017859344820166007,0.011395222273399121
1690841343619153400,10.1481533203125,0.22944822257757186,-0.015570848007209133,0.008408701292879413
1690841343629193500,10.158193359375,0.24112054019272325,-0.014830886677349917,0.00913781015187269
1690841343639233500,10.168233642578125,0.2480027009218931,-0.00717676889472641,0.010431471258180681
1690841343649304600,10.1783046875,0.23573124836981296,-0.008645179213164374,0.0073891284371959045
1690841343659345700,10.188345703125,0.23782851291000842,-0.010666245845146477,0.012270201309910043
1690841343669385700,10.1983857421875,0.23812720359563827,-0.015915825519978534,0.012008691696356981
1690841343679425500,10.208425537109376,0.2315425645083189,-0.014107764601148664,0.011625334384979214
1690841343689465600,10.218465576171875,0.23259061225652694,-0.017624915009783578,0.013228721310873515
1690841343699506400,10.22850634765625,0.23333646218776702,-0.01708502227969002,0.014001500348234549
1690841343709546500,10.23854638671875,0.2284001748293638,-0.0151819925368065,0.007835467982187401
1690841343719586600,10.248586669921876,0.23378946665227412,-0.00981492396214744,0.016302740195044317
1690841343729627600,10.258627685546875,0.22690496783554553,-0.00901660177486483,0.009610702060360927
1690841343739667700,10.268667724609376,0.23857670092880726,-0.009497645023767836,0.010126227534178179
1690841343749707500,10.27870751953125,0.23633272139430045,-0.018121603352390228,0.008862210364174098
1690841343759778600,10.288778564453125,0.229149531891942,-0.013321584942808839,0.009482618701283354
1690841343769818600,10.298818603515626,0.22571020509302614,-0.01147853034241125,0.00961481654647505
1690841343779858700,10.308858642578125,0.23783085099756715,-0.011584027410345152,0.013855979513877537
1690841343789899500,10.3188994140625,0.24067338094711302,-0.01581357528847875,0.007902044112107251
1690841343799939600,10.328939697265625,0.23917758943140505,-0.009385864345519803,0.018138271359400823
1690841343809979600,10.338979736328126,0.23229425965845585,0.002147567672037985,0.006536582711490336
1690841343820020700,10.349020751953125,0.22900398594141005,-0.00566014465354383,0.010598713017289992
1690841343830060500,10.359060546875,0.22840835813581942,-0.0058432712516631,0.003262547743192408
1690841343840100600,10.3691005859375,0.22661153784692287,-0.00955659496965818,0.013398262341634836
1690841343850140700,10.379140625,0.22631167811751365,-0.012800906086550094,0.014130453640280757
1690841343860181500,10.389181396484375,0.23110008143782615,-0.012155454639729578,0.005176429956941865
1690841343870252500,10.39925244140625,0.23453940823674202,-0.007450914227566681,0.010126051720953546
1690841343880292600,10.409292724609376,0.23035189341902731,-0.013507805397023911,-0.000633569212781731
1690841343890332400,10.41933251953125,0.22526479941308497,-0.016117243543325457,0.00800482178328093
1690841343900372500,10.42937255859375,0.23334464549422262,-0.004294952680985443,0.006689489984570536
1690841343910413600,10.43941357421875,0.23274609507918356,-0.006621804176375735,0.003901585432246793
1690841343920453600,10.44945361328125,0.23199673801660536,-0.01804565203934908,0.009223771402274724
1690841343930493700,10.45949365234375,0.23244506630599499,-0.012715170881722587,0.014575804521294776
1690841343940534500,10.469534423828126,0.2273597258657217,-0.010935662487230728,0.016484786797640844
1690841343950574600,10.47957470703125,0.22765841655135152,-0.01451505762725137,0.014873549925431143
1690841343960614700,10.48961474609375,0.2287052952557802,-0.011675272190640679,0.008386078469117637
1690841343970685400,10.499685546875,0.23663667277693748,-0.008569908320135437,0.008451147628540639
1690841343980725500,10.5097255859375,0.23558804050683974,-0.012482540302781854,0.007138911969214678
1690841343990765600,10.519765625,0.2348404370099306,-0.007715017657005227,0.001617006742581725
1690841344000806700,10.529806640625,0.23633739756941793,-0.00874966250094585,-0.000162821312318556
1690841344010846700,10.5398466796875,0.228405435526371,-0.012624853116611484,0.0097128792266245
1690841344020886800,10.54988671875,0.2270592816144228,-0.0038011093160137534,0.014736175864911638
1690841344030927600,10.559927734375,0.2330453702867031,-0.011877674311387818,0.019225591672072186
1690841344040967400,10.569967529296875,0.23394378043115138,-0.014976896135474089,0.011587294796376954
1690841344051007500,10.580007568359376,0.23708500106632707,-0.01570921986486064,0.011119720667111687
1690841344061047600,10.590047607421875,0.2378331890851259,-0.011577629635599442,0.005511388399195857
1690841344071088600,10.600088623046876,0.22975334300398825,-0.014961463387613184,0.005660493996704463
1690841344081159700,10.61015966796875,0.22900515498518942,-0.011542304877180139,0.006001418672152795
1690841344091199700,10.62019970703125,0.2260124029099941,-0.00951284715947695,0.014297912311810069
1690841344101239800,10.63023974609375,0.23319442336857318,-0.010980138666485435,0.009708801273128483
1690841344111279400,10.640279296875,0.23170096994042394,-0.015883149376371874,0.005300997051526792
1690841344121320400,10.650320556640626,0.23529110338687895,-0.007615573587233666,0.007186390673019923
1690841344131360500,10.660360595703125,0.23259762651920318,-0.005998820289690047,0.012561373126076069
1690841344141400600,10.670400634765626,0.23214929822981356,-0.011991779377462807,0.010470855703786947
1690841344151441700,10.680441650390625,0.21673487147688864,-0.01247777964598499,0.013227428969508036
1690841344161481700,10.690481689453126,0.22421675166487692,-0.01085416506610345,0.013434957073233089
1690841344171521500,10.700521484375,0.23124971904158592,-0.003825668368535116,0.006633165820606518
1690841344181561300,10.710561279296876,0.22481530207991599,-0.009035151211707853,0.0022118901960784566
1690841344191632400,10.72063232421875,0.23274551055729387,-0.007441532194579485,0.007822635900077875
1690841344201672400,10.73067236328125,0.23588731571435928,-0.01157435083312448,0.0029205499220872296
1690841344211713500,10.740713623046876,0.22675942188501358,-0.011200510268763174,0.010584741574153303
1690841344221753600,10.750753662109375,0.22032792753279207,-0.010155627158598508,0.014649027304421178
1690841344231793700,10.760793701171876,0.21793372587263582,-0.015988370166381355,0.017390978389745577
1690841344241834800,10.770834716796875,0.21823300108015536,-0.01240560945891775,0.008389969192945863
1690841344251874600,10.78087451171875,0.22721242634952066,-0.0020879121899604796,0.007886556565319187
1690841344261914400,10.790914306640625,0.22646365380883215,-0.004027622964710462,0.007168291044037323
1690841344271954400,10.800954345703126,0.2261649631232023,-0.008750036960281432,0.004176988857123069
1690841344281995500,10.81099560546875,0.22916005328595637,-0.009844789377448614,0.003142711622652132
1690841344292066600,10.821066650390625,0.23454583797752857,-0.012992791379860136,0.01047135117742
1690841344302106600,10.831106689453126,0.23469489105939864,-0.008383123893628362,0.009253397072269581
1690841344312145000,10.841144775390624,0.22706454231142997,-0.006064928345440421,0.010471588639437686
1690841344322185000,10.85118505859375,0.23424597824811935,-0.0064437053798232224,0.0105862736608251
1690841344332226000,10.86122607421875,0.2312543952167034,-0.011283884553145617,0.014841398938209748
1690841344342265900,10.871265869140625,0.2198819373309612,-0.01861053079693811,0.015404622311540878
1690841344352306000,10.881305908203124,0.22167700405418872,-0.007636477094655856,0.019781252793455495
1690841344362347000,10.891346923828126,0.2186842519789934,-0.005825578048056923,0.008148210026056039
1690841344372386800,10.90138671875,0.2129980230361223,-0.011328210035350639,0.01052411112783011
1690841344382427000,10.911427001953125,0.22257424515485763,-0.00822945171885658,0.015051628172385971
1690841344392467000,10.921467041015624,0.23574469237327575,-0.005969566795742139,0.008457444938586559
1690841344402538000,10.9315380859375,0.229608381575346,-0.0023619273753487506,0.00457514416212216
1690841344412577800,10.941577880859375,0.2143441769480705,-0.0039665175943518986,0.006897273816622328
1690841344422619000,10.951618896484375,0.2191331647902727,-0.008033399423793889,0.009489192289253696
1690841344432659000,10.961658935546875,0.21658932552635668,-0.018406377393810545,0.016412274117278865
1690841344442699000,10.971698974609374,0.2233247712612152,-0.005911667162622325,0.009937369881593622
1690841344452739800,10.98173974609375,0.220932323166728,-0.007040102653682697,-0.0007093058966915123
1690841344462780000,10.99177978515625,0.2242225968837738,-0.008165410039317793,0.014997948056657332
1690841344472820000,11.001820068359375,0.22781389937400817,-0.012941426518803928,0.009640355129819363
1690841344482859800,11.01185986328125,0.2272153489589691,-0.0072761376159731295,-0.001353483268455602
1690841344492900900,11.02190087890625,0.21524317161440848,-0.011736852485034614,0.010412919538049027
1690841344502941000,11.03194091796875,0.22482290086448192,-0.007866614322410896,0.008633765053295064
1690841344513012000,11.042011962890625,0.22317747174501418,0.0018809594749705865,0.0010936016396968626
1690841344523052000,11.052052001953125,0.21943653165102003,-0.00694851538009243,0.008654497314069885
1690841344533092000,11.062092041015624,0.21853870602846145,-0.00945939537261147,0.000989775939041283
1690841344543133000,11.0721328125,0.2174906582802534,-0.008384359152778052,0.01222816139962524
1690841344553173000,11.082173095703125,0.21374971818625926,-0.002936827486741822,0.012090666324808262
1690841344563212800,11.092212890625,0.21853987507224082,-0.011387214780168142,0.0035133487330633213
1690841344573252900,11.1022529296875,0.22811492814719675,-0.010785061335668433,0.01087282638408942
1690841344583294000,11.1122939453125,0.21988485994040965,-0.006457140250131488,0.007975897082895972
1690841344593334000,11.122333984375,0.21853929055035112,-0.007199665713123977,0.013534302961593494
1690841344603374000,11.1323740234375,0.22467384778261185,-0.011398172282311133,0.020592729006544686
1690841344613445000,11.142445068359375,0.22003683563172816,-0.007476548709033522,0.009724012541992124
1690841344623485000,11.15248486328125,0.21614625793397424,-0.014153686102107167,0.013382151457050349
1690841344633525800,11.16252587890625,0.21599428224265574,-0.006704911315988283,0.003033616091834847
1690841344643565800,11.17256591796875,0.22422493497133253,-0.010678324442007578,0.01078771680034697
1690841344653606000,11.18260595703125,0.2216822647511959,-0.015468330630939452,0.013257449648436158
1690841344663647000,11.19264697265625,0.21764146492779254,-0.008540403664438053,0.016822852795722428
1690841344673687000,11.20268701171875,0.21764380301535127,-0.002785479699796997,0.004820985849085264
1690841344683727000,11.21272705078125,0.2224310372918844,-0.005918800156307406,0.013289977378281763
1690841344693767000,11.222766845703125,0.21734160519838333,-0.009298542255093342,0.01699935329023283
1690841344703808000,11.23280810546875,0.21674363930523394,-0.014136246343539096,0.01236410383817274
1690841344713847800,11.242847900390625,0.21943653165102003,-0.014937612154567613,0.007205355668393895
1690841344723918800,11.2529189453125,0.21210545811057088,-0.0033876125946990213,0.008103279472363646
1690841344733959000,11.262958984375,0.21554887656271457,-0.009173911228426732,0.008932092696032486
1690841344743999000,11.2729990234375,0.21375030270814893,-0.01499610544273164,0.006584109364356845
1690841344754040000,11.2830400390625,0.21614508889019488,-0.010656548718328121,0.0045278595378505995
1690841344764080000,11.293080078125,0.21629531101584434,-0.018695398352085613,0.0088523945063469
1690841344774120000,11.303119873046874,0.2176420494496822,-0.013336337270657531,0.00234811119583901
1690841344784160000,11.313159912109375,0.22557518053650855,-0.008796001843723934,0.0074361687495838845
1690841344794200800,11.323200927734375,0.2227314815431833,-0.005901849021506495,0.013130373219645115
1690841344804241000,11.333240966796875,0.22287936558127402,-0.007324324139254167,0.01571123144214507
1690841344814281000,11.343281005859374,0.21794249370098112,-0.0126687950063264,0.0028058512009680268
1690841344824322000,11.353322021484376,0.21046061351299283,-0.007671231030917261,0.0007868829112383537
1690841344834391800,11.363391845703125,0.21165771434307099,-0.006054480016662273,0.009720662957569584
1690841344844433200,11.37343310546875,0.2100140387892723,-0.015347085721313486,0.010341872728988528
1690841344854473000,11.383472900390625,0.21225684927999972,-0.01303433124993462,0.00013800881475908681
1690841344864513000,11.393512939453124,0.33044483728706836,-0.012569812160858418,0.01667298001323361
1690841344874553900,11.403553955078126,-0.0685229166060686,-0.5295059953095391,-0.44764958641044794
1690841344884594000,11.413593994140625,-0.3049099985361099,-0.7331876527395099,0.6024164062848314
1690841344894634000,11.423634033203125,0.22795476914942264,0.17548848618995397,-0.11478522122572175
1690841344904674000,11.433674072265624,0.4705740234673023,0.28730483853956684,-0.1672552761780098
1690841344914715100,11.443715087890626,0.18036124332547188,0.34530689085423943,0.27462966402480377
1690841344924755000,11.4537548828125,0.2849146737337112,0.021800419729296118,0.1260722293177154
1690841344934826000,11.463825927734375,0.2382213116198778,0.2247360445649363,0.07754073765706271
1690841344944866000,11.473865966796875,0.33715924023389815,0.19173605756508186,0.023086217189556918
1690841344954906000,11.483906005859374,0.2543254742026329,0.16199147389829158,-0.012091821668855845
1690841344964947000,11.493947021484376,0.29721067620515823,0.14102279228540138,-0.0366347952716751
1690841344974987000,11.503987060546875,0.250757552587986,0.09739005985120311,-0.04241673510740511
1690841344985026800,11.51402685546875,0.2646083832859993,0.04612164490679279,-0.030536930487724018
1690841344995067000,11.52406689453125,0.19524667776823043,-0.009336412880336865,-0.014358608973503578
1690841345005108000,11.53410791015625,0.21385376308262347,-0.0654518385976553,0.018511141526093705
1690841345015148000,11.54414794921875,0.15612404316961764,-0.12969956210255623,0.0493775140307378
1690841345025188000,11.55418798828125,0.1278542264968157,-0.17097046077623962,0.07528292139344848
1690841345035229000,11.56422900390625,0.12965046226382254,-0.18793213523747399,0.07631152008909266
1690841345045299000,11.574298828125,0.1609147845774889,-0.19068539773467927,0.06378437574289274
1690841345055340000,11.584340087890626,0.11106266617178916,-0.17673001068364827,0.04605178540782071
1690841345065379800,11.5943798828125,0.20305705925822257,-0.14211200316105968,0.015177789002435747
1690841345075420000,11.604419921875,0.16964228091239927,-0.09213002043114975,0.002238216514000669
1690841345085461000,11.6144609375,0.22704642213284967,-0.039331729038339105,-0.014792458929680287
1690841345095501000,11.6245009765625,0.2358241873502731,0.008152459226199425,-0.01764981427231105
1690841345105540900,11.634540771484374,0.2597200267225504,0.046988522835238834,-0.0053880885298014615
1690841345115581000,11.644580810546875,0.2768950334072113,0.07305298865060321,-0.003558121739840135
1690841345125622000,11.6546220703125,0.2423170565009117,0.09421394143258222,0.019209827847359702
1690841345135661800,11.664661865234375,0.2668605461269617,0.1152637163245119,0.031881849140522535
1690841345145702000,11.674701904296874,0.25730244418680664,0.1142089922403451,0.04760993353605736
1690841345155773000,11.68477294921875,0.2242699431568384,0.09812770820967852,0.05962009110371582
1690841345165813000,11.69481298828125,0.23628011442422867,0.08573522309381515,0.06751823307555169
1690841345175854000,11.70485400390625,0.2297375609129667,0.06399226460622158,0.06615663956587668
1690841345185894000,11.714893798828125,0.1920668786883354,0.017019350332068278,0.04640343925654888
1690841345195934000,11.724933837890624,0.21169687730967998,-0.018373230892745777,0.038761756263813
1690841345205973800,11.734973876953125,0.19510873060226439,-0.049269108053087256,0.022324589733872562
1690841345216014800,11.745014892578125,0.19003508059978483,-0.0735604632487055,-0.00134248238382861
1690841345226055000,11.755054931640625,0.1831570115238428,-0.10578346539353951,-0.006226660529081709
1690841345236095000,11.765094970703124,0.17388181817829607,-0.10970491315359249,-0.0064425226363120595
1690841345246136000,11.775135986328126,0.18674539140462873,-0.11344961610725149,-0.0011806588686420583
1690841345256206000,11.7852060546875,0.1853875470548868,-0.0910502258378081,0.00696205756496638
1690841345266247000,11.795246826171875,0.17923779225349426,-0.06991369054445531,0.011150841891160234
1690841345276286700,11.80528662109375,0.20300854394137857,-0.04785198953046929,0.01980156036254484
1690841345286326800,11.815326904296874,0.19310732765197752,-0.02361312714049127,0.03451636007928755
1690841345296366800,11.825366943359375,0.21103929018378256,0.008245526070822962,0.050039466804498806
1690841345306408000,11.835407958984375,0.2267278577029705,0.019235295648756437,0.048391745263244954
1690841345316444000,11.84544384765625,0.23658932650387285,0.04462281205062754,0.046452785690454766
1690841345326484000,11.85548388671875,0.23658465032875536,0.07010342726316303,0.04558730970122851
1690841345336525000,11.865525146484375,0.2428705987304449,0.07284091680250131,0.03949542713349219
1690841345346565000,11.875565185546876,0.24018881230056285,0.07314494125037453,0.029107189945550633
1690841345356605000,11.88560498046875,0.23347265578806398,0.06244604894437361,0.02202593101428356
1690841345366676000,11.895676025390625,0.2135866365790367,0.03727041259435936,0.017524432043684646
1690841345376715800,11.9057158203125,0.22722703939676284,0.009643524334440007,0.011532550668145994
1690841345386756900,11.9157568359375,0.2187193232923746,-0.008831157638784497,0.020401229589013383
1690841345396797000,11.925796875,0.2006289553284645,-0.023733479284262282,0.012901101358281448
1690841345406837000,11.9358369140625,0.20363632045090196,-0.04760505186496302,0.0232627450835309
1690841345416877000,11.945876953125,0.20019933173954485,-0.055191072847438044,0.019672942713927475
1690841345426918100,11.955918212890625,0.1804471680432558,-0.06819508659092244,0.022129642550507558
1690841345436958000,11.9659580078125,0.20184066920578478,-0.07391227692763787,0.0256527797419345
1690841345446997800,11.975997802734375,0.18551906448006628,-0.06046920048003085,0.03089855545790633
1690841345457038800,11.986038818359376,0.19014438619315624,-0.047253105755290015,0.0236730086681433
1690841345467079000,11.996078857421875,0.21003274348974227,-0.028734264979930594,0.01877199355252087
1690841345477150000,12.00614990234375,0.2124064868837595,-0.006752104608714581,0.01941578276521759
1690841345487190000,12.01618994140625,0.22765432489812373,-0.0017119550170376896,0.01551113772620447
1690841345497230000,12.02622998046875,0.22255495593249797,0.01963029088228941,0.013717975265695712
1690841345507270000,12.036269775390625,0.2270359007388353,0.023539993405621497,0.021437043476733378
1690841345517311000,12.04631103515625,0.23302198941111563,0.026664025443978605,0.02970413749197032
1690841345527350800,12.056350830078125,0.22269933283925056,0.032606137977214525,0.026536661320819985
1690841345537390800,12.066390869140625,0.22270283997058868,0.022896329773799514,0.028281655524356755
1690841345547432000,12.076431884765626,0.220471719917655,0.019701319425040855,0.02413861231931951
1690841345557472000,12.086471923828125,0.21315292133688926,0.017591638361266815,0.030396729715878607
1690841345567512000,12.096511962890625,0.20508359664976594,0.006978657073318026,0.03510227020846214
1690841345577582800,12.106582763671875,0.20838614532649516,-0.015250938720325938,0.03076440996751189
1690841345587623000,12.116622802734375,0.20106150152683258,-0.02038052472770214,0.020907813704549333
1690841345597664000,12.1266640625,0.20181261215507984,-0.026983411857765167,0.017892324641160667
1690841345607703800,12.136703857421875,0.2058522429347038,-0.029649169601453466,0.02097203804717865
1690841345617744000,12.146743896484375,0.20615093362033365,-0.029777294059726407,0.009325816137797665
1690841345627784000,12.156783935546875,0.20405250003635883,-0.03896107366161886,0.015052256076759658
1690841345637825000,12.166824951171876,0.20270108542740345,-0.04203100089256186,0.02112674683498917
1690841345647865000,12.176864990234375,0.21541326748430728,-0.028534244329226202,0.017847179458336904
1690841345657905000,12.18690478515625,0.20148995607197284,-0.009768922546086833,0.015441584187909028
1690841345667946000,12.196946044921875,0.21524901683330536,-0.002139738275320269,0.024002822861110325
1690841345677985800,12.20698583984375,0.21973171520531176,0.00013224351096432656,0.02383071769721573
1690841345688056800,12.217056884765626,0.21284312473535535,0.0059341255896026264,0.030357532499940134
1690841345698097000,12.227096923828125,0.21882629079818725,0.013144472526945172,0.02918488569110632
1690841345708137000,12.237136962890625,0.20924948415756225,0.008095632738736458,0.023458952642220535
1690841345718176800,12.2471767578125,0.21164602390527723,0.01606231446871534,0.029172546799341215
1690841345728217900,12.2572177734375,0.2252677220225334,0.014784809912764466,0.023213978604937437
