time,seconds_elapsed,z,y,x
1690841333586434300,0.115434326171875,-0.007131412625312805,0.02249651961028576,-0.14773567020893097
1690841333596474400,0.125474365234375,-0.007517837453633547,0.01631585694849491,-0.11499156802892685
1690841333606515500,0.135515380859375,-0.009407616220414639,0.004144677426666021,-0.0895804837346077
1690841333616555300,0.14555517578125,-0.0065532405860722065,-0.00247567449696362,-0.043522708117961884
1690841333626595300,0.15559521484375,-0.004290885291993618,-0.009889115579426289,0.006238454952836037
1690841333636635400,0.165635498046875,-0.0027718180790543556,-0.016335031017661095,0.03851676732301712
1690841333646676200,0.17567626953125,-0.0015209312550723553,-0.018579009920358658,0.06465382874011993
1690841333656716300,0.18571630859375,-0.0031497206073254347,-0.017585385590791702,0.07606706768274307
1690841333666756400,0.19575634765625,-0.00586534570902586,-0.014110226184129715,0.07245049625635147
1690841333676797400,0.20579736328125,-0.005858688149601221,-0.011808988638222218,0.05471251532435417
1690841333686837500,0.21583740234375,-0.004974518436938524,-0.008497880771756172,0.031856466084718704
1690841333696877300,0.225877197265625,-0.005632319487631321,-0.0041342913173139095,0.000024234765078290366
1690841333706917400,0.23591748046875,-0.004225637763738632,-0.00019654128118418157,-0.02984205074608326
1690841333716988400,0.245988525390625,-0.005003546830266714,0.001722532557323575,-0.05903881788253784
1690841333727029200,0.256029296875,-0.0046549392864108086,0.00427304208278656,-0.07898136973381042
1690841333737069300,0.2660693359375,-0.004369714763015509,0.0073596457950770855,-0.09475420415401459
1690841333747109400,0.276109375,-0.003430417738854885,0.008582568727433681,-0.09431079030036926
1690841333757149200,0.286149169921875,-0.006068012677133083,0.007840879261493683,-0.08816368132829666
1690841333767190300,0.296190185546875,-0.0046301716938614845,0.007392668630927801,-0.06890583038330078
1690841333777230300,0.306230224609375,-0.005910619627684355,0.00023142869758885354,-0.04156794771552086
1690841333787270400,0.3162705078125,-0.004453870467841625,-0.0025840650778263807,-0.016143282875418663
1690841333797311200,0.326311279296875,-0.005660016089677811,-0.0062850601971149445,0.00827710423618555
1690841333807351300,0.336351318359375,-0.004713262431323528,-0.00986434891819954,0.027003919705748558
1690841333817391400,0.346391357421875,-0.0051564122550189495,-0.011520301923155785,0.03578675910830498
1690841333827431400,0.356431396484375,-0.00307595101185143,-0.010518953204154968,0.036134835332632065
1690841333837472500,0.366472412109375,-0.00387276872061193,-0.009426791220903397,0.02731337957084179
1690841333847542300,0.376542236328125,-0.005893309134989977,-0.005327653605490923,0.010977549478411674
1690841333857583400,0.386583251953125,-0.004875715356320143,-0.0026762105990201235,-0.006869357544928789
1690841333867623400,0.39662353515625,-0.0051878378726542,-0.002112152986228466,-0.02630404196679592
1690841333877663500,0.40666357421875,-0.005848834291100502,0.0016338493442162871,-0.04398476704955101
1690841333887704300,0.416704345703125,-0.003793406533077359,0.002772616920992732,-0.05830804631114006
1690841333897744400,0.426744384765625,-0.006539125461131334,0.0038693067617714405,-0.06351719051599503
1690841333907784200,0.4367841796875,-0.0041462755762040615,0.006418750621378422,-0.0633973479270935
1690841333917824300,0.44682421875,-0.004944424610584974,0.0029824741650372744,-0.056287240236997604
1690841333927865300,0.456865234375,-0.004233627114444971,0.0036493295338004827,-0.04410061612725258
1690841333937905400,0.466905517578125,-0.003373958868905902,0.002281796419993043,-0.02943192422389984
1690841333947945500,0.476945556640625,-0.005318066570907831,-0.0025451830588281155,-0.012429771944880486
1690841333957986300,0.486986328125,-0.004985703621059656,-0.004883971065282822,0.00026312030968256295
1690841333968026400,0.4970263671875,-0.0037558560725301504,-0.0051873051561415195,0.008924785070121288
1690841333978097400,0.507097412109375,-0.006967362016439438,-0.007667773403227329,0.016475113108754158
1690841333988137200,0.51713720703125,-0.00561074772849679,-0.0073255570605397224,0.006539924535900354
1690841333998177300,0.52717724609375,-0.00538437906652689,-0.00373082235455513,0.0023782027419656515
1690841334008217300,0.53721728515625,-0.0039049931801855564,-0.0027595674619078636,-0.007006244268268347
1690841334018258400,0.547258544921875,-0.004673581570386887,-0.002951581496745348,-0.01823306642472744
1690841334028298500,0.557298583984375,-0.0043931505642831326,-0.0006258428329601884,-0.029583191499114037
1690841334038338300,0.56733837890625,-0.0036341496743261814,0.0007677893154323101,-0.036983851343393326
1690841334048379400,0.57737939453125,-0.004816593136638403,0.0016250609187409282,-0.04182867333292961
1690841334058419200,0.587419189453125,-0.00547386147081852,0.0027593011036515236,-0.04422205686569214
1690841334068459300,0.597459228515625,-0.005702094174921513,0.00018429075134918094,-0.042507514357566833
1690841334078499300,0.607499267578125,-0.005314870737493038,-0.0002743055811151862,-0.03614814952015877
1690841334088540400,0.61754052734375,-0.0040887510403990746,-0.0009105347562581301,-0.030225813388824463
1690841334098580500,0.62758056640625,-0.004003529902547598,-0.002008023438975215,-0.01840776950120926
1690841334108651500,0.637651611328125,-0.00515721132978797,-0.002831472782418132,-0.010568754747509956
1690841334118691300,0.64769140625,-0.004200337454676628,-0.0019244002178311348,-0.003922303672879934
1690841334128731100,0.657731201171875,-0.004567853640764952,-0.0027710190042853355,-0.0007597998483106494
1690841334138772200,0.667772216796875,-0.006481068674474955,-0.004278901033103466,0.0011502192355692387
1690841334148812300,0.677812255859375,-0.004314853344112635,-0.0025387913919985294,-0.005366003140807152
1690841334158852400,0.687852294921875,-0.003968376200646162,-0.0033420007675886154,-0.011933624744415283
1690841334168893400,0.6978935546875,-0.004295146092772484,-0.002945456188172102,-0.011828962713479996
1690841334178933500,0.70793359375,-0.004425108432769775,0.000006924218723725062,-0.032271385192871094
1690841334188973300,0.717973388671875,-0.004290352575480938,0.001320927869528532,-0.028898494318127632
1690841334199013000,0.72801318359375,-0.005752161610871553,0.0020266654901206493,-0.03123222105205059
1690841334209054200,0.73805419921875,-0.003704989794641733,0.0008455536444671452,-0.03514333814382553
1690841334219094300,0.74809423828125,-0.004585430957376957,0.00022370553051587194,-0.032160598784685135
1690841334229134300,0.75813427734375,-0.004850149154663086,-0.0019499665359035134,-0.031810659915208817
1690841334239205400,0.768205322265625,-0.0040735709480941296,0.001258343574590981,-0.029214611276984215
1690841334249245400,0.778245361328125,-0.004090082831680775,0.0027598338201642036,-0.014156565070152283
1690841334259286500,0.78828662109375,-0.005763346794992685,-0.0010463559301570058,-0.01531956810504198
1690841334269326300,0.798326416015625,-0.003165166825056076,-0.003555586328729987,-0.013344034552574158
1690841334279366100,0.8083662109375,-0.005883987993001938,-0.0035505264531821012,-0.010124539025127888
1690841334289406200,0.81840625,-0.004998220596462488,-0.0022951122373342514,-0.019642677158117294
1690841334299445000,0.828445068359375,-0.006148706190288067,-0.0021821942646056414,-0.008105331100523472
1690841334309485000,0.838485107421875,-0.004098604898899794,-0.0025574336759746075,-0.013551761396229267
1690841334319524900,0.84852490234375,-0.004199538845568895,-0.0023941819090396166,-0.02141660824418068
1690841334329565700,0.858565673828125,-0.004583832807838917,0.0007171892793849111,-0.021999042481184006
1690841334339605800,0.868605712890625,-0.004511128645390272,0.0006173207075335085,-0.03256593272089958
1690841334349645800,0.878645751953125,-0.005110872443765402,0.00020346550445538014,-0.03135179728269577
1690841334359686000,0.888685791015625,-0.0037436054553836584,-0.0028991170693188906,-0.023256586864590645
1690841334369757000,0.8987568359375,-0.006658701691776514,-0.0022594258189201355,-0.03232278674840927
1690841334379798000,0.908798095703125,-0.006323143374174833,-0.0020578245166689157,-0.026396986097097397
1690841334389838000,0.918838134765625,-0.004199006129056215,-0.002715625334531069,-0.021500764414668083
1690841334399878000,0.9288779296875,-0.005092230159789324,-0.0015052186790853739,-0.01678537204861641
1690841334409918000,0.93891796875,-0.004986236337572336,-0.004224039614200592,-0.026577549055218697
1690841334419958800,0.948958740234375,-0.002642388455569744,-0.00047830372932367027,-0.016885505989193916
1690841334429998800,0.958998779296875,-0.0054701329208910465,-0.004084223881363869,-0.01618669368326664
1690841334440039000,0.969038818359375,-0.005315136630088091,-0.003754258155822754,-0.01194028276950121
1690841334450080000,0.979080078125,-0.004548945464193821,-0.0033073797821998596,-0.016520386561751366
1690841334460120000,0.9891201171875,-0.006442719139158726,-0.003777960315346718,-0.014155765995383263
1690841334470160000,0.999159912109375,-0.003960919566452503,0.0003656520275399089,-0.013645238243043423
1690841334480200000,1.009199951171875,-0.003999002743512392,-0.0022921827621757984,-0.028714468702673912
1690841334490271000,1.01927099609375,-0.004494350403547287,-0.003838414093479514,-0.023755131289362907
1690841334500310800,1.029310791015625,-0.004914331249892712,-0.0006026733317412436,-0.025295503437519073
1690841334510352000,1.039351806640625,-0.005290369503200054,-0.0006815029191784561,-0.026550650596618652
1690841334520392000,1.049391845703125,-0.005228317808359861,-0.001160072977654636,-0.01630999706685543
1690841334530432000,1.059431884765625,-0.005888781975954771,-0.0009419600828550756,-0.029380526393651962
1690841334540473000,1.06947314453125,-0.0041579934768378735,-0.003781422507017851,-0.023664049804210663
1690841334550513000,1.079512939453125,-0.0044346959330141544,-0.00321949552744627,-0.015663381665945053
1690841334560553000,1.089552978515625,-0.005364405456930399,-0.002463423879817128,-0.02111620455980301
1690841334570592800,1.0995927734375,-0.004485828336328268,-0.0008197209681384265,-0.01507082860916853
1690841334580633900,1.1096337890625,-0.006449643522500992,0.0002556634717620909,-0.015531555749475956
1690841334590674000,1.119673828125,-0.00415346585214138,-0.0030024477746337652,-0.022609705105423927
1690841334600714000,1.1297138671875,-0.005626460537314415,-0.003644536016508937,-0.014733938500285149
1690841334610755000,1.139755126953125,-0.0029830066487193108,0.00035686357296071947,-0.02081979438662529
1690841334620824800,1.149824951171875,-0.00461685610935092,-0.0017584852175787091,-0.02196575328707695
1690841334630866000,1.159865966796875,-0.0054243262857198715,-0.0009153284481726587,-0.02106267400085926
1690841334640906000,1.169906005859375,-0.00413482403382659,-0.002133724745362997,-0.029622606933116913
1690841334650945800,1.17994580078125,-0.0054967645555734634,-0.0010426276130601764,-0.024930117651820183
1690841334660985900,1.18998583984375,-0.004429901950061321,-0.00026258768048137426,-0.020117785781621933
1690841334671027000,1.20002685546875,-0.004249872639775276,0.0003454120014794171,-0.023913588374853134
1690841334681066800,1.210066650390625,-0.00507092522457242,-0.0016852483386173844,-0.016872989013791084
1690841334691106800,1.22010693359375,-0.004923918284475803,0.00019494339358061552,-0.022489329800009727
1690841334701148000,1.23014794921875,-0.003896470880135894,-0.0028186896815896034,-0.023746874183416367
1690841334711187700,1.240187744140625,-0.006743656471371651,-0.0020815266761928797,-0.012476377189159393
1690841334721227800,1.250227783203125,-0.004355067387223244,-0.0034256239887326956,-0.019576365128159523
1690841334731267800,1.260267822265625,-0.004536961205303669,-0.0017571536591276526,-0.01708311215043068
1690841334741309000,1.270308837890625,-0.0049042110331356525,0.0012341088149696589,-0.013513944111764431
1690841334751380000,1.2803798828125,-0.003891677362844348,-0.000931041082367301,-0.019998475909233093
1690841334761419800,1.290419677734375,-0.003867975203320384,-0.003835484618321061,-0.01552383229136467
1690841334771459800,1.3004599609375,-0.005080512259155512,-0.002287921728566289,-0.01781068928539753
1690841334781500000,1.3105,-0.003890611929818988,-0.0007371630053967237,-0.02376658283174038
1690841334791540700,1.320540771484375,-0.00395772373303771,-0.0032842103391885757,-0.015903333202004433
1690841334801580800,1.330580810546875,-0.005733785685151815,-0.0010396981379017234,-0.03027215227484703
1690841334811620900,1.340620849609375,-0.0046160570345819,-0.0027047062758356333,-0.023248864337801933
1690841334821662000,1.350661865234375,-0.0063785370439291,-0.002989398315548897,-0.014726747758686543
1690841334831701800,1.36070166015625,-0.004425108432769775,-0.002657302189618349,-0.022164691239595413
1690841334841741800,1.370741943359375,-0.0029643645975738764,-0.0026636936236172915,-0.01895558089017868
1690841334851782000,1.380781982421875,-0.003704190719872713,0.0002998719282913953,-0.020728714764118195
1690841334861822700,1.39082275390625,-0.0036309538409113884,-0.0007683219737373292,-0.027846278622746468
1690841334871862800,1.40086279296875,-0.0054610781371593475,-0.001439971150830388,-0.020083431154489517
1690841334881933800,1.410933837890625,-0.0051683965139091015,-0.0018727348651736975,-0.018439993262290955
1690841334891974000,1.420973876953125,-0.006561762653291225,-0.0007749798824079335,-0.020988373085856438
1690841334902013700,1.431013671875,-0.002764893928542733,-0.002965163439512253,-0.018089788034558296
1690841334912054800,1.4410546875,-0.0036453348584473133,0.001395230065099895,-0.02695145644247532
1690841334922094800,1.4510947265625,-0.003662112867459655,-0.0031230889726430178,-0.019701000303030014
1690841334932135000,1.461135009765625,-0.004778243601322174,-0.0007827030494809151,-0.02184511162340641
1690841334942175000,1.471175048828125,-0.004972920753061771,-0.0008080030675046146,-0.025291774421930313
1690841334952215800,1.4812158203125,-0.005534048657864332,-0.003126284806057811,-0.022821426391601562
1690841334962256000,1.491255859375,-0.005943909287452698,-0.0008045409340411425,-0.023501330986618996
1690841334972295700,1.501295654296875,-0.006393717136234045,-0.004007524810731411,-0.027223365381360054
1690841334982336800,1.511336669921875,-0.006071740761399269,-0.00009906959166983142,-0.01293550617992878
1690841334992376800,1.521376953125,-0.004459463059902191,-0.0012655340833589435,-0.01944160833954811
1690841335002417000,1.5314169921875,-0.004284227266907692,-0.0021845910232514143,-0.022654445841908455
1690841335012488000,1.541488037109375,-0.00621208967640996,0.0002300971100339666,-0.017763817682862282
1690841335022528000,1.551528076171875,-0.0044054011814296246,-0.0010543455136939883,-0.023801470175385475
1690841335032568800,1.56156884765625,-0.00538491178303957,-0.001657551503740251,-0.016221314668655396
1690841335042609000,1.57160888671875,-0.0054456316865980625,-0.0012775183422490954,-0.015066834166646004
1690841335052648700,1.581648681640625,-0.004990763962268829,-0.003242931328713894,-0.021220866590738297
1690841335062688800,1.591688720703125,-0.004948685877025127,-0.0025803367607295513,-0.018520953133702278
1690841335072729900,1.601729736328125,-0.004066913388669491,-0.0025100293569266796,-0.02310318872332573
1690841335082770000,1.61177001953125,-0.004992095287889242,-0.0022948458790779114,-0.02201901562511921
1690841335092810000,1.62181005859375,-0.006620618514716625,-0.0028130970895290375,-0.012322979047894478
1690841335102850800,1.631850830078125,-0.0044014062732458115,-0.0038008634001016617,-0.026883546262979507
1690841335112891000,1.641890869140625,-0.0052083441987633705,-0.0021917815320193768,-0.02093271166086197
1690841335122930700,1.6519306640625,-0.004044010303914547,0.0001001348573481664,-0.018006963655352592
1690841335132970800,1.661970703125,-0.005744704511016607,-0.0022309301421046257,-0.025538649410009384
1690841335143041800,1.672041748046875,-0.0059572248719632626,-0.0059841228649020195,-0.016472982242703438
1690841335153081900,1.682081787109375,-0.005343100056052208,-0.0007709851488471031,-0.018806977197527885
1690841335163123000,1.692123046875,-0.005400091875344515,-0.002570216776803136,-0.026130404323339462
1690841335173163000,1.7021630859375,-0.0054855793714523315,-0.00020240024605300277,-0.01979074813425541
1690841335183203000,1.712203125,-0.004641090985387564,-0.0033047166652977467,-0.021462680771946907
1690841335193244000,1.722243896484375,-0.0015843145083636045,-0.0019180085510015488,-0.020121246576309204
1690841335203283700,1.73228369140625,-0.005573463626205921,-0.002267415402457118,-0.01438373327255249
1690841335213323800,1.74232373046875,-0.0039012646302580833,-0.001577123999595642,-0.027460653334856033
1690841335223363800,1.75236376953125,-0.006102633662521839,-0.003403519745916128,-0.019044265151023865
1690841335233405000,1.762405029296875,-0.005000883713364601,-0.0021441110875457525,-0.01985066942870617
1690841335243445000,1.772445068359375,-0.003695135936141014,0.00019334549142513424,-0.0222025066614151
1690841335253485000,1.782485107421875,-0.00404480891302228,-0.0034975295420736074,-0.014311827719211578
1690841335263555800,1.792555908203125,-0.005576925817877054,-0.0016178702935576439,-0.024580443277955055
1690841335273596000,1.802595947265625,-0.003938548732548952,-0.0041033984161913395,-0.026134397834539413
1690841335283636700,1.81263671875,-0.005423261318355799,-0.0018972359830513597,-0.016569122672080994
1690841335293676800,1.8226767578125,-0.003287672298029065,-0.0022216090001165867,-0.018323346972465515
1690841335303701500,1.832701416015625,-0.004850149154663086,-0.0010436928132548928,-0.0198029987514019
1690841335313741600,1.842741455078125,-0.006440322380512953,-0.0011688614031299949,-0.014669223688542843
1690841335323782400,1.852782470703125,-0.004619519226253033,-0.0027539748698472977,-0.029039375483989716
1690841335333822500,1.862822509765625,-0.003949468024075031,-0.00304612354375422,-0.016153136268258095
1690841335343862500,1.872862548828125,-0.0062336609698832035,-0.0015654060989618301,-0.0183505117893219
1690841335353903600,1.882903564453125,-0.00347542529925704,-0.003201119601726532,-0.020723920315504074
1690841335363943400,1.892943359375,-0.004165716469287872,-0.0018343853298574686,-0.014063620939850807
1690841335373983500,1.9029833984375,-0.004733502399176359,-0.0019105518003925681,-0.02628593146800995
1690841335384023600,1.9130234375,-0.0041249701753258705,-0.002915628720074892,-0.024033430963754654
1690841335394094600,1.923094482421875,-0.005496231839060783,-0.002668221015483141,-0.01464925054460764
1690841335404135400,1.933135498046875,-0.005964948330074549,-0.002525475574657321,-0.022668028250336647
1690841335414175500,1.943175537109375,-0.005349225364625454,-0.000975782226305455,-0.01919206976890564
1690841335424215600,1.953215576171875,-0.003838680451735854,-0.002141447737812996,-0.020654411986470222
1690841335434255400,1.96325537109375,-0.004230164922773838,-0.0035414716694504023,-0.02918877825140953
1690841335444296400,1.97329638671875,-0.0039009982720017433,-0.0036940707359462976,-0.014374944381415844
1690841335454336500,1.98333642578125,-0.00669412175193429,-0.002424541860818863,-0.018458103761076927
1690841335464376600,1.99337646484375,-0.004223773255944252,-0.003120692213997245,-0.02202194556593895
1690841335474417400,2.00341748046875,-0.003931092098355293,-0.003825897118076682,-0.015839416533708572
1690841335484457500,2.01345751953125,-0.004062119405716658,-0.0018309232546016574,-0.026126142591238022
1690841335494497500,2.02349755859375,-0.0026160231791436672,-0.003058107802644372,-0.01948634907603264
1690841335504537300,2.033537353515625,-0.005933256354182959,-0.0017542241839691997,-0.016698285937309265
1690841335514578400,2.043578369140625,-0.0068302094005048275,-0.002463423879817128,-0.024028902873396873
1690841335524648400,2.0536484375,-0.005176386330276728,-0.0016338493442162871,-0.020367322489619255
1690841335534689500,2.063689453125,-0.004266117699444294,-0.0026703516487032175,-0.02208799123764038
1690841335544729300,2.073729248046875,-0.004325506277382374,-0.004424309358000755,-0.026767699047923088
1690841335554769400,2.083769287109375,-0.004254133440554142,-0.00558012118563056,-0.012468387372791767
1690841335564810500,2.093810546875,-0.004079164005815983,0.0003014698449987918,-0.021313011646270752
1690841335574850600,2.1038505859375,-0.004562527406960726,-0.004233094397932291,-0.022419555112719536
1690841335584890400,2.113890380859375,-0.0036991306114941835,-0.0007925567333586514,-0.01943042315542698
1690841335594930400,2.123930419921875,-0.0051779840141534805,-0.0038631814531981945,-0.026200711727142334
1690841335604971500,2.133971435546875,-0.006820089183747768,-0.0033188313245773315,-0.016212791204452515
1690841335615011300,2.14401123046875,-0.0067963870242238045,-0.0003430151555221528,-0.015988022089004517
1690841335625051400,2.154051513671875,-0.0041095237247645855,0.00029880666988901794,-0.024945029988884926
1690841335635092500,2.164092529296875,-0.0044165863655507565,-0.0010029464028775692,-0.01985786110162735
1690841335645162200,2.174162353515625,-0.004299407359212637,-0.0038772961124777794,-0.021317273378372192
1690841335655203300,2.184203369140625,-0.005686647724360228,-0.004858937580138445,-0.02263367362320423
1690841335665243400,2.194243408203125,-0.0043910201638937,-0.001169394003227353,-0.01142975501716137
1690841335675283500,2.204283447265625,-0.004406199790537357,-0.0012926984345540404,-0.01829964481294155
1690841335685324500,2.214324462890625,-0.004605670925229788,-0.0027742148377001286,-0.02143125608563423
1690841335695364400,2.2243642578125,-0.005843774415552616,-0.00418329332023859,-0.02297881804406643
1690841335705404400,2.234404296875,-0.004768656101077795,-0.004933505784720182,-0.020501546561717987
1690841335715444500,2.244444580078125,-0.003941211849451065,-0.0034589136485010386,-0.018915368244051933
1690841335725485600,2.254485595703125,-0.004166781902313232,-0.002576075727120042,-0.01926530711352825
1690841335735525400,2.264525390625,-0.005138303153216839,-0.0003499393642414361,-0.021084778010845184
1690841335745565400,2.2745654296875,-0.003926298581063747,-0.002802710747346282,-0.02081979438662529
1690841335755605500,2.28460546875,-0.004846154246479273,-0.0008886968716979027,-0.020255204290151596
1690841335765646300,2.294646240234375,-0.004647482186555862,-0.0008386294357478619,-0.02110954560339451
1690841335775717400,2.30471728515625,-0.004066114313900471,-0.002865294925868511,-0.01942536234855652
1690841335785757400,2.31475732421875,-0.004491155035793781,-0.0036037894897162914,-0.020857078954577446
1690841335795797200,2.32479736328125,-0.005095159634947777,-0.004884237423539162,-0.0193148422986269
1690841335805837300,2.33483740234375,-0.005343632772564888,-0.002703641075640917,-0.020672254264354706
1690841335815878400,2.34487841796875,-0.005422728601843119,-0.0012980246683582664,-0.020858410745859146
1690841335825918500,2.35491845703125,-0.0056829191744327545,-0.0016040218761190772,-0.02069888636469841
1690841335835958500,2.36495849609375,-0.003988349810242653,-0.002329467097297311,-0.021890385076403618
1690841335845999400,2.374999267578125,-0.005360144190490246,-0.0025750105269253254,-0.019217636436223984
1690841335856039400,2.385039306640625,-0.004948685877025127,-0.0006897587445564568,-0.01998409442603588
1690841335866079500,2.39507958984375,-0.00507092522457242,-0.001463406952098012,-0.02009355090558529
1690841335876119300,2.405119384765625,-0.004142280668020248,-0.002412557601928711,-0.02111540548503399
1690841335886160400,2.415160400390625,-0.0043990095146000385,-0.0031497206073254347,-0.020322581753134727
1690841335896230400,2.42523046875,-0.0059625511057674885,-0.0008226504432968795,-0.018926020711660385
1690841335906271500,2.435271484375,-0.004113518632948399,-0.0021907163318246603,-0.01973988302052021
1690841335916311600,2.4453115234375,-0.004014449194073677,-0.003376621985808015,-0.01943042315542698
1690841335926351600,2.4553515625,-0.005534581374377012,-0.0021947110071778297,-0.023003052920103073
1690841335936392400,2.465392333984375,-0.006825415417551994,-0.002625077962875366,-0.01919686421751976
1690841335946432300,2.475432373046875,-0.005708752200007439,-0.0033401367254555225,-0.02015080861747265
1690841335956472300,2.485472412109375,-0.006085056811571121,-0.002499909373000264,-0.02177906408905983
1690841335966512400,2.495512451171875,-0.004830707795917988,-0.0025622271932661533,-0.02009088732302189
1690841335976553500,2.505553466796875,-0.005109540652483702,-0.0012245214311406016,-0.01895345188677311
1690841335986593500,2.515593505859375,-0.003982490859925747,-0.003308711340650916,-0.019627762958407402
1690841335996633600,2.525633544921875,-0.006579605862498283,-0.0025939189363271,-0.020061857998371124
1690841336006674400,2.53567431640625,-0.004003796260803938,-0.001231711939908564,-0.020351078361272812
1690841336016714200,2.54571435546875,-0.004509796854108572,-0.00307648372836411,-0.021330855786800385
1690841336026785300,2.555785400390625,-0.004177168011665344,-0.003032275242730975,-0.022852052003145218
1690841336036825300,2.565825439453125,-0.004514058120548725,-0.004202468320727348,-0.020672786980867386
1690841336046865400,2.575865478515625,-0.004621649626642466,-0.0027981833554804325,-0.020835507661104202
1690841336056906500,2.585906494140625,-0.00503870053216815,-0.002409628126770258,-0.01876596361398697
1690841336066946600,2.595946533203125,-0.004674380179494619,-0.0021318604703992605,-0.02136680670082569
1690841336076986600,2.605986572265625,-0.004461061209440231,-0.002810966456308961,-0.021821675822138786
1690841336087026400,2.6160263671875,-0.003913515247404575,0.00024714134633541107,-0.021754032000899315
1690841336097067300,2.6260673828125,-0.004572114907205105,-0.0029558425303548574,-0.020833376795053482
1690841336107107300,2.636107421875,-0.005246161017566919,-0.0007510114228352904,-0.021557223051786423
1690841336117147400,2.6461474609375,-0.005380916874855757,-0.0024506407789885998,-0.021374531090259552
1690841336127188500,2.6561884765625,-0.002755572786554694,-0.002365419641137123,-0.020487431436777115
1690841336137228500,2.666228515625,-0.005560147576034069,-0.0023334617726504803,-0.020971061661839485
1690841336147299600,2.676299560546875,-0.0041121868416666985,0.0010266485624015331,-0.021589448675513268
1690841336157339400,2.68633935546875,-0.003893541404977441,-0.0021797972731292248,-0.02098996937274933
1690841336167379500,2.69637939453125,-0.005188902840018272,-0.002591521944850683,-0.02135402522981167
1690841336177419500,2.70641943359375,-0.003011502558365464,-0.002424009144306183,-0.02039315551519394
1690841336187460400,2.71646044921875,-0.00446851784363389,-0.00279072648845613,-0.020073309540748596
1690841336197500400,2.72650048828125,-0.0046842340379953384,-0.0024458470288664103,-0.021823806688189507
1690841336207540500,2.73654052734375,-0.006779875606298447,-0.002820287598297,-0.021144166588783264
1690841336217581600,2.74658154296875,-0.0041129859164357185,-0.003637611633166671,-0.019940951839089394
1690841336227621600,2.75662158203125,-0.005560946650803089,-0.003510579001158476,-0.021147362887859344
1690841336237661400,2.766661376953125,-0.004811266902834177,-0.004788097459822893,-0.022885607555508614
1690841336247701500,2.776701416015625,-0.0043739755637943745,-0.000854075769893825,-0.021407553926110268
1690841336257742300,2.786742431640625,-0.005013400688767433,-0.0026695525739341974,-0.018994197249412537
1690841336267782400,2.796782470703125,-0.004375573713332415,-0.002811499172821641,-0.020791031420230865
1690841336277853400,2.806853515625,-0.0048948898911476135,-0.0029411951545625925,-0.020436299964785576
1690841336287893500,2.8168935546875,-0.0043590618297457695,-0.0022128205746412277,-0.0208850409835577
1690841336297933300,2.826933349609375,-0.006715959403663874,-0.0038061898667365313,-0.020369719713926315
1690841336307974100,2.83697412109375,-0.004569984506815672,-0.003861849894747138,-0.021039238199591637
1690841336318014200,2.84701416015625,-0.0038535939529538155,-0.003108175238594413,-0.018458370119333267
1690841336328054300,2.85705419921875,-0.003983023576438427,-0.003276220755651593,-0.021638449281454086
1690841336338095000,2.86709521484375,-0.0036706349346786737,-0.0012005530297756195,-0.01966771110892296
1690841336348135000,2.877135009765625,-0.003834685543552041,-0.003549461020156741,-0.021747373044490814
1690841336358175000,2.887175048828125,-0.004795554094016552,-0.0009398295660503209,-0.020311396569013596
1690841336368215000,2.897215087890625,-0.004827511962503195,-0.0016548882704228163,-0.02124909497797489
1690841336378256100,2.907256103515625,-0.00618306128308177,-0.003352653468027711,-0.020296748727560043
1690841336388296200,2.917296142578125,-0.0054626758210361,-0.0019390475936233997,-0.0214240662753582
1690841336398367200,2.9273671875,-0.005423261318355799,-0.0028213527984917164,-0.02177293971180916
1690841336408407000,2.937406982421875,-0.003983023576438427,-0.0032959282398223877,-0.020897025242447853
1690841336418447000,2.947447021484375,-0.003966778516769409,-0.0037731665652245283,-0.02075907401740551
1690841336428488000,2.957488037109375,-0.004730839282274246,-0.001910285442136228,-0.02148718200623989
1690841336438528000,2.967528076171875,-0.004713262431323528,-0.000838895735796541,-0.01896250620484352
1690841336448568000,2.977568115234375,-0.005694637540727854,-0.0010631339391693473,-0.02051512897014618
1690841336458608000,2.987608154296875,-0.0037318875547498465,-0.0016234630020335317,-0.019285812973976135
1690841336468649200,2.997649169921875,-0.00503923324868083,-0.0017180051654577255,-0.02039874903857708
1690841336478689300,3.007689208984375,-0.00404507527127862,-0.0008138620178215206,-0.019570505246520042
1690841336488729000,3.01772900390625,-0.006148173473775387,-0.002600044244900346,-0.02045094594359398
1690841336498770000,3.02777001953125,-0.004553206264972687,-0.0022719427943229675,-0.021875204518437386
1690841336508810000,3.03781005859375,-0.005637912079691887,-0.0015584818320348859,-0.019767578691244125
1690841336518850000,3.04785009765625,-0.004206729121506214,-0.003560912562534213,-0.020000340417027473
1690841336528921000,3.057921142578125,-0.005788380745798349,-0.0006122607155703008,-0.02021925151348114
1690841336538961200,3.067961181640625,-0.004071706905961037,-0.00330205331556499,-0.019572369754314423
1690841336549001000,3.0780009765625,-0.00552206439897418,-0.002313754288479686,-0.019000323489308357
1690841336559042000,3.0880419921875,-0.005403021350502968,0.0003235740587115288,-0.01968368887901306
1690841336569082000,3.09808203125,-0.0037760960403829813,-0.000892691605258733,-0.020546287298202515
1690841336579122200,3.1081220703125,-0.005327387247234583,-0.0022975089959800243,-0.018995262682437897
1690841336589163000,3.1181630859375,-0.004436293616890907,-0.0046970173716545105,-0.020502611994743347
1690841336599203000,3.128203125,-0.004985437728464603,-0.0029933929909020662,-0.019704995676875114
1690841336609243100,3.1382431640625,-0.0050701261498034,-0.002175003755837679,-0.02165895700454712
1690841336619283000,3.148282958984375,-0.0036820864770561457,-0.002519882982596755,-0.02189544588327408
1690841336629324000,3.158323974609375,-0.003989148885011673,-0.003690076060593128,-0.018798455595970154
1690841336639364000,3.168364013671875,-0.00484322477132082,-0.003609115956351161,-0.020413130521774292
1690841336649435100,3.17843505859375,-0.0051622712053358555,-0.0012061456218361855,-0.022521020844578743
1690841336659475200,3.18847509765625,-0.003826163476333022,-0.0022354573011398315,-0.019214440137147903
1690841336669515000,3.198514892578125,-0.006669886875897646,-0.000746750389225781,-0.020979583263397217
1690841336679556000,3.20855615234375,-0.0051902346312999725,-0.0009403621661476791,-0.015594672411680222
1690841336689596200,3.21859619140625,-0.00387276872061193,-0.0027867318131029606,-0.029154689982533455
1690841336699636000,3.228635986328125,-0.006336458958685398,-0.0019856528379023075,-0.019895676523447037
1690841336709677000,3.238677001953125,-0.004524710588157177,-0.0008972189389169216,-0.021274128928780556
1690841336719717000,3.248717041015625,-0.003108441596850753,0.00012144014181103557,-0.0208288487046957
1690841336729757200,3.258757080078125,-0.004770254250615835,-0.002835467690601945,-0.02100754715502262
1690841336739797000,3.268796875,-0.004408863373100758,-0.0004165183927398175,-0.01992976665496826
1690841336749838000,3.278838134765625,-0.004674912896007299,-0.0018170748371630907,-0.0202738456428051
1690841336759878100,3.288878173828125,-0.004388356581330299,-0.00009560748003423214,-0.02076306939125061
1690841336769949000,3.298948974609375,-0.00509915454313159,-0.0015478292480111122,-0.018321482464671135
1690841336779989000,3.308989013671875,-0.005074120592325926,-0.0013486248208209872,-0.0227348729968071
1690841336790029000,3.319029052734375,-0.004114584065973759,-0.0035148400347679853,-0.021469339728355408
1690841336800070100,3.329070068359375,-0.003841343568637967,-0.0017180051654577255,-0.0211231280118227
1690841336810110200,3.339110107421875,-0.0031499869655817747,-0.0008165251929312944,-0.018002968281507492
1690841336820150000,3.34914990234375,-0.0067838700488209724,-0.0016048208344727755,-0.02046426199376583
1690841336830190000,3.359190185546875,-0.006258961278945208,-0.002755040070042014,-0.01595180295407772
1690841336840231200,3.369231201171875,-0.0036005936563014984,-0.0031353395897895098,-0.027294471859931946
1690841336850271000,3.37927099609375,-0.004421912599354982,-0.002990197157487273,-0.021194500848650932
1690841336860311000,3.38931103515625,-0.0054336474277079105,-0.0010279801208525896,-0.015908125787973404
1690841336870352100,3.39935205078125,-0.004455468617379665,-0.0037894118577241898,-0.02575649507343769
1690841336880392200,3.40939208984375,-0.004625910893082619,-0.003391801845282316,-0.01900644786655903
1690841336890432000,3.419431884765625,-0.004363589454442263,-0.002183259464800358,-0.019333750009536743
1690841336900503000,3.4295029296875,-0.005868807900696993,-0.0017422399250790477,-0.02076306939125061
1690841336910542800,3.43954296875,-0.00538437906652689,-0.0016887104138731956,-0.020254138857126236
1690841336920584000,3.449583984375,-0.0040975394658744335,-0.003943342715501785,-0.02599112130701542
1690841336930624000,3.4596240234375,-0.0049348375760018826,-0.0014258564915508032,-0.019836554303765297
1690841336940664000,3.4696640625,-0.00418302696198225,-0.0008458199445158243,-0.0173781905323267
1690841336950704000,3.4797041015625,-0.0056919739581644535,-0.0026040389202535152,-0.026324814185500145
1690841336960745200,3.4897451171875,-0.003829092951491475,-0.0007816377910785377,-0.01631212793290615
1690841336970785000,3.499784912109375,-0.0049561429768800735,-0.0021696772892028093,-0.020769726485013962
1690841336980825000,3.5098251953125,-0.005709018558263779,-0.0020066918805241585,-0.025955967605113983
1690841336990866200,3.5198662109375,-0.002817091764882207,-0.0023105584550648928,-0.018663698807358742
1690841337000906000,3.529906005859375,-0.004466920159757137,-0.0011369034182280302,-0.02124430239200592
1690841337010946000,3.539946044921875,-0.00461658975109458,-0.0031726236920803785,-0.019026953727006912
1690841337021017000,3.55001708984375,-0.004774248693138361,-0.0014628743520006537,-0.010753045789897442
1690841337031057200,3.56005712890625,-0.005601160228252411,-0.0023166837636381388,-0.017897240817546844
1690841337041097200,3.57009716796875,-0.0041340249590575695,-0.002241050126031041,-0.020176375284790993
1690841337051138000,3.580137939453125,-0.006244047544896603,-0.001425057533197105,-0.018306037411093712
1690841337061177900,3.590177734375,-0.005591306835412979,-0.0028881982434540987,-0.02412477694451809
1690841337071218000,3.600218017578125,-0.005381449591368437,-0.0024889903143048286,-0.029289977625012398
1690841337081259000,3.610259033203125,-0.006082393694669008,-0.0021427792962640524,-0.015036207623779774
1690841337091299000,3.620299072265625,-0.004761732183396816,-0.0005523395957425237,-0.018814433366060257
1690841337101339100,3.630339111328125,-0.002840261207893491,-0.002147573046386242,-0.01901070959866047
1690841337111379200,3.640379150390625,-0.004344148561358452,-0.0021670141723006964,-0.018760105594992638
1690841337121420000,3.650419921875,-0.005047488957643509,-0.0036064526066184044,-0.018941733986139297
1690841337131460000,3.660460205078125,-0.00544430036097765,0.0012650014832615852,-0.01136770285665989
1690841337141531000,3.67053076171875,-0.003780623432248831,-0.0032591766212135553,-0.030348584055900574
1690841337151571000,3.680571044921875,-0.004854143597185612,-0.0030208237003535032,-0.02076306939125061
1690841337161611000,3.690611083984375,-0.00421365350484848,-0.0018010957865044475,-0.020834442228078842
1690841337171652000,3.700652099609375,-0.002918291836977005,-0.00213612150400877,-0.024440627545118332
1690841337181692200,3.710692138671875,-0.005188902840018272,-0.0010242518037557602,-0.014108894392848015
1690841337191732200,3.720732177734375,-0.003829625668004155,-0.0011677960865199566,-0.023088540881872177
1690841337201772000,3.73077197265625,-0.014502243138849735,0.011523498222231865,-0.037331126630306244
1690841337211812900,3.740812744140625,-0.030544327571988106,-0.016516659408807755,-0.23329903185367584
1690841337221853000,3.75085302734375,-0.04941122606396675,-0.07620076090097427,-0.2020188719034195
1690841337231893000,3.76089306640625,-0.019870378077030182,-0.02112952060997486,-0.13954031467437744
1690841337241934000,3.77093408203125,0.002335592173039913,-0.026250246912240982,-0.07173650711774826
1690841337251974100,3.78097412109375,0.007253119256347418,0.0024378576781600714,-0.029403695836663246
1690841337262014200,3.79101416015625,0.010247045196592808,0.0009869674686342478,0.017433052882552147
1690841337272085200,3.801085205078125,0.007376689929515123,0.0010902981739491224,0.059292349964380264
1690841337282125000,3.811125,0.000012783173588104546,0.00042264367220923305,0.08225705474615097
1690841337292166000,3.821165771484375,-0.010667557828128338,-0.00415453128516674,0.10067787766456604
1690841337302206000,3.8312060546875,-0.012811402790248394,-0.01170699018985033,0.08215585350990295
1690841337312241000,3.841240966796875,-0.012162656523287296,-0.0189028512686491,0.05819805711507797
1690841337322280700,3.85128076171875,-0.008143946528434753,-0.02010047435760498,0.0350131094455719
1690841337332321500,3.861321533203125,-0.0020996362436562777,-0.015607988461852074,-0.006160424090921879
1690841337342361600,3.871361572265625,0.0021497036796063185,-0.007320763543248177,-0.04180150851607323
1690841337352401700,3.881401611328125,0.0022234732750803232,0.001374457380734384,-0.07040732353925705
1690841337362442800,3.89144287109375,0.0016559535870328546,0.00809361319988966,-0.10498074442148209
1690841337372482800,3.90148291015625,-0.005390770733356476,0.017538780346512794,-0.10012473911046982
1690841337382523000,3.91152294921875,-0.009831058792769909,0.017886055633425713,-0.10104192793369293
1690841337392594000,3.921593994140625,-0.008704275824129581,0.016243951395154,-0.08708243817090988
1690841337402633700,3.9316337890625,-0.007150321267545223,0.008108526468276978,-0.0615357980132103
1690841337412673800,3.941673828125,-0.0052320463582873344,0.0011757856700569391,-0.04318741708993912
1690841337422714600,3.951714599609375,-0.004449876025319099,-0.007963118143379688,-0.00845313910394907
1690841337432754700,3.961754638671875,-0.002270611235871911,-0.012636433355510235,0.025496039539575577
1690841337442794800,3.971794677734375,-0.0020479708909988403,-0.01678350754082203,0.031979236751794815
1690841337452835800,3.9818359375,-0.003831756068393588,-0.016587499529123306,0.04423670470714569
1690841337462876000,3.9918759765625,-0.006856041960418224,-0.012232164852321148,0.04548119753599167
1690841337472915700,4.001915771484375,-0.005172924138605595,-0.008509598672389984,0.023020897060632706
1690841337482955800,4.011955810546875,-0.006868026219308376,-0.0020013656467199326,0.015537946484982967
1690841337492996600,4.02199658203125,-0.006485329940915108,0.0023851271253079176,-0.009731989353895187
1690841337503036700,4.03203662109375,-0.006022738758474588,0.0006013417732901871,-0.03503574803471565
1690841337513107700,4.042107666015625,-0.00253532943315804,0.005852296482771635,-0.05074014142155647
1690841337523147800,4.052147705078125,-0.0014708638191223145,0.0023675502743571997,-0.0717460885643959
1690841337533187600,4.0621875,-0.004456533584743738,0.0014796522445976734,-0.07161293178796768
1690841337543228700,4.072228759765625,-0.0060051619075238705,0.0029617014806717634,-0.060983993113040924
1690841337553268700,4.082268798828125,-0.00461632339283824,-0.0005139900604262948,-0.06085216626524925
1690841337563308800,4.092308837890625,-0.007288805674761534,-0.0008980178972706199,-0.042325619608163834
1690841337573349600,4.102349609375,-0.005900499876588583,-0.0018668759148567915,-0.025346901267766953
1690841337583389700,4.1123896484375,-0.0057106162421405315,-0.001258876291103661,-0.00993252545595169
1690841337593429800,4.1224296875,-0.006410494912415743,-0.001427987008355558,0.013980263844132423
1690841337603469800,4.1324697265625,-0.0031281490810215473,-0.003698598127812147,0.013191968202590942
1690841337613511000,4.142510986328125,-0.0038306908681988716,-0.005327387247234583,0.01434964407235384
1690841337623550700,4.15255078125,-0.0048916940577328205,-0.006199839059263468,0.015296398662030697
1690841337633590800,4.1625908203125,-0.004116448108106852,-0.005830192007124424,-0.0007571366732008755
1690841337643661800,4.172661865234375,-0.004744953941553831,-0.006791859865188599,-0.005894374568015337
1690841337653702000,4.182701904296875,-0.0062096924521028996,-0.0027470507193356752,-0.013316337950527668
1690841337663742700,4.19274267578125,-0.0052381716668605804,-0.0018093516118824482,-0.03862622007727623
1690841337673782800,4.20278271484375,-0.004087419714778662,0.0004324973560869694,-0.04032452031970024
1690841337683822600,4.212822509765625,-0.002621882129460573,0.0015701997326686978,-0.0457853302359581
1690841337693862700,4.222862548828125,-0.004674912896007299,0.0027569043450057507,-0.052809685468673706
1690841337703903700,4.23290380859375,-0.0058094197884202,0.003768372815102339,-0.03292039781808853
1690841337713943800,4.24294384765625,-0.005066930316388607,-0.0006476807757280767,-0.041129592806100845
1690841337723984000,4.25298388671875,-0.003913515247404575,-0.0007025419035926461,-0.030010363087058067
1690841337734024700,4.263024658203125,-0.004973985720425844,-0.0021760689560323954,-0.018762236461043358
1690841337744064800,4.273064697265625,-0.00552206439897418,-0.006450176239013672,-0.013698501512408257
1690841337754104800,4.283104736328125,-0.004308195784687996,-0.0075543224811553955,-0.002794188680127263
1690841337764175600,4.293175537109375,-0.004486361052840948,-0.0027542412281036377,0.002834934974089265
1690841337774215700,4.303215576171875,-0.003707919269800186,-0.0037798245903104544,-0.007789213676005602
1690841337784256800,4.3132568359375,-0.005660548806190491,-0.0030977888964116573,-0.002439455594867468
1690841337794296800,4.323296875,-0.0038634478114545345,-0.0017651431262493134,-0.01013678964227438
1690841337804337000,4.3333369140625,-0.005334045272320509,-0.0034818167332559824,-0.019955065101385117
1690841337814376700,4.343376708984375,-0.005524461157619953,-0.0011022823164239526,-0.014709969982504845
1690841337824417800,4.353417724609375,-0.0048797097988426685,0.0014152037911117077,-0.03717000409960747
1690841337834457600,4.36345751953125,-0.003689010627567768,-0.001440237509086728,-0.038715705275535583
1690841337844497700,4.37349755859375,-0.005425391718745232,-0.0002383529208600521,-0.03404638543725014
1690841337854537700,4.383537841796875,-0.005003546830266714,-0.0016024239594116807,-0.03623603656888008
1690841337864578800,4.393578857421875,-0.0037790255155414343,-0.0011403656098991632,-0.028268123045563698
1690841337874619000,4.403618896484375,-0.00583764910697937,-0.0009033442474901676,-0.02142699435353279
1690841337884690000,4.41368994140625,-0.00660517206415534,-0.0038219024427235126,-0.02725558914244175
1690841337894729700,4.423729736328125,-0.00455879932269454,-0.0034991272259503603,-0.010849718004465103
1690841337904769500,4.43376953125,-0.004009921569377184,-0.0023193468805402517,-0.011449461802840233
1690841337914810600,4.443810546875,-0.004454136826097965,-0.002367816399782896,-0.009736516512930393
1690841337924850700,4.4538505859375,-0.004857339430600405,-0.0018844527658075094,-0.0013116068439558148
1690841337934890800,4.463890869140625,-0.004941229242831469,-0.0047177900560200214,-0.019283151254057884
1690841337944931800,4.473931884765625,-0.0035566515289247036,-0.004456799943000078,-0.016152869910001755
1690841337954972000,4.483971923828125,-0.005613144487142563,-0.004070109222084284,-0.015195997431874275
1690841337965011700,4.49401171875,-0.005674663465470076,-0.004649346694350243,-0.02588406205177307
1690841337975051500,4.504051513671875,-0.0037262949626892805,-0.0003733751946128905,-0.02461107075214386
1690841337985092600,4.514092529296875,-0.002728142309933901,0.001079645473510027,-0.027724305167794228
1690841337995132700,4.524132568359375,-0.003952929750084877,-0.0007632619817741215,-0.036316461861133575
1690841338005203700,4.53420361328125,-0.005623264703899622,-0.0004572647449094802,-0.02286749891936779
1690841338015243800,4.544243896484375,-0.00373028963804245,0.0003203782835043967,-0.02640444226562977
1690841338025283800,4.554283935546875,-0.002909503411501646,-0.0023302659392356873,-0.026133332401514053
1690841338035325000,4.564324951171875,-0.004048271104693413,-0.0016253271605819464,-0.014999988488852978
1690841338045364700,4.57436474609375,-0.0048858351074159145,-0.0015936355339363217,-0.016834640875458717
1690841338055404500,4.584404541015625,-0.003751861397176981,-0.0005438174703158438,-0.013027917593717575
1690841338065444600,4.594444580078125,-0.0043593281880021095,-0.0020785972010344267,-0.008889631368219852
1690841338075485700,4.604485595703125,-0.004339354578405619,-0.0017486315919086337,-0.014103035442531109
1690841338085525800,4.61452587890625,-0.005249623209238052,0.0003174488083459437,-0.011771438643336296
1690841338095565800,4.62456591796875,-0.005919141694903374,-0.0018423747969791293,-0.019365176558494568
1690841338105607000,4.63460693359375,-0.004061320796608925,-0.002898584585636854,-0.026087259873747826
1690841338115646700,4.644646728515625,-0.004793956410139799,-0.0015837819082662463,-0.017535584047436714
1690841338125686500,4.6546865234375,-0.005245628301054239,-0.0012511530658230186,-0.024889104068279266
1690841338135757600,4.664757568359375,-0.00538491178303957,-0.0016623451374471188,-0.02743002586066723
1690841338145797600,4.674797607421875,-0.007636614143848419,-0.001534779672510922,-0.020490627735853195
1690841338155838700,4.684838623046875,-0.005426723510026932,-0.003716174978762865,-0.035289015620946884
1690841338165878800,4.694878662109375,-0.004232029430568218,-0.0009203884401358664,-0.023722905665636063
1690841338175918800,4.7049189453125,-0.005042695440351963,0.0003462109307292849,-0.017945710569620132
1690841338185958700,4.714958740234375,-0.005056543741375208,-0.001790975802578032,-0.021211279556155205
1690841338195999700,4.724999755859375,-0.006167082116007805,-0.002237055217847228,-0.014704643748700619
1690841338206039600,4.73503955078125,-0.005203816574066877,-0.0046964846551418304,-0.019216837361454964
1690841338216079600,4.74507958984375,-0.003838147735223174,-0.004977447912096977,-0.02142513170838356
1690841338226120700,4.75512060546875,-0.005717806983739138,-0.0032487902790308,-0.007179349660873413
1690841338236160800,4.765160888671875,-0.005001682788133621,-0.0010151970200240612,-0.020615795627236366
1690841338246200800,4.775200927734375,-0.0035236284602433443,-0.002782470779493451,-0.020592892542481422
1690841338256272000,4.78527197265625,-0.005396363325417042,-0.002041046740487218,-0.018158230930566788
1690841338266311700,4.795311767578125,-0.0036525253672152758,-0.002040247665718198,-0.03003433160483837
1690841338276351700,4.805351806640625,-0.0036788906436413527,-0.003870105603709817,-0.01853347010910511
1690841338286392600,4.815392578125,-0.005883455276489258,-0.001273523666895926,-0.021577997133135796
1690841338296432600,4.8254326171875,-0.004098604898899794,-0.0018421085551381111,-0.028006067499518394
1690841338306462200,4.835462158203125,-0.004207528196275234,-0.0013915016315877438,-0.022060295566916466
1690841338316503300,4.84550341796875,-0.005109540652483702,-0.0012428972404450178,-0.02460973896086216
1690841338326543400,4.85554345703125,-0.004233627114444971,-0.003418433479964733,-0.020853616297245026
1690841338336583200,4.865583251953125,-0.005560147576034069,-0.00364746549166739,-0.020927652716636658
1690841338346623200,4.875623291015625,-0.006415821146219969,-0.002400306984782219,-0.019538814201951027
1690841338356664000,4.8856640625,-0.003908189013600349,-0.0028634308837354183,-0.01973828487098217
1690841338366704000,4.8957041015625,-0.0026312030386179686,-0.0011177286505699158,-0.01852654665708542
1690841338376775200,4.905775146484375,-0.005438441410660744,-0.0033318807836622,-0.025416942313313484
1690841338386815200,4.915815185546875,-0.0046845003962516785,-0.0006852313526906073,-0.013579724356532097
1690841338396855300,4.925855224609375,-0.005330583080649376,-0.0011880361707881093,-0.014759505167603493
1690841338406896400,4.935896484375,-0.003941744565963745,-0.00034221619716845453,-0.025671008974313736
1690841338416936200,4.945936279296875,-0.005651227664202452,-0.0020935109350830317,-0.019410183653235435
1690841338426976300,4.955976318359375,-0.005458681378513575,0.00014460964302998036,-0.022534603253006935
1690841338437016300,4.966016357421875,-0.004596616141498089,-0.0029033781029284,-0.02491520345211029
1690841338447057200,4.97605712890625,-0.00455746753141284,-0.002222940558567643,-0.017530256882309914
1690841338457097200,4.98609716796875,-0.005358280148357153,-0.0010641991393640637,-0.030336866155266762
1690841338467137300,4.99613720703125,-0.004736964590847492,-0.0032232238445430994,-0.02249758504331112
1690841338477178400,5.006178466796875,-0.006413957104086876,-0.005081044975668192,-0.021453360095620155
1690841338487218200,5.01621826171875,-0.0026961842086166143,-0.0022831279784440994,-0.02195643074810505
1690841338497289200,5.026289306640625,-0.004608334042131901,-0.0007419566973112524,-0.010756773874163628
1690841338507329300,5.036329345703125,-0.004536162130534649,-0.0021065603941679,-0.0173861812800169
1690841338517369300,5.046369384765625,-0.003744937013834715,-0.0021763353142887354,-0.024941302835941315
1690841338527410200,5.05641015625,-0.0067758806981146336,-0.0029028456192463636,-0.014602910727262497
1690841338537450200,5.0664501953125,-0.005002748221158981,-0.0024546354543417692,-0.02069995179772377
1690841338547490300,5.076490234375,-0.00424321461468935,-0.001175519311800599,-0.02226988598704338
1690841338557530000,5.086530029296875,-0.004895688965916634,0.00003222424857085571,-0.012199941091239452
1690841338567571200,5.0965712890625,-0.005175853613764048,-0.00011824435205198824,-0.030305974185466766
1690841338577611300,5.106611328125,-0.004571848548948765,-0.004450141917914152,-0.023615580052137375
1690841338587651300,5.1166513671875,-0.0052139367908239365,-0.004492752719670534,-0.019454391673207283
1690841338597692200,5.126692138671875,-0.004455202259123325,-0.003918042406439781,-0.024468325078487396
1690841338607732200,5.136732177734375,-0.003492203075438738,-0.0038389465771615505,-0.015664180740714073
1690841338617803300,5.14680322265625,-0.0057220677845180035,-0.0006117281154729426,-0.022098110988736153
1690841338627843000,5.156843017578125,-0.004209125880151987,0.0006745787104591727,-0.024389762431383133
1690841338637883100,5.166883056640625,-0.0046506780199706554,0.001413339632563293,-0.0212421715259552
1690841338647923200,5.176923095703125,-0.0052205948159098625,-0.0020000338554382324,-0.019211778417229652
1690841338657964300,5.18696435546875,-0.004255731590092182,-0.0049561429768800735,-0.02015134133398533
1690841338668004400,5.19700439453125,-0.005315935704857111,-0.004025900736451149,-0.015389609150588512
1690841338678044400,5.20704443359375,-0.002954510971903801,-0.00407623453065753,-0.02208639308810234
1690841338688085200,5.217085205078125,-0.0033393376506865025,-0.007741010282188654,-0.024717330932617188
1690841338698125000,5.227125,-0.004387824330478907,-0.002232261700555682,-0.018852250650525093
1690841338708165000,5.2371650390625,-0.004737230949103832,-0.0010522148804739118,-0.0223897285759449
1690841338718205200,5.247205078125,-0.0043808999471366405,-0.00022450447431765497,-0.018278606235980988
1690841338728246300,5.257246337890625,-0.005770271178334951,0.002606169320642948,-0.01841495931148529
1690841338738317300,5.2673173828125,-0.004803543444722891,-0.003606186481192708,-0.02647128887474537
1690841338748357400,5.277357421875,-0.005877329967916012,0.0028578380588442087,-0.016860738396644592
1690841338758397400,5.2873974609375,-0.003693005535751581,0.0005315669695846736,-0.016079368069767952
1690841338768437200,5.297437255859375,-0.005333246197551489,-0.0036645096261054277,-0.02021419070661068
1690841338778478000,5.30747802734375,-0.00424268189817667,-0.003209641668945551,-0.01519786100834608
1690841338788518100,5.31751806640625,-0.0038250982761383057,-0.004941761493682861,-0.029032716527581215
1690841338798558200,5.32755810546875,-0.004473311826586723,-0.0045572011731565,-0.014736069366335869
1690841338808599300,5.337599365234375,-0.0057500312104821205,-0.001895105466246605,-0.017301492393016815
1690841338818639400,5.347639404296875,-0.00572979124262929,-0.0011353056179359555,-0.021616345271468163
1690841338828679400,5.357679443359375,-0.007243798114359379,-0.0015646071406081319,-0.020780911669135094
1690841338838719200,5.36771923828125,-0.002710299100726843,0.0009587379754520953,-0.025601234287023544
1690841338848760000,5.377760009765625,-0.002852778183296323,0.0015622102655470371,-0.026039855554699898
1690841338858800000,5.387800048828125,-0.004808870144188404,0.00002103897168126423,-0.013157879933714867
1690841338868871200,5.39787109375,-0.00455800024792552,-0.0017840516520664096,-0.02298094891011715
1690841338878911200,5.4079111328125,-0.005103948060423136,-0.0020189424976706505,-0.022360432893037796
1690841338888951300,5.417951416015625,-0.005544701125472784,-0.0025531724095344543,-0.021265873685479164
1690841338898992400,5.427992431640625,-0.004526308737695217,-0.004815794061869383,-0.02877039462327957
1690841338909032400,5.438032470703125,-0.0041638524271547794,-0.007813980802893639,-0.014635934494435787
1690841338919072300,5.448072265625,-0.0049561429768800735,-0.004208327271044254,-0.015363509766757488
1690841338929112300,5.4581123046875,-0.004857073072344065,-0.0012146678054705262,-0.01961497962474823
1690841338939153200,5.468153076171875,-0.00421418622136116,0.0009147958480753005,-0.01781708002090454
1690841338949193200,5.478193115234375,-0.0062371231615543365,-0.00042983421008102596,-0.02008662559092045
1690841338959233300,5.4882333984375,-0.004373176954686642,-0.0020839234348386526,-0.02346005290746689
1690841338969274400,5.4982744140625,-0.005423794034868479,-0.002400306984782219,-0.0136652123183012
1690841338979314400,5.508314453125,-0.005288239102810621,-0.003433879930526018,-0.02220064401626587
1690841338989385200,5.51838525390625,-0.004415520932525396,-0.0043859598226845264,-0.022649917751550674
1690841338999425300,5.52842529296875,-0.004091946873813868,-0.005913282744586468,-0.0179371889680624
1690841339009465300,5.53846533203125,-0.005646966863423586,-0.002529470482841134,-0.019641079008579254
1690841339019506200,5.548506103515625,-0.005364405456930399,-0.0037920749746263027,-0.015577361918985844
1690841339029546200,5.558546142578125,-0.004177967086434364,-0.0025837989524006844,-0.01859712041914463
1690841339039586300,5.56858642578125,-0.005831790156662464,-0.00512818293645978,-0.027028953656554222
1690841339049626400,5.57862646484375,-0.007510380353778601,-0.0004442152567207813,-0.020377974957227707
1690841339059667500,5.58866748046875,-0.005342833697795868,-0.0013944311067461967,-0.02286616712808609
1690841339069707300,5.598707275390625,-0.003367300843819976,-0.0007323693134821951,-0.018807509914040565
1690841339079747300,5.608747314453125,-0.0031364047899842262,0.00004873584839515388,-0.010610300116240978
1690841339089787100,5.618787109375,-0.003961718175560236,-0.0006572681595571339,-0.024651283398270607
1690841339099828200,5.628828125,-0.005591306835412979,-0.002625077962875366,-0.021991584450006485
1690841339109899300,5.638899169921875,-0.006992661859840155,-0.0029140308033674955,-0.019748937338590622
1690841339119939300,5.648939208984375,-0.0051745218224823475,-0.004867991898208857,-0.026753583922982216
1690841339129979100,5.658979248046875,-0.005695968866348267,-0.004203266929835081,-0.022551914677023888
1690841339140019200,5.669019287109375,-0.004002198576927185,-0.003549461020156741,-0.014875885099172592
1690841339150060300,5.679060302734375,-0.0032346753869205713,-0.0002993392990902066,-0.02581748180091381
1690841339160100000,5.68910009765625,-0.005393700208514929,-0.0011611381778493524,-0.019707657396793365
1690841339170140200,5.69914013671875,-0.005567871034145355,0.00023142869758885354,-0.021389978006482124
1690841339180181200,5.70918115234375,-0.004561728797852993,-0.00019893812714144588,-0.023582823574543
1690841339190221300,5.71922119140625,-0.004773716442286968,-0.00033875409280881286,-0.02051699347794056
1690841339200261400,5.729261474609375,-0.004713795147836208,0.00015819176041986793,-0.025477396324276924
1690841339210301200,5.73930126953125,-0.0041398839093744755,-0.0022090920247137547,-0.01967490091919899
1690841339220342300,5.74934228515625,-0.003695935010910034,-0.0019712718203663826,-0.019302858039736748
1690841339230412300,5.759412353515625,-0.004536694847047329,-0.002651176881045103,-0.023069633170962334
1690841339240453000,5.769453125,-0.0056863813661038876,-0.002001631772145629,-0.012627111747860909
1690841339250493200,5.7794931640625,-0.003972371108829975,-0.0036828855518251657,-0.02002910152077675
1690841339260533200,5.789533203125,-0.005366802215576172,-0.004461860284209251,-0.023794544860720634
1690841339270574300,5.79957421875,-0.005584382452070713,-0.002929743379354477,-0.020310331135988235
1690841339280614100,5.8096142578125,-0.004381965380162001,-0.0026463831309229136,-0.022489862516522408
1690841339290654200,5.819654296875,-0.005320996046066284,-0.002516953507438302,-0.019533753395080566
1690841339300694300,5.8296943359375,-0.004905809182673693,-0.002438656520098448,-0.016572585329413414
1690841339310739700,5.83973974609375,-0.004802212119102478,-0.001264468883164227,-0.02003682404756546
1690841339320779800,5.84977978515625,-0.00433109886944294,-0.0021044297609478235,-0.020564930513501167
1690841339330819800,5.85981982421875,-0.004322843160480261,-0.0006748450105078518,-0.017246631905436516
1690841339340861000,5.86986083984375,-0.005210474599152803,-0.0029609024059027433,-0.02081952802836895
1690841339350930700,5.8799306640625,-0.005721535068005323,-0.0009704558760859072,-0.015674833208322525
1690841339360971800,5.8899716796875,-0.004397145472466946,-0.0007366303470917046,-0.022767629474401474
1690841339371011800,5.90001171875,-0.004033357370644808,-0.0035276231355965137,-0.019722305238246918
1690841339381052000,5.910052001953125,-0.004095409065485001,-0.004196609370410442,-0.022069349884986877
1690841339391092700,5.9200927734375,-0.005575061310082674,-0.001466869143769145,-0.015782957896590233
1690841339401132800,5.9301328125,-0.0055228634737432,-0.0009406284661963582,-0.019299928098917007
1690841339411172600,5.940172607421875,-0.003103115363046527,-0.0006583334179595113,-0.02064589038491249
1690841339421212700,5.950212646484375,-0.005526592023670673,-0.002409361768513918,-0.01799178309738636
1690841339431253800,5.960253662109375,-0.004595550708472729,-0.002743322169408202,-0.019725767895579338
1690841339441293800,5.9702939453125,-0.004923652391880751,-0.0014958975370973349,-0.017006414011120796
1690841339451334000,5.980333984375,-0.004717257339507341,-0.0032202943693846464,-0.02166774496436119
1690841339461374700,5.990374755859375,-0.0038924762047827244,0.0008524778531864285,-0.016341954469680786
1690841339471444700,6.00044482421875,-0.005169461946934462,-0.00276169809512794,-0.024490961804986
1690841339481485800,6.01048583984375,-0.003859453136101365,-0.002627474721521139,-0.026638802140951157
1690841339491525600,6.020525634765625,-0.005103415343910456,0.0001656486128922552,-0.021394770592451096
1690841339501565700,6.030565673828125,-0.004216050263494253,-0.0012514194240793586,-0.021223796531558037
1690841339511605800,6.040605712890625,-0.004071174189448357,-0.0037081853952258825,-0.01846476085484028
1690841339521646800,6.050646728515625,-0.005652559455484152,-0.0008743157959543169,-0.01464871782809496
1690841339531686700,6.060686767578125,-0.003734284546226263,-0.0022362563759088516,-0.02539270743727684
1690841339541726700,6.070726806640625,-0.004046939779073,-0.004096474498510361,-0.017247961834073067
1690841339551767800,6.080767822265625,-0.003239469137042761,-0.001746501075103879,-0.02147652953863144
1690841339561807600,6.0908076171875,-0.006683202926069498,-0.0027630296535789967,-0.020712468773126602
1690841339571847700,6.10084765625,-0.006144711747765541,-0.0017036241479218006,-0.016107862815260887
1690841339581918700,6.110918701171875,-0.005676794331520796,-0.004822984803467989,-0.021873872727155685
1690841339591958800,6.120958740234375,-0.004948153160512447,-0.004920722916722298,-0.027047330513596535
1690841339602000000,6.130999755859375,-0.00481286458671093,-0.0025185514241456985,-0.012289157137274742
1690841339612039700,6.141039794921875,-0.005282380152493715,-0.004649080336093903,-0.021735122427344322
1690841339622079700,6.151079833984375,-0.0032956618815660477,-0.0016279903938993812,-0.017654094845056534
1690841339632119600,6.16111962890625,-0.0037891454994678497,-0.0018250643042847514,-0.014999189414083958
1690841339642160600,6.17116064453125,-0.003150519449263811,0.0002759034978225827,-0.03068334423005581
1690841339652200700,6.18120068359375,-0.005018993280827999,-0.0012479572324082255,-0.017611751332879066
1690841339662240800,6.19124072265625,-0.003975833300501108,-0.00021145498612895608,-0.01907622255384922
1690841339672281900,6.20128173828125,-0.004355866461992264,-0.0020695424173027277,-0.022126873955130577
1690841339682321700,6.21132177734375,-0.005107676610350609,-0.0014389059506356716,-0.016105733811855316
1690841339692361700,6.22136181640625,-0.0033939324785023928,-0.0021257351618260145,-0.024404142051935196
1690841339702432500,6.2314326171875,-0.00481286458671093,-0.005317800212651491,-0.025175394490361214
1690841339712472600,6.24147265625,-0.003272492438554764,-0.0013619405217468739,-0.015080682002007961
1690841339722512600,6.2515126953125,-0.00472551304847002,-0.0020823257509618998,-0.020604077726602554
1690841339732553700,6.2615537109375,-0.004773183725774288,-0.0014623417519032955,-0.02039075829088688
1690841339742593800,6.27159375,-0.004767058417201042,-0.003216033335775137,-0.017401093617081642
1690841339752633900,6.2816337890625,-0.004795820452272892,-0.004190217703580856,-0.024947160854935646
1690841339762674700,6.2916748046875,-0.004887433256953955,-0.0019081549253314734,-0.01708364486694336
1690841339772714800,6.30171484375,-0.004000600427389145,-0.0016077503096312284,-0.016456738114356995
1690841339782754600,6.311754638671875,-0.005298092495650053,-0.003840544493868947,-0.023932229727506638
1690841339792794600,6.321794677734375,-0.005135905928909779,-0.0011544802691787481,-0.020174777135252953
1690841339802835700,6.331835693359375,-0.004443750716745853,-0.0023007048293948174,-0.02479456178843975
1690841339812875800,6.341875732421875,-0.004747350700199604,-0.0027688886038959026,-0.024110129103064537
1690841339822946800,6.35194677734375,-0.00373108871281147,-0.00042530681821517646,-0.010175406001508236
1690841339832987000,6.36198681640625,-0.003790477057918906,-0.0008516788948327303,-0.02209598198533058
1690841339843026700,6.372026611328125,-0.0028567728586494923,-0.0017960357945412397,-0.020927652716636658
1690841339853067500,6.382067626953125,-0.00515801040455699,-0.0035779569298028946,-0.020481573417782784
1690841339863107600,6.392107666015625,-0.003067162586376071,-0.0024501082953065634,-0.028791967779397964
1690841339873147600,6.402147705078125,-0.005422994960099459,-0.0028415927663445473,-0.014535533264279366
1690841339883187700,6.412187744140625,-0.004159591160714626,-0.002695119008421898,-0.020017383620142937
1690841339893228800,6.422228759765625,-0.0029968551825731993,-0.0024644893128424883,-0.02334234118461609
1690841339903268900,6.432268798828125,-0.0046549392864108086,-0.0013693973887711763,-0.020101273432374
1690841339913309000,6.442308837890625,-0.004954012110829353,-0.002418150193989277,-0.02292528934776783
1690841339923349800,6.452349853515625,-0.005319664254784584,-0.0023086944129318,-0.023628097027540207
1690841339933389600,6.4623896484375,-0.005060805007815361,-0.0016263924771919847,-0.014614894986152649
1690841339943460600,6.472460693359375,-0.004887965973466635,-0.002147306688129902,-0.02497086301445961
1690841339953500700,6.482500732421875,-0.005312207154929638,-0.0025925873778760433,-0.02226961962878704
1690841339963540700,6.492540771484375,-0.005362807307392359,-0.001751827308908105,-0.017738517373800278
1690841339973581800,6.502581787109375,-0.005471464246511459,-0.005336175672709942,-0.02605769969522953
1690841339983622000,6.512621826171875,-0.005334045272320509,-0.004823517519980669,-0.015844477340579033
1690841339993661700,6.52266162109375,-0.006043511442840099,0.0011680624447762966,-0.020425112918019295
1690841340003701800,6.53270166015625,-0.0030445256270468235,-0.004880775231868029,-0.02641775831580162
1690841340013742600,6.54274267578125,-0.004914863966405392,-0.002305232221260667,-0.01769457384943962
1690841340023782700,6.55278271484375,-0.004578772932291031,-0.0036128442734479904,-0.021270668134093285
1690841340033822700,6.56282275390625,-0.004477039910852909,-0.0026399914640933275,-0.016141418367624283
1690841340043863800,6.57286376953125,-0.0049705239944159985,-0.0007781756576150656,-0.016825584694743156
1690841340053904000,6.58290380859375,-0.004179032519459724,-0.0025366609916090965,-0.026393789798021317
1690841340063975000,6.592974853515625,-0.0036908749025315046,-0.0035143073182553053,-0.020903684198856354
1690841340074014700,6.6030146484375,-0.0036535905674099922,-0.0018487664638087153,-0.020735638216137886
1690841340084054800,6.6130546875,-0.003718838095664978,-0.003322559641674161,-0.020171580836176872
1690841340094094800,6.6230947265625,-0.0049494849517941475,-0.0030306773260235786,-0.01641705632209778
1690841340104135700,6.6331357421875,-0.004433630499988794,0.0001685781026026234,-0.017547035589814186
1690841340114175700,6.64317578125,-0.005648564547300339,-0.0030953921377658844,-0.025781795382499695
1690841340124215800,6.6532158203125,-0.005754558369517326,-0.001847967505455017,-0.018218684941530228
1690841340134257000,6.6632568359375,-0.003877029987052083,-0.0021760689560323954,-0.020989704877138138
1690841340144296700,6.673296630859375,-0.0032687638886272907,-0.000678307143971324,-0.018214955925941467
1690841340154336800,6.683336669921875,-0.00603525573387742,-0.0014540859265252948,-0.011502458713948727
1690841340164376800,6.693376953125,-0.004530835896730423,-0.0017656758427619934,-0.02556501515209675
1690841340174447900,6.70344775390625,-0.00574896577745676,-0.003204581793397665,-0.01998675800859928
1690841340184488700,6.71348876953125,-0.003296727081760764,-0.00341550400480628,-0.01979820616543293
1690841340194528800,6.72352880859375,-0.003748665563762188,-0.0010002832859754562,-0.024056334048509598
1690841340204568600,6.733568603515625,-0.004838963504880667,-0.0012697952333837748,-0.01739576831459999
1690841340214608600,6.743608642578125,-0.0037792918737977743,-0.0021164140198379755,-0.022551648318767548
1690841340224649700,6.753649658203125,-0.003947869874536991,-0.004260525107383728,-0.02568885125219822
1690841340234689800,6.763689697265625,-0.006511428859084845,-0.002603506203740835,-0.017118265852332115
1690841340244729900,6.773729736328125,-0.0036938043776899576,-0.0025718146935105324,-0.021044032648205757
1690841340254770700,6.783770751953125,-0.0043561323545873165,-0.002514024032279849,-0.019462646916508675
1690841340264810800,6.793810791015625,-0.004735899157822132,-0.0008988168556243181,-0.01690521463751793
1690841340274850800,6.803850830078125,-0.0041699777357280254,-0.0028993834275752306,-0.025289377197623253
1690841340284890600,6.813890625,-0.00427224300801754,-0.004044010303914547,-0.021214473992586136
1690841340294961700,6.823961669921875,-0.0057311225682497025,-0.0037976677995175123,-0.015795208513736725
1690841340305001700,6.834001708984375,-0.004884237423539162,-0.003001648932695389,-0.0249056164175272
1690841340315018000,6.84401806640625,-0.0057500312104821205,-0.0026130937039852142,-0.017349163070321083
1690841340325058000,6.85405810546875,-0.0026913906913250685,-0.001181111903861165,-0.0227977242320776
1690841340335098000,6.86409814453125,-0.0030567762441933155,-0.0038602519780397415,-0.031124096363782883
1690841340345139000,6.874138916015625,-0.006742591038346291,-0.0019915117882192135,-0.01643383502960205
1690841340355178800,6.8841787109375,-0.004018177278339863,-0.002335858531296253,-0.02185096964240074
1690841340365218800,6.89421875,-0.0038048583082854748,-0.0007787083159200847,-0.019585153087973595
1690841340375259000,6.9042587890625,-0.0037803570739924908,-0.00373055599629879,-0.014370150864124298
1690841340385300000,6.914300048828125,-0.004668787587434053,0.0002687129599507898,-0.026198048144578934
1690841340395340000,6.924340087890625,-0.003751595038920641,-0.003900199430063367,-0.023804398253560066
1690841340405380000,6.934380126953125,-0.007794273551553488,-0.0012245214311406016,-0.014170946553349495
1690841340415451100,6.944451171875,-0.0031353395897895098,0.00021891183860134333,-0.020477578043937683
1690841340425491000,6.954490966796875,-0.005366003140807152,-0.0036780918017029762,-0.021873340010643005
1690841340435531800,6.96453173828125,-0.00421232171356678,-0.00330285239033401,-0.021827800199389458
1690841340445571800,6.97457177734375,-0.0030186930671334267,-0.002683401107788086,-0.021436050534248352
1690841340455612000,6.98461181640625,-0.005646167788654566,-0.00452737370505929,-0.013686783611774445
1690841340465653000,6.994653076171875,-0.005247758701443672,-0.0019462381023913622,-0.0183451846241951
1690841340475693000,7.004693115234375,-0.005850964691489935,-0.0012231898726895452,-0.021228056401014328
1690841340485733000,7.014733154296875,-0.0054605454206466675,-0.00098217383492738,-0.016628511250019073
1690841340495773000,7.02477294921875,-0.003968109842389822,-0.0005874933558516204,-0.022952720522880554
1690841340505813800,7.034813720703125,-0.005342300981283188,-0.0029230855870991945,-0.02641456387937069
1690841340515853800,7.044853759765625,-0.0032554480712860823,-0.0035358788445591927,-0.015419969335198402
1690841340525924900,7.0549248046875,-0.002817358123138547,-0.001064731739461422,-0.018873555585741997
1690841340535965000,7.06496484375,-0.003890611929818988,-0.0031590417493134737,-0.020432304590940475
1690841340546005000,7.0750048828125,-0.0044259075075387955,0.00040027310024015605,-0.014531804248690605
1690841340556046000,7.085046142578125,-0.004899683874100447,-0.0025065671652555466,-0.02219451777637005
1690841340566086100,7.095086181640625,-0.004546815063804388,-0.0023971113841980696,-0.01932522840797901
1690841340576126000,7.1051259765625,-0.005407015793025494,0.00012650014832615852,-0.017782459035515785
1690841340586166000,7.115166015625,-0.0038277613930404186,-0.002144909929484129,-0.018863968551158905
1690841340596206800,7.125206787109375,-0.004593686666339636,-0.002862099092453718,-0.020599817857146263
1690841340606247000,7.135246826171875,-0.005399825517088175,-0.0036509274505078793,-0.022180402651429176
1690841340616287000,7.145286865234375,-0.004373443312942982,-0.003555852686986327,-0.025899507105350494
1690841340626328000,7.155328125,-0.00577905960381031,-0.0018274611793458462,-0.016472183167934418
1690841340636368100,7.1653681640625,-0.004522846546024084,-0.00037950044497847557,-0.020290357992053032
1690841340646439000,7.17543896484375,-0.0046544065698981285,-0.004277036525309086,-0.021980399265885353
1690841340656479000,7.18547900390625,-0.0041004689410328865,-0.0017837852938100696,-0.019594207406044006
1690841340666519000,7.19551904296875,-0.00481286458671093,-0.0026258768048137426,-0.02286696620285511
1690841340676558800,7.205558837890625,-0.003980360459536314,-0.0022066952660679817,-0.021622205153107643
1690841340686600000,7.215599853515625,-0.003775030840188265,-0.00040799626731313765,-0.01955905370414257
1690841340696640000,7.225639892578125,-0.005577458068728447,-0.003469566348940134,-0.022583073005080223
1690841340706680000,7.23568017578125,-0.005166532471776009,-0.002820287598297,-0.021470671519637108
1690841340716721200,7.24572119140625,-0.0046445527113974094,-0.0028394623659551144,-0.022429408505558968
1690841340726761000,7.255760986328125,0.03182104602456093,-0.580474853515625,-0.30122002959251404
1690841340736801000,7.265801025390625,-0.010027067735791206,0.008656871505081654,-0.19721239805221558
1690841340746840800,7.2758408203125,-0.0006295712664723396,0.024660872295498848,-0.1393246054649353
1690841340756911900,7.285911865234375,-0.006738063879311085,-0.03785550221800804,-0.1254466027021408
1690841340766953000,7.295952880859375,-0.012690228410065174,-0.06894045323133469,-0.04111601039767265
1690841340776993000,7.305992919921875,-0.014342454262077808,-0.07219243794679642,0.011682755313813686
1690841340787032800,7.31603271484375,-0.010721886530518532,-0.057364221662282944,0.05717860162258148
1690841340797073000,7.326072998046875,-0.004467186518013477,-0.027041470631957054,0.09284631907939911
1690841340807114000,7.336114013671875,0.0020061591640114784,0.002251968951895833,0.09756197780370712
1690841340817154000,7.346154052734375,0.001157143502496183,0.024034762755036354,0.09593052417039871
1690841340827193900,7.35619384765625,0.0018306568963453174,0.04525003582239151,0.07837283611297607
1690841340837235000,7.36623486328125,-0.0017630126094445586,0.047325436025857925,0.049372076988220215
1690841340847275000,7.37627490234375,-0.005320996046066284,0.03887869045138359,0.02087332308292389
1690841340857315000,7.386315185546875,-0.011392204090952873,0.0187824759632349,-0.018937205895781517
1690841340867355000,7.39635498046875,-0.01062388252466917,-0.00740332156419754,-0.06233421340584755
1690841340877426000,7.406426025390625,-0.008187622763216496,-0.029413549229502678,-0.08603022247552872
1690841340887466000,7.416466064453125,-0.003894074121490121,-0.03747333958745003,-0.10994300991296768
1690841340897507000,7.426507080078125,-0.0003837615076918155,-0.03479393199086189,-0.11524456739425659
1690841340907547000,7.436546875,-0.00004207794336252846,-0.02268374152481556,-0.10214314609766006
1690841340917587000,7.4465869140625,-0.001187237212434411,-0.0055803875438869,-0.091575987637043
1690841340927628000,7.4566279296875,-0.004122573416680098,0.004364122170954943,-0.06547994166612625
1690841340937667800,7.466667724609375,-0.004866926930844784,0.018577411770820618,-0.03705282509326935
1690841340947708000,7.4767080078125,-0.005762814078480005,0.023998010903596878,-0.012329903431236744
1690841340957748000,7.486748046875,-0.007066165097057819,0.026878751814365387,0.021745508536696434
1690841340967789000,7.4967890625,-0.007849400863051414,0.018704712390899658,0.03953436017036438
1690841340977828900,7.506828857421875,-0.005064799915999174,0.004216050263494253,0.04246943071484566
1690841340987900000,7.51689990234375,-0.004003529902547598,-0.008724515326321125,0.04952094703912735
1690841340997940000,7.52693994140625,-0.004549478180706501,-0.024808943271636963,0.03534121438860893
1690841341007979800,7.536979736328125,-0.0038687740452587605,-0.03074060194194317,0.021163875237107277
1690841341018020900,7.547020751953125,-0.0043295007199049,-0.02767743356525898,0.005549228750169277
1690841341028061000,7.55706103515625,-0.005459479987621307,-0.020197946578264236,-0.022534070536494255
1690841341038101000,7.56710107421875,-0.004779575392603874,-0.012376242317259312,-0.04255864396691322
1690841341048142000,7.57714208984375,-0.007195062469691038,0.0024429175537079573,-0.05236893147230148
1690841341058182000,7.587181884765625,-0.005204349290579557,0.01393126230686903,-0.06908559054136276
1690841341068222000,7.597221923828125,-0.006382798310369253,0.019476495683193207,-0.06378883123397827
1690841341078261800,7.60726171875,-0.0046509443782269955,0.021578527987003326,-0.06889597326517105
1690841341088302800,7.617302734375,-0.005123921670019627,0.016211194917559624,-0.061234328895807266
1690841341098343000,7.627343017578125,-0.00421205535531044,0.0073236930184066296,-0.04150243476033211
1690841341108414000,7.6374140625,-0.0035960664972662926,-0.0006532734259963036,-0.031432490795850754
1690841341118454000,7.6474541015625,-0.003935087006539106,-0.01068034116178751,-0.013818077743053436
1690841341128494000,7.657494140625,-0.0041457428596913815,-0.01522715575993061,0.005169461946934462
1690841341138535000,7.667534912109375,-0.003942010924220085,-0.01564500667154789,0.007219030521810055
1690841341148575000,7.677574951171875,-0.005851497408002615,-0.017491376027464867,0.010176205076277256
1690841341158614800,7.68761474609375,-0.004887433256953955,-0.010304036550223827,0.018185928463935852
1690841341168654800,7.69765478515625,-0.005759884603321552,-0.00401524780318141,0.01239515095949173
1690841341178696000,7.707696044921875,-0.0049127331003546715,-0.0018066884949803352,0.00805979035794735
1690841341188736000,7.717736083984375,-0.0049191247671842575,0.006056561134755611,-0.0062517705373466015
1690841341198776000,7.727776123046875,-0.005440305452793837,0.003704190719872713,-0.024989772588014603
1690841341208817000,7.73781689453125,-0.006584133021533489,0.003918841481208801,-0.03346554934978485
1690841341218887000,7.747886962890625,-0.005161206237971783,0.00026791400159709156,-0.042284075170755386
1690841341228927700,7.757927734375,-0.004064782522618771,0.0019566244445741177,-0.04854969307780266
1690841341238967800,7.7679677734375,-0.005426457151770592,-0.0017691379180178046,-0.044684115797281265
1690841341249007900,7.7780078125,-0.005575061310082674,-0.002995789982378483,-0.04938645660877228
1690841341259049000,7.788049072265625,-0.005572131834924221,-0.0046240463852882385,-0.045398373156785965
1690841341269089000,7.798089111328125,-0.004508997779339552,-0.004679440520703793,-0.02828383632004261
1690841341279129000,7.808129150390625,-0.004540956113487482,-0.00239151855930686,-0.02430640533566475
1690841341289169000,7.8181689453125,-0.004927380476146936,-0.0029851372819393873,-0.011962386779487133
1690841341299209700,7.828209716796875,-0.005402222275733948,0.00016937704640440643,-0.0017060210229828954
1690841341309255700,7.838255615234375,-0.0057558901607990265,-0.0009531453251838684,-0.003486077766865492
1690841341319295700,7.848295654296875,-0.004041346721351147,-0.0036163064651191235,0.0005382248782552779
1690841341329335800,7.858335693359375,-0.004730572924017906,-0.00159443449229002,0.0019124159589409828
1690841341339406800,7.86840673828125,-0.004012318328022957,-0.0022056300658732653,-0.006573746912181377
1690841341349447700,7.87844775390625,-0.004190217703580856,-0.0044440170750021935,-0.01233336515724659
1690841341359487700,7.88848779296875,-0.005560147576034069,-0.0031007183715701103,-0.02154231071472168
1690841341369527800,7.89852783203125,-0.0037819549906998873,-0.005587045568972826,-0.03093021921813488
1690841341379567600,7.908567626953125,-0.0052051483653485775,-0.003287672298029065,-0.02859009988605976
1690841341389608700,7.918608642578125,-0.003853061469271779,-0.0010538127971813083,-0.03497263044118881
1690841341399648800,7.928648681640625,-0.0037824877072125673,-0.0007387608638964593,-0.03430258110165596
1690841341409688800,7.938688720703125,-0.0037763623986393213,0.0031963258516043425,-0.03695162758231163
1690841341419729700,7.948729736328125,-0.00293293921276927,0.00037497308221645653,-0.036082103848457336
1690841341429769700,7.958769775390625,-0.003718571737408638,0.0007291734800674021,-0.030492128804326057
1690841341439809800,7.968809814453125,-0.005373193882405758,0.0001901497016660869,-0.02129916287958622
1690841341449880600,7.978880615234375,-0.004068511072546244,-0.002954510971903801,-0.019295133650302887
1690841341459920600,7.988920654296875,-0.005431517027318478,-0.0017422399250790477,-0.008471515029668808
1690841341469960700,7.998960693359375,-0.005801163613796234,-0.004854143597185612,-0.008355667814612389
1690841341480001800,8.009001708984375,-0.004050401505082846,-0.004962267819792032,-0.014212758280336857
1690841341490041900,8.019041748046876,-0.005771602503955364,-0.00629012007266283,-0.004368915688246489
1690841341500081700,8.02908154296875,-0.004485828336328268,-0.00424188282340765,-0.008133294060826302
1690841341510122800,8.039122802734376,-0.002335592173039913,-0.003245328087359667,-0.014152037911117077
1690841341520162600,8.04916259765625,-0.0038839541375637054,-0.0008458199445158243,-0.017048757523298264
1690841341530202600,8.05920263671875,-0.004264253657311201,-0.0009121326729655266,-0.022062158212065697
1690841341540242700,8.06924267578125,-0.004462658893316984,-0.002490321872755885,-0.02828756347298622
1690841341550283800,8.07928369140625,-0.0049588060937821865,0.0008791094878688455,-0.025235848501324654
1690841341560354800,8.089354736328126,-0.005327919963747263,-0.00036272252327762544,-0.031135281547904015
1690841341570395000,8.099394775390625,-0.003932423423975706,-0.000857005245052278,-0.026761572808027267
1690841341580434700,8.1094345703125,-0.0036477316170930862,0.0001584580895723775,-0.0288819819688797
1690841341590474500,8.119474609375,-0.004564658273011446,-0.0012695288751274347,-0.026083532720804214
1690841341600515600,8.129515625,-0.0037710361648350954,-0.0036970002111047506,-0.019153188914060593
1690841341610555600,8.1395556640625,-0.005308479070663452,-0.001395230065099895,-0.01575712487101555
1690841341620595700,8.149595703125,-0.004347610287368298,-0.004825115203857422,-0.014533668756484985
1690841341630636800,8.15963671875,-0.005564408842474222,-0.001996571896597743,-0.010435330681502819
1690841341640676900,8.1696767578125,-0.0038511971943080425,-0.003484213724732399,-0.017134778201580048
1690841341650716700,8.179716552734375,-0.0029976540245115757,-0.0037262949626892805,-0.013431652449071407
1690841341660756500,8.189756591796876,-0.00418462511152029,-0.0009150621481239796,-0.011027883738279343
1690841341670827500,8.19982763671875,-0.004923119675368071,-0.0011507519520819187,-0.01817234605550766
1690841341680867600,8.20986767578125,-0.0051992894150316715,-0.003335076617076993,-0.020532971248030663
1690841341690908700,8.21990869140625,-0.003494866192340851,0.0002790992730297148,-0.02437910996377468
1690841341700948700,8.22994873046875,-0.005730057135224342,-0.0010495517635717988,-0.030190393328666687
1690841341710988800,8.23998876953125,-0.004481301177293062,-0.0016567525453865528,-0.025075525045394897
1690841341721029600,8.250029541015625,-0.00541260838508606,0.002400306984782219,-0.021887455135583878
1690841341731069700,8.260069580078126,-0.00504029868170619,-0.001698564155958593,-0.02708168514072895
1690841341741109500,8.270109619140625,-0.004351871553808451,-0.0017872473690658808,-0.02371598221361637
1690841341751149600,8.280149658203126,-0.0032493227627128363,-0.0027835359796881676,-0.027108849957585335
1690841341761190700,8.290190673828125,-0.0057526943273842335,-0.002360359765589237,-0.022783609107136726
1690841341771230700,8.300230712890626,-0.004837365821003914,-0.0037209687288850546,-0.019947875291109085
1690841341781270800,8.310270751953125,-0.005129780620336533,-0.004023769870400429,-0.02148931287229061
1690841341791341800,8.320341796875,-0.005630188621580601,-0.0031649006996303797,-0.01565725728869438
1690841341801381600,8.330381591796876,-0.005166532471776009,-0.002654106356203556,-0.0130319120362401
1690841341811422500,8.34042236328125,-0.003739877138286829,-0.0030341395176947117,-0.016752082854509354
1690841341821462500,8.350462646484376,-0.004888232331722975,-0.002659166231751442,-0.018145447596907616
1690841341831502600,8.360502685546875,-0.005535912699997425,-0.001945705502294004,-0.018997127190232277
1690841341841543700,8.370543701171876,-0.004341219086199999,-0.0029142971616238356,-0.026676084846258163
1690841341851583700,8.380583740234375,-0.004820055328309536,-0.0025680861435830593,-0.021204620599746704
1690841341861623800,8.390623779296876,-0.005723399575799704,-0.0010966897243633866,-0.02195829525589943
1690841341871663900,8.400663818359375,-0.0026791400741785765,-0.004634166602045298,-0.032950494438409805
1690841341881704700,8.41070458984375,-0.005243764258921146,-0.0015744607662782073,-0.015504390932619572
1690841341891744500,8.42074462890625,-0.004423776641488075,-0.0010833739070221782,-0.022416092455387115
1690841341901815600,8.430815673828125,-0.004791026934981346,-0.0032735576387494802,-0.026685141026973724
1690841341911855600,8.440855712890626,-0.004101268015801907,-0.002671683207154274,-0.017707090824842453
1690841341921895700,8.450895751953125,-0.00387330143712461,-0.003165699541568756,-0.023324497044086456
1690841341931936800,8.460936767578126,-0.004433896858245134,-0.002712429501116276,-0.019889818504452705
1690841341941976800,8.470976806640625,-0.005450159311294556,-0.0038093857001513243,-0.017479658126831055
1690841341952016600,8.4810166015625,-0.004531901329755783,-0.0035923379473388195,-0.016640761867165565
1690841341962056700,8.491056640625,-0.005683984607458115,-0.005933256354182959,-0.019666379317641258
1690841341972097500,8.50109765625,-0.005305549595504999,-0.0018410432385280728,-0.01637631095945835
1690841341982137600,8.5111376953125,-0.002695651724934578,-0.0010343717876821756,-0.025784725323319435
1690841341992177700,8.521177734375,-0.005241633392870426,-0.001067927572876215,-0.015439409762620926
1690841342002218800,8.53121875,-0.004815794061869383,-0.003745736088603735,-0.017364343628287315
1690841342012288800,8.541288818359375,-0.005057609174400568,-0.0007619303651154041,-0.021278657019138336
1690841342022329900,8.551329833984376,-0.005105013493448496,-0.0017744642682373524,-0.02070740796625614
1690841342032369700,8.56136962890625,-0.005106344819068909,-0.0010399643797427416,-0.023814784362912178
1690841342042409700,8.57140966796875,-0.0052083441987633705,-0.003846403444185853,-0.024439295753836632
1690841342052449800,8.58144970703125,-0.004658934194594622,-0.0006908240029588342,-0.011566108092665672
1690841342062490600,8.59149072265625,-0.004199006129056215,-0.0038453382439911366,-0.026437733322381973
1690841342072530700,8.60153076171875,-0.004237355664372444,-0.002528937766328454,-0.02237508073449135
1690841342082570800,8.61157080078125,-0.003965446725487709,-0.0016538230702280998,-0.019778763875365257
1690841342092611800,8.62161181640625,-0.003882888937368989,-0.0031848743092268705,-0.027825772762298584
1690841342102651600,8.631651611328126,-0.005079979542642832,-0.001139300293289125,-0.01594194769859314
1690841342112691700,8.641691650390625,-0.006305300164967775,0.0014008227735757828,-0.011256382800638676
1690841342122762800,8.6517626953125,-0.00526693370193243,-0.001383512164466083,-0.024644359946250916
1690841342132802800,8.661802734375,-0.005563343409448862,-0.001939313835464418,-0.016028234735131264
1690841342142843600,8.67184375,-0.003469033632427454,-0.0012913667596876621,-0.0184013769030571
1690841342152883700,8.6818837890625,-0.004318848252296448,-0.0022389194928109646,-0.023139940574765205
1690841342162923800,8.691923828125,-0.005813680589199066,-0.002269545802846551,-0.010115484707057476
1690841342172963600,8.701963623046876,-0.003997937310487032,-0.003230680711567402,-0.02333728037774563
1690841342183004700,8.712004638671875,-0.004223507363349199,-0.002928145695477724,-0.024153007194399834
1690841342193044700,8.722044677734376,-0.0037201696541160345,-0.003760383464396,-0.02299479767680168
1690841342203084800,8.732084716796875,-0.007377754896879196,-0.002724680118262768,-0.025260882452130318
1690841342213125600,8.742125732421876,-0.00478303711861372,-0.004420847166329622,-0.020893298089504242
1690841342223165700,8.752165771484375,-0.0051801144145429134,0.0023987090680748224,-0.01281806081533432
1690841342233236700,8.76223681640625,-0.0041334922425448895,0.0002913498319685459,-0.01985519751906395
1690841342243276500,8.772276611328126,-0.003172357566654682,-0.0014365090755745769,-0.018431205302476883
1690841342253316600,8.782316650390625,-0.003575559938326478,0.0002031991898547858,-0.016934508457779884
1690841342263356700,8.792356689453126,-0.004526042379438877,-0.004414988216012716,-0.02263180911540985
1690841342273397800,8.802397705078125,-0.005922870244830847,-0.00192200334277004,-0.010702445171773434
1690841342283437800,8.812437744140626,-0.005042429082095623,-0.0014056164072826505,-0.01913401298224926
1690841342293478000,8.822477783203125,-0.0046421559527516365,-0.005064267199486494,-0.02829049341380596
1690841342303518700,8.832518798828126,-0.005075985100120306,-0.003224555402994156,-0.020140955224633217
1690841342313560000,8.84256005859375,-0.0028695559594780207,-0.0004037352045997977,-0.02209198661148548
1690841342323600100,8.85260009765625,-0.005188902840018272,-0.004887433256953955,-0.02117985300719738
1690841342333640200,8.86264013671875,-0.005602225661277771,0.0025150892324745655,-0.011403389275074005
1690841342343711200,8.872711181640625,-0.004147074185311794,-0.0006314354832284153,-0.025201493874192238
1690841342353752000,8.882751953125,-0.004298608284443617,-0.0030919299460947514,-0.02256256714463234
1690841342363792100,8.892792236328125,-0.006323143374174833,-0.00072597770486027,-0.01582077518105507
1690841342373832000,8.90283203125,-0.004035221878439188,-0.0029324067290872335,-0.022245384752750397
1690841342383872000,8.9128720703125,-0.006098905112594366,-0.004916728008538485,-0.017672736197710037
1690841342393913000,8.9229130859375,-0.004039216320961714,-0.0036677054595202208,-0.018763834610581398
1690841342403953200,8.932953125,-0.003885818412527442,-0.005810218397527933,-0.02978958748281002
1690841342413993200,8.9429931640625,-0.00430233683437109,-0.002275937469676137,-0.018318021669983864
1690841342424034000,8.953033935546875,-0.00535348616540432,0.0002665824140422046,-0.01913108304142952
1690841342434074000,8.96307421875,-0.005315935704857111,0.000818123109638691,-0.021318605169653893
1690841342444114000,8.973114013671875,-0.005046157632023096,-0.002695651724934578,-0.010549047030508518
1690841342454185000,8.98318505859375,-0.003694869577884674,-0.00032650353386998177,-0.023571904748678207
1690841342464225000,8.99322509765625,-0.004697815980762243,-0.0021065603941679,-0.021867481991648674
1690841342474265000,9.00326513671875,-0.004432831425219774,-0.0016365124611184,-0.015225292183458805
1690841342484306200,9.01330615234375,-0.002915628720074892,-0.0017835189355537295,-0.01901017688214779
1690841342494346200,9.02334619140625,-0.005453355144709349,-0.002749181119725108,-0.01617896929383278
1690841342504386300,9.03338623046875,-0.0049012815579771996,-0.000050866376113845035,-0.013555755838751793
1690841342514427100,9.04342724609375,-0.0057098171673715115,-0.004264253657311201,-0.030056968331336975
1690841342524467000,9.053467041015624,-0.005697567015886307,-0.0035571842454373837,-0.018011225387454033
1690841342534507000,9.063507080078125,-0.005114867351949215,-0.002301770029589534,-0.019455457106232643
1690841342544547000,9.073547119140626,-0.005761216394603252,-0.004186222795397043,-0.023909060284495354
1690841342554588200,9.083588134765625,-0.005665076430886984,0.00009693906031316146,-0.012207131832838058
1690841342564659200,9.0936591796875,-0.003879693103954196,0.000978711643256247,-0.021886389702558517
1690841342574699300,9.10369921875,-0.005538043566048145,-0.0037609159480780363,-0.025356488302350044
1690841342584739000,9.113739013671875,-0.004749747924506664,-0.0000327568814100232,-0.015249792486429214
1690841342594779100,9.123779052734376,-0.006789196282625198,-0.001996305538341403,-0.019462646916508675
1690841342604820000,9.133820068359375,-0.003920971881598234,-0.0029923277907073498,-0.019182749092578888
1690841342614860000,9.143860107421874,-0.004431233741343021,-0.004668254870921373,-0.013914483599364758
1690841342624900000,9.153900146484375,-0.003472495824098587,-0.004018443636596203,-0.03007987141609192
1690841342634941200,9.163941162109374,-0.0054184673354029655,-0.003183276392519474,-0.02033243514597416
1690841342644981200,9.173981201171875,-0.004502606578171253,-0.001787779969163239,-0.017221864312887192
1690841342655021300,9.184021240234374,-0.004029362928122282,-0.0020327907986938953,-0.021135112270712852
1690841342665061000,9.19406103515625,-0.006145510356873274,-0.0008407599525526166,-0.01417574007064104
1690841342675132200,9.204132080078125,-0.006311425473541021,0.0005733785801567137,-0.01966904290020466
1690841342685172000,9.214171875,-0.004640558268874884,-0.0037199032958596945,-0.02906920202076435
1690841342695213000,9.224213134765625,-0.004719654098153114,-0.0024594292044639587,-0.015993613749742508
1690841342705253000,9.234253173828124,-0.00449754623696208,-0.0012514194240793586,-0.019217103719711304
1690841342715293200,9.244293212890625,-0.004991296678781509,-0.0019244002178311348,-0.022517293691635132
1690841342725334300,9.254334228515624,-0.00437956815585494,-0.0012844426091760397,-0.012131497263908386
1690841342735374000,9.2643740234375,-0.004174238536506891,-0.003311108099296689,-0.026559971272945404
1690841342745414100,9.2744140625,-0.0065172878094017506,-0.004893558565527201,-0.022115688771009445
1690841342755454000,9.284453857421875,-0.006668555550277233,-0.0008849684381857514,-0.013467605225741863
1690841342765495000,9.2944951171875,-0.0037918086163699627,-0.0030690268613398075,-0.021220067515969276
1690841342775535000,9.30453515625,-0.0052352421917021275,-0.0010892328573390841,-0.01780882477760315
1690841342785606100,9.314606201171875,-0.0035246936604380608,-0.0012892362428829074,-0.01321300771087408
1690841342795646200,9.324646240234374,-0.0052203284576535225,-0.005844040773808956,-0.030283071100711823
1690841342805686000,9.33468603515625,-0.004335360135883093,-0.003623496973887086,-0.015178686939179897
1690841342815727000,9.34472705078125,-0.003938016481697559,-0.0024525050539523363,-0.01900724694132805
1690841342825767200,9.35476708984375,-0.004851214122027159,-0.00370099488645792,-0.024043017998337746
1690841342835807000,9.364806884765626,-0.0065071675926446915,-0.0011720572365447879,-0.013799968175590038
1690841342845847000,9.374846923828125,-0.004141481593251228,-0.002520149340853095,-0.020021112635731697
1690841342855888100,9.38488818359375,-0.0015757924411445856,-0.004241084214299917,-0.026015354320406914
1690841342865928200,9.39492822265625,-0.005363872740417719,-0.0025680861435830593,-0.01245081052184105
1690841342875968000,9.404968017578126,-0.004207794554531574,0.00028628981090150774,-0.020559336990118027
1690841342886009000,9.415009033203125,-0.005431517027318478,-0.001454618526622653,-0.02050847001373768
1690841342896079000,9.4250791015625,-0.0049550775438547134,0.00018908442871179432,-0.01474352553486824
1690841342906120000,9.435119873046874,-0.004773450084030628,-0.0031646343413740396,-0.03039625473320484
1690841342916160000,9.445159912109375,-0.005634716246277094,-0.003959321416914463,-0.021509818732738495
1690841342926200000,9.455199951171876,-0.004584099166095257,-0.0014202637830749154,-0.01708337850868702
1690841342936241200,9.4652412109375,-0.004886367823928595,-0.003478354774415493,-0.023303458467125893
1690841342946281200,9.47528125,-0.005392901133745909,-0.0010554107138887048,-0.01793931983411312
1690841342956321000,9.485321044921875,-0.004227235447615385,0.0016016251174733043,-0.01890365034341812
1690841342966361000,9.495361083984376,-0.0065042381174862385,-0.0025925873778760433,-0.020236030220985413
1690841342976402000,9.50540185546875,-0.00472551304847002,-0.0020903151016682386,-0.014211959205567837
1690841342986442000,9.51544189453125,-0.004863198380917311,-0.002558765234425664,-0.018262892961502075
1690841342996513000,9.525512939453124,-0.004411792848259211,-0.0009677927591837943,-0.02177347242832184
1690841343006553000,9.535552978515625,-0.005504487548023462,0.0004159857635386288,-0.013824203051626682
1690841343016593000,9.545593017578126,-0.0038160434924066067,-0.0031531827989965677,-0.027337081730365753
1690841343026634000,9.555634033203125,-0.003867975203320384,-0.003549727378413081,-0.023367108777165413
1690841343036674000,9.565674072265624,-0.00683233980089426,-0.00449807895347476,-0.016438893973827362
1690841343046714000,9.575714111328125,-0.0046392264775931835,-0.0027691549621522427,-0.02377270720899105
1690841343056754200,9.585754150390626,-0.005012601613998413,-0.001990446588024497,-0.01804691180586815
1690841343066795000,9.595794921875,-0.0062794676050543785,-0.0006178533658385277,-0.016468456014990807
1690841343076835000,9.6058349609375,-0.0036602485924959183,-0.0022831279784440994,-0.029871080070734024
1690841343086875000,9.615875,-0.0038951393216848373,0.001883121207356453,-0.018738001585006714
1690841343096916000,9.625916015625,-0.0057103498838841915,-0.0014777880860492587,-0.017960891127586365
1690841343106986000,9.635986083984376,-0.006298109423369169,-0.003064765827730298,-0.02401771768927574
1690841343117027000,9.646027099609375,-0.004846154246479273,-0.00006125270738266408,-0.01732759177684784
1690841343127067100,9.656067138671874,-0.0029403960797935724,-0.0009629990672692657,-0.02383689023554325
1690841343137107200,9.666107177734375,-0.004679972771555185,-0.003055977402254939,-0.026881149038672447
1690841343147148000,9.67614794921875,-0.004850415047258139,-0.0008940231637097895,-0.016207465901970863
1690841343157188000,9.68618798828125,-0.00484189298003912,-0.0018397116800770164,-0.020967332646250725
1690841343167228000,9.696227783203126,-0.004858937580138445,-0.0015132081462070346,-0.022038722410798073
1690841343177268000,9.70626806640625,-0.005292233545333147,0.00011398329661460593,-0.0158881526440382
1690841343187309000,9.71630908203125,-0.005322593729943037,-0.00006391586794052273,-0.028424717485904694
1690841343197349000,9.72634912109375,-0.006686398293823004,-0.0028091021813452244,-0.018973425030708313
1690841343207389200,9.73638916015625,-0.005681055132299662,-0.0033870083279907703,-0.021517276763916016
1690841343217460200,9.746460205078124,-0.005072256550192833,-0.001975799212232232,-0.02335246093571186
1690841343227500000,9.7565,-0.004996090196073055,-0.002287389012053609,-0.018668759614229202
1690841343237540900,9.766540771484374,-0.00395692465826869,-0.001204547705128789,-0.021140173077583313
1690841343247581000,9.776580810546875,-0.005392102058976889,-0.003884752979502082,-0.030048713088035583
1690841343257621000,9.78662109375,-0.005345763172954321,-0.0018391790799796581,-0.012348279356956482
1690841343267661000,9.7966611328125,-0.004914863966405392,-0.002520415699109435,-0.017582455649971962
1690841343277702100,9.8067021484375,-0.005066397599875927,-0.0027134947013109922,-0.02171248570084572
1690841343287742200,9.8167421875,-0.004591822158545256,-0.0016082830261439085,-0.015839949250221252
1690841343297782300,9.8267822265625,-0.004538026638329029,-0.003035471076145768,-0.02701989933848381
1690841343307823000,9.836822998046875,-0.005668005906045437,-0.004697283264249563,-0.021519407629966736
1690841343317853700,9.846853759765626,-0.005208876915276051,-0.0014205301413312554,-0.013895842246711254
1690841343327924500,9.856924560546876,-0.004295945167541504,-0.0023065637797117233,-0.02377696894109249
1690841343337964500,9.866964599609375,-0.004299141000956297,-0.004763596225529909,-0.020619791001081467
1690841343348004600,9.877004638671876,-0.003817375050857663,-0.0027348001021891832,-0.015163772739470005
1690841343358045700,9.887045654296875,-0.0037915424909442663,-0.0017156084068119526,-0.028502747416496277
1690841343368085500,9.89708544921875,-0.0051811798475682735,-0.0022122878581285477,-0.014523282647132874
1690841343378125600,9.90712548828125,-0.0028394623659551144,-0.00256382510997355,-0.01709136925637722
1690841343388165400,9.917165283203126,-0.006425675004720688,-0.0018932411912828684,-0.023852335289120674
1690841343398206500,9.92720654296875,-0.004363589454442263,0.002426938619464636,-0.01743944361805916
1690841343408246500,9.93724658203125,-0.005072522908449173,-0.002612028270959854,-0.024030501022934914
1690841343418286600,9.94728662109375,-0.005095159634947777,-0.0029031119775027037,-0.026324015110731125
1690841343428327700,9.95732763671875,-0.006148706190288067,-0.002329467097297311,-0.013058277778327465
1690841343438397700,9.967397705078126,-0.004941495135426521,-0.0006199838826432824,-0.023873109370470047
1690841343448438500,9.9774384765625,-0.005346562247723341,-0.002660498023033142,-0.02136973664164543
1690841343458478600,9.987478515625,-0.006127933505922556,-0.0026671558152884245,-0.015671903267502785
1690841343468518400,9.997518310546875,-0.002987001556903124,-0.003596332622691989,-0.029827937483787537
1690841343478558500,10.007558349609376,-0.005344165489077568,-0.004815527703613043,-0.017472200095653534
1690841343488599600,10.017599609375,-0.005744970869272947,0.0006657902849838138,-0.015047126449644566
1690841343498639600,10.0276396484375,-0.0036538569256663322,-0.0024802018888294697,-0.02485474944114685
1690841343508679700,10.0376796875,-0.005370264407247305,-0.0018439727136865258,-0.0188386682420969
1690841343518720500,10.047720458984376,-0.004323908127844334,-0.0007123955874703825,-0.01997131109237671
1690841343528760600,10.057760498046875,-0.0030032468494027853,-0.0020271982066333294,-0.028972262516617775
1690841343538831400,10.067831298828125,-0.006749249063432217,-0.0031763522420078516,-0.011694206856191158
1690841343548871400,10.077871337890626,-0.0038743666373193264,-0.0004961469094268978,-0.019299395382404327
1690841343558911500,10.087911376953125,-0.00475454144179821,-0.004364654887467623,-0.023086942732334137
1690841343568952600,10.09795263671875,-0.004500742070376873,-0.0029023129027336836,-0.017956629395484924
1690841343578992600,10.10799267578125,-0.005310343112796545,-0.0011078750248998404,-0.02714639902114868
1690841343589032700,10.11803271484375,-0.00640916358679533,-0.0018010957865044475,-0.020858410745859146
1690841343599072800,10.12807275390625,-0.006870689336210489,-0.0012183962389826775,-0.012092349119484425
1690841343609113600,10.138113525390626,-0.0057047572918236256,-0.0038874163292348385,-0.02328667975962162
1690841343619153400,10.1481533203125,-0.0038277613930404186,-0.0018255969043821096,-0.020808875560760498
1690841343629193500,10.158193359375,-0.004286091309040785,-0.0011443602852523327,-0.020712202414870262
1690841343639233500,10.168233642578125,-0.003811249742284417,-0.004203000571578741,-0.029521141201257706
1690841343649304600,10.1783046875,-0.005583583377301693,-0.0021843246649950743,-0.016937971115112305
1690841343659345700,10.188345703125,-0.004972654394805431,0.0003475425182841718,-0.01666819304227829
1690841343669385700,10.1983857421875,-0.004336158744990826,-0.0029758161399513483,-0.024715732783079147
1690841343679425500,10.208425537109376,-0.005230714567005634,-0.004740693140774965,-0.018495120108127594
1690841343689465600,10.218465576171875,-0.005652293097227812,-0.003026682650670409,-0.02053057588636875
1690841343699506400,10.22850634765625,-0.003763579297810793,-0.00436119269579649,-0.025499233976006508
1690841343709546500,10.23854638671875,-0.004905010107904673,-0.0015374429058283567,-0.010757306590676308
1690841343719586600,10.248586669921876,-0.004933239426463842,0.00023968449386302382,-0.02214924432337284
1690841343729627600,10.258627685546875,-0.00475374236702919,-0.000925448490306735,-0.024504277855157852
1690841343739667700,10.268667724609376,-0.004200337454676628,-0.0007896272582001984,-0.017284180968999863
1690841343749707500,10.27870751953125,-0.004245611373335123,-0.0025837989524006844,-0.020719924941658974
1690841343759778600,10.288778564453125,-0.003358512418344617,-0.0036786242853850126,-0.019576631486415863
1690841343769818600,10.298818603515626,-0.004846154246479273,-0.00008868326403899118,-0.012655341066420078
1690841343779858700,10.308858642578125,-0.0035835495218634605,-0.0038924762047827244,-0.025249164551496506
1690841343789899500,10.3188994140625,-0.0044232443906366825,-0.0009576727170497179,-0.018625082448124886
1690841343799939600,10.328939697265625,-0.0041396175511181355,-0.0020746025256812572,-0.02081819623708725
1690841343809979600,10.338979736328126,-0.004297542851418257,0.0009624664089642465,-0.02045787125825882
1690841343820020700,10.349020751953125,-0.005564941558986902,-0.0021584921050816774,-0.010524812154471874
1690841343830060500,10.359060546875,-0.003817375050857663,0.0002567287301644683,-0.018202705308794975
1690841343840100600,10.3691005859375,-0.004269579891115427,-0.0022865901701152325,-0.024386033415794373
1690841343850140700,10.379140625,-0.005139368120580912,-0.005323126446455717,-0.019584354013204575
1690841343860181500,10.389181396484375,-0.0038900794461369514,-0.003619768423959613,-0.024231569841504097
1690841343870252500,10.39925244140625,-0.003976631909608841,-0.0025297366082668304,-0.021641645580530167
1690841343880292600,10.409292724609376,-0.005764412228018045,-0.0012279836228117347,-0.010991131886839867
1690841343890332400,10.41933251953125,-0.005037102848291397,-0.0024176177103072405,-0.024540496990084648
1690841343900372500,10.42937255859375,-0.0049196574836969376,-0.0020932445768266916,-0.021269069984555244
1690841343910413600,10.43941357421875,-0.004984905011951923,-0.0019089538836851716,-0.019642144441604614
1690841343920453600,10.44945361328125,-0.005337507463991642,-0.0020607539918273687,-0.0271914079785347
1690841343930493700,10.45949365234375,-0.004309793468564749,-0.0030892668291926384,-0.01979820616543293
1690841343940534500,10.469534423828126,-0.004491420928388834,0.0001001348573481664,-0.01655500754714012
1690841343950574600,10.47957470703125,-0.004277036525309086,-0.0038043255917727947,-0.02642521634697914
1690841343960614700,10.48961474609375,-0.004607801325619221,-0.001398159540258348,-0.01769697107374668
1690841343970685400,10.499685546875,-0.0059993029572069645,-0.0008713863207958639,-0.02118624560534954
1690841343980725500,10.5097255859375,-0.004343615844845772,-0.003308977698907256,-0.0247237216681242
1690841343990765600,10.519765625,-0.003942010924220085,-0.0031734227668493986,-0.01884452812373638
1690841344000806700,10.529806640625,-0.005250155925750732,-0.0011145329335704446,-0.023492276668548584
1690841344010846700,10.5398466796875,-0.00407623453065753,-0.0025923210196197033,-0.023933561518788338
1690841344020886800,10.54988671875,-0.0034844798501580954,-0.0007643272401764989,-0.017792578786611557
1690841344030927600,10.559927734375,-0.0044259075075387955,-0.0012916331179440022,-0.019452793523669243
1690841344040967400,10.569967529296875,-0.0038029940333217382,-0.004778243601322174,-0.02190743014216423
1690841344051007500,10.580007568359376,-0.004514058120548725,-0.0026072347536683083,-0.02177533693611622
1690841344061047600,10.590047607421875,-0.0046999468468129635,-0.00021172130072955042,-0.02076067216694355
1690841344071088600,10.600088623046876,-0.004436293616890907,-0.001930791768245399,-0.020366789773106575
1690841344081159700,10.61015966796875,-0.0029345371294766665,-0.0035361452028155327,-0.0181766077876091
1690841344091199700,10.62019970703125,-0.002871153876185417,-0.004151335451751947,-0.024084031581878662
1690841344101239800,10.63023974609375,-0.0057436395436525345,-0.00224930583499372,-0.013245231471955776
1690841344111279400,10.640279296875,-0.005776662845164537,-0.0011576761025935411,-0.01944693550467491
1690841344121320400,10.650320556640626,-0.004630704410374165,-0.003314303932711482,-0.024582840502262115
1690841344131360500,10.660360595703125,-0.007872836664319038,-0.001327053178101778,-0.016703613102436066
1690841344141400600,10.670400634765626,-0.004478638060390949,-0.003703924361616373,-0.021042434498667717
1690841344151441700,10.680441650390625,-0.0054605454206466675,-0.00381471193395555,-0.020917266607284546
1690841344161481700,10.690481689453126,-0.004178233444690704,-0.0020125508308410645,-0.020608605816960335
1690841344171521500,10.700521484375,-0.005677859298884869,-0.0026706180069595575,-0.020372116938233376
1690841344181561300,10.710561279296876,-0.00672315014526248,-0.003138801548629999,-0.019587017595767975
1690841344191632400,10.72063232421875,-0.00523577444255352,-0.0029385320376604795,-0.02064269408583641
1690841344201672400,10.73067236328125,-0.0038895467296242714,-0.0021608888637274504,-0.02418389916419983
1690841344211713500,10.740713623046876,-0.0034107104875147343,-0.002189651131629944,-0.013994378969073296
1690841344221753600,10.750753662109375,-0.004054396413266659,-0.0012231898726895452,-0.015180816873908043
1690841344231793700,10.760793701171876,-0.003707652911543846,-0.0010197244118899107,-0.019761720672249794
1690841344241834800,10.770834716796875,-0.003206445835530758,-0.0019286612514406443,-0.01858966238796711
1690841344251874600,10.78087451171875,-0.005770271178334951,-0.0016713999211788177,-0.01894945651292801
1690841344261914400,10.790914306640625,-0.004110589157789946,-0.003989681601524353,-0.0244882982224226
1690841344271954400,10.800954345703126,-0.005282912403345108,-0.0009739180095493793,-0.011008708737790585
1690841344281995500,10.81099560546875,-0.003858920419588685,-0.0011092065833508968,-0.022908510640263557
1690841344292066600,10.821066650390625,-0.004741491749882698,-0.003430417738854885,-0.020969996228814125
1690841344302106600,10.831106689453126,-0.0037875475827604532,-0.0013603427214547992,-0.018252240493893623
1690841344312145000,10.841144775390624,-0.004668787587434053,-0.004299940075725317,-0.022462164983153343
1690841344322185000,10.85118505859375,-0.00538517814129591,-0.004427771549671888,-0.01944427192211151
1690841344332226000,10.86122607421875,-0.004442951641976833,-0.0015699334908276796,-0.02082858234643936
1690841344342265900,10.871265869140625,-0.0039113848470151424,-0.002484462922438979,-0.020549217239022255
1690841344352306000,10.881305908203124,-0.0054669370874762535,-0.0028599686920642853,-0.022488797083497047
1690841344362347000,10.891346923828126,-0.003750795964151621,-0.0018064221367239952,-0.019154518842697144
1690841344372386800,10.90138671875,-0.004299141000956297,-0.0027981833554804325,-0.02406725287437439
1690841344382427000,10.911427001953125,-0.0038626487366855145,-0.002273540711030364,-0.014752847142517567
1690841344392467000,10.921467041015624,-0.004822452086955309,0.00021518341964110732,-0.017717745155096054
1690841344402538000,10.9315380859375,-0.004989698529243469,-0.0035947347059845924,-0.026565564796328545
1690841344412577800,10.941577880859375,-0.004326038993895054,-0.002837864449247718,-0.020833110436797142
1690841344422619000,10.951618896484375,-0.005062136333435774,-0.0017861821688711643,-0.020620057359337807
1690841344432659000,10.961658935546875,-0.003436010330915451,-0.0018855180824175477,-0.02088956907391548
1690841344442699000,10.971698974609374,-0.004458398092538118,-0.0018522285390645266,-0.009590841829776764
1690841344452739800,10.98173974609375,-0.005327120888978243,-0.0009230516152456403,-0.024884045124053955
1690841344462780000,10.99177978515625,-0.004490089602768421,-0.005077582783997059,-0.02340705506503582
1690841344472820000,11.001820068359375,-0.0054911719635128975,-0.0027710190042853355,-0.02040008082985878
1690841344482859800,11.01185986328125,-0.0028578380588442087,-0.0032495891209691763,-0.02286989614367485
1690841344492900900,11.02190087890625,-0.0057135457172989845,-0.0027379959356039762,-0.017139572650194168
1690841344502941000,11.03194091796875,-0.00512951472774148,0.00018695391190703958,-0.013675598427653313
1690841344513012000,11.042011962890625,-0.004391552414745092,-0.0021441110875457525,-0.019267437979578972
1690841344523052000,11.052052001953125,-0.005589442327618599,-0.003299656556919217,-0.020069582387804985
1690841344533092000,11.062092041015624,-0.006072539836168289,-0.0013257216196507215,-0.020687701180577278
1690841344543133000,11.0721328125,-0.005142297595739365,-0.0029196233954280615,-0.02215084247291088
1690841344553173000,11.082173095703125,-0.005120459944009781,-0.0020663465838879347,-0.01278503704816103
1690841344563212800,11.092212890625,-0.005344165489077568,-0.0026165556628257036,-0.020480774343013763
1690841344573252900,11.1022529296875,-0.0038072550669312477,-0.0038549257442355156,-0.02803323231637478
1690841344583294000,11.1122939453125,-0.0057279267348349094,-0.00008175904804375023,-0.015056180767714977
1690841344593334000,11.122333984375,-0.00566880451515317,-0.003519367426633835,-0.01888420805335045
1690841344603374000,11.1323740234375,-0.0038900794461369514,-0.0029529130551964045,-0.021813420578837395
1690841344613445000,11.142445068359375,-0.004423776641488075,-0.00039601203752681613,-0.011411112733185291
1690841344623485000,11.15248486328125,-0.0037851508241146803,-0.001910019083879888,-0.02883218042552471
1690841344633525800,11.16252587890625,-0.004622981417924166,-0.005370797123759985,-0.020668260753154755
1690841344643565800,11.17256591796875,-0.004935103934258223,0.0005310343112796545,-0.01606019213795662
1690841344653606000,11.18260595703125,-0.0059537626802921295,-0.0016346483025699854,-0.023127423599362373
1690841344663647000,11.19264697265625,-0.004786232952028513,-0.004366252571344376,-0.01555286068469286
1690841344673687000,11.20268701171875,-0.0046791741624474525,0.0010596717474982142,-0.01763465441763401
1690841344683727000,11.21272705078125,-0.004591555800288916,-0.0033401367254555225,-0.028194619342684746
1690841344693767000,11.222766845703125,-0.006452839355915785,0.00018216021999251097,-0.021343370899558067
1690841344703808000,11.23280810546875,-0.0044235107488930225,-0.0010871023405343294,-0.020869329571723938
1690841344713847800,11.242847900390625,-0.0049153962172567844,-0.004741491749882698,-0.02183871902525425
1690841344723918800,11.2529189453125,-0.0067875985987484455,-0.0009731190511956811,-0.013281184248626232
1690841344733959000,11.262958984375,-0.0037294907961040735,-0.002578738844022155,-0.025017734616994858
1690841344743999000,11.2729990234375,-0.00437956815585494,-0.0031438616570085287,-0.02503797598183155
1690841344754040000,11.2830400390625,-0.005531651899218559,-0.0005363606614992023,-0.0161275714635849
1690841344764080000,11.293080078125,-0.00518837058916688,-0.002287122653797269,-0.02081606537103653
1690841344774120000,11.303119873046874,-0.005592371802777052,-0.0025302693247795105,-0.017435450106859207
1690841344784160000,11.313159912109375,-0.004825647920370102,-0.0008644621120765805,-0.013072391971945763
1690841344794200800,11.323200927734375,-0.00501073757186532,-0.004198207054287195,-0.02744360826909542
1690841344804241000,11.333240966796875,-0.004521514754742384,-0.004159591160714626,-0.020625382661819458
1690841344814281000,11.343281005859374,-0.004732703324407339,-0.001785116852261126,-0.018094049766659737
1690841344824322000,11.353322021484376,-0.00437956815585494,-0.0029502499382942915,-0.022285064682364464
1690841344834391800,11.363391845703125,-0.005782788153737783,-0.0018298579379916191,-0.01449958048760891
1690841344844433200,11.37343310546875,-0.004601676017045975,-0.002602973720058799,-0.02064189501106739
1690841344854473000,11.383472900390625,-0.004893292207270861,-0.003760383464396,-0.028858546167612076
1690841344864513000,11.393512939453124,-0.002204298507422209,-0.27016597986221313,-0.10921569913625717
1690841344874553900,11.403553955078126,-0.0032988577149808407,0.10924766212701797,-0.25282931327819824
1690841344884594000,11.413593994140625,-0.02714134007692337,-0.058810584247112274,-0.25730371475219727
1690841344894634000,11.423634033203125,0.01569853536784649,0.09350385516881943,-0.16711601614952087
1690841344904674000,11.433674072265624,0.002118544653058052,0.029885461553931236,-0.08998475223779678
1690841344914715100,11.443715087890626,-0.001588575541973114,-0.026025742292404175,-0.07302574068307877
1690841344924755000,11.4537548828125,-0.010037187486886978,-0.02857518568634987,-0.028623122721910477
1690841344934826000,11.463825927734375,-0.013157347217202187,-0.03603123873472214,0.0001496696495451033
1690841344944866000,11.473865966796875,-0.010979413986206055,-0.023195600137114525,0.03368419408798218
1690841344954906000,11.483906005859374,-0.006770554464310408,-0.0146476523950696,0.06670872122049332
1690841344964947000,11.493947021484376,-0.0029768813401460648,-0.004670385736972094,0.07865379750728607
1690841344974987000,11.503987060546875,-0.0003438140847720206,0.005949235521256924,0.10299801826477051
1690841344985026800,11.51402685546875,0.0007970841252245009,0.016086824238300323,0.10449684411287308
1690841344995067000,11.52406689453125,-0.0010207896120846272,0.01781468279659748,0.09459015727043152
1690841345005108000,11.53410791015625,-0.004362790379673243,0.016105998307466507,0.07365158200263977
1690841345015148000,11.54414794921875,-0.008490690030157566,0.008812665939331055,0.03958043083548546
1690841345025188000,11.55418798828125,-0.00768748065456748,-0.0021262678783386946,0.0021411816123872995
1690841345035229000,11.56422900390625,-0.0062424493953585625,-0.01113201305270195,-0.02353009395301342
1690841345045299000,11.574298828125,-0.004790494218468666,-0.016047941520810127,-0.0639273151755333
1690841345055340000,11.584340087890626,-0.0030890004709362984,-0.015738749876618385,-0.09247241169214249
1690841345065379800,11.5943798828125,0.0003579288604669273,-0.015271098352968693,-0.10446488857269287
1690841345075420000,11.604419921875,-0.0011920308461412787,-0.009673399850726128,-0.12587377429008484
1690841345085461000,11.6144609375,-0.003695135936141014,-0.0012860405258834362,-0.11466612666845322
1690841345095501000,11.6245009765625,-0.004930309951305389,0.008390555158257484,-0.10010476410388947
1690841345105540900,11.634540771484374,-0.004548945464193821,0.013706491328775883,-0.0872584730386734
1690841345115581000,11.644580810546875,-0.0060142166912555695,0.015451127663254738,-0.05844839662313461
1690841345125622000,11.6546220703125,-0.003885019337758422,0.01660587452352047,-0.035106852650642395
1690841345135661800,11.664661865234375,-0.005447496194392443,0.010313623584806919,-0.02014734596014023
1690841345145702000,11.674701904296874,-0.0033302828669548035,0.002368881832808256,0.018034128472208977
1690841345155773000,11.68477294921875,-0.0023470439482480288,0.0004974784678779542,0.029865486547350883
1690841345165813000,11.69481298828125,-0.003722300287336111,-0.012398079968988895,0.040039028972387314
1690841345175854000,11.70485400390625,-0.005268531385809183,-0.015168566256761551,0.054426491260528564
1690841345185894000,11.714893798828125,-0.005120992194861174,-0.01890444941818714,0.04429635778069496
1690841345195934000,11.724933837890624,-0.005539907608181238,-0.021463746204972267,0.038649123162031174
1690841345205973800,11.734973876953125,-0.0067875985987484455,-0.015385081060230732,0.03498275205492973
1690841345216014800,11.745014892578125,-0.005283711478114128,-0.010625479742884636,0.009081912226974964
1690841345226055000,11.755054931640625,-0.003992611076682806,-0.007835552096366882,-0.007983091287314892
1690841345236095000,11.765094970703124,-0.00501047121360898,0.001755023142322898,-0.020960409194231033
1690841345246136000,11.775135986328126,-0.0021174794528633356,0.005391037091612816,-0.055809203535318375
1690841345256206000,11.7852060546875,-0.006150304339826107,0.009000951424241066,-0.05777355283498764
