time,seconds_elapsed,z,y,x
1690841333656716300,0.18571630859375,0.0015250544529408216,-0.01527222990989685,0.09673768281936646
1690841333666756400,0.19575634765625,-0.0011905706487596035,-0.011797070503234863,0.09312111139297485
1690841333676797400,0.20579736328125,-0.001184066291898489,-0.009500417858362198,0.07538579404354095
1690841333686837500,0.21583740234375,-0.00029989657923579216,-0.0061893099918961525,0.05252974107861519
1690841333696877300,0.225877197265625,-0.0009574112482368946,-0.001817198470234871,0.020692555233836174
1690841333706917400,0.23591748046875,0.00044927047565579414,0.0021205516532063484,-0.00917373038828373
1690841333716988400,0.245988525390625,-0.00032848212867975235,0.0040442245081067085,-0.038373179733753204
1690841333727029200,0.256029296875,0.000020125415176153183,0.006594734266400337,-0.05831573158502579
1690841333737069300,0.2660693359375,0.00030521536245942116,0.009677393361926079,-0.0740862637758255
1690841333747109400,0.276109375,0.0012445123866200447,0.010900316759943962,-0.07364284992218018
1690841333757149200,0.286149169921875,-0.0013930825516581535,0.010158627294003963,-0.06749574095010757
1690841333767190300,0.296190185546875,0.00004475843161344528,0.009710416197776794,-0.048237890005111694
1690841333777230300,0.306230224609375,-0.0012356671504676342,0.0025498319882899523,-0.020900389179587364
1690841333787270400,0.3162705078125,0.00022108200937509537,-0.00026566185988485813,0.0045242756605148315
1690841333797311200,0.326311279296875,-0.000984883401542902,-0.003961395472288132,0.028941594064235687
1690841333807351300,0.336351318359375,-0.000038129743188619614,-0.0075406841933727264,0.04766840860247612
1690841333817391400,0.346391357421875,-0.0004814150743186474,-0.009200584143400192,0.05645355209708214
1690841333827431400,0.356431396484375,0.0015990461688488722,-0.008199235424399376,0.056801628321409225
1690841333837472500,0.366472412109375,0.0008025460410863161,-0.007097858935594559,0.04797479137778282
1690841333847542300,0.376542236328125,-0.0012179943732917309,-0.002998721320182085,0.03163896128535271
1690841333857583400,0.386583251953125,-0.0002002166584134102,-0.000342000974342227,0.013788964599370956
1690841333867623400,0.39662353515625,-0.000512339174747467,0.00022205663844943047,-0.005645720288157463
1690841333877663500,0.40666357421875,-0.0011735656298696995,0.003961462993174791,-0.023322585970163345
1690841333887704300,0.416704345703125,0.0008818621281534433,0.005100230686366558,-0.037645865231752396
1690841333897744400,0.426744384765625,-0.0018636728636920452,0.006202198565006256,-0.042858097702264786
1690841333907784200,0.4367841796875,0.0005291770212352276,0.008751642890274525,-0.042738255113363266
1690841333917824300,0.44682421875,-0.00026890216395258904,0.005317346192896366,-0.035629309713840485
1690841333927865300,0.456865234375,0.00044189533218741417,0.005984202027320862,-0.02344268374145031
1690841333937905400,0.466905517578125,0.0013015398290008307,0.004616006277501583,-0.008773602545261383
1690841333947945500,0.476945556640625,-0.0006425678730010986,-0.00021097343415021896,0.008228549733757973
1690841333957986300,0.486986328125,-0.0003102049231529236,-0.002549761440604925,0.02092144265770912
1690841333968026400,0.4970263671875,0.0009196426253765821,-0.002853095531463623,0.02958310768008232
1690841333978097400,0.507097412109375,-0.002291932236403227,-0.005335543304681778,0.03713459521532059
1690841333988137200,0.51713720703125,-0.0009353179484605789,-0.004993326961994171,0.027199404314160347
1690841333998177300,0.52717724609375,-0.0007087164558470249,-0.0013919861521571875,0.023033810779452324
1690841334008217300,0.53721728515625,0.0007706694304943085,-0.0004207312595099211,0.013649363070726395
1690841334018258400,0.547258544921875,0.0000020335428416728973,-0.0006140684708952904,0.002423318102955818
1690841334028298500,0.557298583984375,0.00028246454894542694,0.0017116701928898692,-0.008926806971430779
1690841334038338300,0.56733837890625,0.0010413727723062038,0.0031026615761220455,-0.016325918957591057
1690841334048379400,0.57737939453125,-0.00014107069000601768,0.003959933295845985,-0.021170740947127342
1690841334058419200,0.587419189453125,-0.000797987449914217,0.005104096606373787,-0.023569947108626366
1690841334068459300,0.597459228515625,-0.00102622015401721,0.0025290860794484615,-0.02185540460050106
1690841334078499300,0.607499267578125,-0.0006392323412001133,0.0020638704299926758,-0.015492154285311699
1690841334088540400,0.61754052734375,0.0005868873558938503,0.0014276413712650537,-0.009569818153977394
1690841334098580500,0.62758056640625,0.0006723441183567047,0.0003367718309164047,0.002244340255856514
1690841334108651500,0.637651611328125,-0.000481337308883667,-0.00048667751252651215,0.010083355009555817
1690841334118691300,0.64769140625,0.0004755365662276745,0.0004203950520604849,0.01672980561852455
1690841334128731100,0.657731201171875,0.00010802038013935089,-0.00042622373439371586,0.019892310723662376
1690841334138772200,0.667772216796875,-0.001805359497666359,-0.0019387411884963512,0.02180504985153675
1690841334148812300,0.677812255859375,0.000360855832695961,-0.00019863154739141464,0.015288827940821648
1690841334158852400,0.687852294921875,0.0007075928151607513,-0.0009945528581738472,0.008716924116015434
1690841334168893400,0.6978935546875,0.00038082292303442955,-0.0005980082787573338,0.008821586146950722
1690841334178933500,0.70793359375,0.000250836368650198,0.002353707095608115,-0.011620443314313889
1690841334188973300,0.717973388671875,0.0003855922259390354,0.003667710814625025,-0.008247552439570427
1690841334199013000,0.72801318359375,-0.001074432861059904,0.004367488902062178,-0.010577777400612831
1690841334209054200,0.73805419921875,0.0009727389551699162,0.0031863769982010126,-0.014488894492387772
1690841334219094300,0.74809423828125,0.00009212084114551544,0.00256783957593143,-0.011508101597428322
1690841334229134300,0.75813427734375,-0.00017259735614061356,0.00039416749496012926,-0.011158162727952003
1690841334239205400,0.768205322265625,0.0006029135547578335,0.0036057913675904274,-0.008564062416553497
1690841334249245400,0.778245361328125,0.0005864016711711884,0.005107281729578972,0.006493983790278435
1690841334259286500,0.78828662109375,-0.0010881251655519009,0.0013070631539449096,0.005327469669282436
1690841334269326300,0.798326416015625,0.0015100548043847084,-0.0012021672446280718,0.007303003221750259
1690841334279366100,0.8083662109375,-0.0012111891992390156,-0.001201751409098506,0.010525231249630451
1690841334289406200,0.81840625,-0.0003254218026995659,0.00005366280674934387,0.0010070931166410446
1690841334299445000,0.828445068359375,-0.0014781798236072063,0.00017056195065379143,0.012542095966637135
1690841334309485000,0.838485107421875,0.0005719214677810669,-0.00020467746071517467,0.007095665670931339
1690841334319524900,0.84852490234375,0.00046854419633746147,-0.00004142569378018379,-0.0007691811770200729
1690841334329565700,0.858565673828125,0.00008425023406744003,0.0030699456110596657,-0.0013516154140233994
1690841334339605800,0.868605712890625,0.00015467777848243713,0.002974065952003002,-0.011920852586627007
1690841334349645800,0.878645751953125,-0.00044506601989269257,0.002560210879892111,-0.010706717148423195
1690841334359686000,0.888685791015625,0.0009203276131302118,-0.000540377339348197,-0.002612682059407234
1690841334369757000,0.8987568359375,-0.001994768623262644,0.00009931391105055809,-0.01167888194322586
1690841334379798000,0.908798095703125,-0.0016606752760708332,0.0002955945674329996,-0.00574994832277298
1690841334389838000,0.918838134765625,0.0004634619690477848,-0.00036220625042915344,-0.0008537266403436661
1690841334399878000,0.9288779296875,-0.00043062446638941765,0.000855516642332077,0.0038573555648326874
1690841334409918000,0.93891796875,-0.00032463064417243004,-0.0018633042927831411,-0.0059348214417696
1690841334419958800,0.948958740234375,0.002018190920352936,0.0018817675299942493,0.003757612779736519
1690841334429998800,0.958998779296875,-0.0008095535449683666,-0.0017241525929421186,0.0044564250856637955
1690841334440039000,0.969038818359375,-0.000655035488307476,-0.0013968492858111858,0.008704406209290028
1690841334450080000,0.979080078125,0.0001111556775867939,-0.0009499709121882915,0.004124302417039871
1690841334460120000,0.9891201171875,-0.0017830398865044117,-0.0014178890269249678,0.0064873527735471725
1690841334470160000,0.999159912109375,0.0006987596862018108,0.002725723199546337,0.0069978805258870125
1690841334480200000,1.009199951171875,0.000659991055727005,0.00007188203744590282,-0.008073704317212105
1690841334490271000,1.01927099609375,0.00016464339569211006,-0.0014743492938578129,-0.0031143669039011
1690841334500310800,1.029310791015625,-0.00025608111172914505,0.0017613915260881186,-0.004654739052057266
1690841334510352000,1.039351806640625,-0.0006321193650364876,0.0016825618222355843,-0.005909886211156845
1690841334520392000,1.049391845703125,-0.000570567324757576,0.0012026590993627906,0.004331553354859352
1690841334530432000,1.059431884765625,-0.0012310314923524857,0.00142077193595469,-0.00873897597193718
1690841334540473000,1.06947314453125,0.0005001486279070377,-0.001408018171787262,-0.0030287951231002808
1690841334550513000,1.079512939453125,0.00022344617173075676,-0.0008460911922156811,0.004971873015165329
1690841334560553000,1.089552978515625,-0.0007067215628921986,-0.00010069180279970169,-0.0004746541380882263
1690841334570592800,1.0995927734375,0.00017185555770993233,0.001543011050671339,0.005570721812546253
1690841334580633900,1.1096337890625,-0.0017918124794960022,0.0026203966699540615,0.005108813755214214
1690841334590674000,1.119673828125,0.0005043651908636093,-0.0006377145182341337,-0.001969335600733757
1690841334600714000,1.1297138671875,-0.0009687310084700584,-0.0012771387118846178,0.00590486079454422
1690841334610755000,1.139755126953125,0.0016747228801250458,0.002724260790273547,-0.00018099509179592133
1690841334620824800,1.149824951171875,0.00004084920510649681,0.0006209342973306775,-0.0013340506702661514
1690841334630866000,1.159865966796875,-0.000766620971262455,0.001464091008529067,-0.0004309713840484619
1690841334640906000,1.169906005859375,0.0005221674218773842,0.00023500691168010235,-0.008984595537185669
1690841334650945800,1.17994580078125,-0.0008397730998694897,0.001326104043982923,-0.004292106255888939
1690841334660985900,1.18998583984375,0.00022710207849740982,0.0021101501770317554,0.0005178619176149368
1690841334671027000,1.20002685546875,0.0004071313887834549,0.002718149684369564,-0.0032779406756162643
1690841334681066800,1.210066650390625,-0.000414418987929821,0.000684149214066565,0.003764631226658821
1690841334691106800,1.22010693359375,-0.00026741204783320427,0.002564340829849243,-0.001851709559559822
1690841334701148000,1.23014794921875,0.0007597657386213541,-0.00044929212890565395,-0.003109253942966461
1690841334711187700,1.240187744140625,-0.0020874198526144028,0.0002878708764910698,0.008161243051290512
1690841334721227800,1.250227783203125,0.00030136946588754654,-0.0010528862476348877,0.0010592825710773468
1690841334731267800,1.260267822265625,0.00011947564780712128,0.0006155840819701552,0.0035525355488061905
1690841334741309000,1.270308837890625,-0.00024780305102467537,0.003601506119593978,0.007124855183064938
1690841334751380000,1.2803798828125,0.0007647306192666292,0.001436356222257018,0.0006403233855962753
1690841334761419800,1.290419677734375,0.0007886642124503851,-0.001464752247557044,0.005112998187541962
1690841334771459800,1.3004599609375,-0.00042387284338474274,0.00008281064219772816,0.002826141193509102
1690841334781500000,1.3105,0.000766390236094594,0.0016369076911360025,-0.003131721168756485
1690841334791540700,1.320540771484375,0.0006992784328758717,-0.0009101396426558495,0.004731528460979462
1690841334801580800,1.330580810546875,-0.0010767686180770397,0.001329033519141376,-0.009634140878915787
1690841334811620900,1.340620849609375,0.00004096003249287605,-0.0003359746187925339,-0.0026108529418706894
1690841334821662000,1.350661865234375,-0.0017206803895533085,-0.0006079729646444321,0.005903770215809345
1690841334831701800,1.36070166015625,0.00023274822160601616,-0.00027587683871388435,-0.0015341732650995255
1690841334841741800,1.370741943359375,0.0016937481705099344,-0.0002842741087079048,0.0016761217266321182
1690841334851782000,1.380781982421875,0.0009539220482110977,0.0026792914140969515,-0.00009701214730739594
1690841334861822700,1.39082275390625,0.001027329359203577,0.0016090893186628819,-0.007213389500975609
1690841334871862800,1.40086279296875,-0.0008027949370443821,0.0009374401997774839,0.0005494579672813416
1690841334881933800,1.410933837890625,-0.0005094986408948898,0.0005040094256401062,0.002193290740251541
1690841334891974000,1.420973876953125,-0.0019028647802770138,0.0016017644666135311,-0.00035508908331394196
1690841334902013700,1.431013671875,0.00189500511623919,-0.0005890859756618738,0.002543887123465538
1690841334912054800,1.4410546875,0.00101456418633461,0.003771307412534952,-0.006317781284451485
1690841334922094800,1.4510947265625,0.0009988753590732813,-0.0007456776220351458,0.0009318888187408447
1690841334932135000,1.461135009765625,-0.00011725537478923798,0.001594708301126957,-0.0012122225016355515
1690841334942175000,1.471175048828125,-0.0003104936331510544,0.0015794485807418823,-0.0046648140996694565
1690841334952215800,1.4812158203125,-0.0008716215379536152,-0.000738833099603653,-0.002194466069340706
1690841334962256000,1.491255859375,-0.0012805215083062649,0.0015782234258949757,-0.002871604636311531
1690841334972295700,1.501295654296875,-0.0017303293570876122,-0.0016247604507952929,-0.006593639031052589
1690841334982336800,1.511336669921875,-0.0014073057100176811,0.0022823556791990995,0.007695011794567108
1690841334992376800,1.521376953125,0.00020497199147939682,0.0011158912675455213,0.0011889096349477768
1690841335002417000,1.5314169921875,0.00038142595440149307,0.00019951281137764454,-0.002025507390499115
1690841335012488000,1.541488037109375,-0.0015464364551007748,0.002614201046526432,0.002865120768547058
1690841335022528000,1.551528076171875,0.00026182597503066063,0.0013364568585529923,-0.003176489844918251
1690841335032568800,1.56156884765625,-0.0007176846265792847,0.0007332508685067296,0.004403665661811829
1690841335042609000,1.57160888671875,-0.0007768771611154079,0.0011044557904824615,0.0055553726851940155
1690841335052648700,1.581648681640625,-0.0003220094367861748,-0.000860957195982337,-0.0005986597388982773
1690841335062688800,1.591688720703125,-0.00027868570759892464,-0.00021636299788951874,0.002104027196764946
1690841335072729900,1.601729736328125,0.000603086780756712,-0.00014605559408664703,-0.0024782083928585052
1690841335082770000,1.61177001953125,-0.00032099802047014236,0.00004794588312506676,-0.0013884976506233215
1690841335092810000,1.62181005859375,-0.0019495212472975254,-0.00047030532732605934,0.00830753892660141
1690841335102850800,1.631850830078125,0.0002719094045460224,-0.0014582958538085222,-0.0062597524374723434
1690841335112891000,1.641890869140625,-0.0005350285209715366,0.0001507860142737627,-0.000308917835354805
1690841335122930700,1.6519306640625,0.0006308909505605698,0.002424696460366249,0.0026211831718683243
1690841335132970800,1.661970703125,-0.0010698032565414906,0.00009363144636154175,-0.004910502582788467
1690841335143041800,1.672041748046875,-0.0012803375720977783,-0.0036653177812695503,0.004152791574597359
1690841335153081900,1.682081787109375,-0.0006662127561867237,0.001547819934785366,0.001818796619772911
1690841335163123000,1.692123046875,-0.0007211929187178612,-0.0002601228188723326,-0.005505423992872238
1690841335173163000,1.7021630859375,-0.0008066804148256779,0.002107693813741207,0.0008342321962118149
1690841335183203000,1.712203125,0.00003977445885539055,-0.001009318744763732,-0.0008349288254976273
1690841335193244000,1.722243896484375,0.0030965509358793497,0.00037738936953246593,0.0005065053701400757
1690841335203283700,1.73228369140625,-0.0008905436843633652,0.00002583698369562626,0.006239265203475952
1690841335213323800,1.74232373046875,0.0007816553115844727,0.0007161283865571022,-0.006837654858827591
1690841335223363800,1.75236376953125,-0.0014178124256432056,-0.0011163780000060797,0.0015767533332109451
1690841335233405000,1.762405029296875,-0.00031606247648596764,0.00014303065836429596,0.0007703490555286407
1690841335243445000,1.772445068359375,0.0009914329275488853,0.0024731128942221403,-0.0015822798013687134
1690841335253485000,1.782485107421875,0.0006417599506676197,-0.001217762241140008,0.006308399140834808
1690841335263555800,1.792555908203125,-0.0008889776654541492,0.0006529239472001791,-0.003959424793720245
1690841335273596000,1.802595947265625,0.0007493994198739529,-0.0018326041754335165,-0.005513379350304604
1690841335283636700,1.81263671875,-0.0007338705472648144,0.00037156499456614256,0.004049517214298248
1690841335293676800,1.8226767578125,0.0014017184730619192,0.00004719197750091553,0.002295292913913727
1690841335303701500,1.832701416015625,-0.000159574206918478,0.001225623651407659,0.0008124653249979019
1690841335313741600,1.842741455078125,-0.0017497474327683449,0.001100455061532557,0.00594624038785696
1690841335323782400,1.852782470703125,0.00007159216329455376,-0.0004973015747964382,-0.008419148623943329
1690841335333822500,1.862822509765625,0.0007416433654725552,-0.0007894502487033606,0.004467090591788292
1690841335343862500,1.872862548828125,-0.0015416205860674381,0.0006931410171091557,0.0022661425173282623
1690841335353903600,1.882903564453125,0.0012166150845587254,-0.0009425724856555462,-0.00010726600885391235
1690841335363943400,1.892943359375,0.0005269655957818031,0.0004220984410494566,0.006552243605256081
1690841335373983500,1.9029833984375,-0.00004082033410668373,0.0003459319705143571,-0.005670066922903061
1690841335384023600,1.9130234375,0.0005680625326931477,-0.0006663526874035597,-0.003415187820792198
1690841335394094600,1.923094482421875,-0.0008031991310417652,-0.0004189449828118086,0.0059689925983548164
1690841335404135400,1.933135498046875,-0.0012709302827715874,-0.0002721007913351059,-0.0020541492849588394
1690841335414175500,1.943175537109375,-0.0006552073173224926,0.0012775924988090992,0.001421809196472168
1690841335424215600,1.953215576171875,0.0008563098963350058,0.00011093285866081715,-0.00004212185740470886
1690841335434255400,1.96325537109375,0.00046482542529702187,-0.0012890910729765892,-0.008576488122344017
1690841335444296400,1.97329638671875,0.0007945951074361801,-0.0014525246806442738,0.006241709925234318
1690841335454336500,1.98333642578125,-0.0019985283724963665,-0.00018299580551683903,0.0021585505455732346
1690841335464376600,1.99337646484375,0.00047294842079281807,-0.0008871674071997404,-0.0014021173119544983
1690841335474417400,2.00341748046875,0.0007656295783817768,-0.0015923723112791777,0.004780411720275879
1690841335484457500,2.01345751953125,0.0006360192783176899,0.0004060781793668866,-0.00550948828458786
1690841335494497500,2.02349755859375,0.0020821155048906803,-0.000821106368675828,0.0011303052306175232
1690841335504537300,2.033537353515625,-0.001234459225088358,0.00048364244867116213,0.003917178139090538
1690841335514578400,2.043578369140625,-0.002131412271410227,-0.0002255572471767664,-0.0034134387969970703
1690841335524648400,2.0536484375,-0.0004764888435602188,0.0006099535385146737,0.0002445727586746216
1690841335534689500,2.063689453125,0.0004337797872722149,-0.00042654876597225666,-0.0014760959893465042
1690841335544729300,2.073729248046875,0.0003750366158783436,-0.002185897435992956,-0.006152234971523285
1690841335554769400,2.083769287109375,0.0004464094527065754,-0.0033417092636227608,0.008147076703608036
1690841335564810500,2.093810546875,0.0006219567731022835,0.002538598608225584,-0.0006959587335586548
1690841335574850600,2.1038505859375,0.0001385933719575405,-0.0019959656056016684,-0.0018025022000074387
1690841335584890400,2.113890380859375,0.0010026919189840555,0.0014555368106812239,0.0011810753494501114
1690841335594930400,2.123930419921875,-0.00047616148367524147,-0.0016150879673659801,-0.0055892132222652435
1690841335604971500,2.133971435546875,-0.002117960248142481,-0.001069934107363224,0.004399498924612999
1690841335615011300,2.14401123046875,-0.002094258088618517,0.0019058820325881243,0.004624268040060997
1690841335625051400,2.154051513671875,0.0005931234918534756,0.0025521062780171633,-0.004333928227424622
1690841335635092500,2.164092529296875,0.0002860608510673046,0.0012503531761467457,0.0007532406598329544
1690841335645162200,2.174162353515625,0.00040338514372706413,-0.001626382116228342,-0.0007033944129943848
1690841335655203300,2.184203369140625,-0.0009838552214205265,-0.0026080235838890076,-0.0020197946578264236
1690841335665243400,2.194243408203125,0.0003124633803963661,0.0010921210050582886,0.009179364889860153
1690841335675283500,2.204283447265625,0.00029728375375270844,0.0009688165737316012,0.0023094750940799713
1690841335685324500,2.214324462890625,0.0000981111079454422,-0.0005143852904438972,-0.0008197575807571411
1690841335695364400,2.2243642578125,-0.001139992382377386,-0.001923463772982359,-0.0023673195391893387
1690841335705404400,2.234404296875,-0.00006424123421311378,-0.0026637970004230738,0.00010558590292930603
1690841335715444500,2.244444580078125,0.0007632030174136162,-0.00118920486420393,0.0016917642205953598
1690841335725485600,2.254485595703125,0.0005375482141971588,-0.00030963262543082237,0.0013453979045152664
1690841335735525400,2.264525390625,-0.0004339730367064476,0.0019165037665516138,-0.00047407299280166626
1690841335745565400,2.2745654296875,0.0007781037129461765,-0.0005318033508956432,-0.00021027959883213043
1690841335755605500,2.28460546875,-0.0001417519524693489,0.001382210524752736,0.0003543104976415634
1690841335765646300,2.294646240234375,0.00005685538053512573,0.00143595808185637,-0.0005008261650800705
1690841335775717400,2.30471728515625,0.0006382232531905174,-0.0005907074082642794,0.0011833570897579193
1690841335785757400,2.31475732421875,0.00021301256492733955,-0.0013217383529990911,-0.0002511385828256607
1690841335795797200,2.32479736328125,-0.00039099203422665596,-0.0026021862868219614,0.0012910980731248856
1690841335805837300,2.33483740234375,-0.0006394581869244576,-0.00042019528336822987,-0.00006512179970741272
1690841335815878400,2.34487841796875,-0.0007185540162026882,0.0009854211239144206,-0.00025127828121185303
1690841335825918500,2.35491845703125,-0.000978199765086174,0.0006862754235044122,-0.00009373761713504791
1690841335835958500,2.36495849609375,0.0007163695991039276,-0.00003916979767382145,-0.0012852363288402557
1690841335845999400,2.374999267578125,-0.0006552338600158691,-0.0002858978696167469,0.0013902895152568817
1690841335856039400,2.385039306640625,-0.00024377554655075073,0.0015993539709597826,0.0006238315254449844
1690841335866079500,2.39507958984375,-0.00036558695137500763,0.0008273441344499588,0.0005151685327291489
1690841335876119300,2.405119384765625,0.0005630576051771641,-0.00012180651538074017,-0.0005066860467195511
1690841335886160400,2.415160400390625,0.0003067627549171448,-0.0008591576479375362,0.0002877265214920044
1690841335896230400,2.42523046875,-0.0012567788362503052,0.001467912457883358,0.0016842875629663467
1690841335906271500,2.435271484375,0.0005936278030276299,0.00011396780610084534,0.0008632820099592209
1690841335916311600,2.4453115234375,0.0006926972419023514,-0.0010719378478825092,0.001172741875052452
1690841335926351600,2.4553515625,-0.0008268775418400764,0.00010887556709349155,-0.002397904172539711
1690841335936392400,2.465392333984375,-0.0021177115850150585,-0.0003214913886040449,0.001408284530043602
1690841335946432300,2.475432373046875,-0.0009999372996389866,-0.0010316323023289442,0.0004527531564235687
1690841335956472300,2.485472412109375,-0.0013762419112026691,-0.00019140494987368584,-0.0011755023151636124
1690841335966512400,2.495512451171875,-0.00012074178084731102,-0.0002596830017864704,0.0005174353718757629
1690841335976553500,2.505553466796875,-0.0003995746374130249,0.0010780227603390813,0.0016548708081245422
1690841335986593500,2.515593505859375,0.0007294784300029278,-0.000994193833321333,0.0009746085852384567
1690841335996633600,2.525633544921875,-0.0018676365725696087,-0.00027940142899751663,0.0005405135452747345
1690841336006674400,2.53567431640625,0.0007097781635820866,0.0010792316170409322,0.0002544671297073364
1690841336016714200,2.54571435546875,0.00020377757027745247,-0.0007655401714146137,-0.0007253102958202362
1690841336026785300,2.555785400390625,0.000538370106369257,-0.0007131693419069052,-0.0022500772029161453
1690841336036825300,2.565825439453125,0.00020147999748587608,-0.0018833624199032784,-0.0000708121806383133
1690841336046865400,2.575865478515625,0.00009558023884892464,-0.0004781428724527359,-0.0002327393740415573
1690841336056906500,2.585906494140625,-0.0003214706666767597,-0.00008958764374256134,0.001836804673075676
1690841336066946600,2.595946533203125,0.00004446227103471756,0.00019316840916872025,-0.000765625387430191
1690841336076986600,2.605986572265625,0.0002577812410891056,-0.00048593757674098015,-0.0012204945087432861
1690841336087026400,2.6160263671875,0.0008097207173705101,0.0025764028541743755,-0.0011673644185066223
1690841336097067300,2.6260673828125,0.00015112105756998062,-0.000626581022515893,-0.0002467092126607895
1690841336107107300,2.636107421875,-0.0005178391002118587,0.0015846561873331666,-0.0009813476353883743
1690841336117147400,2.6461474609375,-0.0006525949575006962,-0.00011497316882014275,-0.0007986556738615036
1690841336127188500,2.6561884765625,0.001977399690076709,-0.0000210681464523077,0.00007562898099422455
1690841336137228500,2.666228515625,-0.0008271750994026661,0.000010889722034335136,-0.00040800124406814575
1690841336147299600,2.676299560546875,0.0006252741441130638,0.003369263606145978,-0.0010336823761463165
1690841336157339400,2.68633935546875,0.0008439195808023214,0.00016281777061522007,-0.0004342030733823776
1690841336167379500,2.69637939453125,-0.0004464453086256981,-0.00023376219905912876,-0.0008083153516054153
1690841336177419500,2.70641943359375,0.00173095497302711,-0.00006624939851462841,0.00015255436301231384
1690841336187460400,2.71646044921875,0.0002776309847831726,-0.0004346170462667942,0.0004719048738479614
1690841336197500400,2.72650048828125,0.00006191479042172432,-0.00008973758667707443,-0.001278592273592949
1690841336207540500,2.73654052734375,-0.002030220814049244,-0.000459473580121994,-0.0006067417562007904
1690841336217581600,2.74658154296875,0.0006366688758134842,-0.0012767976149916649,0.0005964729934930801
1690841336227621600,2.75662158203125,-0.0008093421347439289,-0.0011553624644875526,-0.0006087180227041245
1690841336237661400,2.766661376953125,-0.000059662386775016785,-0.00243288092315197,-0.0023469626903533936
1690841336247701500,2.776701416015625,0.00038005830720067024,0.0015159709146246314,-0.0008757747709751129
1690841336257742300,2.786742431640625,-0.00025936681777238846,-0.00029950588941574097,0.001537581905722618
1690841336267782400,2.796782470703125,0.00038002943620085716,-0.00044122664257884026,-0.00025946833193302155
1690841336277853400,2.806853515625,-0.00013928674161434174,-0.0005709226243197918,0.00009526312351226807
1690841336287893500,2.8168935546875,0.0003983699716627598,0.00016411114484071732,-0.0003562122583389282
1690841336297933300,2.826933349609375,-0.0019585276022553444,-0.0014292581472545862,0.00015910901129245758
1690841336307974100,2.83697412109375,0.00018940214067697525,-0.0014817486517131329,-0.0005124043673276901
1690841336318014200,2.84701416015625,0.0009057926945388317,-0.0007280739955604076,0.0020684637129306793
1690841336328054300,2.85705419921875,0.0007783193141222,-0.0008931886404752731,-0.0011140871793031693
1690841336338095000,2.86709521484375,0.0010907079558819532,0.0011824790854007006,0.0008566509932279587
1690841336348135000,2.877135009765625,0.0009277428034693003,-0.0011733120772987604,-0.0012204553931951523
1690841336358175000,2.887175048828125,-0.00003312574699521065,0.0014363194350153208,0.00021552108228206635
1690841336368215000,2.897215087890625,-0.00006349710747599602,0.0007324698381125927,-0.0007302369922399521
1690841336378256100,2.907256103515625,-0.0014190464280545712,-0.0009652953594923019,0.00022210925817489624
1690841336388296200,2.917296142578125,-0.0006970376707613468,0.0004455235321074724,-0.0009044688194990158
1690841336398367200,2.9273671875,-0.0006576231680810452,-0.00043678167276084423,-0.001253342255949974
1690841336408407000,2.937406982421875,0.0007849358953535557,-0.0009021558798849583,-0.00038268789649009705
1690841336418447000,2.947447021484375,0.0008011809550225735,-0.0013793942052870989,-0.0002447366714477539
1690841336428488000,2.957488037109375,0.0000385320745408535,0.0004798389272764325,-0.0009698886424303055
1690841336438528000,2.967528076171875,0.000056108925491571426,0.0015512285754084587,0.0015547871589660645
1690841336448568000,2.977568115234375,-0.0009234054014086723,0.0013330254005268216,-0.0000019688159227371216
1690841336458608000,2.987608154296875,0.001039344584569335,0.0007726963376626372,0.0012273471802473068
1690841336468649200,2.997649169921875,-0.00026650214567780495,0.0006842787843197584,0.00010977126657962799
1690841336478689300,3.007689208984375,0.0007276558317244053,0.0015884218737483025,0.0009380150586366653
1690841336488729000,3.01772900390625,-0.0013741455040872097,-0.00019353232346475124,0.000053027644753456116
1690841336498770000,3.02777001953125,0.00022082170471549034,0.00013456912711262703,-0.0013712309300899506
1690841336508810000,3.03781005859375,-0.0008630692027509212,0.0008518287213519216,0.000733397901058197
1690841336518850000,3.04785009765625,0.0005681137554347515,-0.0011506020091474056,0.0005006361752748489
1690841336528921000,3.057921142578125,-0.001012910157442093,0.0017992439679801464,0.0002808962017297745
1690841336538961200,3.067961181640625,0.0007037636823952198,-0.0008905485738068819,0.000927777960896492
1690841336549001000,3.0780009765625,-0.0007471074350178242,0.00008980813436210155,0.0015047937631607056
1690841336559042000,3.0880419921875,-0.0006280643865466118,0.002727136481553316,0.0008214283734560013
1690841336569082000,3.09808203125,0.0009986760560423136,0.0015215587336570024,-0.00004827417433261871
1690841336579122200,3.1081220703125,-0.000552615150809288,0.00011674128472805023,0.0015027504414319992
1690841336589163000,3.1181630859375,0.0003379932604730129,-0.0022788073401898146,-0.000007836148142814636
1690841336599203000,3.128203125,-0.0002111508511006832,-0.0005751829594373703,0.0007897801697254181
1690841336609243100,3.1382431640625,-0.000296830665320158,0.00024523655883967876,-0.001166338101029396
1690841336619283000,3.148282958984375,0.0010912090074270964,-0.00009964266791939735,-0.0014028269797563553
1690841336629324000,3.158323974609375,0.0007829070091247559,-0.00126597099006176,0.0016910675913095474
1690841336639364000,3.168364013671875,-0.00007116887718439102,-0.0011850108858197927,0.00007639266550540924
1690841336649435100,3.17843505859375,-0.00039146747440099716,0.0012208910193294287,-0.002034168690443039
1690841336659475200,3.18847509765625,0.0009446402546018362,0.00019157934002578259,0.0012724120169878006
1690841336669515000,3.198514892578125,-0.001900829840451479,0.0016777209239080548,-0.0004920680075883865
1690841336679556000,3.20855615234375,-0.00042117759585380554,0.0014841090887784958,0.004892842844128609
1690841336689596200,3.21859619140625,0.0008947465103119612,-0.0003633582964539528,-0.008669735863804817
1690841336699636000,3.228635986328125,-0.001568943727761507,0.0004377206787467003,0.000589277595281601
1690841336709677000,3.238677001953125,0.00024179555475711823,0.0015253126621246338,-0.0007929205894470215
1690841336719717000,3.248717041015625,0.0016580645460635424,0.0025439716409891844,-0.00034764036536216736
1690841336729757200,3.258757080078125,-0.000005206093192100525,-0.0004152609035372734,-0.0005299970507621765
1690841336739797000,3.268796875,0.00035618478432297707,0.0020036883652210236,0.0005477834492921829
1690841336749838000,3.278838134765625,0.00008893944323062897,0.0006174580194056034,0.00018957629799842834
1690841336759878100,3.288878173828125,0.000375495757907629,0.002338925376534462,-0.0002996474504470825
1690841336769949000,3.298948974609375,-0.0003372938372194767,0.0008780721109360456,0.002140745520591736
1690841336779989000,3.308989013671875,-0.00031225988641381264,0.0010772765381261706,-0.0022726450115442276
1690841336790029000,3.319029052734375,0.0006460575386881828,-0.0010919473133981228,-0.001011040061712265
1690841336800070100,3.329070068359375,0.0009192980360239744,0.000704887555912137,-0.0006648283451795578
1690841336810110200,3.339110107421875,0.0016090914141386747,0.0015950698871165514,0.0024561788886785507
1690841336820150000,3.34914990234375,-0.002024791669100523,0.0008067742455750704,-0.000005114823579788208
1690841336830190000,3.359190185546875,-0.0014999047853052616,-0.000331842340528965,0.004494724795222282
1690841336840231200,3.369231201171875,0.0011584628373384476,-0.0007121418602764606,-0.006847944110631943
1690841336850271000,3.37927099609375,0.0003360589034855366,-0.0005814868491142988,-0.0007441788911819458
1690841336860311000,3.38931103515625,-0.0006756759248673916,0.0013807301875203848,0.004542196169495583
1690841336870352100,3.39935205078125,0.0003021298907697201,-0.001378886867314577,-0.005312681198120117
1690841336880392200,3.40939208984375,0.00013168761506676674,-0.0009812768548727036,0.001437366008758545
1690841336890432000,3.419431884765625,0.00039329705759882927,0.00022101961076259613,0.001107795163989067
1690841336900503000,3.4295029296875,-0.001111921388655901,0.0006620391504839063,-0.0003215242177248001
1690841336910542800,3.43954296875,-0.0006284359842538834,0.0007082156371325254,0.00018555112183094025
1690841336920584000,3.449583984375,0.0006584036163985729,-0.0015464166644960642,-0.005551431328058243
1690841336930624000,3.4596240234375,-0.00017904676496982574,0.0009729193989187479,0.000601157546043396
1690841336940664000,3.4696640625,0.0005727638490498066,0.0015529559459537268,0.0030595213174819946
1690841336950704000,3.4797041015625,-0.0009361212141811848,-0.00019874051213264465,-0.005891842767596245
1690841336960745200,3.4897451171875,0.0009267597924917936,0.001623660558834672,0.004120843484997749
1690841336970785000,3.499784912109375,-0.0002008252777159214,0.0002279526088386774,-0.0003332030028104782
1690841336980825000,3.5098251953125,-0.0009537008590996265,0.00039093801751732826,-0.0055194441229105
1690841336990866200,3.5198662109375,0.0019380345474928617,0.00009006541222333908,0.0017700623720884323
1690841337000906000,3.529906005859375,0.00028820615261793137,0.0012637204490602016,-0.0008105412125587463
1690841337010946000,3.539946044921875,0.00013809651136398315,-0.0007732422091066837,0.0014064125716686249
1690841337021017000,3.55001708984375,-0.000019562430679798126,0.0009365071309730411,0.009680320508778095
1690841337031057200,3.56005712890625,-0.0008470774628221989,0.00007580709643661976,0.0025388896465301514
1690841337041097200,3.57009716796875,0.0006200578063726425,0.00015144073404371738,0.0002597551792860031
1690841337051138000,3.580137939453125,-0.0014903554692864418,0.0009673350723460317,0.002128908410668373
1690841337061177900,3.590177734375,-0.0008376147598028183,-0.0004958056379109621,-0.0036898311227560043
1690841337071218000,3.600218017578125,-0.0006283312104642391,-0.00010533211752772331,-0.008851081132888794
1690841337081259000,3.610259033203125,-0.0013292753137648106,0.00024087890051305294,0.00540268886834383
1690841337091299000,3.620299072265625,-0.000008618459105491638,0.0018321805400773883,0.0016228817403316498
1690841337101339100,3.630339111328125,0.0019128525163978338,0.00023694708943367004,0.0014266055077314377
1690841337111379200,3.640379150390625,0.00040882406756281853,0.0002170405350625515,0.001676417887210846
1690841337121420000,3.650419921875,-0.00029451632872223854,-0.0012223978992551565,0.001494789496064186
1690841337131460000,3.660460205078125,-0.0006913966499269009,0.003649267368018627,0.009067635983228683
1690841337141531000,3.67053076171875,0.000972280278801918,-0.0008749107364565134,-0.009913245216012001
1690841337151571000,3.680571044921875,-0.00010116957128047943,-0.0006323165725916624,-0.00033128075301647186
1690841337161611000,3.690611083984375,0.0005393205210566521,0.0005874113412573934,-0.0004026535898447037
1690841337171652000,3.700652099609375,0.0018343920819461346,0.0002500575501471758,-0.004008445888757706
1690841337181692200,3.710692138671875,-0.00043621892109513283,0.0013619272504001856,0.006323287263512611
1690841337191732200,3.720732177734375,0.0009224994573742151,0.0012099386658519506,-0.0026524104177951813
1690841337201772000,3.73077197265625,-0.009750118479132652,0.013901232741773129,-0.016894996166229248
1690841337211812900,3.740812744140625,-0.025792278349399567,-0.01414095051586628,-0.21286171674728394
1690841337221853000,3.75085302734375,-0.04465917497873306,-0.07382505387067795,-0.1815815567970276
1690841337231893000,3.76089306640625,-0.015118328854441643,-0.018753811717033386,-0.11910299956798553
1690841337241934000,3.77093408203125,0.007087641395628452,-0.023874538019299507,-0.051299192011356354
1690841337251974100,3.78097412109375,0.012005344964563847,0.004818296059966087,-0.008969148620963097
1690841337262014200,3.79101416015625,0.01499927043914795,0.0033674060832709074,0.03786759823560715
1690841337272085200,3.801085205078125,0.012128815054893494,0.0034680329263210297,0.07972848415374756
1690841337282125000,3.811125,0.004764908459037542,0.002800378482788801,0.10269318521022797
1690841337292166000,3.821165771484375,-0.005915483459830284,-0.001778148114681244,0.12111479789018631
1690841337302200800,3.831200927734375,-0.00805932842195034,-0.009330607019364834,0.10259277373552322
1690841337312241000,3.841240966796875,-0.007410455960780382,-0.01652309112250805,0.07863300293684006
1690841337322280700,3.85128076171875,-0.0033917459659278393,-0.017720714211463928,0.055448055267333984
1690841337332321500,3.861321533203125,0.0026526397559791803,-0.013226201757788658,0.014273337088525295
1690841337342361600,3.871361572265625,0.006901979446411133,-0.004938976373523474,-0.021367747336626053
1690841337352401700,3.881401611328125,0.006975824944674969,0.003758274484425783,-0.049974747002124786
1690841337362442800,3.89144287109375,0.006408305373042822,0.010477430187165737,-0.08454816788434982
1690841337372482800,3.90148291015625,-0.0006385953165590763,0.019917866215109825,-0.0796893984079361
1690841337382523000,3.91152294921875,-0.005078883375972509,0.020265141502022743,-0.08060658723115921
1690841337392594000,3.921593994140625,-0.003951898775994778,0.018628442659974098,-0.06665025651454926
1690841337402633700,3.9316337890625,-0.0023979442194104195,0.010493017733097076,-0.04110361635684967
1690841337412673800,3.941673828125,-0.00047961901873350143,0.003561629680916667,-0.022756021469831467
1690841337422714600,3.951714599609375,0.0003025513142347336,-0.00557727413251996,0.01197825651615858
1690841337432754700,3.961754638671875,0.002481589326635003,-0.010256672278046608,0.04593098536133766
1690841337442794800,3.971794677734375,0.002704229671508074,-0.014403746463358402,0.0524141825735569
1690841337452835800,3.9818359375,0.0009201152715831995,-0.01421651802957058,0.06467679142951965
1690841337462876000,3.9918759765625,-0.0021041706204414368,-0.009861184284090996,0.06592128425836563
1690841337472915700,4.001915771484375,-0.00042049679905176163,-0.006123754661530256,0.043452292680740356
1690841337482955800,4.011955810546875,-0.0021155988797545433,0.0003844783641397953,0.03596934303641319
1690841337492996600,4.02199658203125,-0.00173287745565176,0.004771645646542311,0.010699011385440826
1690841337503036700,4.03203662109375,-0.0012702862732112408,0.0029878602363169193,-0.014604747295379639
1690841337513107700,4.042107666015625,0.0022169218864291906,0.008233409374952316,-0.030305985361337662
1690841337523147800,4.052147705078125,0.0032813875004649162,0.004748662933707237,-0.051311932504177094
1690841337533187600,4.0621875,0.0002958434633910656,0.003864143742248416,-0.051180750131607056
1690841337543228700,4.072228759765625,-0.0012527848593890667,0.005346192978322506,-0.0405518114566803
1690841337553268700,4.082268798828125,0.00013587716966867447,0.0018657707842066884,-0.04041722044348717
1690841337563308800,4.092308837890625,-0.0025366051122546196,0.0014817429473623633,-0.02189067378640175
1690841337573349600,4.102349609375,-0.0011480222456157207,0.0005203201435506344,-0.004916295409202576
1690841337583389700,4.1123896484375,-0.0009581386111676693,0.0011283197673037648,0.010498080402612686
1690841337593429800,4.1224296875,-0.0016581430099904537,0.000955830211751163,0.03441283851861954
1690841337603469800,4.1324697265625,0.0016242028214037418,-0.0013147809077054262,0.033624544739723206
1690841337613511000,4.142510986328125,0.0009214594028890133,-0.002948978217318654,0.034785378724336624
1690841337623550700,4.15255078125,-0.0001395437866449356,-0.003821430029347539,0.03573213517665863
1690841337633590800,4.1625908203125,0.0006358278915286064,-0.003448404837399721,0.01967662386596203
1690841337643661800,4.172661865234375,0.000007322058081626892,-0.004410072695463896,0.014539387077093124
1690841337653702000,4.182701904296875,-0.0014573405496776104,-0.0003632334992289543,0.007116238586604595
1690841337663742700,4.19274267578125,-0.0004858197644352913,0.0005744656082242727,-0.018193643540143967
1690841337673782800,4.20278271484375,0.0006648562848567963,0.002814284525811672,-0.019890759140253067
1690841337683822600,4.212822509765625,0.002130393870174885,0.003951986785978079,-0.025351569056510925
1690841337693862700,4.222862548828125,0.00007741386070847511,0.005140043795108795,-0.032376714050769806
1690841337703903700,4.23290380859375,-0.0010570930317044258,0.006151512265205383,-0.012487426400184631
1690841337713943800,4.24294384765625,-0.0003146035596728325,0.001735458616167307,-0.020696621388196945
1690841337723984000,4.25298388671875,0.0008388115093111992,0.0016805975465103984,-0.009577391669154167
1690841337734024700,4.263024658203125,-0.00022160867229104042,0.00020842254161834717,0.0016699451953172684
1690841337744064800,4.273064697265625,-0.0007696873508393764,-0.004065684974193573,0.00673368014395237
1690841337754104800,4.283104736328125,0.00044390372931957245,-0.0051772622391581535,0.01764233410358429
1690841337764175600,4.293175537109375,0.00026573846116662025,-0.00037718075327575207,0.023271458223462105
1690841337774215700,4.303215576171875,0.0010446589440107346,-0.001389926765114069,0.012639820575714111
1690841337784256800,4.3132568359375,-0.00090797059237957,-0.000707891071215272,0.01798957772552967
1690841337794296800,4.323296875,0.000889080110937357,0.0006234056781977415,0.010293028317391872
1690841337804337000,4.3333369140625,-0.0005815173499286175,-0.0010932679288089275,0.00047475285828113556
1690841337814376700,4.343376708984375,-0.0007718829438090324,0.0012876155087724328,0.005719063803553581
1690841337824417800,4.353417724609375,-0.00012713158503174782,0.003805101616308093,-0.016740970313549042
1690841337834457600,4.36345751953125,0.0010633664205670357,0.0009442539885640144,-0.018283523619174957
1690841337844497700,4.37349755859375,-0.0006730146706104279,0.0021461385767906904,-0.013614203780889511
1690841337854537700,4.383537841796875,-0.0002509932965040207,0.0007867993554100394,-0.015806611627340317
1690841337864578800,4.393578857421875,0.0009735280182212591,0.0012488577049225569,-0.007838698104023933
1690841337874619000,4.403618896484375,-0.0010850452817976475,0.0014872315805405378,-0.0009983573108911514
1690841337884690000,4.41368994140625,-0.0018525682389736176,-0.0014313266146928072,-0.00682695209980011
1690841337894729700,4.423729736328125,0.00019367830827832222,-0.0011119311675429344,0.009580887854099274
1690841337904769500,4.43376953125,0.0007425560615956783,0.00006784917786717415,0.008981144055724144
1690841337914810600,4.443810546875,0.00029841670766472816,0.00002140691503882408,0.010692908428609371
1690841337924850700,4.4538505859375,-0.00010478589683771133,0.0005047705490142107,0.019117817282676697
1690841337934890800,4.463890869140625,-0.00018867570906877518,-0.0023285667411983013,0.0011462736874818802
1690841337944931800,4.473931884765625,0.0011959020048379898,-0.002067576628178358,0.00427655503153801
1690841337954972000,4.483971923828125,-0.0008605662733316422,-0.0016802113968878984,0.005233036354184151
1690841337965011700,4.49401171875,-0.0009220852516591549,-0.0022594488691538572,-0.005455028265714645
1690841337975051500,4.504051513671875,0.0010280765127390623,0.0020205809269100428,-0.004184400662779808
1690841337985092600,4.514092529296875,0.002026229165494442,0.0034736015368252993,-0.007297635078430176
1690841337995132700,4.524132568359375,0.000802178867161274,0.0016232565976679325,-0.01588546112179756
1690841338005203700,4.53420361328125,-0.000868156086653471,0.0019292538054287434,-0.0024364981800317764
1690841338015243800,4.544243896484375,0.0010256213136017323,0.00271162879653275,-0.005976198241114616
1690841338025283800,4.554283935546875,0.0018464075401425362,0.00006098463200032711,-0.005705088376998901
1690841338035325000,4.564324951171875,0.0007078489288687706,0.0007632216438651085,0.005429829470813274
1690841338045364700,4.57436474609375,-0.00012971507385373116,0.0007949132705107331,0.003595177084207535
1690841338055404500,4.584404541015625,0.001004951074719429,0.0018474331591278315,0.007400326430797577
1690841338065444600,4.594444580078125,0.00039748428389430046,0.0003126533702015877,0.0115386126562953
1690841338075485700,4.604485595703125,0.00041797244921326637,0.0006473517278209329,0.006322457455098629
1690841338085525800,4.61452587890625,-0.0004922961816191673,0.0027134320698678493,0.008654054254293442
1690841338095565800,4.62456591796875,-0.0011618603020906448,0.0005509065231308341,0.0010618846863508224
1690841338105607000,4.63460693359375,0.000695960596203804,-0.0005053032655268908,-0.005660198628902435
1690841338115646700,4.644646728515625,-0.00003725895658135414,0.0008013873593881726,0.0028962045907974243
1690841338125686500,4.6546865234375,-0.0004889308474957943,0.0011340162018314004,-0.004457315430045128
1690841338135757600,4.664757568359375,-0.0006277738139033318,0.0007316109258681536,-0.007003355771303177
1690841338145797600,4.674797607421875,-0.002879476174712181,0.0008591763908043504,-0.00006395764648914337
1690841338155838700,4.684838623046875,-0.0006691450253129005,-0.0013222189154475927,-0.014862345531582832
1690841338165878800,4.694878662109375,0.000525549054145813,0.0014735676813870668,-0.003296235576272011
1690841338175918800,4.7049189453125,-0.0002847122959792614,0.002747605787590146,0.0024766437709331512
1690841338185958700,4.714958740234375,-0.00029856059700250626,0.0006104189669713378,-0.0007889252156019211
1690841338195999700,4.724999755859375,-0.0014094384387135506,0.00015622610226273537,0.005722417496144772
1690841338206039600,4.73503955078125,-0.00044617289677262306,-0.002303203335031867,0.0012102238833904266
1690841338216079600,4.74507958984375,0.000919699901714921,-0.002583491848781705,-0.0009984616190195084
1690841338226120700,4.75512060546875,-0.0009599593468010426,-0.0008548342157155275,0.013247320428490639
1690841338236160800,4.765160888671875,-0.00024331361055374146,0.001383492024615407,-0.00019187480211257935
1690841338246200800,4.775200927734375,0.0012347407173365355,-0.0003837817348539829,-0.0001689717173576355
1690841338256272000,4.78527197265625,-0.0006377832032740116,0.00035696406848728657,0.002266084775328636
1690841338266311700,4.795311767578125,0.0011060547549277544,0.00035776314325630665,-0.009610015898942947
1690841338276351700,4.805351806640625,0.0010795884300023317,-0.0014747970271855593,0.0018924158066511154
1690841338286392600,4.815392578125,-0.0011249762028455734,0.0011217849096283317,-0.00115211121737957
1690841338296432600,4.8254326171875,0.0006601512432098389,0.0005511727649718523,-0.007579006254673004
1690841338306462200,4.835462158203125,0.0005512279458343983,0.0010017796885222197,-0.0016332343220710754
1690841338316503300,4.84550341796875,-0.0003504413180053234,0.0011530860792845488,-0.004184246063232422
1690841338326543400,4.85554345703125,0.0005254722200334072,-0.0010224501602351665,-0.0004281233996152878
1690841338336583200,4.865583251953125,-0.0008008941076695919,-0.0012541841715574265,-0.0005005914717912674
1690841338346623200,4.875623291015625,-0.0016565676778554916,-0.000007025664672255516,0.0008882470428943634
1690841338356664000,4.8856640625,0.0008515822701156139,-0.00046609481796622276,0.0006864219903945923
1690841338366704000,4.8957041015625,0.002128568245097995,0.0012796074151992798,0.0018981602042913437
1690841338376775200,4.905775146484375,-0.0006783106364309788,-0.0009291365277022123,-0.004995368421077728
1690841338386815200,4.915815185546875,0.00007563037797808647,0.0017175129614770412,0.006841849535703659
1690841338396855300,4.925855224609375,-0.0005705985240638256,0.0012113278498873115,0.005664026364684105
1690841338406896400,4.935896484375,0.0008182399906218052,0.0020571479108184576,-0.005247477442026138
1690841338416936200,4.945936279296875,-0.0008915946818888187,0.00030315062031149864,0.0010149143636226654
1690841338426976300,4.955976318359375,-0.0006990483961999416,0.002541271271184087,-0.0021095052361488342
1690841338437016300,4.966016357421875,0.00016294699162244797,-0.0005019833333790302,-0.004492849111557007
1690841338447057200,4.97605712890625,0.00020209560170769691,0.00017845421098172665,0.00289209745824337
1690841338457097200,4.98609716796875,-0.0005991412326693535,0.0013316309778019786,-0.009913334622979164
1690841338467137300,4.99613720703125,0.000022174324840307236,-0.0008273937273770571,-0.0020740535110235214
1690841338477178400,5.006178466796875,-0.0016550500877201557,-0.002687593922019005,-0.0010302215814590454
1690841338487218200,5.01621826171875,0.002062722807750106,0.00011032307520508766,-0.0015332922339439392
1690841338497289200,5.026289306640625,0.0001497482880949974,0.001645664218813181,0.009667932987213135
1690841338507329300,5.036329345703125,0.0002219201996922493,0.0002810605801641941,0.0030385255813598633
1690841338517369300,5.046369384765625,0.001012653112411499,0.00021619116887450218,-0.004521295428276062
1690841338527410200,5.05641015625,-0.0020182905718684196,-0.0005103191360831261,0.005817096680402756
1690841338537450200,5.0664501953125,-0.00024579232558608055,-0.00006714719347655773,-0.00027877092361450195
1690841338547490300,5.076490234375,0.0005137412808835506,0.0012119689490646124,-0.0018487051129341125
1690841338557530000,5.086530029296875,-0.00013911444693803787,0.002416929230093956,0.008220850490033627
1690841338567571200,5.0965712890625,-0.0004192790947854519,0.0022664605639874935,-0.009885182604193687
1690841338577611300,5.106611328125,0.0001843031495809555,-0.0020697058644145727,-0.003194788470864296
1690841338587651300,5.1166513671875,-0.00045778509229421616,-0.0021123166661709547,0.0009663999080657959
1690841338597692200,5.126692138671875,0.0003009354695677757,-0.0015385013539344072,-0.0040490999817848206
1690841338607732200,5.136732177734375,0.0012639346532523632,-0.0014594055246561766,0.0047550443559885025
1690841338617803300,5.14680322265625,-0.0009662718512117863,0.0017636215779930353,-0.0016781035810709
1690841338627843000,5.156843017578125,0.0005466700531542301,0.003049928229302168,-0.00396975502371788
1690841338637883100,5.166883056640625,0.00010484084486961365,0.003782931249588728,-0.0008205976337194443
1690841338647923200,5.176923095703125,-0.00046507595106959343,0.0003695578780025244,0.0012097954750061035
1690841338657964300,5.18696435546875,0.000499955378472805,-0.002582188230007887,0.0002659335732460022
1690841338668004400,5.19700439453125,-0.0005602487362921238,-0.0016519459895789623,0.0050276657566428185
1690841338678044400,5.20704443359375,0.001800820231437683,-0.0017157739493995905,-0.001662861555814743
1690841338688085200,5.217085205078125,0.0014159935526549816,-0.005380549468100071,-0.00429379940032959
1690841338698125000,5.227125,0.0003676675260066986,0.00013699079863727093,0.0015661939978599548
1690841338708165000,5.2371650390625,0.000018260907381772995,0.0013170376187190413,-0.0019712839275598526
1690841338718205200,5.247205078125,0.00037436140701174736,0.002142042387276888,0.002141401171684265
1690841338728246300,5.257246337890625,-0.0010150098241865635,0.004972715862095356,0.002005048096179962
1690841338738317300,5.2673173828125,-0.000048094894737005234,-0.0012328785378485918,-0.006055183708667755
1690841338748357400,5.277357421875,-0.0011218814179301262,0.005231145769357681,0.0035553667694330215
1690841338758397400,5.2873974609375,0.0010619666427373886,0.002898788545280695,0.0043402500450611115
1690841338768437200,5.297437255859375,-0.0005782740190625191,-0.0012972881086170673,0.0002054274082183838
1690841338778478000,5.30747802734375,0.0005123610608279705,-0.000835655489936471,0.005217854864895344
1690841338788518100,5.31751806640625,0.0009299446828663349,-0.0025677753146737814,-0.00861700065433979
1690841338798558200,5.32755810546875,0.0002814498730003834,-0.0021825404837727547,0.0056792572140693665
1690841338808599300,5.337599365234375,-0.0009952695108950138,0.0004795552231371403,0.00311383418738842
1690841338818639400,5.347639404296875,-0.0009752530604600906,0.0012407080503180623,-0.0012017954140901566
1690841338828679400,5.357679443359375,-0.00248925993219018,0.0008114065276458859,-0.0003663618117570877
1690841338838719200,5.36771923828125,0.002044095192104578,0.0033327240962535143,-0.00518551841378212
1690841338848760000,5.377760009765625,0.001901616109535098,0.003936196677386761,-0.005624139681458473
1690841338858800000,5.387800048828125,-0.0000544046051800251,0.0023997544776648283,0.0072551146149635315
1690841338868871200,5.39787109375,0.00019646529108285904,0.0005946637829765677,-0.0025679543614387512
1690841338878911200,5.4079111328125,-0.00034933025017380714,0.0003638307098299265,-0.0019497666507959366
1690841338888951300,5.417951416015625,-0.0007900833152234554,-0.00017039920203387737,-0.0008552074432373047
1690841338898992400,5.427992431640625,0.00022806180641055107,-0.002439780393615365,-0.008355844765901566
1690841338909032400,5.438032470703125,0.0005905181169509888,-0.0054379673674702644,0.005778615362942219
1690841338919072300,5.448072265625,-0.00020161690190434456,-0.001827581087127328,0.005048318766057491
1690841338929112300,5.4581123046875,-0.00010254699736833572,0.0011660783784464002,0.0007968489080667496
1690841338939153200,5.468153076171875,0.0005403049290180206,0.0032928367145359516,0.0025963038206100464
1690841338949193200,5.478193115234375,-0.0014826320111751556,0.0019482066854834557,0.0003267582505941391
1690841338959233300,5.4882333984375,0.0003816387616097927,0.0003015543334186077,-0.00305093452334404
1690841338969274400,5.4982744140625,-0.0006689783185720444,-0.00001482921652495861,0.006743906065821648
1690841338979314400,5.508314453125,-0.0005331388674676418,-0.0010517812334001064,-0.0017895903438329697
1690841338989385200,5.51838525390625,0.0003395793028175831,-0.0020038611255586147,-0.002238864079117775
1690841338999425300,5.52842529296875,0.0006636213511228561,-0.003531184047460556,0.0024738647043704987
1690841339009465300,5.53846533203125,-0.0008913986384868622,-0.00014737178571522236,0.0007699746638536453
1690841339019506200,5.548506103515625,-0.0006079752929508686,-0.0014052484184503555,0.004830985330045223
1690841339029546200,5.558546142578125,0.000578463077545166,-0.00019697239622473717,0.0018112268298864365
1690841339039586300,5.56858642578125,-0.001074786763638258,-0.002742030657827854,-0.006620220839977264
1690841339049626400,5.57862646484375,-0.0027533769607543945,0.0019419370219111443,0.000030757859349250793
1690841339059667500,5.58866748046875,-0.0005850181914865971,0.0009883421007543802,-0.0024555008858442307
1690841339069707300,5.598707275390625,0.001390514662489295,0.0016504039522260427,0.001603156328201294
1690841339079747300,5.608747314453125,0.0016221925616264343,0.0024294820614159107,0.009801528416574001
1690841339089787100,5.618787109375,0.0007968791760504246,0.0017234780825674534,-0.0042394548654556274
1690841339099828200,5.628828125,-0.0008313418366014957,-0.00023352098651230335,-0.001585938036441803
1690841339109899300,5.638899169921875,-0.0022326968610286713,-0.0005224738270044327,0.0006567090749740601
1690841339119939300,5.648939208984375,-0.00041357148438692093,-0.002485893201082945,-0.006342530250549316
1690841339129979100,5.658979248046875,-0.00093501852825284,-0.0018211682327091694,-0.002140861004590988
1690841339140019200,5.669019287109375,0.0007599801756441593,-0.0011687148362398148,0.005535943433642387
1690841339150060300,5.679060302734375,0.001527503365650773,0.002081406768411398,-0.005405653268098831
1690841339160100000,5.68910009765625,-0.0006302408874034882,0.0012236618204042315,0.0007018484175205231
1690841339170140200,5.69914013671875,-0.0008044117130339146,0.0026162287686020136,-0.0009804721921682358
1690841339180181200,5.70918115234375,0.00020291702821850777,0.002187214093282819,-0.0031740907579660416
1690841339190221300,5.71922119140625,-0.000009070616215467453,0.002047398127615452,-0.00010826066136360168
1690841339200261400,5.729261474609375,0.00005209771916270256,0.0025490743573755026,-0.005071362480521202
1690841339210301200,5.73930126953125,0.0006260089576244354,0.0001817906741052866,0.0007311329245567322
1690841339220342300,5.74934228515625,0.001071118749678135,0.00042028515599668026,0.0011027883738279343
1690841339230412300,5.759412353515625,0.00023035891354084015,-0.0002596199046820402,-0.0026639867573976517
1690841339240453000,5.769453125,-0.0009181606583297253,0.0003892509266734123,0.0077789220958948135
1690841339250493200,5.7794931640625,0.0007958495989441872,-0.0012920028530061245,0.0003769323229789734
1690841339260533200,5.789533203125,-0.0005973223596811295,-0.0020648969803005457,-0.0033919718116521835
1690841339270574300,5.79957421875,-0.0008149025961756706,-0.0005327800754457712,0.00009224191308021545
1690841339280614100,5.8096142578125,0.00038847746327519417,-0.00025144871324300766,-0.0020861364901065826
1690841339290654200,5.819654296875,-0.0005505532026290894,-0.00012201908975839615,0.0008699726313352585
1690841339300694300,5.8296943359375,-0.00013400334864854813,-0.000041019637137651443,0.0038296040147542953
1690841339310739700,5.83973974609375,-0.00003040628507733345,0.0011331679997965693,0.00036536529660224915
1690841339320779800,5.84977978515625,0.0004421854391694069,0.0002972602378576994,-0.00016503408551216125
1690841339330819800,5.85981982421875,0.0004504411481320858,0.001726845046505332,0.0031532645225524902
1690841339340861000,5.86986083984375,-0.0004360619932413101,-0.0005605632904917002,-0.0004188697785139084
1690841339350930700,5.8799306640625,-0.0009471224620938301,0.0014298832975327969,0.0047258250415325165
1690841339360971800,5.8899716796875,0.0003782082349061966,0.0016589814331382513,-0.00236428901553154
1690841339371011800,5.90001171875,0.0007419963367283344,-0.0011320114135742188,0.0006810352206230164
1690841339381052000,5.910052001953125,0.0006808671168982983,-0.0018009976483881474,-0.0016660094261169434
1690841339391092700,5.9200927734375,-0.0007987851276993752,0.00092874257825315,0.004620382562279701
1690841339401132800,5.9301328125,-0.0007453667931258678,0.0014590333448722959,0.0011011157184839249
1690841339411172600,5.940172607421875,0.0016743813175708055,0.0017413283931091428,-0.00024484656751155853
1690841339421212700,5.950212646484375,-0.000748674850910902,-0.000020505161955952644,0.002415405586361885
1690841339431253800,5.960253662109375,0.00018236646428704262,-0.0003544655628502369,0.0006814207881689072
1690841339441293800,5.9702939453125,-0.00014468934386968613,0.0009118637535721064,0.0033900532871484756
1690841339451334000,5.980333984375,0.00006170570850372314,-0.0008125330787152052,-0.001271277666091919
1690841339461374700,5.990374755859375,0.0008864984847605228,0.0032460642978549004,0.004062537103891373
1690841339471444700,6.00044482421875,-0.00039048725739121437,-0.0003681117668747902,-0.004086470231413841
1690841339481485800,6.01048583984375,0.0009205692913383245,-0.00022105989046394825,-0.006241576746106148
1690841339491525600,6.020525634765625,-0.00032339291647076607,0.0025720633566379547,-0.0009975451976060867
1690841339501565700,6.030565673828125,0.0005645938217639923,0.0011563418665900826,-0.000827329233288765
1690841339511605800,6.040605712890625,0.0007094698958098888,-0.0013004241045564413,0.0019317064434289932
1690841339521646800,6.050646728515625,-0.0008713603019714355,0.0015297336503863335,0.005747749470174313
1690841339531686700,6.060686767578125,0.0010469146072864532,0.0001677931286394596,-0.004996240139007568
1690841339541726700,6.070726806640625,0.0007346696220338345,-0.0016961293295025826,0.003148505464196205
1690841339551767800,6.080767822265625,0.0015421402640640736,0.0006538440939038992,-0.0010800622403621674
1690841339561807600,6.0908076171875,-0.0019015902653336525,-0.00036607775837183,-0.0003160014748573303
1690841339571847700,6.10084765625,-0.0013630990870296955,0.0006933277472853661,0.004288604483008385
1690841339581918700,6.110918701171875,-0.0008952072821557522,-0.0024294303730130196,-0.0014774054288864136
1690841339591958800,6.120958740234375,-0.00016656611114740372,-0.0025271684862673283,-0.006650863215327263
1690841339602000000,6.130999755859375,-0.000031200237572193146,-0.00012690946459770203,0.008106550201773643
1690841339612039700,6.141039794921875,-0.0005007158033549786,-0.002257438376545906,-0.0013394150882959366
1690841339622079700,6.151079833984375,0.0014862758107483387,0.0007689023623242974,0.002737073227763176
1690841339632119600,6.16111962890625,0.0009927921928465366,0.0005718284519389272,0.005391978658735752
1690841339642160600,6.17116064453125,0.0016314098611474037,0.002671321853995323,-0.01029292680323124
1690841339652200700,6.18120068359375,-0.0002370639704167843,0.0011474612401798368,0.0027786660939455032
1690841339662240800,6.19124072265625,0.0008056345395743847,0.0021786587312817574,0.001315699890255928
1690841339672281900,6.20128173828125,0.00042560137808322906,0.0003205712419003248,-0.0017349515110254288
1690841339682321700,6.21132177734375,-0.0003265715204179287,0.0009482661262154579,0.004286564886569977
1690841339692361700,6.22136181640625,0.0013871726114302874,0.000261436915025115,-0.004011843353509903
1690841339702432500,6.2314326171875,-0.00003211386501789093,-0.0029311692342162132,-0.004783850163221359
1690841339712472600,6.24147265625,0.0015082582831382751,0.001024690456688404,0.005310862325131893
1690841339722512600,6.2515126953125,0.00005426071584224701,0.0002989196218550205,-0.0002106446772813797
1690841339732553700,6.2615537109375,0.000006590038537979126,0.0009189036209136248,0.0000026747584342956543
1690841339742593800,6.27159375,0.000011495780199766159,-0.0008406632114201784,0.002994231879711151
1690841339752633900,6.2816337890625,-0.000017266254872083664,-0.0018148475792258978,-0.004551835358142853
1690841339762674700,6.2916748046875,-0.00010983645915985107,0.0004659609403461218,0.0033113043755292892
1690841339772714800,6.30171484375,0.0007769963704049587,0.0007663655560463667,0.003938211128115654
1690841339782754600,6.311754638671875,-0.0005214232951402664,-0.0014618211425840855,-0.003540685400366783
1690841339792794600,6.321794677734375,-0.000359236728399992,0.0012242430821061134,0.00021676719188690186
1690841339802835700,6.331835693359375,0.0003319694660604,0.0000822083093225956,-0.004406021907925606
1690841339812875800,6.341875732421875,0.0000283694826066494,-0.0003859754651784897,-0.003721589222550392
1690841339822946800,6.35194677734375,0.0010435618460178375,0.001955936197191477,0.010213506408035755
1690841339832987000,6.36198681640625,0.0009841735009104013,0.0015295641496777534,-0.0017070695757865906
1690841339843026700,6.372026611328125,0.0019170278683304787,0.0005919814575463533,-0.0005432218313217163
1690841339853067500,6.382067626953125,-0.00038420967757701874,-0.0011899396777153015,-0.0000971425324678421
1690841339863107600,6.392107666015625,0.0017053710762411356,-0.0000721572432667017,-0.00840267725288868
1690841339873147600,6.402147705078125,-0.0006504612974822521,-0.0004636417143046856,0.005853757262229919
1690841339883187700,6.412187744140625,0.0006122440099716187,-0.000310482457280159,0.0003674216568470001
1690841339893228800,6.422228759765625,0.0017749799881130457,-0.0000798527617007494,-0.002957535907626152
1690841339903268900,6.432268798828125,0.00011559762060642242,0.0010118421632796526,0.0002846475690603256
1690841339913309000,6.442308837890625,-0.00018347520381212234,-0.00003691064193844795,-0.0025393683463335037
1690841339923349800,6.452349853515625,-0.0005503701977431774,0.0000727109145373106,-0.0032429229468107224
1690841339933389600,6.4623896484375,-0.0002915109507739544,0.0007550128502771258,0.005770279094576836
1690841339943460600,6.472460693359375,-0.00011966610327363014,0.00023982394486665726,-0.004589395597577095
1690841339953500700,6.482500732421875,-0.0005439072847366333,-0.00020545674487948418,-0.0018881522119045258
1690841339963540700,6.492540771484375,-0.0005959095433354378,0.0006293070036917925,0.0026459135115146637
1690841339973581800,6.502581787109375,-0.0007045664824545383,-0.0029550413601100445,-0.005673268809914589
1690841339983622000,6.512621826171875,-0.0005680788308382034,-0.002438595751300454,0.0045377276837825775
1690841339993661700,6.52266162109375,-0.0012775450013577938,0.0035529842134565115,-0.000042907893657684326
1690841340003701800,6.53270166015625,0.0017205337062478065,-0.002495079766958952,-0.0060362908989191055
1690841340013742600,6.54274267578125,-0.00014980463311076164,0.00008046324364840984,0.002686893567442894
1690841340023782700,6.55278271484375,0.00018563121557235718,-0.0012262002564966679,-0.0008899401873350143
1690841340033822700,6.56282275390625,0.000287364237010479,-0.00025334744714200497,0.004239309579133987
1690841340043863800,6.57286376953125,-0.0002066311426460743,0.0016121116932481527,0.003552934154868126
1690841340053904000,6.58290380859375,0.0005848603323101997,-0.00014637364074587822,-0.006015270948410034
1690841340063975000,6.592974853515625,0.0010722095612436533,-0.0011285010259598494,-0.0005229562520980835
1690841340074014700,6.6030146484375,0.0011094938963651657,0.0005370398284867406,-0.0003549102693796158
1690841340084054800,6.6130546875,0.0010433928109705448,-0.0009367088787257671,0.00020877830684185028
1690841340094094800,6.6230947265625,-0.00018725404515862465,-0.0006448265630751848,0.003963302820920944
1690841340104135700,6.6331357421875,0.00032767606899142265,0.002554937731474638,0.0028329528868198395
1690841340114175700,6.64317578125,-0.0008872579783201218,-0.0007090324070304632,-0.005401806905865669
1690841340124215800,6.6532158203125,-0.0009940862655639648,0.0005362583324313164,0.002162409946322441
1690841340134257000,6.6632568359375,0.0008834421169012785,0.0002081568818539381,-0.0006086099892854691
1690841340144296700,6.673296630859375,0.001490964088588953,0.0017044716514647007,0.0021668802946805954
1690841340154336800,6.683336669921875,-0.0012755277566611767,0.0009286928689107299,0.008879377506673336
1690841340164376800,6.693376953125,0.00022879941388964653,0.000624960521236062,-0.005187598988413811
1690841340174447900,6.70344775390625,-0.000989330466836691,-0.0008139454293996096,0.0003906581550836563
1690841340184488700,6.71348876953125,0.0014626199845224619,-0.001024847850203514,0.0005792099982500076
1690841340194528800,6.72352880859375,0.001010681502521038,0.0013903728686273098,-0.00367891788482666
1690841340204568600,6.733568603515625,-0.00008021900430321693,0.0011143330484628677,0.0029849596321582794
1690841340214608600,6.743608642578125,0.0009794526267796755,0.000267714262008667,-0.0021709203720092773
1690841340224649700,6.753649658203125,0.0008103912696242332,-0.0018727467395365238,-0.005310701206326485
1690841340234689800,6.763689697265625,-0.0017531677149236202,-0.00021572783589363098,0.0032598841935396194
1690841340244729900,6.773729736328125,0.0010642178822308779,-0.00018111290410161018,-0.0006680786609649658
1690841340254770700,6.783770751953125,0.000401889905333519,-0.00012332224287092686,0.0009133070707321167
1690841340264810800,6.793810791015625,0.000021613668650388718,0.0014863105025142431,0.0034733042120933533
1690841340274850800,6.803850830078125,0.0005875350907444954,-0.0005142560694366693,-0.0049108583480119705
1690841340284890600,6.813890625,0.00048508960753679276,-0.0016529059503227472,-0.0008396115154027939
1690841340294961700,6.823961669921875,-0.0009737899526953697,-0.0014065634459257126,0.004579653963446617
1690841340305001700,6.834001708984375,-0.00012679630890488625,-0.0006036418490111828,-0.004534740000963211
1690841340315018000,6.84401806640625,-0.000992590095847845,-0.00021508662030100822,0.0030217133462429047
1690841340325058000,6.85405810546875,0.002066275803372264,0.0012153747957199812,-0.0024261251091957092
1690841340335098000,6.86409814453125,0.0017008902505040169,-0.0014637652784585953,-0.010752497240900993
1690841340345139000,6.874138916015625,-0.0019852486439049244,0.00038923369720578194,0.003946524113416672
1690841340355178800,6.8841787109375,0.0007391651161015034,0.00004488695412874222,-0.001470610499382019
1690841340365218800,6.89421875,0.0009527984075248241,0.00161091354675591,0.0007904358208179474
1690841340375259000,6.9042587890625,0.0009772996418178082,-0.0013409340754151344,0.006005438044667244
1690841340385300000,6.914300048828125,0.00008893245831131935,0.002661414910107851,-0.00582391582429409
1690841340395340000,6.924340087890625,0.0010061250068247318,-0.0015074973925948143,-0.0034302659332752228
1690841340405380000,6.934380126953125,-0.003036655019968748,0.0011723869247362018,0.006201375275850296
1690841340415451100,6.944451171875,0.00162227894179523,0.002615820150822401,-0.00010525621473789215
1690841340425491000,6.954490966796875,-0.000608732458204031,-0.0012773098424077034,-0.0015028230845928192
1690841340435531800,6.96453173828125,0.0005449489690363407,-0.0009020704310387373,-0.0014572832733392715
1690841340445571800,6.97457177734375,0.0017381710931658745,-0.0002798286732286215,-0.0010666139423847198
1690841340455612000,6.98461181640625,-0.0008893036283552647,-0.0021238012704998255,0.006682652980089188
1690841340465653000,6.994653076171875,-0.0004913238808512688,0.00045765540562570095,0.002024613320827484
1690841340475693000,7.004693115234375,-0.0010945298708975315,0.001180703635327518,-0.000858258455991745
1690841340485733000,7.014733154296875,-0.0007044714875519276,0.0014218651922419667,0.003741644322872162
1690841340495773000,7.02477294921875,0.0007879640907049179,0.0018165456131100655,-0.002582564949989319
1690841340505813800,7.034813720703125,-0.0005862759426236153,-0.0005132444202899933,-0.0060472749173641205
1690841340515853800,7.044853759765625,0.0015005769673734903,-0.0011260376777499914,0.0049473196268081665
1690841340525924900,7.0549248046875,0.0019381630700081587,0.0013409743551164865,0.0014962423592805862
1690841340535965000,7.06496484375,0.0008649092633277178,-0.0007533356547355652,-0.00006250664591789246
1690841340546005000,7.0750048828125,0.00032921507954597473,0.002812078222632408,0.005835128948092461
1690841340556046000,7.085046142578125,-0.0001445612870156765,-0.00009476207196712494,-0.0018275845795869827
1690841340566086100,7.095086181640625,0.00020782137289643288,0.000021460233256220818,0.0010385103523731232
1690841340576126000,7.1051259765625,-0.0006523793563246727,0.002545071765780449,0.0025812797248363495
1690841340586166000,7.115166015625,0.0009260745719075203,0.00026967586018145084,0.0015018954873085022
1690841340596206800,7.125206787109375,0.00016014929860830307,-0.0004475133027881384,-0.0002339538186788559
1690841340606247000,7.135246826171875,-0.000646691769361496,-0.0012300002854317427,-0.0018177255988121033
1690841340616287000,7.145286865234375,0.00037969043478369713,-0.0011349255219101906,-0.005536830052733421
1690841340626328000,7.155328125,-0.001027112826704979,0.0005867748986929655,0.0038943905383348465
1690841340636368100,7.1653681640625,0.00022910023108124733,0.002034735633060336,0.0000762157142162323
1690841340646439000,7.17543896484375,0.00009664800018072128,-0.001858408097177744,-0.001615956425666809
1690841340656479000,7.18547900390625,0.0006505856290459633,0.0006348431343212724,0.0007702354341745377
1690841340666519000,7.19551904296875,-0.0000628097914159298,-0.00020637968555092812,-0.002502875402569771
1690841340676558800,7.205558837890625,0.0007696943357586861,0.0002128018531948328,-0.0012581143528223038
1690841340686600000,7.215599853515625,0.0009740274399518967,0.0020110406912863255,0.0008053891360759735
1690841340696640000,7.225639892578125,-0.0008283997885882854,-0.0010505293030291796,-0.002218630164861679
1690841340706680000,7.23568017578125,-0.00041825277730822563,-0.00039700884371995926,-0.0011083446443080902
1690841340716721200,7.24572119140625,0.00010372698307037354,-0.0004161836113780737,-0.00206708163022995
1690841340726761000,7.255760986328125,0.036568254232406616,-0.578054666519165,-0.2808559536933899
1690841340736801000,7.265801025390625,-0.005279860459268093,0.011077056638896465,-0.17684830725193024
1690841340746840800,7.2758408203125,0.004117388278245926,0.027081722393631935,-0.11896086484193802
1690841340756911900,7.285911865234375,-0.001991104334592819,-0.035434652119874954,-0.10508286207914352
1690841340766953000,7.295952880859375,-0.007943155243992805,-0.06651626527309418,-0.02075403369963169
1690841340776993000,7.305992919921875,-0.00959538109600544,-0.06976824998855591,0.032044731080532074
1690841340787032800,7.31603271484375,-0.0059748683124780655,-0.05494203791022301,0.07754163444042206
1690841340797073000,7.326072998046875,0.000279831700026989,-0.02461928501725197,0.11320935189723969
1690841340807114000,7.336114013671875,0.006753376219421625,0.004681483842432499,0.11792115867137909
1690841340817154000,7.346154052734375,0.0059043606743216515,0.026464277878403664,0.11628970503807068
1690841340827193900,7.35619384765625,0.0065777660347521305,0.04767555370926857,0.09873411059379578
1690841340837235000,7.36623486328125,0.002984096296131611,0.049750953912734985,0.06973335146903992
1690841340847275000,7.37627490234375,-0.0005738683976233006,0.041304875165224075,0.04123424366116524
1690841340857315000,7.386315185546875,-0.00664507644250989,0.021208662539720535,0.0014237146824598312
1690841340867355000,7.39635498046875,-0.005876701325178146,-0.004975138697773218,-0.04197434335947037
1690841340877426000,7.406426025390625,-0.0034404415637254715,-0.02698536589741707,-0.06567034870386124
1690841340887466000,7.416466064453125,0.0008529985789209604,-0.03504915535449982,-0.08958103507757187
1690841340897507000,7.426507080078125,0.004363310988992453,-0.03236974775791168,-0.09488259255886078
1690841340907547000,7.436546875,0.004705103114247322,-0.02025555819272995,-0.08178327232599258
1690841340917587000,7.4465869140625,0.003559943987056613,-0.003152204677462578,-0.07121611386537552
1690841340927628000,7.4566279296875,0.0006247134879231453,0.006796295754611492,-0.04512215405702591
1690841340937667800,7.466667724609375,-0.00011964002624154091,0.02100958488881588,-0.016695039346814156
1690841340947708000,7.4767080078125,-0.0010153898037970066,0.026435501873493195,0.008025120012462139
1690841340957748000,7.486748046875,-0.0023187408223748207,0.029316242784261703,0.042100533843040466
1690841340967789000,7.4967890625,-0.003101993352174759,0.02114153653383255,0.05988973006606102
1690841340977828900,7.506828857421875,-0.00031739240512251854,0.006652874872088432,0.0628248006105423
1690841340987900000,7.51689990234375,0.0007439614273607731,-0.0062843733467161655,0.0698745995759964
1690841340997940000,7.52693994140625,0.00019801314920186996,-0.02236880175769329,0.05569487065076828
1690841341007979800,7.536979736328125,0.0008787834085524082,-0.028297806158661842,0.04151616618037224
1690841341018020900,7.547020751953125,0.0004180567339062691,-0.025234637781977654,0.025901518762111664
1690841341028061000,7.55706103515625,-0.0007120724767446518,-0.017761122435331345,-0.002178700640797615
1690841341038101000,7.56710107421875,-0.00003216788172721863,-0.009939417243003845,-0.022203274071216583
1690841341048142000,7.57714208984375,-0.0024475380778312683,0.0048843864351511,-0.032015956938266754
1690841341058182000,7.587181884765625,-0.0004568248987197876,0.01637273095548153,-0.04873261600732803
1690841341068222000,7.597221923828125,-0.0016350816003978252,0.02192590944468975,-0.043439917266368866
1690841341078261800,7.60726171875,0.00009677233174443245,0.02402794174849987,-0.048547059297561646
1690841341088302800,7.617302734375,-0.0003763316199183464,0.018655315041542053,-0.040882714092731476
1690841341098343000,7.627343017578125,0.0005355346947908401,0.009767813608050346,-0.021150821819901466
1690841341108414000,7.6374140625,0.00115171167999506,0.0017987836617976427,-0.011084916070103645
1690841341118454000,7.6474541015625,0.0008126911707222462,-0.008228284306824207,0.006529496982693672
1690841341128494000,7.657494140625,0.0006020199507474899,-0.012775758281350136,0.02551736868917942
1690841341138535000,7.667534912109375,0.0008057518862187862,-0.013193609192967415,0.02756693586707115
1690841341148575000,7.677574951171875,-0.0011039241217076778,-0.01504791621118784,0.030528157949447632
1690841341158614800,7.68761474609375,-0.00013985997065901756,-0.0078605767339468,0.0385378822684288
1690841341168654800,7.69765478515625,-0.001012121792882681,-0.0015638498589396477,0.03274305909872055
1690841341178696000,7.707696044921875,-0.0001649702899158001,0.0006447094492614269,0.02840769663453102
1690841341188736000,7.717736083984375,-0.00017122691497206688,0.008513894863426685,0.014093147590756416
1690841341198776000,7.727776123046875,-0.000692407600581646,0.006161524914205074,-0.0046448539942502975
1690841341208817000,7.73781689453125,-0.001836264505982399,0.00637485645711422,-0.013119969516992569
1690841341218887000,7.747886962890625,-0.00041333772242069244,0.0027239290066063404,-0.021938495337963104
1690841341228927700,7.757927734375,0.0006831730715930462,0.004416594281792641,-0.02820609323680401
1690841341238967800,7.7679677734375,-0.000678501557558775,0.0006908321520313621,-0.024340515956282616
1690841341249007900,7.7780078125,-0.0008271201513707638,-0.000536477193236351,-0.029042527079582214
1690841341259049000,7.788049072265625,-0.0008241906762123108,-0.0021647335961461067,-0.0250544436275959
1690841341269089000,7.798089111328125,0.0002390691079199314,-0.002214210107922554,-0.007942846044898033
1690841341279129000,7.808129150390625,0.00020711077377200127,0.00007371185347437859,-0.003965415060520172
1690841341289169000,7.8181689453125,-0.0001793685369193554,-0.0005225338973104954,0.008379903621971607
1690841341299209700,7.828209716796875,-0.0006542103365063667,0.002631980460137129,0.018636269494891167
1690841341309255700,7.838255615234375,-0.001007836777716875,0.0015114294365048409,0.016855236142873764
1690841341319295700,7.848295654296875,0.0007067066617310047,-0.0011517317034304142,0.020879538729786873
1690841341329335800,7.858335693359375,0.00001749396324157715,0.0008707959204912186,0.022253405302762985
1690841341339406800,7.86840673828125,0.0007357485592365265,0.0002596003469079733,0.0137672433629632
1690841341349447700,7.87844775390625,0.0005577094852924347,-0.0019853648263961077,0.008010894060134888
1690841341359487700,7.88848779296875,-0.000812220387160778,-0.0006420661229640245,-0.0011980514973402023
1690841341369527800,7.89852783203125,0.0009660844225436449,-0.003123129950836301,-0.010588578879833221
1690841341379567600,7.908567626953125,-0.0004571089521050453,-0.00082375667989254,-0.008248459547758102
1690841341389608700,7.918608642578125,0.0008949919138103724,0.001410761964507401,-0.014631316065788269
1690841341399648800,7.928648681640625,0.0009655656758695841,0.001725813839584589,-0.013961266726255417
1690841341409688800,7.938688720703125,0.0009716355707496405,0.005658269394189119,-0.016609009355306625
1690841341419729700,7.948729736328125,0.0018150587566196918,0.002836916595697403,-0.01573948562145233
1690841341429769700,7.958769775390625,0.0010296148248016834,0.003200309816747904,-0.010154040530323982
1690841341439809800,7.968809814453125,-0.0006250073201954365,0.0026612861547619104,-0.0009610746055841446
1690841341449880600,7.978880615234375,0.0006795558147132397,-0.0004892805591225624,0.00104585662484169
1690841341459920600,7.988920654296875,-0.0006834501400589943,0.0007229904877021909,0.011869475245475769
1690841341469960700,7.998960693359375,-0.0010531647130846977,-0.002380386460572481,0.011981146410107613
1690841341480001800,8.009001708984375,0.0006975973956286907,-0.0024885106831789017,0.006124055944383144
1690841341490041900,8.019041748046876,-0.0010249041952192783,-0.003826204454526305,0.015972724184393883
1690841341500081700,8.02908154296875,0.00026086997240781784,-0.0017779672052711248,0.012208346277475357
1690841341510122800,8.039122802734376,0.002410625573247671,-0.0007709176279604435,0.006184459663927555
1690841341520162600,8.04916259765625,0.0008622636087238789,0.001628590514883399,0.0032877400517463684
1690841341530202600,8.05920263671875,0.0004818304441869259,0.0015629306435585022,-0.001725977286696434
1690841341540242700,8.06924267578125,0.0002834252081811428,-0.000015258556231856346,-0.007951382547616959
1690841341550283800,8.07928369140625,-0.0002127513289451599,0.003355481196194887,-0.00490029901266098
1690841341560354800,8.089354736328126,-0.0005818651989102364,0.0021136493887752295,-0.010799732059240341
1690841341570395000,8.099394775390625,0.000813234131783247,0.0016141311498358846,-0.006423484534025192
1690841341580434700,8.1094345703125,0.0010979259386658669,0.002629594411700964,-0.008543893694877625
1690841341590474500,8.119474609375,0.00018044281750917435,0.0012029185891151428,-0.005746081471443176
1690841341600515600,8.129515625,0.0009740649256855249,-0.001224552746862173,0.0011842623353004456
1690841341610555600,8.1395556640625,-0.0005641048774123192,0.0010798332514241338,0.004579056054353714
1690841341620595700,8.149595703125,0.0003967639058828354,-0.002350051887333393,0.005802512168884277
1690841341630636800,8.15963671875,-0.000820784829556942,0.0004824143834412098,0.009898957796394825
1690841341640676900,8.1696767578125,0.0008924268186092377,-0.0010052274446934462,0.0031995102763175964
1690841341650716700,8.179716552734375,0.0017450456507503986,-0.0012446974869817495,0.006901382468640804
1690841341660756500,8.189756591796876,0.000558074563741684,0.0015665353275835514,0.009305151179432869
1690841341670827500,8.19982763671875,-0.00018157856538891792,0.0013308455236256123,0.0021606888622045517
1690841341680867600,8.20986767578125,-0.00045774830505251884,-0.000853479141369462,-0.00019993633031845093
1690841341690908700,8.21990869140625,0.0012456215918064117,0.0027646045200526714,-0.004047932103276253
1690841341700948700,8.22994873046875,-0.0009895693510770798,0.0014359535416588187,-0.009859215468168259
1690841341710988800,8.23998876953125,0.0002582920715212822,0.0008274498395621777,-0.0047437287867069244
1690841341721029600,8.250029541015625,-0.0006730151362717152,0.004884509369730949,-0.0015556588768959045
1690841341731069700,8.260069580078126,-0.00030129263177514076,0.000784988165833056,-0.006749579682946205
1690841341741109500,8.270109619140625,0.00038713449612259865,0.0006963049527257681,-0.003383876755833626
1690841341751149600,8.280149658203126,0.0014893210027366877,-0.0002960797864943743,-0.006778594106435776
1690841341761190700,8.290190673828125,-0.0010140505619347095,0.00012709642760455608,-0.0024533532559871674
1690841341771230700,8.300230712890626,-0.00009897677227854729,-0.0012335125356912613,0.00038238056004047394
1690841341781270800,8.310270751953125,-0.000391391571611166,-0.0015363136772066355,-0.0011590570211410522
1690841341791341800,8.320341796875,-0.0008919010870158672,-0.00067289755679667,0.004670863971114159
1690841341801381600,8.330381591796876,-0.0004282449372112751,-0.00016210321336984634,0.0072962092235684395
1690841341811422500,8.34042236328125,0.000998232513666153,-0.0005414858460426331,0.0035757366567850113
1690841341821462500,8.350462646484376,-0.00015012267976999283,-0.00016651256009936333,0.0021823719143867493
1690841341831502600,8.360502685546875,-0.000798054039478302,0.0005456501385197043,0.001331297680735588
1690841341841543700,8.370543701171876,0.0003966395743191242,-0.00042294152081012726,-0.0063476599752902985
1690841341851583700,8.380583740234375,-0.00008254684507846832,-0.00007348856888711452,-0.0008777063339948654
1690841341861623800,8.390623779296876,-0.000985891092568636,0.0013979078503325582,-0.0016313809901475906
1690841341871663900,8.400663818359375,0.0020579372067004442,-0.0021402158308774233,-0.01262328028678894
1690841341881704700,8.41070458984375,-0.0005066869780421257,0.000919490004889667,0.004822823219001293
1690841341891744500,8.42074462890625,0.00031294720247387886,0.0014086292358115315,-0.002087971195578575
1690841341901815600,8.430815673828125,-0.000054303091019392014,-0.0007815544959157705,-0.006357019767165184
1690841341911855600,8.440855712890626,0.0006352118216454983,-0.00016997125931084156,0.002616552636027336
1690841341921895700,8.450895751953125,0.0008631784003227949,-0.0006639875937253237,-0.003000853583216667
1690841341931936800,8.460936767578126,0.0003021364100277424,-0.0002126570325344801,0.0004347115755081177
1690841341941976800,8.470976806640625,-0.0007141260430216789,-0.0013096132315695286,0.0028448719531297684
1690841341952016600,8.4810166015625,0.00020390888676047325,-0.0010925654787570238,0.0036837682127952576
1690841341962056700,8.491056640625,-0.0009481743909418583,-0.003433483885601163,0.0006581507623195648
1690841341972097500,8.50109765625,-0.000569869764149189,0.0006600212072953582,0.003947628661990166
1690841341982137600,8.5111376953125,0.0020400281064212322,0.0014666926581412554,-0.005460785701870918
1690841341992177700,8.521177734375,-0.0005063852295279503,0.001437008148059249,0.004882771521806717
1690841342002218800,8.53121875,-0.00008054589852690697,-0.001240800367668271,0.0029578376561403275
1690841342012288800,8.541288818359375,-0.0003228718414902687,0.0017365487292408943,-0.0009535346180200577
1690841342022329900,8.551329833984376,-0.00037027616053819656,0.0007240148261189461,-0.00038228556513786316
1690841342032369700,8.56136962890625,-0.00037164194509387016,0.0014636816922575235,-0.003492020070552826
1690841342042409700,8.57140966796875,-0.000473641324788332,-0.0013427573721855879,-0.00411653146147728
1690841342052449800,8.58144970703125,0.00007575051859021187,0.0018141117179766297,0.00875607319176197
1690841342062490600,8.59149072265625,0.0005356785841286182,-0.0013404025230556726,-0.0061155520379543304
1690841342072530700,8.60153076171875,0.0004971884191036224,-0.000020142877474427223,-0.0020546354353427887
1690841342082570800,8.61157080078125,0.0007690973579883575,0.000854971818625927,0.0005416814237833023
1690841342092611800,8.62161181640625,0.0008513291832059622,-0.0006831623613834381,-0.007502129301428795
1690841342102651600,8.631651611328126,-0.00034576142206788063,0.0013624116545543075,0.0043816957622766495
1690841342112691700,8.641691650390625,-0.001571133267134428,0.003912827931344509,0.009062633849680424
1690841342122762800,8.6517626953125,-0.000532766804099083,0.001128493226133287,-0.004325343295931816
1690841342132802800,8.661802734375,-0.0008291853591799736,0.0005681946640834212,0.0042927879840135574
1690841342142843600,8.67184375,0.0012651244178414345,0.001216141739860177,0.0019196458160877228
1690841342152883700,8.6818837890625,0.0004153084009885788,0.0002718016039580107,-0.0028203539550304413
1690841342162923800,8.691923828125,-0.0010795239359140396,0.00024117529392242432,0.010204101912677288
1690841342172963600,8.701963623046876,0.0007362402975559235,-0.0007186753209680319,-0.003018263727426529
1690841342183004700,8.712004638671875,0.0005106702446937561,-0.00041614030487835407,-0.0038339905440807343
1690841342193044700,8.722044677734376,0.001014127628877759,-0.0012464553583413363,-0.0026766322553157806
1690841342203084800,8.732084716796875,-0.0026434576138854027,-0.00021075201220810413,-0.004942717030644417
1690841342213125600,8.742125732421876,-0.00004809768870472908,-0.0019043569918721914,-0.0005762558430433273
1690841342223165700,8.752165771484375,-0.0004451749846339226,0.004915199242532253,0.0074989814311265945
1690841342233236700,8.76223681640625,0.0006022891029715538,0.0028046383522450924,0.0004632510244846344
1690841342243276500,8.772276611328126,0.001563423778861761,0.0010767794447019696,0.001887243241071701
1690841342253316600,8.782316650390625,0.0011611131485551596,0.0027209690306335688,0.0033819731324911118
1690841342263356700,8.792356689453126,0.00021063070744276047,-0.0018972184043377638,-0.002315327525138855
1690841342273397800,8.802397705078125,-0.0011852825991809368,0.0005995958345010877,0.009612378664314747
1690841342283437800,8.812437744140626,-0.00030484143644571304,0.0011159827699884772,0.0011808108538389206
1690841342293478000,8.822477783203125,0.00009626010432839394,-0.002547135576605797,-0.007973732426762581
1690841342303518700,8.832518798828126,-0.0003375690430402756,-0.0007074237801134586,0.00017580576241016388
1690841342313560000,8.84256005859375,0.001869633561000228,0.0021140347234904766,-0.0017755050212144852
1690841342323600100,8.85260009765625,-0.0004497133195400238,-0.002369663445279002,-0.000863371416926384
1690841342333640200,8.86264013671875,-0.0008622934110462666,0.005037327762693167,0.00891115702688694
1690841342343711200,8.872711181640625,0.0005928580649197102,0.001890802988782525,-0.004886947572231293
1690841342353752000,8.882751953125,0.0004419945180416107,-0.0005677812732756138,-0.002248840406537056
1690841342363792100,8.892792236328125,-0.0015825405716896057,0.0017981709679588675,0.0044929515570402145
1690841342373832000,8.90283203125,0.0007060817442834377,-0.0004101681988686323,-0.0019308384507894516
1690841342383872000,8.9128720703125,-0.0013576014898717403,-0.0023944894783198833,0.002641810104250908
1690841342393913000,8.9229130859375,0.0007029441185295582,-0.0011454669293016195,0.0015507116913795471
1690841342403953200,8.932953125,0.00085634202696383,-0.003287979867309332,-0.009475041180849075
1690841342413993200,8.9429931640625,0.00044053513556718826,0.0002450249157845974,0.0019970741122961044
1690841342424034000,8.953033935546875,-0.0006106141954660416,0.0027875448577106,0.0011840127408504486
1690841342434074000,8.96307421875,-0.00057228934019804,0.003343545366078615,-0.0010054204612970352
1690841342444114000,8.973114013671875,-0.0003025112673640251,-0.0001702294684946537,0.009764137677848339
1690841342454185000,8.98318505859375,0.0010496038012206554,0.002197645138949156,-0.003258178010582924
1690841342464225000,8.99322509765625,0.00004665739834308624,0.0004175882786512375,-0.0015537552535533905
1690841342474265000,9.00326513671875,0.00031236885115504265,0.0008882746333256364,0.005088162608444691
1690841342484306200,9.01330615234375,0.0018295715562999249,0.000741268158890307,0.0013032779097557068
1690841342494346200,9.02334619140625,-0.0007077665068209171,-0.0002231243997812271,0.004133943468332291
1690841342504386300,9.03338623046875,-0.000155692920088768,0.002475190442055464,0.006757156923413277
1690841342514427100,9.04342724609375,-0.0009639263153076172,-0.0017369252163916826,-0.009744593873620033
1690841342524467000,9.053467041015624,-0.0009516761638224125,-0.0010298558045178652,0.002301149070262909
1690841342534507000,9.063507080078125,-0.00036843912675976753,0.00023063411936163902,0.0008547864854335785
1690841342544547000,9.073547119140626,-0.001014788169413805,-0.0016538186464458704,-0.003598816692829132
1690841342554588200,9.083588134765625,-0.0009180628694593906,0.0026255378033965826,0.008104708045721054
1690841342564659200,9.0936591796875,0.0008673204574733973,0.003507310524582863,-0.001574549823999405
1690841342574699300,9.10369921875,-0.0007905969396233559,-0.0012247201520949602,-0.005047813057899475
1690841342584739000,9.113739013671875,-0.0000023012980818748474,0.002503438852727413,0.005058882758021355
1690841342594779100,9.123779052734376,-0.002041150350123644,0.0005392602179199457,0.0008462890982627869
1690841342604820000,9.133820068359375,0.0008270740509033203,-0.00045676203444600105,0.0011261869221925735
1690841342614860000,9.143860107421874,0.00031733233481645584,-0.0021371180191636086,0.006396288983523846
1690841342624900000,9.153900146484375,0.0012760702520608902,-0.001487306784838438,-0.009769098833203316
1690841342634941200,9.163941162109374,-0.000669616274535656,-0.0006559479515999556,-0.000020060688257217407
1690841342644981200,9.173981201171875,0.00024624448269605637,0.0007395484717562795,0.00309051014482975
1690841342655021300,9.184021240234374,0.0007196771912276745,0.0005021411925554276,-0.0008259154856204987
1690841342665061000,9.19406103515625,-0.0013964702375233173,0.0016941720386967063,0.006133456714451313
1690841342675132200,9.204132080078125,-0.0015620631165802479,0.003101977286860347,0.000642796978354454
1690841342685172000,9.214171875,0.00010880408808588982,-0.0011913045309484005,-0.008757362142205238
1690841342695213000,9.224213134765625,0.00003023725003004074,0.00007487204857170582,0.004315843805670738
1690841342705253000,9.234253173828124,0.00025234511122107506,0.001282881828956306,0.0010923538357019424
1690841342715293200,9.244293212890625,-0.00024094060063362122,0.0006105317734181881,-0.002208096906542778
1690841342725334300,9.254334228515624,0.00037078792229294777,0.0012504893820732832,0.008177699521183968
1690841342735374000,9.2643740234375,0.0005764723755419254,-0.000769871287047863,-0.006253348663449287
1690841342745414100,9.2744140625,-0.0017665768973529339,-0.0023523217532783747,-0.0018090661615133286
1690841342755454000,9.284453857421875,-0.0019171726889908314,0.0016505973180755973,0.006841330789029598
1690841342765495000,9.2944951171875,0.0009595742449164391,-0.0005334611050784588,-0.0009111315011978149
1690841342775535000,9.30453515625,-0.0004833107814192772,0.0014538922114297748,0.0024970415979623795
1690841342785606100,9.314606201171875,0.0012272377498447895,0.0012538888258859515,0.007092858664691448
1690841342795646200,9.324646240234374,-0.00046801427379250526,-0.0033034319058060646,-0.009976191446185112
1690841342805686000,9.33468603515625,0.00041695404797792435,-0.0010828881058841944,0.005128192715346813
1690841342815727000,9.34472705078125,0.0008142380975186825,0.00008306070230901241,0.0013016890734434128
1690841342825767200,9.35476708984375,-0.0000989595428109169,-0.0011654291301965714,-0.003734081983566284
1690841342835807000,9.364806884765626,-0.0017551109194755554,0.0013660307740792632,0.006507932208478451
1690841342845847000,9.374846923828125,0.0006105750799179077,0.00001793866977095604,0.000286787748336792
1690841342855888100,9.38488818359375,0.003176151541993022,-0.001692319754511118,-0.005711721256375313
1690841342865928200,9.39492822265625,-0.0006119287572801113,-0.000019321683794260025,0.007852822542190552
1690841342875968000,9.404968017578126,0.0005441415123641491,0.0028275265358388424,-0.0002527143806219101
1690841342886009000,9.415009033203125,-0.0006795809604227543,0.001086618285626173,-0.0002018474042415619
1690841342896079000,9.4250791015625,-0.00020305346697568893,0.002730951877310872,0.00556284561753273
1690841342906120000,9.435119873046874,-0.0000214260071516037,-0.0006227667909115553,-0.010089883580803871
1690841342916160000,9.445159912109375,-0.0008826241828501225,-0.001419340493157506,-0.001202685758471489
1690841342926200000,9.455199951171876,0.00016799289733171463,0.0011197171406820416,0.0032237544655799866
1690841342936241200,9.4652412109375,-0.00013427715748548508,-0.0009352297056466341,-0.0029975920915603638
1690841342946281200,9.47528125,-0.0006408104673027992,0.0014877143548801541,0.002366546541452408
1690841342956321000,9.485321044921875,0.0005249860696494579,0.004151640459895134,0.0013994909822940826
1690841342966361000,9.495361083984376,-0.0017520166002213955,-0.00004257191903889179,0.00006711110472679138
1690841342976402000,9.50540185546875,0.00002688216045498848,0.00044903415255248547,0.006095428951084614
1690841342986442000,9.51544189453125,-0.00011080317199230194,-0.000019415980204939842,0.0020444951951503754
1690841342996513000,9.525512939453124,0.0003406624309718609,0.0015764213167130947,-0.001469101756811142
1690841343006553000,9.535552978515625,-0.0007520322687923908,0.002960199723020196,0.006480167619884014
1690841343016593000,9.545593017578126,0.0009366222657263279,-0.0006152107380330563,-0.007031967863440514
1690841343026634000,9.555634033203125,0.0008846905548125505,-0.0010117553174495697,-0.0030619949102401733
1690841343036674000,9.565674072265624,-0.0020796027965843678,-0.001958903856575489,0.003864247351884842
1690841343046714000,9.575714111328125,0.00011351052671670914,-0.00022997986525297165,-0.0034695658832788467
1690841343056754200,9.585754150390626,-0.0002598869614303112,0.0005439475644379854,0.002256721258163452
1690841343066795000,9.595794921875,-0.0015267529524862766,0.0019165407866239548,0.0038351770490407944
1690841343076835000,9.6058349609375,0.0010926173999905586,0.000246263574808836,-0.009566957131028175
1690841343086875000,9.615875,0.0008577266708016396,0.004412512760609388,0.0015661213546991348
1690841343096916000,9.625916015625,-0.0009571714326739311,0.0010603395057842135,0.0023398511111736298
1690841343106986000,9.635986083984376,-0.0015449309721589088,-0.0005266382358968258,-0.003716975450515747
1690841343117027000,9.646027099609375,-0.00009242305532097816,0.002473762258887291,0.0029743406921625137
1690841343127067100,9.656067138671874,0.0018133351113647223,0.001572015811689198,-0.003534957766532898
1690841343137107200,9.666107177734375,0.00007400522008538246,-0.0005153643433004618,-0.006581343710422516
1690841343147148000,9.67614794921875,-0.00009643705561757088,0.0016465899534523487,0.004092339426279068
1690841343157188000,9.68618798828125,-0.00008785771206021309,0.0006968829547986388,-0.0006682220846414566
1690841343167228000,9.696227783203126,-0.00010490231215953827,0.0010233864886686206,-0.0017396118491888046
1690841343177268000,9.70626806640625,-0.0005380520597100258,0.0026402815710753202,0.004412828013300896
1690841343187309000,9.71630908203125,-0.0005684122443199158,0.0024623821955174208,-0.008123736828565598
1690841343197349000,9.72634912109375,-0.001931990496814251,-0.0002909759059548378,0.001328747719526291
1690841343207389200,9.73638916015625,-0.0009266473352909088,-0.0008688820526003838,-0.0012151040136814117
1690841343217460200,9.746460205078124,-0.00031738122925162315,0.0005356683395802975,-0.0030495617538690567
1690841343227500000,9.7565,-0.00024121487513184547,0.00022407853975892067,0.0016341395676136017
1690841343237540900,9.766540771484374,0.0007986566051840782,0.0013098903000354767,-0.0008403677493333817
1690841343247581000,9.776580810546875,-0.0006365207955241203,-0.0013703149743378162,-0.009748907759785652
1690841343257621000,9.78662109375,-0.0005892603658139706,0.0006607712712138891,0.007955353707075119
1690841343267661000,9.7966611328125,-0.00015836115926504135,-0.000020465347915887833,0.002721177414059639
1690841343277702100,9.8067021484375,-0.0003091157414019108,-0.00020697712898254395,-0.0014129113405942917
1690841343287742200,9.8167421875,0.00016545969992876053,0.0008982345461845398,0.004459625110030174
1690841343297782300,9.8267822265625,0.00022002402693033218,-0.000536907697096467,-0.006718918681144714
1690841343307823000,9.836822998046875,-0.0009099552407860756,-0.002198719885200262,-0.0012184269726276398
1690841343317853700,9.846853759765626,-0.0004499293863773346,0.0010702504077926278,0.006406812928617001
1690841343327924500,9.856924560546876,0.00046300236135721207,0.00018421676941215992,-0.0034743137657642365
1690841343337964500,9.866964599609375,0.0004607066512107849,-0.0022695763036608696,-0.00031951628625392914
1690841343348004600,9.877004638671876,0.0009424726013094187,-0.0002407801803201437,0.0051365019753575325
1690841343358045700,9.887045654296875,0.0009688881691545248,0.0007739074062556028,-0.008202005177736282
1690841343368085500,9.89708544921875,-0.0004207491874694824,0.00027722795493900776,0.005777459591627121
1690841343378125600,9.90712548828125,0.0019216216169297695,-0.00007716426625847816,0.0032091382890939713
1690841343388165400,9.917165283203126,-0.001664591021835804,0.0005934196524322033,-0.0035518277436494827
1690841343398206500,9.92720654296875,0.00039851758629083633,0.004913317505270243,0.0028598960489034653
1690841343408246500,9.93724658203125,-0.000310415867716074,-0.00012564938515424728,-0.00373116135597229
1690841343418286600,9.94728662109375,-0.0003318064846098423,-0.0004270239733159542,-0.006022082641720772
1690841343428327700,9.95732763671875,-0.0013853530399501324,0.00014662090688943863,0.007243654690682888
1690841343438397700,9.967397705078126,-0.00017671659588813782,0.0018573192646726966,-0.003573071211576462
1690841343448438500,9.9774384765625,-0.0005817837081849575,-0.00018319487571716309,-0.0010696984827518463
1690841343458478600,9.987478515625,-0.0013615339994430542,-0.00018869549967348576,0.004626289010047913
1690841343468518400,9.997518310546875,0.0017793979495763779,-0.0011178723070770502,-0.00952974520623684
1690841343478558500,10.007558349609376,-0.0005763391964137554,-0.0023485999554395676,0.0028290171176195145
1690841343488599600,10.017599609375,-0.0009771445766091347,0.003132718149572611,0.005254090763628483
1690841343498639600,10.0276396484375,0.0011153160594403744,-0.000012114178389310837,-0.004555409774184227
1690841343508679700,10.0376796875,-0.0006010914221405983,0.000624114996753633,0.0014606714248657227
1690841343518720500,10.047720458984376,0.0004466697573661804,0.0017546575982123613,0.00032688118517398834
1690841343528760600,10.057760498046875,0.0017673310358077288,0.0004398550372570753,-0.008674070239067078
1690841343538831400,10.067831298828125,-0.0019774092361330986,-0.00072071747854352,0.008606773801147938
1690841343548871400,10.077871337890626,0.0008974731899797916,0.001959487795829773,0.0010015852749347687
1690841343558911500,10.087911376953125,0.000018266960978507996,-0.0019068734254688025,-0.002788294106721878
1690841343568952600,10.09795263671875,0.0002720663323998451,-0.0004445314407348633,0.0023420192301273346
1690841343578992600,10.10799267578125,-0.0005368813872337341,0.0013490170240402222,-0.006848886609077454
1690841343589032700,10.11803271484375,-0.0016357018612325191,0.0006557962624356151,-0.0005608983337879181
1690841343599072800,10.12807275390625,-0.002096446231007576,0.0012313863262534142,0.008206299506127834
1690841343609113600,10.138113525390626,-0.0009305141866207123,-0.0014376337639987469,-0.0029880311340093613
1690841343619153400,10.1481533203125,0.0009472961537539959,0.0006210056599229574,-0.0005102269351482391
1690841343629193500,10.158193359375,0.0004889662377536297,0.0013022422790527344,-0.00041355378925800323
1690841343639233500,10.168233642578125,0.0009647051338106394,-0.00176590820774436,-0.00922016054391861
1690841343649304600,10.1783046875,-0.0008076285012066364,0.00025276769883930683,0.0033630095422267914
1690841343659345700,10.188345703125,-0.0001957342028617859,0.0027910489588975906,0.0036290958523750305
1690841343669385700,10.1983857421875,0.0004407614469528198,-0.0005323097575455904,-0.004418443888425827
1690841343679425500,10.208425537109376,-0.0004529869183897972,-0.0023014722391963005,0.001802617684006691
1690841343689465600,10.218465576171875,-0.0008745654486119747,-0.0005874617490917444,-0.00023283809423446655
1690841343699506400,10.22850634765625,0.0010150880552828312,-0.0019215287175029516,-0.005202393978834152
1690841343709546500,10.23854638671875,-0.0001263427548110485,0.0009022210724651814,0.009539533406496048
1690841343719586600,10.248586669921876,-0.0001537138596177101,0.0026706219650804996,-0.0018499046564102173
1690841343729627600,10.258627685546875,0.000025783199816942215,0.001505488995462656,-0.004204938188195229
1690841343739667700,10.268667724609376,0.0005801580846309662,0.001646153163164854,0.003012659028172493
1690841343749707500,10.27870751953125,0.0005348841659724712,-0.0001480185892432928,-0.00042308494448661804
1690841343759778600,10.288778564453125,0.0014229442458599806,-0.0012420250568538904,0.0007193237543106079
1690841343769818600,10.298818603515626,-0.00006469758227467537,0.0023479158990085125,0.007640614174306393
1690841343779858700,10.308858642578125,0.0011988854967057705,-0.001459493301808834,-0.004952546209096909
1690841343789899500,10.3188994140625,0.0003591906279325485,0.0014753101859241724,0.0016715358942747116
1690841343799939600,10.328939697265625,0.0006436831317842007,0.00035368395037949085,-0.0005204584449529648
1690841343809979600,10.338979736328126,0.00048575783148407936,0.0033907529432326555,-0.0001601334661245346
1690841343820020700,10.349020751953125,-0.000780976377427578,0.0002625696361064911,0.009774762205779552
1690841343830060500,10.359060546875,0.0009665901307016611,0.002677790354937315,0.0020968690514564514
1690841343840100600,10.3691005859375,0.0005147913470864296,0.00013773771934211254,-0.004088744521141052
1690841343850140700,10.379140625,-0.000354996882379055,-0.002898798556998372,0.0007129348814487457
1690841343860181500,10.389181396484375,0.0008945898152887821,-0.001191542251035571,-0.003936702385544777
1690841343870252500,10.39925244140625,0.0008080373518168926,-0.0001015104353427887,-0.0013467781245708466
1690841343880292600,10.409292724609376,-0.0009794915094971657,0.0011907211737707257,0.009306157007813454
1690841343890332400,10.41933251953125,-0.00025218212977051735,0.0000010870862752199173,-0.004243208095431328
1690841343900372500,10.42937255859375,-0.0001345439814031124,0.0003265503328293562,-0.0009731147438287735
1690841343910413600,10.43941357421875,-0.00019979150965809822,0.0005108410259708762,0.0006538107991218567
1690841343920453600,10.44945361328125,-0.0005522863939404488,0.000359709607437253,-0.0068967584520578384
1690841343930493700,10.45949365234375,0.0004754276014864445,-0.0006688032299280167,0.00049644336104393
1690841343940534500,10.469534423828126,0.0002939789555966854,0.0025084626395255327,0.003742959350347519
1690841343950574600,10.47957470703125,0.0005083633586764336,-0.0013959978241473436,-0.006127249449491501
1690841343960614700,10.48961474609375,0.00017772335559129715,0.0010136027121916413,0.0025987643748521805
1690841343970685400,10.499685546875,-0.0012137782759964466,0.0015403758734464645,-0.000890510156750679
1690841343980725500,10.5097255859375,0.0004421905614435673,-0.0009006839245557785,-0.004427766427397728
1690841343990765600,10.519765625,0.0008437954820692539,-0.000765128992497921,0.0014514271169900894
1690841344000806700,10.529806640625,-0.0004643527790904045,0.0012923245085403323,-0.0031967591494321823
1690841344010846700,10.5398466796875,0.0007095686160027981,-0.0001854635775089264,-0.003638043999671936
1690841344020886800,10.54988671875,0.0013011612463742495,0.0016356619307771325,0.0025044847279787064
1690841344030927600,10.559927734375,0.00035973358899354935,0.0011083560530096292,0.0008442699909210205
1690841344040967400,10.569967529296875,0.0009821548592299223,-0.0023760481271892786,-0.0016121305525302887
1690841344051007500,10.580007568359376,0.0002710907720029354,-0.0002050392795354128,-0.001480037346482277
1690841344061047600,10.590047607421875,0.00008455011993646622,0.002190179191529751,-0.0004662349820137024
1690841344071088600,10.600088623046876,0.0003482033498585224,0.000471108709461987,-0.0000723525881767273
1690841344081159700,10.61015966796875,0.0018494955729693174,-0.0011421141680330038,0.002119569107890129
1690841344091199700,10.62019970703125,0.0019128788262605667,-0.0017573044169694185,-0.0037878546863794327
1690841344101239800,10.63023974609375,-0.0009604161605238914,0.0001418660394847393,0.007051163353025913
1690841344111279400,10.640279296875,-0.0009934394620358944,0.0012334957718849182,0.000849459320306778
1690841344121320400,10.650320556640626,0.00015167007222771645,-0.00092526082880795,-0.004286445677280426
1690841344131360500,10.660360595703125,-0.0030904621817171574,0.001061989925801754,0.0035927817225456238
1690841344141400600,10.670400634765626,0.0003034668043255806,-0.0013164554256945848,-0.0007462576031684875
1690841344151441700,10.680441650390625,-0.0006784405559301376,-0.001427242998033762,-0.0006210897117853165
1690841344161481700,10.690481689453126,0.0006039263680577278,0.0003781192936003208,-0.00031416863203048706
1690841344171521500,10.700521484375,-0.0008956994861364365,-0.00027994788251817226,-0.00007767975330352783
1690841344181561300,10.710561279296876,-0.0019406937062740326,-0.0007454645819962025,0.0007059387862682343
1690841344191632400,10.72063232421875,-0.000453318003565073,-0.0005451950710266829,-0.0003497377038002014
1690841344201672400,10.73067236328125,0.0008932054042816162,0.00022802269086241722,-0.0038898903876543045
1690841344211713500,10.740713623046876,0.0013720416463911533,0.00019926042295992374,0.006299629807472229
1690841344221753600,10.750753662109375,0.000728309154510498,0.0011653817491605878,0.005112769082188606
1690841344231793700,10.760793701171876,0.0010750526562333107,0.0013688472099602222,0.0005318652838468552
1690841344241834800,10.770834716796875,0.0015761028043925762,0.0004546379204839468,0.0017052050679922104
1690841344251874600,10.78087451171875,-0.0009877225384116173,0.0007118992507457733,0.001345410943031311
1690841344261914400,10.790914306640625,0.0006717266514897346,-0.0016056261956691742,-0.004194289445877075
1690841344271954400,10.800954345703126,-0.0005005965940654278,0.0014101373963057995,0.00928530003875494
1690841344281995500,10.81099560546875,0.0009233050514012575,0.001271627377718687,-0.0026140734553337097
1690841344292066600,10.821066650390625,0.00004073372110724449,-0.0010495837777853012,-0.0006755590438842773
1690841344302106600,10.831106689453126,0.0009945027995854616,0.0010178758529946208,0.0020424090325832367
1690841344312145000,10.841144775390624,0.00011326279491186142,-0.001921721501275897,-0.002167515456676483
1690841344322185000,10.85118505859375,-0.0006034178659319878,-0.00204506260342896,0.0008482690900564194
1690841344332226000,10.86122607421875,0.0003388086333870888,0.0008127754554152489,-0.000536041334271431
1690841344342265900,10.871265869140625,0.0008700676262378693,-0.00010072835721075535,-0.0002574976533651352
1690841344352306000,10.881305908203124,-0.0006854846142232418,-0.0004762341268360615,-0.0021970774978399277
1690841344362347000,10.891346923828126,0.0010305559262633324,0.0005717803724110126,0.0011386480182409286
1690841344372386800,10.90138671875,0.0004822108894586563,-0.00041998084634542465,-0.0037740860134363174
1690841344382427000,10.911427001953125,0.0009186146780848503,0.00009347195737063885,0.005543992854654789
1690841344392467000,10.921467041015624,-0.00004118867218494415,0.002582196146249771,0.0025790948420763016
1690841344402538000,10.9315380859375,-0.00020872661843895912,-0.0012115065474063158,-0.00627465546131134
1690841344412577800,10.941577880859375,0.00045493291690945625,-0.0004546362906694412,-0.0005422011017799377
1690841344422619000,10.951618896484375,-0.0002812170423567295,0.0005906340666115284,-0.0003271009773015976
1690841344432659000,10.961658935546875,0.0013449089601635933,0.000491298153065145,-0.0005966126918792725
1690841344442699000,10.971698974609374,0.0003223428502678871,0.0005265462677925825,0.010701492428779602
1690841344452739800,10.98173974609375,-0.0005463799461722374,0.0014557231916114688,-0.004591710865497589
1690841344462780000,10.99177978515625,0.00029057078063488007,-0.0027058585546910763,-0.00311240553855896
1690841344472820000,11.001820068359375,-0.0007105115801095963,-0.00039929477497935295,-0.00010543130338191986
1690841344482859800,11.01185986328125,0.001922827446833253,-0.0008746553212404251,-0.0025765206664800644
1690841344492900900,11.02190087890625,-0.0009328802116215229,-0.00036306213587522507,0.003153802827000618
1690841344502941000,11.03194091796875,-0.0003486583009362221,0.002559625543653965,0.006618410348892212
1690841344513012000,11.042011962890625,0.0003893040120601654,0.00022856052964925766,0.0010265707969665527
1690841344523052000,11.052052001953125,-0.0008085537701845169,-0.0009170777630060911,0.00022092647850513458
1690841344533092000,11.062092041015624,-0.0012916512787342072,0.0010568571742624044,-0.0003971923142671585
1690841344543133000,11.0721328125,-0.00036098994314670563,-0.0005449878517538309,-0.001857886090874672
1690841344553173000,11.082173095703125,-0.0003391522914171219,0.0003082889597862959,0.007507919333875179
1690841344563212800,11.092212890625,-0.0005623912438750267,-0.0002398418728262186,-0.00018884986639022827
1690841344573252900,11.1022529296875,0.0009745191782712936,-0.0014782119542360306,-0.007741307839751244
1690841344583294000,11.1122939453125,-0.0009458865970373154,0.002295537618920207,0.005235335789620876
1690841344593334000,11.122333984375,-0.0008867643773555756,-0.0011420708615332842,0.001407308503985405
1690841344603374000,11.1323740234375,0.000892403069883585,-0.0005779161583632231,-0.001521289348602295
1690841344613445000,11.142445068359375,0.00035870587453246117,0.0019789848010987043,0.008881018497049809
1690841344623485000,11.15248486328125,0.0009978290181607008,0.00046484440099447966,-0.008540255948901176
1690841344633525800,11.16252587890625,0.00015999842435121536,-0.0029959336388856173,-0.0003763362765312195
1690841344643565800,11.17256591796875,-0.0001514754258096218,0.0028953261207789183,0.004235325381159782
1690841344653606000,11.18260595703125,-0.0011701341718435287,0.0007296435069292784,-0.0028319060802459717
1690841344663647000,11.19264697265625,-0.0000018975697457790375,-0.0019990848377346992,0.004741576500236988
1690841344673687000,11.20268701171875,0.00010516121983528137,0.0034268395975232124,0.0026597827672958374
1690841344683727000,11.21272705078125,0.00019350973889231682,-0.0009656841866672039,-0.007902899757027626
1690841344693767000,11.222766845703125,-0.0016677738167345524,0.002556612715125084,-0.0010516513139009476
1690841344703808000,11.23280810546875,0.0003628423437476158,0.0012835704255849123,-0.0005767885595560074
1690841344713847800,11.242847900390625,-0.0001290431246161461,-0.0023708189837634563,-0.001546178013086319
1690841344723918800,11.2529189453125,-0.0020000035874545574,0.0014001383678987622,0.007010127417743206
1690841344733959000,11.262958984375,0.0010581042151898146,-0.0002054814249277115,-0.00472642295062542
1690841344743999000,11.2729990234375,0.0004087691195309162,-0.0007671788334846497,-0.004748065024614334
1690841344754040000,11.2830400390625,-0.0007433146238327026,0.0018403221620246768,0.004162339493632317
1690841344764080000,11.293080078125,-0.00039938464760780334,0.00008836411871016026,-0.000526154413819313
1690841344774120000,11.303119873046874,-0.0008033858612179756,-0.00015478255227208138,0.0028544608503580093
1690841344784160000,11.313159912109375,-0.0000360291451215744,0.0015060914447531104,0.007218718528747559
1690841344794200800,11.323200927734375,-0.00022111879661679268,-0.0018276534974575043,-0.0071524977684021
1690841344804241000,11.333240966796875,0.000268696341663599,-0.0017938138917088509,-0.00033304840326309204
1690841344814281000,11.343281005859374,0.000057507771998643875,0.0005806604167446494,0.0021982844918966293
1690841344824322000,11.353322021484376,0.0004113009199500084,-0.0005819723010063171,-0.0019939541816711426
1690841344834391800,11.363391845703125,-0.0009919190779328346,0.0005384196992963552,0.005791530013084412
1690841344844433200,11.37343310546875,0.00019024359062314034,-0.00024179043248295784,-0.00034872815012931824
1690841344854473000,11.383472900390625,-0.0001013725996017456,-0.001399200176820159,-0.008565379306674004
1690841344864513000,11.393512939453124,0.0025885384529829025,-0.26780185103416443,-0.08892377465963364
1690841344874553900,11.403553955078126,0.0014939792454242706,0.11161179840564728,-0.2325373888015747
1690841344884594000,11.413593994140625,-0.02234780788421631,-0.056445226073265076,-0.23701219260692596
1690841344894634000,11.423634033203125,0.02049206756055355,0.09586921334266663,-0.14682449400424957
1690841344904674000,11.433674072265624,0.00691217603161931,0.03224105015397072,-0.06968988478183746
1690841344914715100,11.443715087890626,0.0032050558365881443,-0.023670153692364693,-0.052730873227119446
1690841344924755000,11.4537548828125,-0.005243715830147266,-0.026203757151961327,-0.008333608508110046
1690841344934826000,11.463825927734375,-0.008363875560462475,-0.033659808337688446,0.020439183339476585
1690841344944866000,11.473865966796875,-0.006185855250805616,-0.02083267830312252,0.053976528346538544
1690841344954906000,11.483906005859374,-0.0019769957289099693,-0.01228473149240017,0.08700105547904968
1690841344964947000,11.493947021484376,0.0018166513182222843,-0.0023050287272781134,0.09894531220197678
1690841344974987000,11.503987060546875,0.004449718631803989,0.008314592763781548,0.12328953295946121
1690841344985026800,11.51402685546875,0.005590616725385189,0.018452180549502373,0.12478835880756378
1690841344995067000,11.52406689453125,0.003772743046283722,0.02018003910779953,0.11488167196512222
1690841345005108000,11.53410791015625,0.0004307045601308346,0.0184749998152256,0.09394188970327377
1690841345015148000,11.54414794921875,-0.003697195090353489,0.011181667447090149,0.05987073853611946
1690841345025188000,11.55418798828125,-0.0028939349576830864,0.00023787165991961956,0.02243310585618019
1690841345035229000,11.56422900390625,-0.0014489036984741688,-0.008767873048782349,-0.003238169476389885
1690841345045299000,11.574298828125,0.0000030132941901683807,-0.013680154457688332,-0.04363660514354706
1690841345055340000,11.584340087890626,0.001704507041722536,-0.01337096281349659,-0.07218170166015625
1690841345065379800,11.5943798828125,0.005151454824954271,-0.012905134819447994,-0.08417357504367828
1690841345075420000,11.604419921875,0.003601495176553726,-0.007307436317205429,-0.10558246076107025
1690841345085461000,11.6144609375,0.0010983715765178204,0.0010817460715770721,-0.09437541663646698
1690841345095501000,11.6245009765625,-0.00013680243864655495,0.01075834222137928,-0.07981405407190323
1690841345105540900,11.634540771484374,0.00024450384080410004,0.01608034409582615,-0.06696974486112595
1690841345115581000,11.644580810546875,-0.0012207673862576485,0.01782498136162758,-0.03815966844558716
1690841345125622000,11.6546220703125,0.0009084467310458422,0.018977908417582512,-0.014817534014582634
1690841345135661800,11.664661865234375,-0.0006540301255881786,0.012685657478868961,0.00014197267591953278
1690841345145702000,11.674701904296874,0.001463218592107296,0.004737277515232563,0.038324639201164246
1690841345155773000,11.68477294921875,0.0024464575108140707,0.0028658739756792784,0.05015599727630615
1690841345165813000,11.69481298828125,0.00107114901766181,-0.01002422720193863,0.06032776087522507
1690841345175854000,11.70485400390625,-0.00047508208081126213,-0.012794713489711285,0.07471521943807602
1690841345185894000,11.714893798828125,-0.00032746605575084686,-0.016538485884666443,0.06458766758441925
1690841345195934000,11.724933837890624,-0.0007463814690709114,-0.01909778267145157,0.05894043296575546
1690841345205973800,11.734973876953125,-0.001994097139686346,-0.013016685843467712,0.05527326092123985
1690841345216014800,11.745014892578125,-0.0004902100190520287,-0.008257084526121616,0.02937242016196251
1690841345226055000,11.755054931640625,0.0008008838631212711,-0.005466550588607788,0.012307216413319111
1690841345236095000,11.765094970703124,-0.00021697627380490303,0.0041240244172513485,-0.0006701014935970306
1690841345246136000,11.775135986328126,0.002676028059795499,0.007758823689073324,-0.035518497228622437
