time,seconds_elapsed,z,y,x
1690839344812273200,0.194273193359375,0.15178279909491538,-0.30084212804269045,-0.01814006602426525
1690839344822314000,0.20431396484375,0.1462789409816265,-0.299661539955996,0.01967654117681086
1690839344832354000,0.21435400390625,0.1513940920382738,-0.27672055362313985,0.04510485081337392
1690839344842394000,0.22439404296875,0.16056874761879444,-0.2432216406578198,0.058497247386514205
1690839344852434200,0.23443408203125,0.1840063218295574,-0.20979297991711646,0.05949851968381554
1690839344862475300,0.244475341796875,0.20035072290897368,-0.17766688967496155,0.045377950400020926
1690839344872515300,0.254515380859375,0.22474165232181548,-0.12158873636126517,0.02257578801596537
1690839344882555100,0.26455517578125,0.24168343477249143,-0.08606240922156722,-0.007452973753912374
1690839344892596200,0.27459619140625,0.27712591955363747,0.3156729096887633,-0.004603486623906064
1690839344902636000,0.284635986328125,0.298995806056261,0.370823390230909,-0.020341475925524717
1690839344912676000,0.294676025390625,0.3145142777055502,0.38691074780933554,-0.020872751524322664
1690839344922716200,0.304716064453125,0.32496260648369785,0.4044582410681993,-0.016640817609569057
1690839344932757200,0.31475732421875,0.3287970700800419,0.40828715170659124,-0.008623277908610179
1690839344942797000,0.324797119140625,0.32099078024327754,0.3858785552173853,-0.005646344457054511
1690839344952837000,0.334837158203125,0.3191220637619495,0.37504210390448567,-0.005644344296213239
1690839344962878200,0.344878173828125,0.31476562211811543,0.35082426603622735,-0.007504740473767742
1690839344972948000,0.354947998046875,0.31075229482352734,0.3180688283819705,-0.011649694791389628
1690839344982989000,0.364989013671875,0.29208149662315847,0.2799749523092061,-0.01723736786376685
1690839344993029000,0.375029052734375,0.2758621832281351,0.22992840730994937,-0.022373287713807075
1690839345003069200,0.385069091796875,0.27058453508615493,0.17672833018321543,-0.026723450313904322
1690839345013110300,0.3951103515625,0.24542320582270621,0.12318583282697945,-0.012695829143724404
1690839345023150000,0.405150146484375,0.23154081094264983,0.07217347500286996,0.0034199416784336787
1690839345033190100,0.415190185546875,0.20253332764506338,0.01953004537820816,0.005456772135128267
1690839345043230000,0.42522998046875,0.18847849880754947,-0.024865707317739724,0.004436658140039071
1690839345053271000,0.43527099609375,0.1796545563608408,-0.06416410034205765,0.0001737354319775477
1690839345063311000,0.44531103515625,0.17828852870464323,-0.09257621156238019,0.0010360330834286286
1690839345073351200,0.45535107421875,0.1716851849168539,-0.10586319783255457,-0.013951889052847399
1690839345083392300,0.465392333984375,0.16987375158071516,-0.1281980714984238,-0.016892052424279973
1690839345093432000,0.47543212890625,0.1707610558092594,-0.1329041302975267,-0.012038159819436258
1690839345103472000,0.48547216796875,0.16163842267692088,-0.12414536204151809,-0.008503090161620638
1690839345113512000,0.495511962890625,0.1708089866042137,-0.11429693538527935,-0.008678323430940509
1690839345123553000,0.505552978515625,0.19154256255328656,-0.09513725768942385,0.0038888515315484255
1690839345133623000,0.515623046875,0.21022680475711822,-0.06336272083129733,0.0016078644549008458
1690839345143664000,0.5256640625,0.21876900765299795,-0.035810258647613225,-0.0029636675446061416
1690839345153704200,0.5357041015625,0.21955518959462642,0.0015959274219349026,-0.0038009951515821736
1690839345163744300,0.545744140625,0.23267536793053148,0.037559002011083066,-0.00841274956362322
1690839345173785000,0.55578515625,0.2458323711454868,0.07225125294681638,-0.006277966024633497
1690839345183825200,0.5658251953125,0.2551093180567026,0.09316701706238091,-0.0029573976340238
1690839345193865000,0.575864990234375,0.2644119839310646,0.11299246519058942,-0.011116510363295674
1690839345203905000,0.585905029296875,0.2708955007314682,0.12935904156919567,-0.0020483382313977927
1690839345213946000,0.595946044921875,0.27485329844653605,0.1315828916311264,0.006063894015690311
1690839345223986200,0.605986083984375,0.27494916003644465,0.1423256002459675,0.001685829628515057
1690839345234026200,0.616026123046875,0.26922785978019237,0.1407593373099342,-0.0019557554439641536
1690839345244067000,0.626067138671875,0.2701151640087366,0.1331233990713954,-0.0009332805284298956
1690839345254107100,0.636107177734375,0.26203473340570926,0.11633304432276635,-0.0015298033831641078
1690839345264147000,0.64614697265625,0.24348726932406425,0.09600947394669056,-0.00870276375245303
1690839345274187000,0.65618701171875,0.23915070142447947,0.06797726542204618,-0.0032780170236714184
1690839345284228000,0.66622802734375,0.2294154893517494,0.04826499534472823,-0.00288958396166563
1690839345294298000,0.676298095703125,0.21128362033367157,0.025241445294953882,0.0004110284863039851
1690839345304339200,0.686339111328125,0.19684885226786136,0.0032732860496267674,0.00303697024283465
1690839345314379300,0.696379150390625,0.1888081691533327,-0.010475655176490545,-0.0032615042802877723
1690839345324419000,0.706419189453125,0.187457339066267,-0.03542399927638471,-0.006046815016726032
1690839345334460000,0.7164599609375,0.18188216928243636,-0.05833064494822174,-0.004333380428655073
1690839345344500000,0.7265,0.1723813504874706,-0.059289772303961215,0.00872735020443797
1690839345354540000,0.7365400390625,0.18619126465320587,-0.06515767795667052,-0.0013012644574511795
1690839345364580000,0.746580078125,0.17317805382311344,-0.07065181839354336,-0.006088023809948936
1690839345374621200,0.75662109375,0.17600363263785837,-0.06342709130439907,-0.0015773505856283008
1690839345384661200,0.7666611328125,0.18719079708456993,-0.057454958092235026,-0.00511477659731172
1690839345394701300,0.776701416015625,0.19686697244644163,-0.041500031254440545,-0.007603940231655724
1690839345404742100,0.7867421875,0.210592715460062,-0.03260853999685496,0.001261443903716281
1690839345414782000,0.796781982421875,0.19515899948477744,-0.014128113269433378,0.0018681502257473766
1690839345424822000,0.806822021484375,0.2208896530687809,0.006961765304021537,-0.005557743724994361
1690839345434862000,0.816862060546875,0.21058160954415797,0.033639015555754305,0.0012797284790780396
1690839345444896300,0.826896240234375,0.23622692293226719,0.043782333505339915,0.0014345034822588786
1690839345454967300,0.83696728515625,0.23048224180042742,0.05301072856709361,-0.00800464825334493
1690839345465007400,0.84700732421875,0.23315759848952292,0.0657805956279859,-0.0023091491586295886
1690839345475047400,0.85704736328125,0.25083295591175553,0.07855141253694892,-0.0065284245212096715
1690839345485087200,0.867087158203125,0.24280688584446905,0.07789959756471217,0.002382123063295148
1690839345495128000,0.877128173828125,0.24842180311679837,0.07358283034414052,-0.0010145016716327517
1690839345505168100,0.887168212890625,0.23610066620409487,0.06758004626538604,-0.005726177360769361
1690839345515208200,0.897208251953125,0.23306816664040086,0.06275328369606285,-0.006026986938249319
1690839345525249300,0.907249267578125,0.22915070093572137,0.05161014105416834,-0.0035435178257524967
1690839345535289300,0.917289306640625,0.22373978180289267,0.04113054035492241,-0.0014988602556288242
1690839345545329400,0.927329345703125,0.21443068618774414,0.0261792741343379,-0.00035092319636605677
1690839345555369500,0.937369384765625,0.19866554630100725,0.016581534303538502,-0.00428041269897949
1690839345565410300,0.947410400390625,0.19665362195670605,0.008980411650054157,-0.0012712574782548472
1690839345575450000,0.9574501953125,0.1983621794402599,-0.0029602015124633907,-0.000937408714275807
1690839345585490200,0.967490234375,0.1916705728471279,-0.0207529017040506,0.0016851218090392648
1690839345595531300,0.97753125,0.19138064998984336,-0.027602000413835048,0.000319559943722561
1690839345605571300,0.9875712890625,0.18581892420947552,-0.030995661440119147,0.0036282278339844196
1690839345615642400,0.997642333984375,0.1857581339329481,-0.029344131373427805,0.0006494586183689534
1690839345625682400,1.007682373046875,0.19210837974250317,-0.04198025251943618,-0.003470616986323148
1690839345635722200,1.01772216796875,0.18856793065667152,-0.03753777655996382,-0.00033872130191884935
1690839345645762300,1.02776220703125,0.1860544865310192,-0.034128625703603026,-0.004340645853080786
1690839345655803100,1.03780322265625,0.18997136771380901,-0.02030808054599911,0.0006776800658553838
1690839345665843200,1.04784326171875,0.18640578418672082,-0.016369864314235746,0.008142691317433491
1690839345675883300,1.05788330078125,0.19316344175338743,-0.010653057570010423,0.004769977181055583
1690839345685924400,1.06792431640625,0.19634733248651026,0.00877129894401878,0.00961190078689251
1690839345695964400,1.07796435546875,0.20388532677590845,0.014876849277503788,0.002306838470534421
1690839345706004200,1.088004150390625,0.21683424019813535,0.02642649036105722,-0.004683545573195442
1690839345716044300,1.098044189453125,0.22187691054046152,0.03220079944618046,0.00015907671896275133
1690839345726085000,1.108085205078125,0.2098912891924381,0.0395358915746212,-0.003916990780644118
1690839345736125200,1.118125244140625,0.21902385919690132,0.041573900208249685,-0.006581679945252835
1690839345746165200,1.128165283203125,0.21560966683924196,0.04905424602627754,0.0036145829011220484
1690839345756206300,1.138206298828125,0.2147632791429758,0.05014025116469711,-0.008360138026974164
1690839345766246400,1.148246337890625,0.22888766608536243,0.036588768739439545,-0.0053131761130876835
1690839345776317400,1.1583173828125,0.22252456079423427,0.025842443395406006,-0.007980970550235361
1690839345786357200,1.168357177734375,0.21078268507421016,0.027225312588550148,0.004816305107390508
1690839345796397300,1.178397216796875,0.20352935294508934,0.029377741382084786,0.00580468595707789
1690839345806437400,1.188437255859375,0.20121523078382014,0.012394786670804023,-0.00465274857613258
1690839345816478200,1.198478271484375,0.1979886699527502,0.003327938846312463,0.004717740103742108
1690839345826518300,1.208518310546875,0.19938859987854957,-0.0018217355344444513,0.0011608878723811358
1690839345836558300,1.218558349609375,0.1897019031226635,-0.009835567174665629,-0.01437899645769503
1690839345846599400,1.228599365234375,0.19211773209273814,-0.009379822763800621,-0.0017207365451147778
1690839345856639200,1.23863916015625,0.20155074634850023,-0.018697613142058252,-0.0061691444884520025
1690839345866679300,1.24867919921875,0.18821721752285955,-0.02157806394919753,-0.011582018116349353
1690839345876719400,1.25871923828125,0.18323650650084017,-0.02039557616636157,-0.006699114046152681
1690839345886760200,1.26876025390625,0.18482815960645674,-0.02349672051947564,-0.004357948614330962
1690839345896800300,1.27880029296875,0.18640812227427958,-0.021280871100910006,-0.008927357155410572
1690839345906840300,1.28884033203125,0.20159809262156486,-0.02385313274171203,-0.006616532062925398
1690839345916881400,1.29888134765625,0.19254267950654028,-0.019064692888781428,0.0010389511262997985
1690839345926921500,1.30892138671875,0.1828822862356901,-0.010805800446309148,0.004636336297448724
1690839345936992300,1.3189921875,0.19433190101087092,-0.00411021179780364,0.00577501233802177
1690839345947032300,1.3290322265625,0.19651216765940188,0.010819061786681412,-0.00237955208029598
1690839345957072400,1.339072265625,0.20169687682092188,0.009993132356554269,-0.0007996716108638793
1690839345967113200,1.34911328125,0.20151216790378093,0.016579488476924597,-0.008343940377421677
1690839345977153300,1.3591533203125,0.2110691008001566,0.02123403628449887,-0.011728399750520474
1690839345987193300,1.369193359375,0.21315759751200675,0.016152276040799916,-0.007554150839755311
1690839345997233200,1.379233154296875,0.20733166783750057,0.019496691097877918,-0.009649972341535612
1690839346007274200,1.389274169921875,0.21243805106580257,0.02605769358128309,-0.007187253756122663
1690839346017314300,1.399314208984375,0.20813421639204024,0.01606028690841049,-0.00369128313283436
1690839346027354400,1.409354248046875,0.19904957718253136,0.012332023632898925,0.004633989076735451
1690839346037395200,1.419395263671875,0.20912381195127963,0.00857073487062007,-0.003828801040537655
1690839346047435300,1.429435302734375,0.2009428435832262,0.015273922303691505,-0.004926281987619586
1690839346057475300,1.439475341796875,0.20757132181227206,0.014265841239690779,0.005165840064268559
1690839346067515400,1.449515380859375,0.19878888041973114,0.0036999139638617634,0.003325144101027399
1690839346077556500,1.459556396484375,0.19015198497772215,-0.010980828219652175,-0.0014909692101180553
1690839346087596300,1.46959619140625,0.1870341452181339,-0.011988872751034796,-0.003876439574547112
1690839346097667300,1.479667236328125,0.18614801003336906,-0.010095898611284793,-0.004276910134218633
1690839346107707100,1.48970703125,0.18435586591959,-0.00956526233330369,-0.0021313312065787612
1690839346117747200,1.499747314453125,0.18674480688273906,-0.017432780838012696,-0.0034819512310903518
1690839346127788300,1.509788330078125,0.18657178840339184,-0.021510076746903358,-0.0032996397670125585
1690839346137828400,1.519828369140625,0.19252455932796,-0.013356398244574665,-0.0014694606312084942
1690839346147868200,1.5298681640625,0.19502806658148764,-0.013300576404109596,0.0009978245314676314
1690839346157908200,1.539908203125,0.18660685971677302,-0.009095452864468096,0.0049428997622802855
1690839346167949300,1.54994921875,0.18221768484711645,-0.002826272934488952,0.004764419656526297
1690839346177989000,1.559989013671875,0.19234394206404684,-0.0020908347994089125,0.00648811077713035
1690839346188029200,1.570029296875,0.19693594602942466,0.000796557205170393,0.006801259246375411
1690839346198070300,1.5800703125,0.19525076942145822,0.0038306276714429256,0.0030574056760873645
1690839346208110300,1.5901103515625,0.20090952583551405,-0.007066723515838385,-0.009469948732666671
1690839346218150400,1.600150390625,0.20418284841775894,0.000019983342103660106,-0.006783184733567759
1690839346228190200,1.610190185546875,0.19938158561587332,0.004999159994162619,0.003652494625560939
1690839346238231300,1.620231201171875,0.20162848775982856,0.0011760580420494078,-0.007271616704482585
1690839346248271000,1.63027099609375,0.19519757792949674,0.016080306783132253,-0.01119715611776337
1690839346258342100,1.640342041015625,0.19924246940612791,0.011559797151386737,0.001385417343256995
1690839346268382200,1.65038232421875,0.19881050772964953,0.014607750012539326,0.002733233489328995
1690839346278422300,1.66042236328125,0.19658698646128175,0.009051175331324338,0.005790082042990252
1690839346288463400,1.67046337890625,0.18643910193443297,0.006310315657965838,0.0008601102609420195
1690839346298503200,1.680503173828125,0.19559855994582176,0.0073879182942211625,0.001685619565960951
1690839346308543200,1.690543212890625,0.1966770028322935,0.0030733064981177446,0.0011185602677287532
1690839346318583300,1.700583251953125,0.19086627072691917,0.004349135120213032,-0.0009355820833705365
1690839346328624000,1.7106240234375,0.19372808989882467,-0.004688450077176094,0.00015848763049580155
1690839346338664200,1.720664306640625,0.18491583788990973,-0.002076039089076221,-0.010024148549325764
1690839346348704300,1.730704345703125,0.18133622583746908,-0.010050123240798712,-0.007904900506185367
1690839346358745300,1.740745361328125,0.19106208555996418,-0.009893909765779972,-0.0004067907026037574
1690839346368785200,1.75078515625,0.18072773855030536,-0.004118906560912728,0.011253288485482335
1690839346378825200,1.7608251953125,0.189091077747941,-0.00941518633812666,0.00521897675730288
1690839346388865300,1.770865234375,0.18981646941304206,-0.006632241088710725,0.002836497500981204
1690839346398906000,1.780906005859375,0.1809603782624006,-0.0010737301787361502,0.004235025487560779
1690839346408946200,1.7909462890625,0.18183073135614394,-0.006002601415663957,-0.0023083637073403225
1690839346418986200,1.800986328125,0.1982581345438957,0.004824461014382541,-0.004059330993937328
1690839346429057300,1.811057373046875,0.1971826142668724,-0.004587693116441369,-0.00587978788674809
1690839346439097000,1.82109716796875,0.19281565122902392,-0.006214454068057239,-0.006939325143350288
1690839346449130200,1.831130126953125,0.1860544865310192,-0.0001803250029683113,0.00021177045400254426
1690839346459170300,1.84117041015625,0.1903776104271412,0.005632708657346665,-0.002344046942074783
1690839346469210400,1.85121044921875,0.1939589760452509,0.002893858277983963,0.006912765929987653
1690839346479251500,1.86125146484375,0.1964987236559391,-0.0021458163896575567,0.006419539052946493
1690839346489291500,1.87129150390625,0.19380290870070457,0.015292553938925266,-0.0006371562592219561
1690839346499331300,1.881331298828125,0.18093407477736473,0.015446648522093891,0.0010284114659763872
1690839346509371400,1.891371337890625,0.18857377587556837,0.0027265388870611786,-0.007243710350827314
1690839346519412200,1.901412109375,0.19666297430694102,0.008141403542645274,-0.003999253103462979
1690839346529452300,1.911452392578125,0.19009470183253288,0.0000763897044584155,0.000883806230360642
1690839346539492400,1.921492431640625,0.19161036709249019,-0.002056165344826877,-0.002219219552585855
1690839346549533400,1.931533447265625,0.18354396501481532,0.00019354981072247028,-0.0008041559897363186
1690839346559573500,1.941573486328125,0.17966858488619328,-0.0066504343325272195,0.003993307419866323
1690839346569613600,1.951613525390625,0.18760931475758552,-0.004048581271059811,-0.0030807043532840904
1690839346579653400,1.9616533203125,0.19000877711474895,0.00012176321614533662,-0.003077279420336708
1690839346589724400,1.971724365234375,0.19210779522061347,-0.005482851857878267,-0.005699070158135145
1690839346599764200,1.98176416015625,0.19390461550951002,-0.013538148019649088,-0.0022827954412437974
1690839346609805300,1.991805419921875,0.19286241298019885,-0.007741042580828071,0.0029788788134697823
1690839346619845400,2.001845458984375,0.18612346011400221,-0.009961239380948245,0.011473223979631438
1690839346629885400,2.011885498046875,0.19090660273730753,-0.013680625230260193,-0.0033634028853382915
1690839346639926500,2.021926513671875,0.18670915104746819,-0.008913155100122094,-0.003169058490172028
1690839346649966300,2.03196630859375,0.18894202466607093,-0.009742518596351146,0.002770688556041568
1690839346660006400,2.04200634765625,0.19326924021542072,-0.0037108006840571757,0.0062884143534116446
1690839346670046200,2.052046142578125,0.19190788873434067,-0.002198642555437982,-0.0022345175864174963
1690839346680087300,2.06208740234375,0.1947334675490856,-0.005986965455114841,-0.006919775626086629
1690839346690127400,2.07212744140625,0.18527882598340512,-0.005950761630572378,0.006518825575802475
1690839346700167400,2.08216748046875,0.17972177637815476,0.004403860982134938,-0.0034643653420498594
1690839346710208500,2.09220849609375,0.18839082052409648,0.00629095337036997,0.0002224836442619562
1690839346720248600,2.10224853515625,0.18883447263836858,-0.004901544838584959,0.0016349351249169558
1690839346730288400,2.112288330078125,0.19317454766929149,-0.0014553864400833844,-0.0025419806669699026
1690839346740328200,2.122328125,0.19527064316570758,-0.0021766499193385243,-0.001993863531225361
1690839346750399200,2.132399169921875,0.19991174696981906,-0.005717172070406377,0.0035725338576827197
1690839346760440300,2.1424404296875,0.19094576570391653,-0.00591762654595077,-0.009982446565758436
1690839346770480400,2.15248046875,0.1866203037202358,-0.0023273104364052413,-0.014421958816586993
1690839346780520400,2.1625205078125,0.18169804488718508,-0.009021876171603799,-0.0054963597934227434
1690839346790560300,2.172560302734375,0.19023615612983702,-0.0016309987353160975,0.0030327461588662116
1690839346800601300,2.182601318359375,0.18680501263737678,-0.002304989006742835,-0.0045388353063026445
1690839346810641400,2.192641357421875,0.18307284037172794,-0.0013713248858228326,-0.0009591273557394743
1690839346820681200,2.20268115234375,0.19370470902323722,-0.008868219979852437,0.0004064756087725982
1690839346830721300,2.21272119140625,0.19549568409323692,-0.007030227430351078,-0.0007840447834692895
1690839346840762400,2.222762451171875,0.183378545320034,-0.00309022110030055,0.011519666070397942
1690839346850802400,2.232802490234375,0.18083821318745613,-0.006186908474005759,-0.0005576612822245806
1690839346860842200,2.24284228515625,0.18278584012389182,-0.006301730492711067,-0.013158446253370494
1690839346870883300,2.25288330078125,0.18293723129332065,-0.011788966264761983,-0.011787852019909768
1690839346880923400,2.26292333984375,0.1751478925913572,-0.004327142484113574,-0.0032591296601109203
1690839346890963200,2.272963134765625,0.17439210578799247,0.002699687412753701,-0.006416963503370061
1690839346901003300,2.283003173828125,0.18844459653794765,0.00198145614080131,-0.0032394568452611566
1690839346911074300,2.29307421875,0.17975100247263906,-0.001023643959313631,0.0016597773052286356
1690839346921115400,2.303115478515625,0.18317630074620245,-0.005419650428555906,0.0008642247470561415
1690839346931155500,2.313155517578125,0.192886378377676,-0.004282718820497394,-0.0017546662141801788
1690839346941195300,2.3231953125,0.1879413231909275,-0.0015906301923096179,0.005831519165076315
1690839346951235300,2.3332353515625,0.18494155685305594,-0.004591127182543278,0.0008077087868470698
1690839346961276400,2.3432763671875,0.18927052596807478,-0.008112031317688524,0.001889334577671252
1690839346971316200,2.353316162109375,0.1837275048881769,-0.005695106369070708,-0.000687338376767002
1690839346981356300,2.363356201171875,0.1909130324780941,-0.01085110089275986,-0.00534449826653581
1690839346991397400,2.3733974609375,0.18972002330124377,-0.007613799471966922,-0.0030032643360551445
1690839347001437400,2.3834375,0.18164660696089266,-0.00969926397651434,0.0029189653197769076
1690839347011477200,2.393477294921875,0.1783557487219572,-0.0011467588823288678,-0.0029833586257649583
1690839347021517300,2.403517333984375,0.18614099577069282,-0.0015118293350562452,0.005783341774949804
1690839347031558400,2.413558349609375,0.18061726391315458,-0.008299772442132234,0.0028095957943238318
1690839347041598200,2.42359814453125,0.1801765344083309,-0.001709872657805681,-0.01398724349401891
1690839347051638300,2.43363818359375,0.19020517646968363,-0.005250942798145115,-0.007470847337320447
1690839347061679400,2.443679443359375,0.18242752820551394,-0.005636215788684785,0.0006734879479277879
1690839347071749400,2.453749267578125,0.1819856296569109,-0.004149338231794536,-0.007682663457095623
1690839347081790500,2.46379052734375,0.18378771064281463,-0.003242890911363065,-0.0036393794156610966
1690839347091830300,2.473830322265625,0.1816939532339573,-0.011889321366697549,0.005106785087101161
1690839347101870300,2.483870361328125,0.19336451728343962,-0.007849617521837353,-0.0024264142961706965
1690839347111910400,2.493910400390625,0.183339382353425,-0.007529920580796897,0.0032124683736357838
1690839347121951200,2.503951171875,0.1830342619270086,-0.005575644707866013,0.0076982446187175806
1690839347131991300,2.5139912109375,0.18063363052606582,-0.007816226708889007,0.0067187046626117075
1690839347142031400,2.52403125,0.18107786716222762,-0.008385806757770477,0.004833283641654998
1690839347152072400,2.534072509765625,0.18196984756588935,-0.005986636661551892,-0.00041991047908086326
1690839347162112300,2.5441123046875,0.18375965359210966,-0.001928337714076042,-0.008738844279409385
1690839347172152300,2.55415234375,0.19138064998984336,0.0010064370961859821,-0.0006745930596254766
1690839347182192400,2.5641923828125,0.1823953795015812,-0.0006482347756624221,-0.007921038790233433
1690839347192233200,2.574233154296875,0.18194120599329472,0.0029793811369687316,-0.0145263142402051
1690839347202273300,2.584273193359375,0.18686872552335262,0.0030826953809708355,-0.0025566256802529094
1690839347212313300,2.594313232421875,0.18356909945607183,-0.0005024696294218302,0.00196690702564083
1690839347222354400,2.6043544921875,0.18955226551890372,-0.0030914632093161343,-0.0029756456767674536
1690839347232424200,2.614424072265625,0.18311024977266788,0.0006304068580269813,-0.003806178216775879
1690839347242465300,2.62446533203125,0.18505495409965514,0.00045015492029488086,-0.001298611276061274
1690839347252505300,2.63450537109375,0.1811608692705631,-0.0027421748476102945,-0.00275530832381919
1690839347262545400,2.64454541015625,0.18295827408134938,-0.0024117738494649527,-0.0017102882163366302
1690839347272585500,2.65458544921875,0.18610943158864973,-0.004925802497006952,0.005235197239741683
1690839347282626300,2.664626220703125,0.1792442219942808,-0.01202562456484884,0.007274740243330597
1690839347292666400,2.674666259765625,0.17626140679121016,-0.009270699833519757,0.0021629958533216265
1690839347302706200,2.6847060546875,0.17328034515380858,-0.0015509192364290356,0.002936108250822872
1690839347312747300,2.694747314453125,0.16970599379837512,-0.003764868958853185,-0.007119353318796493
1690839347322787300,2.704787353515625,0.1824286972492933,-0.002221621572226286,-0.009299455570545978
1690839347332827400,2.714827392578125,0.18018705580234526,-0.004732070023193955,-0.012965595128969288
1690839347342867500,2.724867431640625,0.17344284223914144,-0.006905614669993519,-0.015244732741825282
1690839347352908300,2.734908203125,0.18031448157429694,-0.0036914018638432022,-0.01539699156093411
1690839347362948400,2.7449482421875,0.17985621641278265,-0.0035442119454964995,-0.007357071064808406
1690839347372988400,2.754988525390625,0.17924772912561893,0.001521656609326601,0.0006367544004227966
1690839347383029500,2.765029541015625,0.1871697542965412,-0.0002849909538403153,0.010818303734855726
1690839347393099300,2.775099365234375,0.1835755291968584,-0.00842504278961569,0.022111143346014432
1690839347403140400,2.785140380859375,0.17713468249440192,-0.00915332053154707,0.010168991246959193
1690839347413180400,2.795180419921875,0.17639175517261027,-0.0017548077780753374,0.0016111660902621225
1690839347423220500,2.805220458984375,0.1789431932210922,-0.00734470020700246,0.003581799442949705
1690839347433261300,2.81526123046875,0.16936404849290848,-0.00580083176586777,-0.0024019054759992285
1690839347443308300,2.825308349609375,0.18132921157479284,-0.006262640591338277,-0.016154655227554028
1690839347453348000,2.83534814453125,0.1914911246269941,0.001847016106173396,-0.0210948287432082
1690839347463388200,2.84538818359375,0.17711948492527008,-0.0002110854674130678,-0.011602837142092174
1690839347473429200,2.85542919921875,0.18085750240981577,-0.01024750897642225,-0.008985914375656283
1690839347483469300,2.86546923828125,0.18055764268040655,-0.005571406924165785,-0.004116614139126613
1690839347493509400,2.87550927734375,0.1931295394837856,-0.0019113135140389204,0.003604942856519483
1690839347503550200,2.88555029296875,0.17966916940808295,-0.006079794837720692,0.010490642683068289
1690839347513590300,2.89559033203125,0.1811696370989084,-0.0055650137159973375,0.010132335331267677
1690839347523630300,2.90563037109375,0.17668810777068136,0.0008457301091402768,0.017916673631127922
1690839347533670100,2.915670166015625,0.1665215185433626,-0.008293379233963788,0.009872191124316304
1690839347543711200,2.925711181640625,0.18224106572270393,-0.0005281520599499345,-0.002097159508918412
1690839347553781200,2.93578125,0.17504735482633113,-0.00796173612680286,-0.011028028362244367
1690839347563822300,2.945822265625,0.17623627234995365,-0.004856171326898038,-0.013565629681618884
1690839347573862400,2.9558623046875,0.1801157441318035,-0.006719663643836975,-0.01547442244500853
1690839347583902500,2.96590234375,0.17935878828465937,-0.012857691474817693,-0.00914253884262871
1690839347593943300,2.975943359375,0.1823421880096197,-0.012262903919443487,-0.006916213695821352
1690839347603983000,2.985983154296875,0.18173954594135283,-0.0052766617612913244,0.0034196448509115724
1690839347614023200,2.996023193359375,0.18607962097227573,-0.006572583323344588,0.010023865421535447
1690839347624063200,3.006063232421875,0.1857797612428665,-0.002088569777086377,0.015346649613184854
1690839347634104300,3.016104248046875,0.18128829504251479,-0.004714717029593885,0.007806289836764335
1690839347644144400,3.026144287109375,0.180394561073184,-0.003320814985781908,0.01069202874037437
1690839347654184400,3.036184326171875,0.17710662544369696,-0.00552216095495969,0.004997287697484716
1690839347664225300,3.046225341796875,0.18533844721615314,-0.0031188626728951927,-0.0038751700660679487
1690839347674265000,3.05626513671875,0.18592998336851596,-0.004622289505787193,-0.008589951027743518
1690839347684305200,3.06630517578125,0.17873861055970192,-0.009590835165977477,-0.015034944182354956
1690839347694345200,3.07634521484375,0.18172084124088286,-0.008280812013335526,-0.010295257108286023
1690839347704386300,3.08638623046875,0.18635200817286968,-0.008539645612612366,-0.012761775085981935
1690839347714457300,3.096457275390625,0.18441022645533084,-0.011285692917741834,0.003732546724984422
1690839347724497400,3.106497314453125,0.17573066091537476,-0.005743000631406903,0.008730647273221984
1690839347734537500,3.116537353515625,0.17647943345606326,-0.008861534510739148,0.008192585740610957
1690839347744577300,3.126577392578125,0.18216624692082403,-0.007368446408770978,0.011164304160932078
1690839347754618000,3.1366181640625,0.17932137888371943,-0.0011461743604391813,0.003999152638763189
1690839347764658200,3.146658203125,0.1731874061733484,-0.002653327520377934,0.0008197188850492239
1690839347774698200,3.1566982421875,0.1715454841852188,-0.005741795055009424,-0.0028376071792561557
1690839347784738300,3.16673828125,0.17663199366927146,-0.0036798575565218923,-0.0018461210570298134
1690839347794779400,3.176779296875,0.18785189134180544,-0.002982157615944743,-0.012085236664442344
1690839347804819500,3.1868193359375,0.1862023705691099,-0.005746361632272601,-0.01439448172119446
1690839347814859300,3.196859375,0.1725824260175228,-0.0023336305793374775,0.003810726527730003
1690839347824900000,3.206900146484375,0.18455226527452467,-0.006367452672682702,0.005521530767297372
1690839347834940200,3.216940185546875,0.18918869290351867,-0.0011560746999457478,-0.0008397478929255157
1690839347844980200,3.226980224609375,0.18245733882188797,-0.008567739195935427,0.008329500860115512
1690839347855020300,3.237020263671875,0.16853811906278132,-0.001615764633566141,0.0056438602390233425
1690839347865061400,3.247061279296875,0.17691022608876228,-0.0032979820994660258,0.009555498991115019
1690839347875132400,3.25713232421875,0.18378771064281463,-0.013752083031274377,0.007862933661136776
1690839347885172500,3.26717236328125,0.18752163647413253,-0.008540631993301212,-0.0025782392904395235
1690839347895212300,3.27721240234375,0.17345161006748674,-0.005182078813016414,-0.0057340821060119194
1690839347905252000,3.287252197265625,0.18542086480259895,-0.014799655855447054,-0.010485386552638374
1690839347915293200,3.297293212890625,0.1860159080862999,-0.0016922639358788727,-0.011270267019746824
1690839347925333200,3.307333251953125,0.17599778741896152,-0.004066409188695252,-0.003324906639009714
1690839347935373300,3.317373291015625,0.17510229988396167,-0.014619878841750323,0.0019006368563976137
1690839347945414400,3.327414306640625,0.17869710950553416,-0.006899586788006127,-0.006169436749396845
1690839347955454500,3.337454345703125,0.17615385476350784,-0.0050852673750370735,0.0050578131125308574
1690839347965494300,3.347494384765625,0.17152210330963133,-0.009447554237768054,0.005462777184229344
1690839347975534000,3.3575341796875,0.17960721008777616,-0.008475384737364948,-0.0011241177922580391
1690839347985575200,3.3675751953125,0.1778162350177765,-0.004212649258971214,-0.0014947320697829127
1690839347995615200,3.377615234375,0.17108020476102828,-0.011035152222774923,-0.0025657588347792622
1690839348005655300,3.3876552734375,0.17466741559803484,-0.0039409927107393735,-0.0014432667440269142
1690839348015696400,3.3976962890625,0.18155016084909437,-0.0035137802746146914,-0.00737197180641815
1690839348025736400,3.407736328125,0.17750526937246322,-0.004781462122872472,-0.010979933170508592
1690839348035807500,3.417807373046875,0.17825521095693111,-0.00953198111820966,-0.009091735670575871
1690839348045847300,3.427847412109375,0.18050503571033477,-0.005371756166219711,-0.004211416283110157
1690839348055887000,3.43788720703125,0.1766132889688015,-0.004483830883167684,-0.00253904435778968
1690839348065927200,3.44792724609375,0.18349135804474354,-0.009080803284607827,0.0023887583000585435
1690839348075968300,3.45796826171875,0.17525661366283893,-0.008294036821089685,0.009517870394466445
1690839348086008300,3.46800830078125,0.1754015750914812,-0.012279745456390082,-0.0005199322208762168
1690839348096048400,3.47804833984375,0.18303367740511894,-0.006139890994504094,-0.003762366474512964
1690839348106089500,3.48808935546875,0.1758499033808708,-0.002592354580760002,-0.0046180791215505446
1690839348116129300,3.49812939453125,0.17704466612339018,-0.010291311585530639,-0.003289186871657148
1690839348126169000,3.508169189453125,0.1698597230553627,-0.011103687414340674,-0.005295727221365086
1690839348136209200,3.518209228515625,0.180482239356637,-0.005305230268649756,-0.009031306153652257
1690839348146250200,3.528250244140625,0.18511808246374128,-0.005494103904254734,0.008535563092539087
1690839348156290300,3.538290283203125,0.17778993153274059,-0.005842186689563095,0.0006241963129490613
1690839348166330400,3.548330322265625,0.17674539091587066,-0.007713350856304168,-0.0073236482858192176
1690839348176371500,3.558371337890625,0.17570435743033885,-0.009534392271004617,-0.006655384502280503
1690839348186411300,3.568411376953125,0.1758557485997677,-0.003808342774398625,-0.0030894995810929683
1690839348196482300,3.578482421875,0.16792729368805884,-0.010928623108379542,0.0016276834002230316
1690839348206522000,3.588522216796875,0.17870120115876198,-0.013323518888279795,0.006442280607717112
1690839348216562200,3.598562255859375,0.18214169700145721,-0.010811828328296542,-0.00023333383183926342
1690839348226603300,3.608603271484375,0.17166472665071486,-0.017750431952439246,-0.0015496314616408199
1690839348236643300,3.618643310546875,0.18214169700145721,-0.013822590984217821,0.0030435689469799397
1690839348246683400,3.628683349609375,0.18198913678824902,-0.007153525016456842,0.0018357183940242974
1690839348256723200,3.63872314453125,0.1804945143163204,-0.009938443027250467,0.00920422873487696
1690839348266764300,3.648764404296875,0.17825345739126205,-0.004021620198898017,0.004145630171056836
1690839348276804000,3.65880419921875,0.17676409561634063,-0.0041650107249617575,-0.0070003711482044305
1690839348286844200,3.66884423828125,0.18035422906279563,-0.005681808496080338,0.0034538850472308692
1690839348296884200,3.67888427734375,0.18005144672393797,-0.01040061717890203,0.00706014764457941
1690839348306925300,3.68892529296875,0.18378654159903526,-0.011424516866542398,-0.00022737901508808136
1690839348316965400,3.69896533203125,0.1743552809089422,-0.01030245403405279,-0.008606153243873267
1690839348327005200,3.709005126953125,0.174799517545104,-0.01356233261283487,-0.005979741129884496
1690839348337046300,3.71904638671875,0.18242752820551394,-0.010035364063084124,0.006728568469500169
1690839348347086000,3.729086181640625,0.1792833849608898,-0.009472615613788366,-0.001197201294777915
1690839348357157000,3.7391572265625,0.17898410975337029,-0.013225246145576238,-0.00860164146553725
1690839348367197200,3.749197265625,0.17718962755203246,-0.014535817287489771,0.001655521255219355
1690839348377237200,3.7592373046875,0.18512392768263816,-0.008927110560238361,0.00313301906241104
1690839348387278300,3.7692783203125,0.18691607179641723,-0.003921009368635714,-0.000392131989588961
1690839348397318400,3.779318359375,0.18003508011102676,-0.0031410745047032833,-0.0031473307155538348
1690839348407358200,3.789358154296875,0.1716553743004799,-0.0016356383778154849,-0.005384843976655974
1690839348417398300,3.799398193359375,0.17779110057651995,-0.0067194809807464475,-0.002083162949606776
1690839348427439000,3.809439208984375,0.18212708395421504,-0.007085209020599723,0.003389377576811239
1690839348437479200,3.819479248046875,0.17688392260372637,-0.002726502354443073,-0.002221776835853234
1690839348447519700,3.829519775390625,0.16924772863686083,-0.004765058977343142,-0.0047251196925994
1690839348457560800,3.839560791015625,0.18166823427081108,0.00016399492267519234,0.007363788499962538
1690839348467601000,3.849600830078125,0.1770259614229202,-0.00723539461363107,0.004083880913304165
1690839348477641000,3.859640869140625,0.16759645429849623,-0.0030987332003191113,0.00573028728030622
1690839348487681000,3.869680908203125,0.1786690524548292,-0.0061016778759658335,0.008859598281979561
1690839348497721900,3.879721923828125,0.18016601301431656,-0.006534552867896854,0.00938091417576652
1690839348507762000,3.889761962890625,0.18331132530272007,-0.004981624337472021,0.0022456874344032257
1690839348517832700,3.899832763671875,0.17522972565591335,-0.010088701685518026,-0.0025591372977476563
1690839348527872800,3.909872802734375,0.1821113018631935,-0.013706490323878823,0.00157494856598787
1690839348537912800,3.919912841796875,0.1854009910583496,-0.0058172714440152045,0.0010613090885803103
1690839348547954000,3.929953857421875,0.18764146346151828,-0.008425225452706218,-0.005977174713462591
1690839348557994000,3.939993896484375,0.1910819593042135,-0.01264799424689263,-0.008307298161461949
1690839348568034000,3.950033935546875,0.18105565533041953,-0.0005239873414859175,-0.003625414822390303
1690839348578073900,3.960073974609375,0.17627368175089358,-0.0072765303416177625,-0.0018412530856672673
1690839348588114700,3.97011474609375,0.1872001494348049,-0.011397007805109024,0.00631174043007195
1690839348598154800,3.98015478515625,0.1816623890519142,-0.011117533276602625,0.010060261042322964
1690839348608194800,3.99019482421875,0.18255846110880375,-0.012646131083369254,0.005507100383145735
1690839348618236000,4.00023583984375,0.1780634877771139,-0.004699775188788772,-0.0033336927336640653
1690839348628276000,4.01027587890625,0.1756634408980608,-0.004690970827825367,-0.002486318656709045
1690839348638316000,4.02031591796875,0.17416648033857343,-0.00007503799758851527,-0.001962728607445024
1690839348648355800,4.03035595703125,0.18553543109297752,-0.008219692943245172,-0.0024773727318504824
1690839348658397000,4.04039697265625,0.17744798622727392,-0.009842033448070288,-0.00555847437735647
1690839348668436700,4.050436767578125,0.1798416033655405,-0.005957848958484828,-0.008940298835374415
1690839348678507800,4.0605078125,0.17295885811448097,-0.005179229268804192,-0.0010009115376975388
1690839348688547800,4.0705478515625,0.17445523415207861,-0.008014891086146236,-0.0035960882632061837
1690839348698588000,4.080587890625,0.18538111731410026,-0.00886317847855389,0.006265417070314288
1690839348708629000,4.09062890625,0.18118600371181964,-0.010768646773695946,0.0060910697169834745
1690839348718669000,4.1006689453125,0.1811877572774887,-0.009388480994291603,-0.0004454330794047564
1690839348728708900,4.110708984375,0.18403145627081394,-0.005948460075631737,-0.0013620547339785844
1690839348738749700,4.120749755859375,0.17191490201950071,-0.010226283525303005,-0.0013649134113453327
1690839348748789800,4.130789794921875,0.17431027272343635,-0.01097403315268457,-0.012391827528737485
1690839348758829800,4.140829833984375,0.17939912029504776,-0.006471862895227968,-0.004043813764397055
1690839348768870000,4.150869873046875,0.18493980328738688,-0.0038393224345520138,-0.0029041878757532684
1690839348778911000,4.160910888671875,0.17746376831829547,-0.00475957908462733,-0.009267452997085637
1690839348788951000,4.170950927734375,0.175219204261899,-0.0037031653668731447,-0.002581951917754486
1690839348798990800,4.180990966796875,0.17611936797201633,-0.011734824924729765,0.0036747110239462926
1690839348809030700,4.19103076171875,0.18599544982016086,-0.013370974759198724,-0.0037997393428348004
1690839348819071700,4.20107177734375,0.1803074673116207,-0.003978475176915526,-0.0062353963913861655
1690839348829111800,4.21111181640625,0.17536825734376907,-0.007172047053836285,-0.00203773920556996
1690839348839182800,4.221182861328125,0.17836100941896438,-0.0022342253254726526,0.0017908198063727467
1690839348849223000,4.231222900390625,0.17566636350750922,-0.005404708587750792,0.0012314688905607908
1690839348859263000,4.241262939453125,0.17940321194827555,-0.0074412924492731685,0.0005146167249418795
1690839348869304000,4.251303955078125,0.18149696935713291,-0.005982143149524927,-0.00004459262697491794
1690839348879343900,4.26134375,0.1856879913061857,-0.010729849133267999,-0.003976922540646046
1690839348889383700,4.2713837890625,0.18478782759606838,-0.0032969226535409686,0.003286236862745136
1690839348899424800,4.2814248046875,0.18134674723148345,-0.01031461939588189,0.001652699110470712
1690839348909464800,4.29146484375,0.17925123625695705,-0.009742956987768411,0.0025219653588254005
1690839348919505000,4.3015048828125,0.1675853483825922,-0.006175948688574135,-0.0010003909478895365
1690839348929545000,4.311544921875,0.1665343780249357,-0.01283263009879738,0.006953536331793293
1690839348939586000,4.3215859375,0.17760288452804088,-0.007690225709043443,0.006631181642785668
1690839348949625900,4.3316259765625,0.1891220574080944,-0.00955338923241943,0.00024484160654246803
1690839348959665700,4.341665771484375,0.17834464280605314,-0.009493694934435188,0.002507827235618606
1690839348969706800,4.351706787109375,0.16831190909147262,-0.0035161548947915434,0.0006317905309377238
1690839348979746800,4.361746826171875,0.1790916617810726,-0.008643836639449,0.003554792705015279
1690839348989787000,4.371786865234375,0.17998714931607246,0.0014856354478746652,0.00281701191579923
1690839348999858000,4.38185791015625,0.17624620922207831,-0.005228694433718919,0.0016304233465809373
1690839349009898000,4.39189794921875,0.18822130917608737,-0.007235686874575912,-0.0006003861790988594
1690839349019937800,4.401937744140625,0.18372984297573566,-0.019542028076946733,0.00391858908268623
1690839349029979000,4.411978759765625,0.17520400669276714,-0.011101130131073295,0.003197202305844985
1690839349040018700,4.422018798828125,0.16832067691981792,-0.0000301028773188591,-0.0066272909189574415
1690839349050058800,4.432058837890625,0.18328093016445635,-0.005789214393310249,-0.005569589426415041
1690839349060099800,4.442099853515625,0.18432839339077473,-0.009248999458365142,-0.002711176921147853
1690839349070140000,4.452139892578125,0.18283143283128736,-0.012732274996861815,0.0003363284154329449
1690839349080180000,4.462179931640625,0.18163024034798145,-0.012520020485669374,-0.006018831031257286
1690839349090219800,4.4722197265625,0.17669219942390918,-0.008193973980098962,-0.0022183519029058516
1690839349100260600,4.482260498046875,0.1829746406942606,-0.005545907156728208,-0.005387264262605458
1690839349110300700,4.49230078125,0.17698621393442152,-0.011744871394708752,0.0007514257220784202
1690839349120340700,4.5023408203125,0.17549100694060324,-0.009466185873001813,0.006719773241691291
1690839349130381800,4.5123818359375,0.18476386219859123,-0.00971479033920914,0.0034419388811103998
1690839349140422000,4.522421875,0.18640519966483116,-0.005163045318983495,0.0051863713956438
1690839349150462000,4.5324619140625,0.17383388738334177,-0.007599515218287706,0.004852668762137182
1690839349160533000,4.542532958984375,0.1626093135356903,-0.002264803126826882,0.009314278680342248
1690839349170572800,4.55257275390625,0.17159166141450405,-0.005610862151719629,0.0022632322242483495
1690839349180613600,4.562613525390625,0.18071429454684257,-0.008119520504400134,-0.002846827098750509
1690839349190653700,4.57265380859375,0.17173954545259476,-0.01807056728489697,-0.004002321843383834
1690839349200693800,4.58269384765625,0.1796715074956417,-0.014151201884075999,-0.0037766598613467066
1690839349210733800,4.59273388671875,0.17997312079071998,-0.003473521329462528,0.0015567142229760064
1690839349220775000,4.60277490234375,0.18072072428762911,-0.0031713965777307746,0.0002380511061521247
1690839349230815000,4.61281494140625,0.1677063444137573,0.0036470147328451275,-0.001376357253966853
1690839349240854800,4.622854736328125,0.16815175009369848,0.00026803981903940436,-0.009818940266850405
1690839349250895600,4.6328955078125,0.18206921628713607,-0.018411197416111826,-0.005906264901719987
1690839349260935700,4.642935791015625,0.17832710714936256,-0.014099142903275788,-0.0025680055907927454
1690839349270975700,4.652975830078125,0.18192191677093505,-0.006545439588092267,-0.0028574443908873943
1690839349281015800,4.663015869140625,0.18088088328540325,0.00016677140165120364,-0.001687455330020748
1690839349291057000,4.673056884765625,0.17609247996509075,-0.0013364362355321644,0.00032024493031203744
1690839349301097000,4.683096923828125,0.17758125721812248,-0.004630692007951438,0.0025993505771271883
1690839349311137000,4.693136962890625,0.17443711397349834,-0.004521715208142996,-0.0013305042516672983
1690839349321207800,4.703207763671875,0.18311667951345442,-0.007649345709383487,0.000042651831638067956
1690839349331247900,4.713247802734375,0.1861152768075466,-0.013367102301679552,-0.0036537641340401023
1690839349341288700,4.723288818359375,0.179680275323987,-0.008300320431403815,0.007028391666291281
1690839349351328800,4.733328857421875,0.18147358848154543,-0.014928469866886734,0.00042559586777351794
1690839349361368800,4.743368896484375,0.1882066961288452,-0.012701404934562743,-0.004704994786600582
1690839349371409000,4.753408935546875,0.16919804427623747,-0.011450783818960189,0.0019500654886942356
1690839349381450000,4.763449951171875,0.1684475181698799,-0.009556713700667022,-0.007028738726163283
1690839349391489800,4.77348974609375,0.18055822720229625,-0.007056932774186134,-0.005283054969459772
1690839349401529900,4.78352978515625,0.1730792696237564,-0.00566237314324826,-0.002210058998595923
1690839349411570700,4.79357080078125,0.17891513617038726,-0.007313537883758545,-0.0038233211478218435
1690839349421610800,4.80361083984375,0.17666764950454233,-0.00826660082489252,-0.0038556707811541855
1690839349431650800,4.81365087890625,0.17799802132546902,-0.008016535053960978,-0.002573275420954451
1690839349441691000,4.82369091796875,0.1808475655376911,-0.012365450978465378,-0.005928166206274181
1690839349451730700,4.833730712890625,0.18100421740412712,-0.01267371321003884,0.000025997524359263477
1690839349461770800,4.843770751953125,0.1741121198028326,-0.00866166455708444,0.0014072455825749784
1690839349471810800,4.853810791015625,0.17260989854633807,-0.004879990593902766,0.0033507032339693977
1690839349481881900,4.8638818359375,0.18323007676005362,-0.008685337693616747,0.0026574831056874245
1690839349491921700,4.873921630859375,0.17499533237814902,-0.006685615243762731,0.003337158765806816
1690839349501962800,4.883962646484375,0.18262568112611768,-0.0073114189919084305,0.0006682500838069245
1690839349512002800,4.8940029296875,0.17499533237814902,-0.010889679337479174,0.002844744739518501
1690839349522042600,4.904042724609375,0.17349895634055137,-0.008342040681280196,0.003727601121808402
1690839349532082700,4.914082763671875,0.18696458711326122,-0.008209354212321341,-0.0002470518299378455
1690839349542123800,4.924123779296875,0.18531506634056566,-0.007980404294654726,-0.0018138262226246296
1690839349552163800,4.934163818359375,0.1781301232725382,-0.01011000020187348,-0.00016010876542422919
1690839349562203600,4.94420361328125,0.1682470271617174,-0.012053937343880534,0.003989937285846099
1690839349572244700,4.95424462890625,0.17093875046372412,-0.008650997032597661,0.00009881159882061183
1690839349582284800,4.964284912109375,0.17483400433659552,-0.009171075383946299,0.002140468927682377
1690839349592324600,4.97432470703125,0.17902502628564834,-0.010488697321154176,0.0025413504793075845
1690839349602364700,4.98436474609375,0.17289397618472574,-0.00666420712955296,0.003927576106740161
1690839349612405800,4.99440576171875,0.18111995273828504,-0.011553878867253661,0.0010606378017226233
1690839349622445800,5.00444580078125,0.17498071933090686,-0.009223426625691354,0.00604433993184939
1690839349632486000,5.01448583984375,0.18096446991562842,-0.005982508475705981,-0.0007775282777147367
1690839349642556700,5.024556640625,0.17543255475163458,-0.006489106290973722,0.0018575648996513336
1690839349652596700,5.0345966796875,0.17918050910830496,-0.005893880344182253,-0.0017360756781417876
1690839349662637800,5.044637939453125,0.18157821789979933,-0.011507044050842522,-0.007288001583702862
1690839349672677600,5.054677734375,0.1839759266912937,-0.012937113386578858,-0.0058153032492147755
1690839349682717700,5.0647177734375,0.17619067964255808,-0.009136807788163424,0.0032550928058102725
1690839349692758800,5.0747587890625,0.17423896105289458,-0.010627119411155581,0.012318250835873186
1690839349702798800,5.084798828125,0.18186638719141482,-0.005928001809492707,0.011592973335203713
1690839349712838700,5.094838623046875,0.18245909238755703,-0.007260930913686752,0.0015153318998171017
1690839349722878700,5.104878662109375,0.1873924571365118,-0.011561404586583375,0.0016760069208219645
1690839349732919800,5.114919921875,0.17751403720080852,-0.008767207290790974,0.004064340529195033
1690839349742959600,5.124959716796875,0.17302432456612585,-0.009076382837817072,0.0013284858245169744
1690839349752999700,5.134999755859375,0.18110826230049132,-0.004512435923144221,0.003865557420928962
1690839349763039700,5.145039794921875,0.18335165731310843,-0.009311324104852975,-0.0012937113386578857
1690839349773080800,5.155080810546875,0.1814046148985624,-0.011142302391678094,-0.00577558772675693
1690839349783121000,5.165120849609375,0.18035715167224406,-0.009808752232976257,-0.002716816644067876
1690839349793160700,5.17516064453125,0.17781448145210743,-0.01323302759323269,-0.00029795546669047324
1690839349803231700,5.185231689453125,0.17811258761584758,-0.008162628993764518,0.010034395948704332
1690839349813271800,5.195271728515625,0.16988368845283985,-0.009182437028177082,-0.00015309906932525335
1690839349823312600,5.205312744140625,0.18021043667793274,-0.008854447182826698,-0.007438050179416313
1690839349833352700,5.215352783203125,0.17841770804226398,-0.012099128192476927,-0.005001520914607681
1690839349843392800,5.225392822265625,0.18290742067694662,-0.010740114798955619,0.005346872886712662
1690839349853433900,5.235433837890625,0.18066519470810888,-0.012030410337820648,-0.00026643695042002946
1690839349863473700,5.2454736328125,0.17812544709742067,-0.012671776981279253,-0.0005696987798903137
1690839349873513700,5.255513671875,0.18202187001407144,-0.008653335120156407,0.002820245052501559
1690839349883553800,5.2655537109375,0.1823158845245838,-0.007104644373431801,-0.002060567525308579
1690839349893594600,5.2755947265625,0.1799205138206482,-0.01371536775007844,0.001709014141280204
1690839349903634700,5.285634765625,0.184111535769701,-0.004558247826248407,0.00675493588661775
1690839349913674800,5.2956748046875,0.176177820160985,-0.009864829801768064,0.005715505269705317
1690839349923715800,5.3057158203125,0.1758715306907892,-0.011202142820134759,0.007848485010676086
1690839349933756000,5.315755859375,0.17571780143380164,-0.010990838157013058,-0.007076879583671689
1690839349943795700,5.325795654296875,0.18379940108060835,-0.005444200347922742,-0.005341324495337903
1690839349953835800,5.335835693359375,0.18170564367175102,-0.006604768559895455,0.0015383109166054055
1690839349963906800,5.34590673828125,0.16719430323839188,-0.005322437131777405,-0.004657424751250073
1690839349973947000,5.35594677734375,0.18051497258245944,-0.008541033852100371,0.00674977565431036
1690839349983987700,5.36598779296875,0.17856734564602375,-0.010527933352999388,0.00710478593732696
1690839349994027800,5.37602783203125,0.16509586965441703,-0.01015340095218271,0.00599436787685845
1690839350004067600,5.386067626953125,0.1757201395213604,-0.009255794525332749,0.0022524414021754635
1690839350014108700,5.396108642578125,0.1743728165656328,-0.012567768617533146,-0.0038200103793060406
1690839350024148700,5.406148681640625,0.1784124473452568,-0.006916976314224302,-0.0028739160350756718
1690839350034188800,5.416188720703125,0.17946049509346484,-0.010045410533063114,0.0027072861973196265
1690839350044228900,5.426228759765625,0.17556991739571093,-0.005096409823559224,-0.0076986008117441085
1690839350054269700,5.436269775390625,0.17138474066555498,-0.007994652015715836,0.0006916994580533355
1690839350064309800,5.446309814453125,0.17064122882187366,-0.012380685080215335,0.00659919733563438
1690839350074349800,5.456349853515625,0.17797288688421248,-0.00969407634474337,-0.011598964684573002
1690839350084391000,5.466390869140625,0.1841062750726938,-0.013921923172846436,-0.008734515164163894
1690839350094430700,5.4764306640625,0.18351123178899287,-0.012494228457286953,0.0021422361930832265
1690839350104470800,5.486470703125,0.17467735247015953,-0.003915164149738848,-0.0016404972160235047
1690839350114510800,5.4965107421875,0.1755751780927181,-0.007068257885798812,-0.0010299686688231304
1690839350124582000,5.506581787109375,0.18245441621243952,-0.00011580839939415454,-0.004035461494582705
1690839350134622700,5.516622802734375,0.17661854966580867,-0.011033910113759338,0.002942222897778265
1690839350144662800,5.526662841796875,0.18425532815456389,-0.011074680515564978,0.00039170729790348555
1690839350154702600,5.53670263671875,0.18529811520576475,-0.016697561898641286,-0.004098229099065065
1690839350164742700,5.54674267578125,0.1790092441946268,-0.013344963535107671,-0.003943787456024438
1690839350174783700,5.55678369140625,0.17317805382311344,-0.004864281568117439,0.00032408542179036885
1690839350184823800,5.56682373046875,0.18096213182806967,-0.0030033465344458817,0.009708712224871852
1690839350194863900,5.57686376953125,0.1902414168268442,-0.01224624504558742,0.0031381564618321134
1690839350204904700,5.58690478515625,0.18335224183499813,-0.014012377935275435,-0.0021903953169006853
1690839350214944800,5.59694482421875,0.18619710987210272,-0.0038071737306192514,0.00041962278471328315
1690839350224984600,5.606984619140625,0.18306114993393421,-0.006541421000100672,-0.0024533890680642797
1690839350235024600,5.617024658203125,0.18941256478726862,-0.013377258369512856,-0.007125828725355677
1690839350245065700,5.627065673828125,0.25005320371091366,-0.21246172420233486,-0.25883213797211646
1690839350255105800,5.637105712890625,-0.0326648367613554,0.3097657680042088,0.3665142217949033
1690839350265145900,5.647145751953125,0.347280821275711,-0.12557137625664472,0.023110954338591543
1690839350275186000,5.65718603515625,0.08062485781013966,-0.024831001330539584,0.09528685876056552
1690839350285257000,5.667257080078125,0.1915145055025816,-0.004264160250499844,-0.020581353662582114
1690839350295297800,5.6772978515625,0.21620295655727384,-0.0065343702048063276,-0.12546033536391332
1690839350305337600,5.687337646484375,0.19600947883427142,-0.0008965104483067989,-0.12720027436641976
1690839350315377700,5.697377685546875,0.20755144806802273,0.001253214931488037,-0.09660767730185761
1690839350325417700,5.707417724609375,0.19458441446721553,-0.007383132521249353,-0.036554478310770355
1690839350335458800,5.717458740234375,0.1553846229791641,0.007431793968565761,0.029623665267438627
1690839350345499000,5.727498779296875,0.1934615479171276,0.0024818068783730267,0.07990422451854683
1690839350355539000,5.7375390625,0.14131108944118023,0.003400090767070651,0.10719031825046986
1690839350365579800,5.747579833984375,0.1886819124251604,-0.0032330636370927093,0.07897902683187276
1690839350375619600,5.75761962890625,0.1462625743687153,-0.010183211568556725,0.04691289574918337
1690839350385659600,5.76765966796875,0.218897602468729,-0.018591230158135293,-0.01832258755089715
1690839350395699700,5.77769970703125,0.13828618866205214,-0.014215243563614784,-0.05794104740901384
1690839350405740800,5.78774072265625,0.24021803839504718,-0.02372552430666983,-0.07790060221171007
1690839350415780900,5.79778076171875,0.1505921280056238,-0.022630897470377383,-0.06692508492141495
1690839350425821000,5.807821044921875,0.19501988327503203,-0.02566153387054801,-0.03975555307413451
1690839350435861800,5.81786181640625,0.16581833871006965,-0.022586766067706047,0.0025359253855189307
1690839350445896700,5.827896728515625,0.15666297235190868,-0.014795089278183876,0.03221411558547988
1690839350455937500,5.8379375,0.17100246334969996,-0.01998268451653421,0.04828332558586262
1690839350465977600,5.8479775390625,0.15077449883520602,-0.010524535819515585,0.05353379345997236
1690839350476017700,5.858017578125,0.17737784360051154,-0.01499196355715394,0.04216612134720198
1690839350486057500,5.868057373046875,0.18797288737297058,-0.01667677483893931,0.0014771050815470515
1690839350496098600,5.8780986328125,0.15606676002442835,-0.018069471306353807,-0.021609427201841024
1690839350506138600,5.888138671875,0.20451310328543185,-0.01747786208875477,-0.04166222694567404
1690839350516178700,5.8981787109375,0.18875790027081965,-0.010930742000229657,-0.04745914972140453
1690839350526219500,5.908219482421875,0.18303660001456737,-0.0031339871767908332,-0.028302540765469893
1690839350536259600,5.918259521484375,0.1707353368461132,0.0035690906584262844,-0.008953395778965204
1690839350546299600,5.928299560546875,0.1969026282817125,-0.0018328779829666017,0.016519163991278035
1690839350556339700,5.938339599609375,0.1569412047713995,0.0014518427761271596,0.04220558570791036
1690839350566380800,5.948380859375,0.1921113023519516,0.003439874788187444,0.03374291432164609
1690839350576420600,5.958420654296875,0.16968202840089797,-0.0012820391671732067,0.02854334551771171
1690839350586460700,5.968460693359375,0.19261340665519236,-0.0070745414961129426,0.014234240525029598
1690839350596501500,5.97850146484375,0.1887643300116062,-0.007332644443027675,-0.01077664741706103
1690839350606571800,5.98857177734375,0.1705482898414135,-0.013402429343387484,-0.02685653407508507
1690839350616612600,5.998612548828125,0.2032078659057617,-0.01748893147204071,-0.03719982700960245
1690839350626652700,6.008652587890625,0.176451960927248,-0.013356069451011716,-0.01931615146577824
1690839350636692500,6.0186923828125,0.17573007639348506,-0.0035763606494292615,-0.007417190054478123
1690839350646733600,6.028733642578125,0.18427929355204103,-0.012680471744388341,0.00989655381401535
1690839350656773600,6.038773681640625,0.15451719249486923,-0.013230470309965311,0.019771046493272295
1690839350666813700,6.048813720703125,0.1655991430014372,-0.020859759612008928,0.02634455683180131
1690839350676853800,6.058853759765625,0.16994097159802912,-0.0204248022608459,0.017617992078652604
1690839350686894600,6.06889453125,0.17218495113253593,-0.010787826398201287,0.012061134269647299
1690839350696934700,6.0789345703125,0.16410276696383952,-0.015523622748441993,-0.0037511052949819714
1690839350706974700,6.088974609375,0.18189853589534757,-0.01698361229840666,-0.019780065483367068
1690839350717015800,6.099015869140625,0.17814765892922876,-0.017792590593732893,-0.020880660836142487
1690839350727055600,6.1090556640625,0.1815758798122406,-0.013063991169258951,-0.013640530681889503
1690839350737095700,6.119095703125,0.17152444139719009,-0.01097633470762521,-0.015464238977711648
1690839350747135700,6.1291357421875,0.1891565441995859,-0.011748561189137398,-0.006476516237459145
1690839350757176600,6.139176513671875,0.18075053490400314,-0.008838628559187054,0.007460293977265246
1690839350767246800,6.149246826171875,0.1683089864820242,-0.009750080848298967,0.015790324560343287
1690839350777287700,6.15928759765625,0.1857932052463293,-0.013566095472499727,0.01055836959045846
1690839350787327500,6.169327392578125,0.1745516802638769,-0.009053330755792557,0.0019670988218858836
1690839350797367600,6.179367431640625,0.16915829678773878,-0.006246127847954631,-0.01128213555405382
1690839350807408600,6.18940869140625,0.18082710727155207,-0.008849076887965202,-0.0125792581259273
1690839350817448700,6.19944873046875,0.1827776568174362,-0.006942183820717036,-0.017388494171714407
1690839350827488800,6.20948876953125,0.18160393686294554,-0.010887560445629059,-0.012851896488270722
1690839350837528800,6.21952880859375,0.17160335185229778,-0.008052081291377544,-0.003500674197869375
1690839350847569700,6.229569580078125,0.1758072332829237,-0.0014398600773885845,-0.0018877819414017721
1690839350857609700,6.239609619140625,0.17851532319784164,0.003701046475023031,-0.001066610884782858
1690839350867649500,6.2496494140625,0.1770399899482727,-0.002155607131309807,0.007685499301576055
1690839350877690600,6.259690673828125,0.18334756565988064,-0.005597929604910313,0.007581052546412684
1690839350887730700,6.269730712890625,0.17977730595767497,-0.01353478701878339,0.005237416596291586
1690839350897770800,6.279770751953125,0.16931611769795415,-0.008946509380452335,-0.0005302435523364692
1690839350907810800,6.289810791015625,0.17755729182064534,-0.01247570641990751,-0.0060836216294672335
1690839350917851600,6.2998515625,0.17818857546150682,-0.018324980437383055,-0.013828710197750478
1690839350927921400,6.30992138671875,0.17071487857997417,-0.016347652482427654,-0.00951871064468287
1690839350937962500,6.31996240234375,0.17610124779343603,-0.015599354865774512,-0.0025995058407541362
1690839350948002600,6.33000244140625,0.16965747848153112,-0.008925868451222776,0.00016537402900867164
1690839350958042600,6.340042724609375,0.178477329275012,-0.006976780210062861,0.0017275635781232267
1690839350968083700,6.350083740234375,0.17202946830987928,-0.005318126282840967,0.006852706305822357
1690839350978123800,6.360123779296875,0.17574878109395503,-0.008062127761356532,0.008901163268228993
1690839350988163600,6.37016357421875,0.17648410963118075,-0.015196107827126978,-0.0005579352768603712
1690839350998203600,6.38020361328125,0.17422668609321115,-0.015932240081951023,-0.005357965102884918
1690839351008244700,6.39024462890625,0.1816933687120676,-0.010734306112676858,-0.007393169858073815
1690839351018284500,6.400284423828125,0.17928689209222792,-0.008913082034885883,-0.00651963842655532
1690839351028324600,6.41032470703125,0.17328852846026419,-0.008996266806311905,-0.01173703514812514
1690839351038365700,6.42036572265625,0.16280805097818374,-0.012843918677791952,0.002924440645915456
1690839351048405800,6.43040576171875,0.17447919954955576,-0.014603146902658045,-0.001001696988986805
1690839351058445600,6.440445556640625,0.18210954829752443,-0.012667466132342814,0.0003797839646693319
1690839351068485600,6.450485595703125,0.17343465893268584,-0.006452792868576944,0.007005193453794345
1690839351078526700,6.460526611328125,0.18720190300047396,-0.004352240392751992,0.012253802730957978
1690839351088597500,6.470597412109375,0.17688392260372637,0.0016067045442759989,0.0015729940709192304
1690839351098637600,6.480637451171875,0.18467267678380012,-0.0003617094518616795,-0.005215588356973603
1690839351108677600,6.490677734375,0.17929449087679386,-0.010076828584633766,0.0004515614260919392
1690839351118717700,6.5007177734375,0.18529343903064727,-0.009363675346598028,-0.00513379639161285
1690839351128758800,6.5107587890625,0.18770576086938381,-0.002242883555963635,-0.011488937571994028
1690839351138798600,6.520798583984375,0.18308569985330103,-0.004673946627788245,-0.006377371278498321
1690839351148838400,6.53083837890625,0.1896884591192007,-0.011166486984863876,0.0024376846088562157
1690839351158879500,6.54087939453125,0.1868552815198898,-0.005399886282160878,-0.0007441602976527064
1690839351168919600,6.55091943359375,0.17683599180877208,-0.006461049240268767,0.006843650783109478
1690839351178959600,6.560959716796875,0.1751923162549734,-0.009992438236810267,0.008478188615804537
1690839351188999700,6.570999755859375,0.17758710243701933,-0.005220657257735729,0.004920989324571565
1690839351199040800,6.581040771484375,0.16816344053149224,-0.013100596852600574,-0.001216778211505152
1690839351209080600,6.59108056640625,0.17803426168262956,-0.021743008719943464,-0.0016218929802533238
1690839351219120600,6.60112060546875,0.1714496225953102,-0.017258812510594725,0.0007787749533075839
1690839351229161700,6.61116162109375,0.18252280527353285,-0.012777356247603892,-0.009413423639303073
1690839351239201500,6.621201416015625,0.187457339066267,-0.002662899066321552,-0.008692708149319514
1690839351249272600,6.6312724609375,0.18595336424410341,-0.006724084090627729,-0.0037437942047836258
1690839351259312600,6.641312744140625,0.1884814214169979,-0.010491948724165558,-0.004780311345402151
1690839351269352700,6.651352783203125,0.1670668774664402,-0.00424333665817976,-0.0026118401659419757
1690839351279392800,6.661392822265625,0.1707926199913025,-0.0030428017619997263,-0.001428018942545168
1690839351289433600,6.67143359375,0.17271978866159915,-0.011197357047162949,-0.004393175191339105
1690839351299473400,6.681473388671875,0.17465046446323393,-0.007617927657812834,-0.007360034773452207
1690839351309513500,6.691513427734375,0.17958266016840935,-0.006092435123585164,-0.007201501477183773
1690839351319554600,6.701554443359375,0.1737497162312269,-0.016376659381203352,0.003815882193460129
1690839351329594600,6.7115947265625,0.17883622571527957,-0.013082220945693552,0.005471563278883695
1690839351339634700,6.721634765625,0.18991408456861972,-0.010829692778550087,-0.001597543990286067
1690839351349674800,6.7316748046875,0.18019582363069056,-0.00899907981790602,-0.00826825392586179
1690839351359715600,6.741715576171875,0.18589491205513475,-0.004525989524461329,-0.0041029966057278214
1690839351369755600,6.751755615234375,0.1830570582807064,-0.0029178602080792188,-0.015588376814033834
1690839351379795500,6.76179541015625,0.1839589755564928,-0.007161123801022767,-0.014326247923728077
1690839351389836500,6.77183642578125,0.17887772676944733,-0.00355360082834959,-0.00800874447315
1690839351399876600,6.781876708984375,0.1685650070697069,-0.005640891963802278,-0.0005190645711962133
1690839351409947600,6.79194775390625,0.17081424730122088,-0.00986899452023208,-0.0037297611128538845
1690839351419987700,6.80198779296875,0.18233984992206095,-0.005194499903172254,-0.0033020828858483582
1690839351430027800,6.81202783203125,0.17575696440041064,-0.008945303804054856,-0.00048475130964070555
1690839351440067600,6.822067626953125,0.17217618330419063,0.0008543883396312594,-0.010368568939669058
1690839351450113500,6.832113525390625,0.17788287051320076,-0.008189809261634946,0.0001346409640274942
1690839351460153600,6.842153564453125,0.17070201909840105,-0.010523768634535371,-0.006442426738189533
1690839351470193700,6.852193603515625,0.18895605319142342,-0.0029387203330174085,-0.0002799814185826108
1690839351480234500,6.862234375,0.18161854991018772,-0.004999196526780724,0.0011718293915037065
1690839351490274600,6.872274658203125,0.18026538173556328,-0.003358443582430482,-0.0036666144824586805
1690839351500314600,6.882314697265625,0.17935645019710064,-0.001791705722361803,-0.0032393472474068403
1690839351510354400,6.8923544921875,0.1838321343064308,-0.006862908039428293,-0.009322512219147755
1690839351520395500,6.9023955078125,0.18501637565493584,-0.005489793055318296,-0.009029698718455619
1690839351530435600,6.912435546875,0.18157003459334373,-0.003775171157158911,-0.0015999094773083925
1690839351540475600,6.9224755859375,0.17214520364403724,-0.008961926145292818,-0.004313862877432257
1690839351550516500,6.9325166015625,0.16884674662053584,-0.010449790082871913,-0.0008447893942240626
1690839351560556500,6.942556640625,0.17961831600368022,-0.012321904097683727,0.004723315894580446
1690839351570627600,6.952627685546875,0.182604638338089,-0.008418686114065349,0.006384718901314772
1690839351580667600,6.962667724609375,0.17512568075954912,-0.005069741012342274,-0.0027187894054455683
1690839351590707500,6.97270751953125,0.17407412588000296,-0.002306413778848946,-0.016461515519907696
1690839351600748500,6.98274853515625,0.1820025807917118,-0.0043171690793707964,-0.008168670575483702
1690839351610788600,6.99278857421875,0.18005612289905548,-0.00822265208531171,-0.010870709775527938
1690839351620828700,7.00282861328125,0.18110124803781508,-0.007218406946212053,-0.004930378207424656
1690839351630868700,7.01286865234375,0.17496435271799562,-0.0051425505202263595,-0.012264164294768124
1690839351640909600,7.02290966796875,0.17377309710681438,-0.008453757427446544,-0.009209900423837826
1690839351650949600,7.03294970703125,0.17362579759061336,-0.01497380684595555,-0.0007686280186288058
1690839351660989400,7.042989501953125,0.18171441150009632,-0.014948051350191234,0.0010177896072622388
1690839351671030500,7.053030517578125,0.1808311989247799,-0.008525069097988306,0.0024178793632658197
1690839351681070600,7.063070556640625,0.17425474314391612,-0.015416509112156926,0.0007482747837668284
1690839351691110700,7.073110595703125,0.1723170530796051,-0.006456409597769379,-0.005736726154247298
1690839351701150700,7.083150634765625,0.18233984992206095,-0.009988967638090252,-0.0007568873484851792
1690839351711191600,7.093191650390625,0.17785072180926798,-0.004164901127107441,-0.0051330977052915835
1690839351721231600,7.103231689453125,0.1799456482619047,-0.010595701359584927,-0.007092031487030908
1690839351731302700,7.113302734375,0.1736626224696636,-0.012336626742780209,-0.005389154825592413
1690839351741342500,7.123342529296875,0.18338322149515152,-0.01379617790132761,-0.011320024445606395
1690839351751382500,7.133382568359375,0.16512158861756324,-0.01660064086280763,-0.007369706784095615
1690839351761423600,7.143423583984375,0.16796178047955035,-0.008268719716742635,-0.00586243489314802
1690839351771463700,7.153463623046875,0.18231471548080444,-0.01616323582623154,-0.005980531147751026
1690839351781503700,7.163503662109375,0.18619886343777178,-0.01236621816344559,-0.004448275512596592
1690839351791543800,7.173543701171875,0.18963819023668765,-0.009274316562712192,-0.0012832173441071062
1690839351801584600,7.183584716796875,0.17856266947090624,-0.011748378526046871,0.0016258659024722872
1690839351811624400,7.19362451171875,0.17677169440090656,-0.01569492419473827,0.0005870928726857528
1690839351821664500,7.20366455078125,0.18275719855129718,-0.01511233853381127,0.0035710268871858714
1690839351831705600,7.21370556640625,0.17572481569647788,-0.004779891220293939,-0.001141251590149477
1690839351841745700,7.22374560546875,0.18559855945706366,-0.010682210599258541,-0.009270078779011964
1690839351851785700,7.23378564453125,0.18529869972765445,-0.018620675448328256,-0.007494365210225805
1690839351861825800,7.24382568359375,0.18754267926216125,-0.013670176901482044,-0.0037714813627302644
1690839351871866600,7.25386669921875,0.1911392424494028,-0.013413352596201002,-0.002996779796341434
1690839351881906700,7.26390673828125,0.17693302244246004,-0.011116327700205146,-0.0008860940855694935
1690839351891977500,7.2739775390625,0.1841203035980463,-0.011585041190497577,-0.0004664850005879998
1690839351902017500,7.284017578125,0.1811351503074169,-0.015922924264334143,0.0027157160989474505
1690839351912057600,7.2940576171875,0.18084405840635298,-0.011283172167092561,0.002103164558019489
1690839351922098700,7.3040986328125,0.17725626304745673,-0.009876118380762636,0.0026215943749761206
1690839351932138800,7.314138671875,0.18549100742936134,-0.014722097107209264,-0.0018037797526456415
1690839351942178800,7.3241787109375,0.15885668300390243,-0.014397723991051315,-0.007575093163084239
1690839351952218600,7.334218505859375,0.17426994071304797,-0.013948957310244441,0.003361526022083126
1690839351962259500,7.344259521484375,0.182800453171134,-0.007187135025113821,-0.002499260336672887
1690839351972299500,7.354299560546875,0.18130290808975696,-0.009145758279599249,-0.00011349771129898727
1690839351982339600,7.364339599609375,0.17277356467545033,-0.006604403233714401,-0.0022490393021143973
1690839351992380700,7.374380615234375,0.17352467530369758,-0.009071523999609053,-0.011227254428504965
1690839352002420700,7.384420654296875,0.18743921888768672,-0.006710932348109782,-0.0028561200834810734
1690839352012460800,7.394460693359375,0.17427110975682733,-0.005952259467914701,-0.003199718489916995
1690839352022500900,7.4045009765625,0.16634908458590505,-0.016238419954292475,-0.006199850153969601
1690839352032541700,7.414541748046875,0.16454934168756008,-0.01214599954150617,0.0027925578945549204
1690839352042581500,7.42458154296875,0.17172610144913195,-0.004339344378560781,-0.00001625701505690813
1690839352052652500,7.434652587890625,0.17994973991513252,-0.0056614963604137295,-0.0027655100574251264
1690839352062692600,7.444692626953125,0.1832353374570608,-0.006517346004769205,0.0011188936278689653
1690839352072732700,7.454732666015625,0.17739479473531244,-0.012011121115460991,-0.007040803623292595
1690839352082773800,7.464773681640625,0.183231245803833,-0.01245444443617016,-0.009429899850068613
1690839352092813800,7.474813720703125,0.17200959456562995,-0.00944550841115415,-0.0020775962919229642
1690839352102853600,7.484853515625,0.1865250266522169,-0.006146576463617384,-0.006311950492626056
1690839352112894500,7.49489453125,0.1880237407773733,0.0009250424230471253,0.0013489669235423206
1690839352122934500,7.5049345703125,0.17575521083474158,-0.0006988689843565226,-0.0018402256057830526
1690839352132974600,7.514974609375,0.1760585776954889,0.0044756475767120715,-0.008586265799892134
1690839352143014700,7.5250146484375,0.18339315836727618,-0.005500533645041287,-0.011536745069362222
1690839352153055700,7.5350556640625,0.18234978679418562,-0.00706723497249186,-0.008243735972535795
1690839352163095800,7.545095703125,0.18684183751642702,-0.00580839401781559,-0.00804628173825331
1690839352173135600,7.555135498046875,0.17966449323296546,-0.010621274192258714,0.004370196174550802
1690839352183176400,7.565176513671875,0.17563421480357647,-0.005018851075321435,-0.002424541999492794
1690839352193216500,7.575216552734375,0.1784732376217842,-0.0035934944473206996,-0.0016425065100193024
1690839352203256600,7.585256591796875,0.17577917623221873,-0.0056803471913561224,-0.00415105526484549
1690839352213327600,7.59532763671875,0.17263561750948428,-0.011981968086212873,-0.004650739282136783
1690839352223367700,7.60536767578125,0.1772755522698164,-0.01059646854456514,-0.01014287955816835
1690839352233407700,7.61540771484375,0.1795189472824335,-0.008987535510584711,-0.01397119654151611
1690839352243448800,7.62544873046875,0.18445698820650577,-0.010490195158496498,-0.003775664347503334
1690839352253488600,7.635488525390625,0.17966741584241389,-0.009233948019705712,-0.001130565799353644
1690839352263528700,7.64552880859375,0.1718903521001339,-0.010782017711922526,-0.0012738969599129632
1690839352273569500,7.655569580078125,0.17458149088025093,-0.004964819333143532,-0.007610283207474276
1690839352283609600,7.665609619140625,0.1754763938933611,-0.0024860446620732545,-0.011625071806786581
1690839352293649700,7.675649658203125,0.1826560762643814,-0.007626585888303816,0.002116489830473438
1690839352303689700,7.685689697265625,0.17756430608332155,-0.005168086820282042,0.0022853801239747554
1690839352313730800,7.695730712890625,0.17158347810804844,-0.0035902795769274234,-0.0015358495314605532
1690839352323770600,7.7057705078125,0.17891688973605632,-0.0059518210764974355,-0.0019109116552397608
1690839352333810700,7.715810791015625,0.17547697841525076,-0.0053171033695340155,-0.009064674133714288
1690839352343851500,7.7258515625,0.17772154247164726,-0.0045717648949474094,-0.00884805397465825
1690839352353891600,7.7358916015625,0.18505261601209638,-0.006263955765590071,-0.013818006140645593
1690839352363931600,7.745931640625,0.18340718689262867,-0.009531798455119133,-0.007883510658284649
1690839352374002700,7.756002685546875,0.1804115122079849,-0.005256788017041981,-0.010243563453666865
1690839352384042800,7.766042724609375,0.1869920596420765,-0.003384235610812902,-0.014007299901358782
1690839352394082600,7.77608251953125,0.1820551877617836,-0.010984956405498087,-0.008579457033192739
1690839352404123600,7.78612353515625,0.17008710207045077,-0.008356032674014567,-0.0027609891459345814
1690839352414163700,7.796163818359375,0.1721820285230875,-0.0039982393233105535,-0.00306547938468866
1690839352424203500,7.80620361328125,0.17951251754164696,-0.013008644252829252,0.004672553821722976
1690839352434244600,7.81624462890625,0.18789046978652477,-0.006152494747750461,0.0012029643152840434
1690839352444284700,7.82628466796875,0.18280512934625148,-0.0011797843690961598,0.002058823092794046
1690839352454326300,7.836326171875,0.17892331947684287,-0.0020607319220900533,-0.002285133528802544
1690839352464366000,7.846365966796875,0.17174363710582255,-0.004857157707586884,-0.0017392266164533792
1690839352474407200,7.8564072265625,0.1718944437533617,-0.004999159994162619,-0.012860623217420653
1690839352484447000,7.866447021484375,0.1751870555579662,-0.0012632248688489198,-0.010000557611184194
1690839352494487000,7.876487060546875,0.17908172490894794,0.004353738230094314,-0.010991267415275797
1690839352504528100,7.886528076171875,0.18820611160695552,-0.0021498715102672575,-0.0032333741643466056
1690839352514568200,7.896568115234375,0.17817922311127185,-0.0047082872888073325,-0.0013772431699559092
1690839352524608300,7.906608154296875,0.18371698349416254,-0.015604031040892004,-0.006093996893009171
1690839352534679300,7.91667919921875,0.17698270680308342,-0.005884162667766213,0.0024593941171653566
1690839352544719000,7.926718994140625,0.1708481495708227,-0.010372450530342758,0.0039642913879361
1690839352554760000,7.936760009765625,0.18072364689707754,-0.0118849374525249,0.0007428085907828062
1690839352564800000,7.946800048828125,0.17577917623221873,-0.01052497421093285,0.002432296047685668
1690839352574840000,7.956840087890625,0.1745779837489128,-0.01018284624237567,-0.011636323853163048
1690839352584880000,7.966880126953125,0.1721855356544256,-0.010609729884937405,-0.008995563553413376
1690839352594921200,7.976921142578125,0.17368191169202327,-0.0035937501756474373,-0.010508178339758888
1690839352604961300,7.986961181640625,0.1813151830494404,-0.003683035894297063,-0.010229069137433542
1690839352615001000,7.9970009765625,0.1862497168421745,-0.0016265782885253428,-0.007057773024402559
1690839352625042200,8.007042236328125,0.18220599440932272,-0.009152261085622011,0.0028809987964108583
1690839352635082000,8.01708203125,0.17711656231582162,-0.003930215588398278,-0.0006971884839236735
1690839352645122000,8.0271220703125,0.17667232567965982,-0.004422784878313541,-0.005841784830763936
1690839352655162000,8.037162109375,0.1668009200066328,-0.014802724595367907,0.0012190478004049509
1690839352665203200,8.047203125,0.17039689867198465,-0.008588635853491722,-0.002900890806969255
1690839352675243300,8.0572431640625,0.18431670295298097,-0.006437741429917514,-0.003340469534322619
1690839352685283000,8.067282958984375,0.18342004637420176,-0.008241027992218732,-0.006226592030422762
1690839352695354000,8.07735400390625,0.17803426168262956,-0.007905950818955898,-0.01409976395778358
1690839352705394000,8.087393798828124,0.1853700113981962,-0.002430149756371975,-0.004792869432875886
1690839352715435000,8.09743505859375,0.1843237172156572,-0.009426840243302285,-0.0029076128087006507
1690839352725475000,8.10747509765625,0.17624153304696083,-0.007376593182608485,-0.013215665466478094
1690839352735515100,8.11751513671875,0.1729442450672388,-0.010464293532259762,-0.014364926833147182
1690839352745555200,8.12755517578125,0.17593933522999286,-0.007871390962228178,-0.000941523200389929
1690839352755596300,8.13759619140625,0.17174655971527097,-0.005510032125748693,-0.0021178780699614434
1690839352765636000,8.147635986328124,0.180277072173357,-0.010883066933602093,-0.0010140632802154868
1690839352775676000,8.157676025390625,0.1823731676697731,-0.004885068627819418,0.004569572937861085
1690839352785717000,8.167717041015624,0.17997487435638904,-0.010372633193433284,0.0027526323095429686
1690839352795757000,8.177757080078125,0.1724947477340698,-0.010647395014204085,-0.002515974009456113
1690839352805797000,8.187797119140624,0.17443711397349834,-0.00637574557699263,-0.0036681397192645814
1690839352815837200,8.197837158203125,0.17488427321910857,-0.010162059182673691,-0.00913871661745943
1690839352825878000,8.2078779296875,0.17323767505586146,-0.0034325317319482563,-0.007066568252211436
1690839352835918000,8.21791796875,0.1727829170256853,-0.007587824780493974,-0.004449892080947757
1690839352845958000,8.2279580078125,0.1675420937627554,-0.007811952392570674,-0.003710517556266859
1690839352856029000,8.23802880859375,0.18429624468684194,-0.0074503160059452055,-0.013898834558203815
1690839352866069000,8.248069091796875,0.18713702107071875,-0.005693608531728386,-0.005451607336243614
1690839352876110000,8.258110107421874,0.18040215985774993,-0.004366670776903629,-0.0005119498438201844
1690839352886150100,8.268150146484375,0.1824947482228279,-0.008170739234983921,-0.00046310573341324925
1690839352896190200,8.278190185546874,0.17576631675064563,-0.0025492826240137217,-0.004010002826340496
1690839352906230300,8.288230224609375,0.17128595646619796,0.0013675620261579752,-0.0032020109117031096
1690839352916271000,8.29827099609375,0.1774275279611349,-0.008094093802198768,-0.004230321912979707
1690839352926311000,8.308310791015625,0.1838636984884739,-0.009398271735943852,-0.007089912595180794
1690839352936351000,8.31835107421875,0.1745820754021406,-0.006477233190089464,-0.004495603519352152
1690839352946392000,8.32839208984375,0.1783241845399141,-0.01123867543824017,-0.007375013146875426
1690839352956432100,8.33843212890625,0.1792179185092449,-0.010424911369942128,-0.009360844068694859
1690839352966472200,8.34847216796875,0.17337796030938624,-0.013958053932152688,-0.006350081412773579
1690839352976512300,8.35851220703125,0.175924137660861,-0.008228351173736154,-0.004522614823863841
1690839352986553000,8.368552978515625,0.1733838055282831,-0.0036819399157539006,0.0031446821007411925
1690839352996593000,8.378593017578124,0.18086860832571983,-0.00990172774605453,0.0010370422970037907
1690839353006633000,8.388633056640625,0.17069500483572483,0.0007616685548797249,-0.004582003161171451
1690839353016704000,8.3987041015625,0.1606651937305927,-0.002301262679696083,0.000905132146179676
1690839353026744000,8.408744140625,0.17397943333387375,-0.011519209412671625,-0.00024144407305866478
1690839353036785200,8.41878515625,0.17173486927747725,-0.013453246215172111,-0.0041634306892286985
1690839353046825200,8.4288251953125,0.1805646569430828,-0.0047581177799031135,-0.004606160354893654
1690839353056865000,8.438864990234375,0.17592706027030944,-0.007564626567997038,-0.0011849263350944966
1690839353066906000,8.448906005859374,0.18235855462253092,-0.00567965307161212,-0.008708389775641262
1690839353076946000,8.45894580078125,0.18744564862847327,-0.013619908018968998,-0.00019006094569340348
1690839353086986000,8.468986083984374,0.17711890040338038,-0.004063340448774397,0.0010610533602535724
1690839353097026000,8.479026123046875,0.18040508246719836,-0.004946224230527877,-0.0013267322588479146
1690839353107067100,8.489067138671874,0.18399521591365336,-0.01216861323211342,-0.0016556536859599871
1690839353117107200,8.499107177734375,0.1798059475302696,-0.0073753510735929005,-0.0036197157339658585
1690839353127147300,8.509147216796874,0.17173019310235976,-0.004592953813448548,0.0028953013163991272
1690839353137188000,8.51918798828125,0.17517244251072406,-0.006693652419745922,0.0041715409304481
1690839353147228000,8.529227783203124,0.18444880490005014,-0.011061053849011659,-0.0020418902243021873
1690839353157268000,8.53926806640625,0.1866904463469982,-0.00993109997101128,-0.010999605985358357
1690839353167308000,8.54930810546875,0.18309505220353603,-0.00898117883503437,-0.0000892217865679413
1690839353177379000,8.559379150390624,0.1832446898072958,-0.0069089391382411115,-0.008948281212430447
1690839353187419100,8.569419189453125,0.1819020430266857,-0.005774784009158611,-0.00519180562258698
1690839353197460200,8.579460205078124,0.17786124320328234,-0.009813720669038593,-0.005564136933162808
1690839353207500000,8.5895,0.1824994243979454,-0.0035294893004000185,-0.00703378022746183
1690839353217540000,8.5995400390625,0.1766734947234392,-0.00034516017585992814,0.00007077738100197166
1690839353227581000,8.609580810546875,0.1772749677479267,-0.01285571871344,0.004167284880438819
1690839353237621000,8.61962109375,0.17473638918101786,-0.010803389293514192,0.005071074452903121
1690839353247661000,8.6296611328125,0.1814700813502073,-0.008253887473791837,-0.010021746529685334
1690839353257701000,8.639701171875,0.1825163755327463,-0.009632628481090068,-0.0015067330348305403
1690839353267742200,8.6497421875,0.17953063772022723,-0.013378500478528439,-0.006272787526017055
1690839353277782300,8.6597822265625,0.18312603186368942,-0.008502784200944006,-0.0032833781853783875
1690839353287822000,8.669822021484375,0.1832832682520151,-0.005505100222304463,-0.002624256689520553
1690839353297863000,8.67986279296875,0.1738584373027086,-0.0015726561442017555,-0.011905327220004983
1690839353307903000,8.689903076171875,0.1861281362891197,-0.009218421657010912,-0.008716372152697294
1690839353317943000,8.699943115234374,0.1783463963717222,-0.0077288041537627574,-0.0030378241927828636
1690839353327983000,8.709983154296875,0.17685060485601425,0.0006563815494999289,-0.007375698133464902
1690839353338054100,8.72005419921875,0.17909341534674167,-0.0065641808211803435,0.002508165162336081
1690839353348095200,8.73009521484375,0.17670155177414415,-0.0036702129453420637,-0.0018046565354801712
1690839353358135000,8.740135009765625,0.17370470804572105,-0.005843246135488152,-0.000630452523799613
1690839353368175000,8.750175048828124,0.17849661849737167,-0.007423537596873938,0.0016545988066121935
1690839353378215200,8.760215087890625,0.18104279584884642,-0.005732077378593385,-0.0047585470381658525
1690839353388256000,8.770256103515624,0.1874789663761854,-0.0024133447520434856,-0.0005286726497579366
1690839353398296000,8.780296142578125,0.1758078178048134,-0.010178279665112495,-0.0011244648521300405
1690839353408336100,8.790336181640624,0.17520634478032587,-0.01234966888744384,0.002872185302292928
1690839353418376200,8.800376220703125,0.1841857700496912,-0.006945216028019786,-0.0011044815100263803
1690839353428417300,8.810417236328124,0.18119710962772367,-0.011950330838933586,-0.011094791721832007
1690839353438457000,8.82045703125,0.1686316425651312,-0.006172587687708437,-0.004473962509701959
1690839353448472600,8.83047265625,0.17327391541302203,-0.008341090833209455,-0.0010045282668899745
1690839353458513400,8.840513427734376,0.1753629966467619,-0.009816825941577553,-0.006070223291777074
1690839353468553500,8.850553466796875,0.17491583740115166,-0.005737776467017829,0.0005318235880695284
1690839353478593500,8.860593505859375,0.17327391541302203,-0.0071506024070084094,0.004147456801962107
1690839353488633300,8.87063330078125,0.170730076149106,0.0006225158125162124,-0.0025308701844885943
1690839353498704400,8.880704345703125,0.180903679639101,-0.017693952524848282,-0.01002112547517754
1690839353508745500,8.890745361328126,0.18359540294110774,-0.006363543682545423,-0.0009376279099844396
1690839353518785500,8.90078564453125,0.17506313691735267,-0.007327566409111023,0.0021032376232556996
1690839353528825600,8.91082568359375,0.17521160547733305,-0.00947130043953657,0.005519311410747468
1690839353538865700,8.92086572265625,0.18852642960250376,-0.010277392658032476,0.0017817597170826046
1690839353548906500,8.930906494140626,0.19091946221888065,-0.006110737965255976,-0.003499377289926633
1690839353558946600,8.940946533203125,0.17789982164800167,-0.013448131648637354,-0.007515700259199365
1690839353568986400,8.950986328125,0.1835889732003212,-0.007832337593473494,-0.0013356873168610035
1690839353579027500,8.96102734375,0.17385785278081892,-0.009133446787297725,0.0009184208860155194
1690839353589067500,8.971067626953126,0.1726613364726305,-0.008971278495527804,0.00627633118997328
1690839353599107600,8.981107666015625,0.1808960808545351,-0.007374949214793741,-0.0007792087781475856
1690839353609147600,8.991147705078125,0.18598200581669808,-0.010552775533311068,-0.005425144021003507
1690839353619188500,9.0011884765625,0.18029636139571667,-0.01189114799760282,0.0003639653410296887
1690839353629228500,9.011228515625,0.1788046615332365,-0.009120952631905675,0.000983942136587575
1690839353639268400,9.021268310546875,0.19272855746746062,-0.009275595204345882,0.003325144101027399
1690839353649309400,9.031309326171876,0.18494974015951154,-0.014620463363640009,0.0020463746031746267
1690839353659379500,9.04137939453125,0.17611936797201633,-0.005979001344367862,-0.0022820191231090574
1690839353669420500,9.051420654296875,0.18016250588297844,-0.008317344631440937,-0.0030356779014691707
1690839353679460600,9.061460693359376,0.17447686146199703,-0.008130553355067969,0.007275626159319653
1690839353689500700,9.071500732421875,0.18704525113403797,-0.007244198974594473,-0.005150925622927025
1690839353699540700,9.081540771484375,0.18389584719240665,-0.009328165641799568,-0.006555312528135255
1690839353709581600,9.09158154296875,0.18358955772221086,-0.005428308659046888,0.006137635105336084
1690839353719621400,9.101621337890625,0.1816448533952236,-0.008270290619321167,0.0037944969121366736
1690839353729661400,9.111661376953125,0.18359131128787992,-0.003906652049720287,0.002939195257052779
1690839353739702500,9.12170263671875,0.1850871028035879,-0.0028835560796782373,0.0007610383672174066
1690839353749742600,9.13174267578125,0.17162205655276774,-0.002687850844487548,0.0034673473170027135
1690839353759782700,9.14178271484375,0.17641338248252866,-0.003375431249849498,-0.0014574048672337085
1690839353769822700,9.15182275390625,0.18943419209718704,-0.0078115870663896195,-0.006741053491737693
1690839353779863600,9.161863525390626,0.1886860040783882,-0.013031842465326189,-0.0038750878676772115
1690839353789903400,9.1719033203125,0.1741682339042425,-0.006508614709042012,-0.00386805533869192
1690839353799943400,9.181943359375,0.1728220799922943,-0.00947871656101197,0.005078883300023153
1690839353809984500,9.191984619140625,0.1711713901758194,-0.0012170111069455742,0.004721174169844016
1690839353820054500,9.202054443359375,0.17356325374841688,-0.0069634823370724915,-0.0004159147239755839
1690839353830095600,9.212095703125,0.17640169204473494,-0.012299363472312688,0.0013718226427445188
1690839353840135700,9.2221357421875,0.18657178840339184,-0.014794650886766611,-0.003412950248643756
1690839353850175700,9.23217578125,0.17848901971280573,-0.010192856179736554,-0.007984468548418954
1690839353860216600,9.242216552734375,0.18328034564256668,-0.0056623000780120485,-0.00804412631378509
1690839353870256400,9.25225634765625,0.18298107043504713,-0.001761602845042944,-0.00700485552707687
1690839353880296400,9.26229638671875,0.17265899838507173,-0.009482041029259562,-0.004040580627694725
1690839353890336500,9.27233642578125,0.1819376988619566,-0.00810943750180304,-0.002571777583612129
1690839353900377600,9.282377685546875,0.19091829317510126,-0.009263685570843517,-0.0005788958664983511
1690839353910417700,9.292417724609376,0.17236907552778719,0.0008848565431311726,0.001857418769178912
1690839353920457700,9.302457763671875,0.17671031960248945,-0.00688259912058711,0.0015772683872375636
1690839353930497300,9.312497314453125,0.17880173892378806,-0.011773914826102554,-0.0015387082088273018
1690839353940538400,9.322538330078125,0.18000059331953525,-0.0029063889659941195,0.0002961060028988868
1690839353950578400,9.332578369140625,0.1789531300932169,0.00038691695835441347,-0.007513681832049041
1690839353960618500,9.342618408203125,0.18030220661461352,-0.007201455811411142,0.00011824695165269077
1690839353970659600,9.35265966796875,0.18464812686443327,-0.006458893815800547,0.0021877101694699375
1690839353980729600,9.3627294921875,0.17642215031087397,-0.005630955091677606,0.000524256769544445
1690839353990770700,9.372770751953125,0.17687749286293983,-0.008491641752421855,0.0020474888480268415
1690839354000810500,9.382810546875,0.1831611031770706,-0.006109715051949024,-0.006731500212103128
1690839354010850300,9.392850341796875,0.17417992434203625,-0.002881327589973807,0.00001946731887292117
1690839354020891400,9.402891357421876,0.17672259456217287,-0.0017043196998536587,-0.0011810630107298493
1690839354030931500,9.412931396484375,0.18405308358073233,-0.00983118326049298,0.0012859207578469066
1690839354040971500,9.422971435546875,0.17985972354412078,-0.014995836014673114,-0.00015858809519559143
1690839354051011600,9.433011474609375,0.17207623006105421,-0.0069623132932931184,0.002695212167035788
1690839354061052700,9.443052734375,0.17611352275311945,-0.00762432086598128,0.0022719269873574376
1690839354071092500,9.453092529296875,0.18703589878380297,-0.0027106471981853245,-0.0012136592392344026
1690839354081132300,9.46313232421875,0.1800023468852043,-0.006316051279008388,-0.00027653365274891257
1690839354091173400,9.47317333984375,0.17970424072146415,0.0028287206199020145,-0.0014256945547182112
1690839354101213400,9.48321337890625,0.17087211496829985,-0.0038452407186850904,0.0034444139659870416
1690839354111253500,9.49325341796875,0.1681780535787344,-0.007149433363229036,0.00284048868950922
1690839354121293600,9.50329345703125,0.18224457285404205,-0.008484810152836144,-0.005343580384505912
1690839354131334700,9.513334716796875,0.1828477994441986,-0.008556158355996012,-0.00351218197257258
1690839354141404700,9.52340478515625,0.17611936797201633,-0.007258592826128006,0.0016283866531215606
1690839354151445500,9.533445556640626,0.17777064231038092,-0.008799209864251315,0.005406105960393324
1690839354161485300,9.5434853515625,0.17268179473876952,-0.005247289536334574,-0.002802042675530538
1690839354171525400,9.553525390625,0.18584464317262173,-0.00564023437667638,0.0019944069539196787
1690839354181566500,9.56356640625,0.19257599725425242,-0.0031509383115917444,-0.005627731088129803
1690839354191606500,9.5736064453125,0.1865899085819721,-0.004484013546258211,-0.001762826687749475
1690839354201646600,9.583646484375,0.18090835581421852,-0.013793803281150758,0.00652914147383999
1690839354211686700,9.593686767578125,0.17687223216593265,-0.012347148136794566,0.0041010147111956025
1690839354221727500,9.6037275390625,0.1761287203222513,-0.009120477707870304,0.004037703684018925
1690839354231767300,9.613767333984375,0.1780810234338045,-0.010638298392295837,-0.0004912449825089424
1690839354241807400,9.623807373046875,0.1833177550435066,-0.005414426264166832,-0.001019241778831929
1690839354251848400,9.633848388671876,0.1777805791825056,-0.012910298444889485,-0.000995641707535833
1690839354261888500,9.643888427734375,0.16984686357378959,-0.011797880223579704,-0.0014116477630566804
1690839354271928600,9.653928466796875,0.18420856640338898,-0.001997640090622008,-0.004108211636962369
1690839354281968600,9.66396875,0.1810650076806545,-0.010690174710005522,-0.002455412061791867
1690839354292009500,9.674009521484376,0.1813578531473875,-0.012450827706977724,-0.008687200857140124
1690839354302080500,9.68408056640625,0.18869243381917475,-0.0032646643517538904,-0.0058031333208084105
1690839354312120300,9.694120361328125,0.1801683511018753,-0.008082549494877456,0.002026500858925283
1690839354322160400,9.704160400390625,0.1729880842089653,-0.002192432010360062,0.0032055545756593347
1690839354332200400,9.714200439453125,0.17449264355301855,-0.013260755850374699,0.00032999000619165597
1690839354342241500,9.724241455078126,0.17598785054683685,-0.007604702850058674,0.0007284604050219059
1690839354352281600,9.734281494140625,0.18436521826982497,-0.004678695868141949,0.0012451229565776884
1690839354362321700,9.74432177734375,0.18556115005612372,-0.00844509919695556,-0.004951329663908109
1690839354372361500,9.754361572265625,0.17807459369301795,-0.0043678032880648966,-0.002965352611616254
1690839354382402300,9.76440234375,0.1842114890128374,-0.004314721393957734,-0.006505399838648736
1690839354392442400,9.7744423828125,0.1915402244657278,-0.008264737661369145,-0.008121940790349617
1690839354402482400,9.784482421875,0.18898995546102523,0.0010376359520480037,-0.0026752105586230752
1690839354412523500,9.7945234375,0.17581775467693805,-0.0047098947240039706,0.004988236741349101
1690839354422563600,9.8045634765625,0.17806056516766547,-0.009390599886141717,0.005563570677582174
1690839354432603600,9.814603759765625,0.18344810342490672,-0.003998129725456237,0.0003906615517102182
1690839354442643500,9.8246435546875,0.1864379328906536,-0.0027136063402518626,-0.0006321969563141465
1690839354452686600,9.8346865234375,0.1877881784558296,-0.008174611692503095,-0.003041194326803088
1690839354462757600,9.844757568359375,0.18599661886394023,-0.008842427951470017,-0.011190461515495553
1690839354472797700,9.854797607421874,0.18704583565592764,-0.012118673143163323,0.000592093274788931
1690839354482837800,9.864837646484375,0.18435411235392093,-0.005343516452424228,-0.0014972619535867124
1690839354492877800,9.8748779296875,0.17911913430988788,-0.004991963068395853,-0.004844325625477358
1690839354502918700,9.884918701171875,0.1756803920328617,-0.012997867130488156,-0.0034289880679920313
1690839354512958500,9.89495849609375,0.18241291515827177,-0.007929075966216623,-0.0027605050887446847
1690839354522998500,9.90499853515625,0.1761240441471338,-0.007565174557268619,-0.006180286936974153
1690839354533039600,9.91503955078125,0.1809124474674463,-0.0077209496408700935,-0.0003109656453132629
1690839354543079700,9.92507958984375,0.17328151419758794,-0.008617460089176892,0.002468828665791079
1690839354553119700,9.93511962890625,0.1918359925419092,-0.005805142614804208,-0.0036439459929242727
1690839354563159800,9.945159912109375,0.1816618045300245,-0.010454173997044562,-0.0017709917278960347
1690839354573200600,9.95520068359375,0.18285481370687484,-0.009661379651539027,-0.007303336150152608
1690839354583240700,9.96524072265625,0.18195640356242657,-0.0018820874195545911,0.002213182537443936
1690839354593280500,9.975280517578126,0.17088497444987297,-0.00016987667419016361,0.0030295860874000936
1690839354603321600,9.985321533203125,0.18210896377563476,-0.010626681019738316,-0.0031073868642328304
1690839354613361700,9.995361572265624,0.18060498895347118,-0.014661562559008598,-0.006293455854710191
1690839354623432700,10.0054326171875,0.18404782288372515,-0.010735146362893282,-0.002536094348877668
1690839354633472800,10.01547265625,0.17192483889162538,-0.012885164003632961,-0.0010075604741927235
1690839354643512800,10.025512939453124,0.17701310194134712,-0.008673099266551434,-0.0011646598652005195
1690839354653552600,10.035552734375,0.17671499577760696,-0.0017511910488829017,-0.004113746328605339
1690839354663593500,10.045593505859374,0.17237550526857376,-0.007596154217422008,0.0027846622824668882
1690839354673633500,10.055633544921875,0.1774620147526264,-0.004471957782283425,0.0018783702256623654
1690839354683673600,10.065673583984376,0.17896423600912092,-0.005570603206567466,-0.00189443544447422
1690839354693714700,10.075714599609375,0.18031272800862788,-0.009252981513738632,-0.010300042881257831
1690839354703754800,10.085754638671874,0.18076339438557623,-0.012337941917032002,-0.009199077635724097
1690839354713794800,10.095794921875,0.1880985595792532,-0.009266973506473004,0.0017284586272668092
1690839354723835000,10.1058349609375,0.1762812805354595,-0.0093148677688092,-0.0017134345880709587
1690839354733875700,10.115875732421875,0.17434008333981035,-0.011763210768997669,-0.002692673150077462
1690839354743915500,10.12591552734375,0.17733049732744693,-0.010165858574956655,-0.007920554733043535
1690839354753955600,10.13595556640625,0.1788257043212652,-0.0033116818312555548,-0.0035121911057271063
1690839354763996700,10.14599658203125,0.1785246755480766,-0.005603592160716653,0.0031640626546461134
1690839354774036700,10.15603662109375,0.17942074760496615,-0.0035507878167554733,0.0028926435684319585
1690839354784107800,10.166107666015625,0.17642799552977084,-0.007288951431773602,-0.004292326899059116
1690839354794147800,10.17614794921875,0.1819680940002203,-0.004829392917826771,-0.007579769338201731
1690839354804187600,10.186187744140625,0.1788309650182724,-0.0047075201038271185,-0.008887399604357778
1690839354814228500,10.196228515625,0.17853519694209097,-0.007612593895569443,0.0005247864925069734
1690839354824268500,10.2062685546875,0.18407120375931263,-0.0004277604253962636,-0.0025625028651906174
1690839354834308600,10.21630859375,0.1822773060798645,-0.004127857052348554,-0.005457712850044481
1690839354844348700,10.2263486328125,0.17344927197992802,-0.006946677332744002,0.002114503369363956
1690839354854389800,10.2363896484375,0.18541560410559177,-0.0021049363899976014,0.002309181124670431
1690839354864429800,10.246429931640625,0.18615853142738342,-0.0017629910845309495,-0.0025165585313457993
1690839354874469600,10.2564697265625,0.18495792346596718,-0.015604980888962745,-0.0058964741600677365
1690839354884509400,10.266509521484375,0.1743342381209135,-0.02024173731151968,0.0026753201564773915
1690839354894550500,10.276550537109374,0.18555296674966812,-0.01418335058800876,-0.007118289306294172
1690839354904590600,10.286590576171875,0.18973872800171374,-0.008871580980718136,-0.007681302617071196
1690839354914630700,10.296630615234376,0.1831535043925047,-0.0014000029910355807,-0.0031747575785964727
1690839354924671700,10.306671630859375,0.18045768943727014,-0.006802738817408681,-0.00803841809220612
1690839354934711800,10.3167119140625,0.17312720041871069,-0.014233802133612333,-0.004881926822662353
1690839354944782800,10.326782958984374,0.17791385017335415,-0.004968545660190284,-0.002655793472100049
1690839354954822700,10.33682275390625,0.1725251428723335,-0.0036401100680232045,0.0020425295451190323
1690839354964862500,10.346862548828126,0.1800070230603218,-0.011298333203606306,0.0014241693179123103
1690839354974903600,10.356903564453125,0.19467326179444788,-0.010359043059498071,-0.0030264351490885016
1690839354984943600,10.366943603515624,0.1907820995748043,-0.007686170588433742,-0.0046745859486050905
1690839354994983700,10.376983642578125,0.17657003434896468,-0.003127045979350805,0.00108324692575261
1690839355005023700,10.387023681640626,0.16743921791017055,-0.002129303646273911,0.001272157093975693
1690839355015064800,10.39706494140625,0.17491876001060008,-0.002486811847053468,-0.005272570108063519
1690839355025104600,10.407104736328124,0.17386954321861267,-0.003550824349373579,-0.003562213393067941
1690839355035144400,10.41714453125,0.17626549844443798,-0.0002389598550274968,-0.0073745930217672135
1690839355045185500,10.427185546875,0.18210019594728946,-0.009715119132772088,0.002848557831533253
1690839355055225600,10.4372255859375,0.17985796997845171,-0.0036842049380764364,0.004078172691725194
1690839355065265700,10.447265625,0.18224983355104923,-0.00613506868891418,-0.0003421645011752844
1690839355075305700,10.4573056640625,0.17641396700441836,-0.013319938691705465,0.005074517652159556
1690839355085346800,10.467346923828124,0.17985563189089296,-0.015422829255089162,0.0024276016062591225
1690839355095386600,10.47738671875,0.18149755387902258,-0.014918532994762063,-0.004879812497389503
1690839355105457700,10.487457763671875,0.1767091505587101,-0.014882036909274756,0.006115313675673678
1690839355115497500,10.49749755859375,0.1817974136084318,-0.015921353361755607,-0.0017999529608990995
1690839355125537500,10.50753759765625,0.184346513569355,-0.00756659932937473,-0.002938163210591301
1690839355135578600,10.51757861328125,0.17791034304201603,-0.008941577477008104,-0.010327478877454995
1690839355145618700,10.52761865234375,0.17880699962079524,-0.015104520553536713,-0.0019709256136324254
1690839355155658800,10.53765869140625,0.1882324150919914,-0.006155453889816999,-0.0003981050726491958
1690839355165698600,10.547698486328125,0.19376842190921306,-0.007057298100367188,-0.0010221643882803617
1690839355175739600,10.55773974609375,0.17775486021935938,-0.0011279811166226862,-0.0005090089680626988
1690839355185779500,10.567779541015625,0.1741553744226694,-0.003843194892071187,0.0015910594505723565
1690839355195819500,10.577819580078126,0.17715104910731314,-0.013816526569612323,-0.0037095494418870655
1690839355205860600,10.587860595703125,0.17580489519536494,-0.011426160834357142,0.0017414825056213884
1690839355215900700,10.597900634765624,0.1776069761812687,-0.007853453446738422,-0.01014986642138101
1690839355225940700,10.607940673828125,0.1765606819987297,-0.009781681562960148,-0.007697084708092734
1690839355235980800,10.617980712890626,0.18179916717410086,-0.014400062078610061,-0.013032737514469771
1690839355246021600,10.628021728515625,0.17596505419313907,-0.01737286734431982,-0.0012895922859665005
1690839355256061400,10.6380615234375,0.18179975169599055,-0.014247647995874285,0.00046164442868903277
1690839355266132500,10.648132568359374,0.17895897531211374,-0.013602737688459455,0.001227021044306457
1690839355276172500,10.658172607421875,0.171776370331645,-0.012104900346137582,0.006726833170140162
1690839355286212600,10.668212646484376,0.17552023303508757,-0.005908347260951996,0.0013280519996769725
1690839355296253700,10.678253662109375,0.17567337777018546,-0.007937843794561921,-0.005156716042896733
1690839355306293800,10.688293701171874,0.17043664616048335,-0.017823131862469015,-0.009764903958095237
1690839355316333600,10.69833349609375,0.18076456342935562,-0.005207140189036726,-0.0012828154853079467
1690839355326374700,10.708374755859374,0.188102651232481,0.0014927958410233257,-0.004063276516692712
1690839355336414500,10.71841455078125,0.18690730396807193,-0.0043077801965177055,-0.009136807788163424
1690839355346454500,10.72845458984375,0.18152561092972755,-0.008541837569698691,-0.002413152955798432
1690839355356494600,10.73849462890625,0.1852700581550598,-0.01473535844758153,0.002094186667120084
1690839355366535700,10.74853564453125,0.17734218776524066,-0.003752082542516291,0.0035437781206564974
1690839355376575700,10.75857568359375,0.17150398313105106,0.0024834508461877704,0.0014777763684047384
1690839355386615800,10.76861572265625,0.17674188378453254,0.0014396774142980575,-0.00035904257073998447
1690839355396655600,10.778655517578125,0.17749124084711074,-0.006322663682885468,-0.003773043132154271
1690839355406696400,10.788696533203124,0.18287585649490357,0.0013929887283593415,-0.0030927464175270866
1690839355416736500,10.798736572265625,0.17644377762079239,-0.003943148135207593,-0.011341473659011534
1690839355426807600,10.8088076171875,0.17464987994134426,-0.01153915622215718,-0.007649637970328331
1690839355436847600,10.81884765625,0.17869360237419604,-0.0141734867811203,-0.003943860521260649
1690839355446887700,10.8288876953125,0.1935088941901922,-0.016532836323603986,-0.000754553827503696
1690839355456926000,10.838926025390625,0.18512509672641753,-0.005380012537911534,-0.002218251438206062
1690839355466966000,10.848966064453125,0.18587328474521636,0.0014368644027039409,-0.0018947414051508529
1690839355477006000,10.859006103515625,0.19907646518945693,-0.025969357710704206,0.03892311170483008
1690839355487047000,10.869046875,-0.15994214015305042,-0.1869617010364309,0.026306928235152734
1690839355497086700,10.879086669921875,0.31632337295413016,0.20065292072594165,-0.05379382350249216
1690839355507126800,10.889126708984374,0.27593817107379437,-0.0017339476531371472,0.03284636734072119
1690839355517166800,10.899166748046875,0.18126842129826545,0.1069435038825497,-0.1846961307246238
1690839355527208000,10.9092080078125,0.22468729178607463,-0.04150562074501067,-0.0830207217044197
1690839355537248000,10.919248046875,0.12880816622078417,-0.02609239956848323,0.020906923221983013
1690839355547288000,10.9292880859375,0.18288871597647666,0.004935191379860043,0.07286200525630265
1690839355557329000,10.939328857421875,0.1418178699195385,0.00045501375850290056,0.11059729541605338
1690839355567368700,10.94936865234375,0.1478992356598377,0.0027346125956624746,0.1022035519469995
1690839355577408800,10.95940869140625,0.17894085513353347,0.0030013007078319785,0.07197054544244892
1690839355587479800,10.969479736328125,0.1772141774713993,0.006232062789984047,0.031367937951767816
1690839355597520000,10.979519775390624,0.18953005368709563,0.0005556976540014147,-0.01949991053484846
1690839355607560000,10.989559814453125,0.16862345925867556,-0.00140128163266927,-0.061510681490134445
1690839355617601000,10.99960107421875,0.23148995753824708,-0.022561375898122786,-0.0773035770334769
1690839355627641000,11.00964111328125,0.14679507381021975,-0.021867292686738073,-0.0756748981194105
1690839355637681000,11.019680908203124,0.1678770248055458,-0.01922463269084692,-0.04576776256836019
1690839355647721700,11.0297216796875,0.1935878046452999,-0.02253291698861867,-0.006705018630553968
1690839355657761800,11.03976171875,0.12801613906025885,-0.012256328048184514,0.044327610230026765
1690839355667801900,11.0498017578125,0.19307108729481695,-0.005716222222335636,0.06883031118796207
1690839355677842000,11.059842041015624,0.13497545667886734,0.0056437415080145,0.06512438760842196
1690839355687883000,11.069883056640625,0.17339257335662842,-0.010088701685518026,0.060092622252600265
1690839355697923000,11.079923095703125,0.17574936561584473,-0.0081240140164271,0.03587028630573768
1690839355707962600,11.089962646484375,0.16014672281444073,-0.004790485679544508,-0.0011616641905158758
1690839355718003700,11.100003662109375,0.22534663247764108,-0.006646233081445098,-0.029630994623946024
1690839355728043800,11.110043701171875,0.16380466080009937,0.0013659545909613371,-0.050816716521000484
1690839355738083800,11.120083740234374,0.19294658413231372,0.004289586952701211,-0.05600929846172221
1690839355748155000,11.13015478515625,0.1791442687511444,0.0044568332783877845,-0.0271434703908395
1690839355758195000,11.14019482421875,0.18210954829752443,0.012424158895760774,0.0030661461049690843
1690839355768236000,11.150236083984375,0.16174305209517478,0.018029833415709434,0.033588235216587776
1690839355778275800,11.16027587890625,0.2022930891484022,0.007253112933412194,0.04545954600255936
1690839355788315600,11.170315673828124,0.16055413457155226,0.008160437036678195,0.04789625793045852
1690839355798355700,11.180355712890625,0.1728437073022127,0.0029257147209718823,0.04063949630181305
1690839355808396800,11.190396728515625,0.18454875814318655,0.0031861192228272556,0.023385259501636026
1690839355818436900,11.200436767578125,0.18758125770688056,0.001231368425861001,0.0014199498005211353
1690839355828477000,11.210476806640624,0.188669637465477,-0.0027615736678242683,-0.01582854224545881
1690839355838518000,11.22051806640625,0.1720996109366417,0.00480352782420814,-0.02218413095041178
1690839355848557800,11.230557861328125,0.19936755709052084,0.002888597580976784,-0.01952042816649191
1690839355858597600,11.24059765625,0.18473288253843784,-0.0014785846525803207,-0.018042729429900647
1690839355868637700,11.2506376953125,0.15109130969941614,-0.001856149260699749,-0.010422710279701278
1690839355878678800,11.2606787109375,0.1995955206274986,-0.0005535422295331955,0.011436773559916763
1690839355888718800,11.27071875,0.1668441746264696,0.00018138444889336823,0.021521502323215827
1690839355898759000,11.280759033203125,0.1728396156489849,-0.015628471362404524,0.018030901994789017
1690839355908830000,11.290829833984375,0.1713490848302841,-0.01541186946965754,0.017938109144801272
1690839355918869800,11.300869873046874,0.18527122719883918,-0.01521393574476242,0.016597800451749935
1690839355928910800,11.310910888671875,0.17749007180333137,-0.009431954809837042,0.006315366292418911
1690839355938950700,11.32095068359375,0.1818283932685852,-0.01593289766907692,0.005505867407284677
1690839355948990700,11.33099072265625,0.17148644747436045,-0.011070369666628539,-0.003950116732111201
1690839355959030800,11.34103076171875,0.19690087471604345,-0.012004143385402857,-0.014429233374167233
1690839355969071900,11.35107177734375,0.16634440841078757,-0.008423910278454422,-0.008041290469304657
1690839355979112000,11.36111181640625,0.1673585538893938,0.00035188217759132384,-0.004919441254879348
1690839355989152000,11.371152099609375,0.18782500333487986,-0.009457344979420303,-0.0015947401118464766
1690839355999192800,11.38119287109375,0.1631008964449167,-0.00775569216068834,0.008330213246168568
1690839356009232600,11.391232666015625,0.18027941026091573,-0.0035883433481678365,0.013528366411151363
1690839356019272700,11.401272705078124,0.1863940937489271,-0.0016362228997051716,0.01349890285464935
1690839356029312800,11.411312744140625,0.17516075207293033,-0.002049845201894641,0.015315039765369146
1690839356039353900,11.421353759765625,0.19206454060077666,0.004551343161426484,0.004467920927982777
1690839356049394000,11.431393798828125,0.18278584012389182,0.00284961727745831,0.006958669164637103
1690839356059434000,11.44143408203125,0.18399112426042555,-0.001938639912381768,-0.0008293360967654734
1690839356069504800,11.4515048828125,0.17622399739027023,-0.0023587650205940005,-0.0017152338195126503
1690839356079544800,11.461544921875,0.16920213592946529,0.0010487418679520487,0.002732630701130256
1690839356089585700,11.471585693359375,0.17594868758022783,0.0019109481878578662,0.01063675032260362
1690839356099625700,11.481625732421875,0.17596914584636686,0.0034088585954159495,0.0037586995129706337
1690839356109665800,11.491665771484374,0.17449030546545982,0.003953450333513319,0.006280779036227613
1690839356119705900,11.501705810546875,0.17974632629752157,-0.0002862695954740047,0.0021961766037158666
1690839356129747000,11.511746826171875,0.17377894232571123,-0.008455730188824236,0.005892135911667719
1690839356139787000,11.521787109375,0.17424539079368112,-0.009165230165049432,0.007613009454100392
1690839356149826800,11.531826904296874,0.18893793301284312,-0.010377272835932672,-0.0027454308171989393
1690839356159867600,11.54186767578125,0.16486790611743926,-0.01231368425861001,0.0038750056692864743
1690839356169907700,11.55190771484375,0.17864976323246956,-0.013936499687470495,0.005591600328823551
1690839356179947800,11.56194775390625,0.18060498895347118,-0.0019011209135875104,-0.0016023480295669287
1690839356189987800,11.57198779296875,0.17013094121217726,-0.00592741728760302,-0.003297808569530025
1690839356200029000,11.58202880859375,0.1786556084513664,-0.005273446890898048,-0.003630392391607165
1690839356210069000,11.592069091796875,0.16981705295741556,-0.0057744917482137675,0.0024177651988342404
1690839356220108800,11.60210888671875,0.1732493654936552,-0.010925371705368161,0.01180234633614309
1690839356230179800,11.612179931640625,0.17637948021292685,-0.0032693039942532777,0.005919571907864883
1690839356240220000,11.622219970703124,0.17172259431779383,-0.0024660613199695945,0.0011636780510889365
1690839356250260700,11.6322607421875,0.18502338991761205,0.0025721520429477095,0.005766326708067209
1690839356260300800,11.64230078125,0.17947335457503794,-0.005932312658429146,0.007177088555134832
1690839356270340900,11.6523408203125,0.1745177779942751,-0.0022431027516722677,0.001742377554764971
1690839356280382000,11.6623818359375,0.18153379423618315,0.0011424480333924293,0.006921816886123269
1690839356290422000,11.672422119140625,0.1705997277677059,-0.0026824440170079467,0.00023790497567970304
1690839356300461800,11.6824619140625,0.18719781134724617,-0.00353537105191499,-0.0012825597569812088
1690839356310502000,11.692501953125,0.16938216867148875,-0.008681063377298414,0.0013784989787032826
1690839356320542700,11.702542724609375,0.19062778579592704,0.0003911912746727466,-0.0016096362868789583
1690839356330582800,11.712582763671875,0.18643910193443297,0.007463321617990732,-0.0020223818062338975
1690839356340622800,11.722622802734374,0.1824035628080368,-0.001982223325781524,0.003307795674004592
1690839356350663000,11.732662841796875,0.17956863164305686,-0.001311886316165328,0.002497543303621933
1690839356360704000,11.7427041015625,0.1699988392651081,0.0036684593796730038,0.0037424242316046728
1690839356370743800,11.752743896484375,0.1803331862747669,-0.00031334026549011465,0.010422262755129487
1690839356380783900,11.762783935546874,0.17660276757478713,-0.002486300390399992,0.017135967015638014
1690839356390855000,11.77285498046875,0.17825404191315172,-0.004760748128406703,0.008754813600098714
1690839356400895000,11.78289501953125,0.16794541386663914,-0.0036798575565218923,0.0006537420678418129
1690839356410935800,11.792935791015625,0.17933540740907192,-0.0021105989458039404,0.006166505006793886
1690839356420975900,11.802975830078125,0.1640910765260458,-0.004574249112978578,0.005270661278767511
1690839356431015700,11.813015625,0.1813093378305435,-0.00900737272221595,0.0014058527765097096
1690839356441056800,11.823056884765625,0.1739846940308809,-0.004495082929544151,-0.007073367885756306
1690839356451073500,11.833073486328125,0.1759293983578682,-0.004953275025822222,-0.006731984269293024
1690839356461113300,11.84311328125,0.18730185624361037,-0.007911174983344971,-0.005710568799683824
1690839356471153400,11.8531533203125,0.1650017616301775,-0.003912606866471469,0.0022674426084849982
1690839356481194500,11.863194580078124,0.1760644229143858,-0.005157127034850419,0.008011214991449378
1690839356491234600,11.873234619140625,0.18204758897721765,-0.0011326207591220736,0.009226098073390311
1690839356501274600,11.883274658203124,0.17381459816098213,-0.004475903305038809,0.010569909331202507
1690839356511315700,11.893315673828125,0.1736626224696636,-0.003955861486308276,0.008353877249546348
1690839356521355300,11.903355224609374,0.16916531105041502,-0.002523746323958039,0.0058298432312207295
1690839356531395300,11.913395263671875,0.1761900951206684,-0.004379055334441363,-0.006165934184635989
1690839356541435400,11.923435302734376,0.17019231601059437,-0.00540806958861649,-0.0012885785058140754
1690839356551506400,11.93350634765625,0.18933365433216093,-0.002385397299192846,-0.009911856414424255
1690839356561546500,11.94354638671875,0.1785474719017744,0.006202252173610031,-0.013864407132216728
1690839356571587600,11.953587646484374,0.1797369739472866,-0.0025883725253865123,-0.0071898384388536215
1690839356581627400,11.96362744140625,0.17494038732051848,-0.008270838608592748,-0.0018840327814687043
1690839356591667500,11.97366748046875,0.17627894244790077,-0.004086282932944596,0.001051385916187428
1690839356601708300,11.983708251953125,0.17523089469969272,-0.003195946497097611,0.00698931546465028
1690839356611748400,11.993748291015624,0.17897592644691465,-0.0016233268855139612,0.012216507494449615
1690839356621788400,12.003788330078125,0.18361995286047458,0.000857018688134849,0.010318975910590961
1690839356631828500,12.013828369140626,0.18138357211053371,-0.0027387042488902806,0.01725214987436775
1690839356641869600,12.02386962890625,0.17810031265616416,-0.009316256008297205,0.006720060936058871
1690839356651909400,12.033909423828124,0.18498948764801024,0.005161985873058438,0.0068999247147236015
1690839356661949400,12.043949462890625,0.18005378481149673,0.012085318862833082,0.004137319000437856
1690839356671990300,12.053990234375,0.1761690523326397,0.000989011037349701,-0.006801925966655835
1690839356682030300,12.0640302734375,0.17991817573308944,-0.006933160264044999,-0.007805993009242228
1690839356692070400,12.0740703125,0.17677753961980341,-0.003735862060077488,-0.005840437690471299
1690839356702110500,12.0841103515625,0.1710924797207117,-0.011927644083090126,-0.002479687986522913
1690839356712181500,12.094181396484375,0.1766302401036024,-0.0038020956967025994,-0.0010591856301529333
1690839356722222600,12.10422265625,0.1670662929445505,-0.005590659613907337,0.0027493443739134817
1690839356732262400,12.114262451171875,0.1688666203647852,-0.0020489318864420057,0.0101057441518642
1690839356742302500,12.124302490234374,0.17275427545309066,-0.000754398563876748,0.004942525302944705
1690839356752342500,12.134342529296875,0.18083178344666956,-0.0017194076711311936,0.004223261984530836
1690839356762383400,12.14438330078125,0.1790402238547802,-0.00477112339194864,0.004962609109748155
1690839356772423400,12.15442333984375,0.1782943739235401,-0.008165697733685374,0.0006077292353380471
