time,seconds_elapsed,z,y,x
1690840807385553000,0.030552978515625,-0.972503662109375,0.04052734375,-0.00177001953125
1690840807395592700,0.0405927734375,-0.9754638671875,0.0324859619140625,-0.00347900390625
1690840807405632800,0.0506328125,-0.9784393310546875,0.0226898193359375,-0.0022125244140625
1690840807415672800,0.0606728515625,-0.9831085205078125,0.0125885009765625,0.0012969970703125
1690840807425744000,0.070743896484375,-0.98919677734375,0.0019378662109375,0.00469970703125
1690840807435784700,0.08078466796875,-0.9932708740234375,-0.0071258544921875,0.0084228515625
1690840807445824800,0.09082470703125,-0.994903564453125,-0.0133819580078125,0.0098419189453125
1690840807455864600,0.100864501953125,-0.993988037109375,-0.0153350830078125,0.0083465576171875
1690840807465904600,0.110904541015625,-0.992584228515625,-0.01318359375,0.003936767578125
1690840807475945700,0.12094580078125,-0.989105224609375,-0.007965087890625,0.00067138671875
1690840807485985800,0.13098583984375,-0.986175537109375,-0.0005340576171875,-0.002197265625
1690840807496025900,0.14102587890625,-0.9839630126953125,0.0093536376953125,-0.00189208984375
1690840807506066700,0.151066650390625,-0.9803314208984375,0.01910400390625,0.0009613037109375
1690840807516106800,0.161106689453125,-0.9776763916015625,0.0263671875,0.003387451171875
1690840807526146800,0.171146728515625,-0.9768829345703125,0.0322723388671875,0.00518798828125
1690840807536186600,0.1811865234375,-0.9756011962890625,0.0367889404296875,0.0053558349609375
1690840807546227700,0.191227783203125,-0.9741058349609375,0.040008544921875,0.0051727294921875
1690840807556267800,0.201267822265625,-0.973297119140625,0.0409698486328125,0.0036468505859375
1690840807566307800,0.211307861328125,-0.97259521484375,0.039764404296875,0.0015411376953125
1690840807576379000,0.22137890625,-0.9737396240234375,0.0368499755859375,-0.0003814697265625
1690840807586419000,0.2314189453125,-0.9745635986328125,0.0326080322265625,-0.001373291015625
1690840807596459800,0.241459716796875,-0.9762115478515625,0.0278167724609375,-0.0018463134765625
1690840807606499600,0.25149951171875,-0.9791107177734375,0.02081298828125,-0.00048828125
1690840807616539600,0.26153955078125,-0.9819183349609375,0.0149688720703125,0.002105712890625
1690840807626579700,0.271579833984375,-0.9858856201171875,0.0079193115234375,0.00390625
1690840807636620800,0.281620849609375,-0.9892425537109375,0.001983642578125,0.0064697265625
1690840807646660900,0.291660888671875,-0.990447998046875,-0.0008697509765625,0.0063934326171875
1690840807656701000,0.301700927734375,-0.9886474609375,-0.001922607421875,0.0053558349609375
1690840807666741800,0.31174169921875,-0.986907958984375,-0.00079345703125,0.0040740966796875
1690840807676781800,0.32178173828125,-0.9864044189453125,0.0028076171875,0.0014801025390625
1690840807686821600,0.331821533203125,-0.983551025390625,0.007904052734375,-0.0000457763671875
1690840807696861700,0.34186181640625,-0.9814453125,0.0137481689453125,0.000030517578125
1690840807706902800,0.35190283203125,-0.980560302734375,0.019287109375,0.0014190673828125
1690840807716942800,0.36194287109375,-0.979034423828125,0.02398681640625,0.00244140625
1690840807727014000,0.372013916015625,-0.9777679443359375,0.02825927734375,0.0034027099609375
1690840807737054000,0.382053955078125,-0.9773712158203125,0.0308990478515625,0.003631591796875
1690840807747093800,0.39209375,-0.9764251708984375,0.03155517578125,0.002716064453125
1690840807757134600,0.402134521484375,-0.977294921875,0.0312957763671875,0.0020904541015625
1690840807767174700,0.412174560546875,-0.9766845703125,0.0300445556640625,0.001007080078125
1690840807777214700,0.422214599609375,-0.9773712158203125,0.0276031494140625,-0.0000152587890625
1690840807787255800,0.432255859375,-0.978851318359375,0.0243377685546875,0.0002899169921875
1690840807797295900,0.4422958984375,-0.9799652099609375,0.019622802734375,0.000885009765625
1690840807807336000,0.4523359375,-0.982757568359375,0.015350341796875,0.001190185546875
1690840807817376000,0.4623759765625,-0.98272705078125,0.01190185546875,0.00311279296875
1690840807827416800,0.472416748046875,-0.984466552734375,0.0095062255859375,0.0040283203125
1690840807837456600,0.48245654296875,-0.985504150390625,0.0074310302734375,0.004608154296875
1690840807847488300,0.49248828125,-0.98541259765625,0.0068206787109375,0.00445556640625
1690840807857529000,0.502529052734375,-0.985443115234375,0.008514404296875,0.003082275390625
1690840807867569200,0.512569091796875,-0.984130859375,0.009674072265625,0.0029296875
1690840807877640200,0.52264013671875,-0.982940673828125,0.012908935546875,0.0018310546875
1690840807887680000,0.532679931640625,-0.9816436767578125,0.01629638671875,0.002044677734375
1690840807897720000,0.542719970703125,-0.9794921875,0.019073486328125,0.0011138916015625
1690840807907760000,0.552760009765625,-0.9795684814453125,0.0230865478515625,0.0018768310546875
1690840807917801200,0.56280126953125,-0.977752685546875,0.0241851806640625,0.0031280517578125
1690840807927841300,0.57284130859375,-0.9777984619140625,0.024993896484375,0.003814697265625
1690840807937881300,0.58288134765625,-0.977447509765625,0.02557373046875,0.003265380859375
1690840807947922200,0.592922119140625,-0.9794921875,0.025054931640625,0.00225830078125
1690840807957962000,0.6029619140625,-0.9792938232421875,0.0235443115234375,0.00335693359375
1690840807968002000,0.613001953125,-0.9794769287109375,0.021270751953125,0.0030670166015625
1690840807978042000,0.6230419921875,-0.979949951171875,0.0190582275390625,0.0023345947265625
1690840807988083200,0.633083251953125,-0.9808502197265625,0.016815185546875,0.0023040771484375
1690840807998123300,0.643123291015625,-0.983642578125,0.015167236328125,0.0011444091796875
1690840808008163300,0.653163330078125,-0.98260498046875,0.0137786865234375,0.002288818359375
1690840808018204200,0.6632041015625,-0.9824371337890625,0.0117950439453125,0.002593994140625
1690840808028274200,0.673274169921875,-0.9840087890625,0.011993408203125,0.0029754638671875
1690840808038315000,0.68331494140625,-0.982513427734375,0.012115478515625,0.003448486328125
1690840808048355000,0.69335498046875,-0.9831390380859375,0.0135345458984375,0.00360107421875
1690840808058395100,0.70339501953125,-0.9815826416015625,0.0153961181640625,0.0030975341796875
1690840808068435200,0.713435302734375,-0.9823760986328125,0.016693115234375,0.00274658203125
1690840808078476300,0.723476318359375,-0.980712890625,0.0189208984375,0.0018463134765625
1690840808088516400,0.733516357421875,-0.979949951171875,0.0202178955078125,0.002777099609375
1690840808098556200,0.74355615234375,-0.979461669921875,0.0220184326171875,0.0023651123046875
1690840808108597000,0.753596923828125,-0.9783935546875,0.0220489501953125,0.0022430419921875
1690840808118637000,0.763636962890625,-0.9799346923828125,0.0217437744140625,0.00262451171875
1690840808128677000,0.773677001953125,-0.979034423828125,0.020904541015625,0.002655029296875
1690840808138717200,0.78371728515625,-0.981109619140625,0.0202789306640625,0.00274658203125
1690840808148758300,0.79375830078125,-0.98193359375,0.0186004638671875,0.00311279296875
1690840808158798300,0.80379833984375,-0.981201171875,0.0178985595703125,0.004180908203125
1690840808168838100,0.813838134765625,-0.98187255859375,0.0175323486328125,0.0024261474609375
1690840808178909200,0.8239091796875,-0.98236083984375,0.0162200927734375,0.0029449462890625
1690840808188949000,0.833948974609375,-0.98260498046875,0.015106201171875,0.0037994384765625
1690840808198990000,0.843989990234375,-0.9834442138671875,0.0145416259765625,0.0030059814453125
1690840808209030100,0.854030029296875,-0.9816741943359375,0.0148162841796875,0.002227783203125
1690840808219070200,0.8640703125,-0.9810943603515625,0.0149383544921875,0.0012664794921875
1690840808229111300,0.874111328125,-0.9812469482421875,0.01568603515625,0.0017852783203125
1690840808239151400,0.8841513671875,-0.9807586669921875,0.0169677734375,0.0018310546875
1690840808249191200,0.894191162109375,-0.978363037109375,0.0181427001953125,0.00299072265625
1690840808259231000,0.90423095703125,-0.982421875,0.0189208984375,0.0037078857421875
1690840808269272000,0.91427197265625,-0.9816131591796875,0.02001953125,0.0030364990234375
1690840808279312100,0.92431201171875,-0.981903076171875,0.01947021484375,0.0035247802734375
1690840808289352200,0.934352294921875,-0.977630615234375,0.0186767578125,0.0033416748046875
1690840808299393300,0.944393310546875,-0.9791412353515625,0.0174560546875,0.0023651123046875
1690840808309433300,0.954433349609375,-0.982421875,0.0163726806640625,0.0014190673828125
1690840808319473200,0.96447314453125,-0.9788055419921875,0.0161590576171875,0.000823974609375
1690840808329544200,0.974544189453125,-0.98992919921875,0.0161285400390625,0.0008392333984375
1690840808339584000,0.984583984375,-0.97894287109375,0.0172119140625,0.0003814697265625
1690840808349624000,0.9946240234375,-0.9838409423828125,0.017669677734375,0.00250244140625
1690840808359665200,1.0046650390625,-0.9842529296875,0.0189361572265625,0.0043487548828125
1690840808369705200,1.014705322265625,-0.98260498046875,0.0194549560546875,0.0070037841796875
1690840808379745300,1.024745361328125,-0.9814910888671875,0.020050048828125,0.007720947265625
1690840808389786400,1.034786376953125,-0.979736328125,0.0199127197265625,0.007080078125
1690840808399826200,1.044826171875,-0.9820404052734375,0.018524169921875,0.0055999755859375
1690840808409866000,1.054865966796875,-0.97808837890625,0.0182037353515625,0.000823974609375
1690840808419906000,1.064906005859375,-0.9808197021484375,0.017486572265625,-0.002838134765625
1690840808429947100,1.074947021484375,-0.9764862060546875,0.017425537109375,-0.00555419921875
1690840808439987200,1.0849873046875,-0.9833526611328125,0.0172882080078125,-0.005401611328125
1690840808450027300,1.09502734375,-0.97894287109375,0.0175933837890625,-0.0023345947265625
1690840808460068400,1.105068359375,-0.9832611083984375,0.0188140869140625,0.0020904541015625
1690840808470108200,1.115108154296875,-0.9867095947265625,0.0185546875,0.0076751708984375
1690840808480148000,1.12514794921875,-0.9807281494140625,0.0182647705078125,0.010467529296875
1690840808490219000,1.135218994140625,-0.9839935302734375,0.0185089111328125,0.0102081298828125
1690840808500259000,1.145259033203125,-0.9813690185546875,0.016937255859375,0.0084075927734375
1690840808510300200,1.155300048828125,-0.980255126953125,0.017181396484375,0.00457763671875
1690840808520340200,1.16534033203125,-0.978515625,0.0166015625,-0.000457763671875
1690840808530380300,1.17538037109375,-0.9792633056640625,0.0167236328125,-0.00335693359375
1690840808540420000,1.185420166015625,-0.9793701171875,0.0175018310546875,-0.0034027099609375
1690840808550461000,1.1954609375,-0.9810638427734375,0.017974853515625,-0.0015411376953125
1690840808560501000,1.2055009765625,-0.9813385009765625,0.0186614990234375,0.0007476806640625
1690840808570541000,1.215541015625,-0.983367919921875,0.01995849609375,0.0036163330078125
1690840808580581000,1.2255810546875,-0.9830780029296875,0.01910400390625,0.0060272216796875
1690840808590622200,1.235622314453125,-0.9813232421875,0.0189666748046875,0.0072174072265625
1690840808600662300,1.245662353515625,-0.983123779296875,0.01806640625,0.006805419921875
1690840808610702000,1.2557021484375,-0.9785614013671875,0.0173797607421875,0.00408935546875
1690840808620743000,1.265742919921875,-0.9795684814453125,0.017333984375,0.0016632080078125
1690840808630783000,1.275782958984375,-0.97955322265625,0.0166473388671875,-0.000030517578125
1690840808640854000,1.28585400390625,-0.9797515869140625,0.0163116455078125,-0.0015106201171875
1690840808650894000,1.29589404296875,-0.9822235107421875,0.017181396484375,-0.000885009765625
1690840808660934100,1.30593408203125,-0.9818878173828125,0.0176239013671875,-0.0001678466796875
1690840808670975200,1.315975341796875,-0.98388671875,0.0176849365234375,0.001861572265625
1690840808681015300,1.326015380859375,-0.982757568359375,0.0179595947265625,0.003570556640625
1690840808691055000,1.33605517578125,-0.98223876953125,0.017913818359375,0.004608154296875
1690840808701095200,1.34609521484375,-0.9823455810546875,0.0186614990234375,0.0046844482421875
1690840808711136000,1.356135986328125,-0.9811553955078125,0.0184173583984375,0.0040130615234375
1690840808721176000,1.366176025390625,-0.979248046875,0.0182342529296875,0.0025482177734375
1690840808731216100,1.376216064453125,-0.9804840087890625,0.017120361328125,0.0016937255859375
1690840808741257200,1.38625732421875,-0.9791259765625,0.0172119140625,0.00128173828125
1690840808751297300,1.39629736328125,-0.9799041748046875,0.017974853515625,0.0015106201171875
1690840808761337000,1.406337158203125,-0.9831085205078125,0.0182037353515625,0.001708984375
1690840808771377200,1.416377197265625,-0.98138427734375,0.0187225341796875,0.00360107421875
1690840808781418000,1.42641796875,-0.982666015625,0.01824951171875,0.004364013671875
1690840808791488300,1.43648828125,-0.982757568359375,0.0176544189453125,0.0035552978515625
1690840808801529000,1.446529052734375,-0.9817352294921875,0.0175018310546875,0.0031280517578125
1690840808811569200,1.456569091796875,-0.9816131591796875,0.0176239013671875,0.002532958984375
1690840808821609200,1.466609130859375,-0.9797821044921875,0.0167388916015625,0.0012664794921875
1690840808831650300,1.476650390625,-0.9790191650390625,0.0179290771484375,0.0021820068359375
1690840808841690000,1.486690185546875,-0.9804534912109375,0.017852783203125,0.0021209716796875
1690840808851731200,1.496731201171875,-0.980194091796875,0.0168609619140625,0.0019378662109375
1690840808861771300,1.506771240234375,-0.9815673828125,0.0173492431640625,0.0032196044921875
1690840808871812400,1.516812255859375,-0.9824066162109375,0.0187530517578125,0.0038909912109375
1690840808881852400,1.526852294921875,-0.9814453125,0.01861572265625,0.0029144287109375
1690840808891892500,1.536892578125,-0.98248291015625,0.018524169921875,0.0030059814453125
1690840808901933300,1.546933349609375,-0.98162841796875,0.0181884765625,0.00201416015625
1690840808911973400,1.556973388671875,-0.9815216064453125,0.017578125,0.001678466796875
1690840808922013400,1.567013427734375,-0.98101806640625,0.017547607421875,0.0007781982421875
1690840808932053200,1.57705322265625,-0.9799957275390625,0.0183258056640625,0.0008087158203125
1690840808942124300,1.587124267578125,-0.9801788330078125,0.017974853515625,0.0019073486328125
1690840808952165400,1.597165283203125,-0.97998046875,0.0178985595703125,0.0031585693359375
1690840808962205400,1.607205322265625,-0.9801483154296875,0.0167694091796875,0.0035400390625
1690840808972245500,1.61724560546875,-0.9825592041015625,0.017364501953125,0.0035552978515625
1690840808982285600,1.62728564453125,-0.9826507568359375,0.017547607421875,0.003936767578125
1690840808992326400,1.637326416015625,-0.9818572998046875,0.0175018310546875,0.00360107421875
1690840809002366200,1.6473662109375,-0.9820556640625,0.018524169921875,0.00213623046875
1690840809012406300,1.65740625,-0.98095703125,0.0182037353515625,0.0013580322265625
1690840809022447400,1.667447265625,-0.9809722900390625,0.0187835693359375,0.00067138671875
1690840809032487400,1.6774873046875,-0.9809112548828125,0.0171661376953125,0.0012359619140625
1690840809042527500,1.687527587890625,-0.97955322265625,0.0176544189453125,0.00213623046875
1690840809052567600,1.697567626953125,-0.9798736572265625,0.017578125,0.0026702880859375
1690840809062608400,1.7076083984375,-0.981170654296875,0.016876220703125,0.003387451171875
1690840809072648200,1.717648193359375,-0.9808807373046875,0.017913818359375,0.002960205078125
1690840809082688300,1.727688232421875,-0.9827728271484375,0.017974853515625,0.003509521484375
1690840809092759300,1.73775927734375,-0.983123779296875,0.0181884765625,0.005035400390625
1690840809102799400,1.74779931640625,-0.982666015625,0.0184326171875,0.0034027099609375
1690840809112840400,1.75784033203125,-0.9810943603515625,0.017730712890625,0.001922607421875
1690840809122880500,1.767880615234375,-0.980743408203125,0.0176544189453125,0.0008087158203125
1690840809132920600,1.777920654296875,-0.9801177978515625,0.017791748046875,0.0001220703125
1690840809142960400,1.78796044921875,-0.9805145263671875,0.017059326171875,0.00140380859375
1690840809153001200,1.798001220703125,-0.979888916015625,0.01708984375,0.001922607421875
1690840809163041300,1.808041259765625,-0.9805145263671875,0.0171356201171875,0.0019378662109375
1690840809173081300,1.818081298828125,-0.980621337890625,0.017669677734375,0.00360107421875
1690840809183122400,1.828122314453125,-0.981964111328125,0.0176239013671875,0.005401611328125
1690840809193162500,1.83816259765625,-0.982452392578125,0.017822265625,0.0040130615234375
1690840809203202600,1.84820263671875,-0.98260498046875,0.0185089111328125,0.003570556640625
1690840809213242400,1.858242431640625,-0.9826202392578125,0.0188751220703125,0.0030517578125
1690840809223283200,1.868283203125,-0.98101806640625,0.01800537109375,0.0020751953125
1690840809233323300,1.8783232421875,-0.981109619140625,0.01751708984375,0.00128173828125
1690840809243363300,1.88836328125,-0.9805145263671875,0.0174713134765625,0.001708984375
1690840809253434400,1.898434326171875,-0.98101806640625,0.016998291015625,0.0010833740234375
1690840809263474400,1.908474365234375,-0.9808197021484375,0.017791748046875,0.0019989013671875
1690840809273515500,1.918515625,-0.980712890625,0.017822265625,0.003021240234375
1690840809283555600,1.9285556640625,-0.98199462890625,0.017852783203125,0.0025787353515625
1690840809293595400,1.938595458984375,-0.9826812744140625,0.0178375244140625,0.0040435791015625
1690840809303635500,1.948635498046875,-0.9815826416015625,0.01800537109375,0.004302978515625
1690840809313676300,1.95867626953125,-0.9816131591796875,0.0177459716796875,0.0034942626953125
1690840809323716400,1.96871630859375,-0.9808502197265625,0.0177001953125,0.0028228759765625
1690840809333756400,1.97875634765625,-0.9807586669921875,0.017608642578125,0.0016021728515625
1690840809343797500,1.988797607421875,-0.9812164306640625,0.0174560546875,0.0012664794921875
1690840809353837600,1.998837646484375,-0.97991943359375,0.017486572265625,0.0010986328125
1690840809363877400,2.00887744140625,-0.9805450439453125,0.0165863037109375,0.00177001953125
1690840809373917400,2.01891748046875,-0.9814910888671875,0.0178070068359375,0.0023651123046875
1690840809383958300,2.028958251953125,-0.9824981689453125,0.018890380859375,0.0028076171875
1690840809393998300,2.038998291015625,-0.9828643798828125,0.01837158203125,0.003570556640625
1690840809404069400,2.0490693359375,-0.982025146484375,0.0184783935546875,0.0035552978515625
1690840809414109400,2.059109375,-0.981842041015625,0.01800537109375,0.003173828125
1690840809424149500,2.0691494140625,-0.981689453125,0.017791748046875,0.002655029296875
1690840809434190600,2.079190673828125,-0.9815673828125,0.0176544189453125,0.002685546875
1690840809444230400,2.08923046875,-0.9810943603515625,0.0175323486328125,0.0013885498046875
1690840809454270500,2.0992705078125,-0.980621337890625,0.01800537109375,0.00128173828125
1690840809464311300,2.109311279296875,-0.981353759765625,0.018035888671875,0.001129150390625
1690840809474351400,2.119351318359375,-0.9815826416015625,0.0172271728515625,0.0016021728515625
1690840809484391400,2.129391357421875,-0.9817352294921875,0.0173492431640625,0.0029754638671875
1690840809494431500,2.139431396484375,-0.9814300537109375,0.017822265625,0.0025787353515625
1690840809504472600,2.14947265625,-0.9818267822265625,0.0174713134765625,0.0032958984375
1690840809514512400,2.159512451171875,-0.9809417724609375,0.017974853515625,0.0031280517578125
1690840809524552400,2.169552490234375,-0.98187255859375,0.018218994140625,0.002655029296875
1690840809534593300,2.17959326171875,-0.981597900390625,0.0179290771484375,0.0027923583984375
1690840809544633300,2.18963330078125,-0.981201171875,0.0184783935546875,0.002685546875
1690840809554704400,2.199704345703125,-0.9815673828125,0.01751708984375,0.00164794921875
1690840809564744400,2.209744384765625,-0.9805908203125,0.0178680419921875,0.0014801025390625
1690840809574784500,2.219784423828125,-0.9811553955078125,0.0186004638671875,0.0018463134765625
1690840809584824300,2.22982421875,-0.981109619140625,0.0179443359375,0.00238037109375
1690840809594865400,2.239865478515625,-0.9807891845703125,0.017791748046875,0.0028228759765625
1690840809604905500,2.249905517578125,-0.9829559326171875,0.01776123046875,0.0037689208984375
1690840809614945500,2.259945556640625,-0.9826507568359375,0.017822265625,0.0031280517578125
1690840809624986400,2.269986328125,-0.9818267822265625,0.0178680419921875,0.0034027099609375
1690840809635026400,2.2800263671875,-0.9814453125,0.017974853515625,0.002685546875
1690840809645066500,2.29006640625,-0.98077392578125,0.018035888671875,0.002410888671875
1690840809655106300,2.300106201171875,-0.98052978515625,0.018157958984375,0.0017547607421875
1690840809665147400,2.3101474609375,-0.980133056640625,0.017974853515625,0.0017547607421875
1690840809675187500,2.3201875,-0.9809722900390625,0.0175018310546875,0.0017547607421875
1690840809685227500,2.3302275390625,-0.9813690185546875,0.01806640625,0.0029449462890625
1690840809695268400,2.340268310546875,-0.9807281494140625,0.0179595947265625,0.0028533935546875
1690840809705338400,2.35033837890625,-0.9819183349609375,0.018341064453125,0.00274658203125
1690840809715379500,2.36037939453125,-0.981842041015625,0.0181732177734375,0.0020904541015625
1690840809725419500,2.37041943359375,-0.982025146484375,0.017486572265625,0.0028533935546875
1690840809735459300,2.380459228515625,-0.9812774658203125,0.0171661376953125,0.0026702880859375
1690840809745499400,2.39049951171875,-0.9806060791015625,0.01788330078125,0.0024871826171875
1690840809755540500,2.40054052734375,-0.9803009033203125,0.0173797607421875,0.0021209716796875
1690840809765580300,2.410580322265625,-0.980804443359375,0.017242431640625,0.0012359619140625
1690840809775620400,2.420620361328125,-0.9817962646484375,0.017730712890625,0.00238037109375
1690840809785661400,2.430661376953125,-0.980224609375,0.017974853515625,0.003143310546875
1690840809795701500,2.440701416015625,-0.9816436767578125,0.0180206298828125,0.0021820068359375
1690840809805741300,2.4507412109375,-0.982696533203125,0.0184173583984375,0.0027618408203125
1690840809815781400,2.460781494140625,-0.9812469482421875,0.0180511474609375,0.00311279296875
1690840809825822500,2.470822509765625,-0.98150634765625,0.018218994140625,0.0030975341796875
1690840809835862300,2.4808623046875,-0.98193359375,0.017486572265625,0.0029296875
1690840809845902300,2.49090234375,-0.9808349609375,0.0181427001953125,0.002838134765625
1690840809855925200,2.50092529296875,-0.9808502197265625,0.01824951171875,0.00286865234375
1690840809865995300,2.510995361328125,-0.9806976318359375,0.0185089111328125,0.0017242431640625
1690840809876036000,2.5210361328125,-0.98175048828125,0.0177459716796875,0.0018463134765625
1690840809886076200,2.531076171875,-0.9806365966796875,0.018524169921875,0.002410888671875
1690840809896116200,2.5411162109375,-0.9814300537109375,0.0178985595703125,0.0021209716796875
1690840809906157300,2.5511572265625,-0.9817962646484375,0.01800537109375,0.002471923828125
1690840809916197400,2.561197265625,-0.9810943603515625,0.0178070068359375,0.0027008056640625
1690840809926237400,2.571237548828125,-0.9812774658203125,0.01800537109375,0.00360107421875
1690840809936277500,2.581277587890625,-0.9816131591796875,0.0187530517578125,0.001953125
1690840809946318300,2.591318359375,-0.980865478515625,0.0180816650390625,0.0019989013671875
1690840809956358100,2.601358154296875,-0.980865478515625,0.0177459716796875,0.0020751953125
1690840809966398200,2.611398193359375,-0.98114013671875,0.017578125,0.001922607421875
1690840809976439300,2.621439208984375,-0.981109619140625,0.0180816650390625,0.002777099609375
1690840809986479400,2.631479248046875,-0.980865478515625,0.0178680419921875,0.0022125244140625
1690840809996519400,2.64151953125,-0.9807891845703125,0.0174713134765625,0.0021209716796875
1690840810006559500,2.6515595703125,-0.9814300537109375,0.0174407958984375,0.0026702880859375
1690840810016630300,2.66163037109375,-0.9814300537109375,0.0181427001953125,0.0029754638671875
1690840810026670300,2.67167041015625,-0.980621337890625,0.0180511474609375,0.0027923583984375
1690840810036711200,2.681711181640625,-0.9817047119140625,0.0181427001953125,0.002777099609375
1690840810046751200,2.691751220703125,-0.9821624755859375,0.0186767578125,0.0032196044921875
1690840810056791300,2.701791259765625,-0.9815826416015625,0.01806640625,0.002410888671875
1690840810066832400,2.711832275390625,-0.9812774658203125,0.0177764892578125,0.002685546875
1690840810076872400,2.72187255859375,-0.9811248779296875,0.0177459716796875,0.0021514892578125
1690840810086912500,2.73191259765625,-0.981231689453125,0.017669677734375,0.0016021728515625
1690840810096952300,2.741952392578125,-0.9813995361328125,0.0172119140625,0.0021820068359375
1690840810106993200,2.7519931640625,-0.981353759765625,0.01806640625,0.0031280517578125
1690840810117033200,2.762033203125,-0.9815826416015625,0.0179595947265625,0.0033416748046875
1690840810127073300,2.7720732421875,-0.981353759765625,0.0180816650390625,0.002899169921875
1690840810137114400,2.7821142578125,-0.9815826416015625,0.01837158203125,0.0031280517578125
1690840810147154400,2.792154541015625,-0.9807281494140625,0.0174407958984375,0.0028533935546875
1690840810157194500,2.802194580078125,-0.981536865234375,0.0172882080078125,0.002777099609375
1690840810167265300,2.812265380859375,-0.9813690185546875,0.018585205078125,0.0014801025390625
1690840810177305300,2.822305419921875,-0.9810943603515625,0.0181427001953125,0.0020294189453125
1690840810187345200,2.83234521484375,-0.9810333251953125,0.0179443359375,0.002166748046875
1690840810197386200,2.84238623046875,-0.9815826416015625,0.01715087890625,0.0028076171875
1690840810207426300,2.85242626953125,-0.9822540283203125,0.01806640625,0.0030364990234375
1690840810217466400,2.86246630859375,-0.9812469482421875,0.017486572265625,0.00238037109375
1690840810227507500,2.872507568359375,-0.981597900390625,0.0178680419921875,0.0021820068359375
1690840810237547500,2.882547607421875,-0.982269287109375,0.0185699462890625,0.0019989013671875
1690840810247587300,2.89258740234375,-0.9816436767578125,0.017913818359375,0.00262451171875
1690840810257627100,2.902627197265625,-0.981689453125,0.01763916015625,0.003326416015625
1690840810267668200,2.912668212890625,-0.9812469482421875,0.0175018310546875,0.0027618408203125
1690840810277708300,2.922708251953125,-0.9805145263671875,0.018218994140625,0.002105712890625
1690840810287748400,2.932748291015625,-0.9811859130859375,0.0181427001953125,0.002227783203125
1690840810297789400,2.94278955078125,-0.9821624755859375,0.0173187255859375,0.001800537109375
1690840810307829500,2.95282958984375,-0.981109619140625,0.0172271728515625,0.001739501953125
1690840810317900300,2.962900390625,-0.9814453125,0.017791748046875,0.002777099609375
1690840810327940400,2.9729404296875,-0.981414794921875,0.0179290771484375,0.002593994140625
1690840810337980200,2.982980224609375,-0.9827880859375,0.0178375244140625,0.002227783203125
1690840810348021200,2.993021240234375,-0.9818267822265625,0.0175628662109375,0.0019073486328125
1690840810358061300,3.003061279296875,-0.980712890625,0.0176849365234375,0.0030670166015625
1690840810368101400,3.013101318359375,-0.981292724609375,0.0173797607421875,0.002593994140625
1690840810378141200,3.02314111328125,-0.98150634765625,0.0178070068359375,0.0019683837890625
1690840810388182300,3.033182373046875,-0.981292724609375,0.018280029296875,0.0026702880859375
1690840810398222300,3.043222412109375,-0.981597900390625,0.0179595947265625,0.0023956298828125
1690840810408262100,3.05326220703125,-0.9816741943359375,0.017547607421875,0.0026397705078125
1690840810418303200,3.06330322265625,-0.98150634765625,0.0184326171875,0.002777099609375
1690840810428343300,3.07334326171875,-0.981170654296875,0.017791748046875,0.0023651123046875
1690840810438383400,3.08338330078125,-0.9817962646484375,0.01800537109375,0.0025634765625
1690840810448423400,3.09342333984375,-0.982025146484375,0.01837158203125,0.0031585693359375
1690840810458464500,3.103464599609375,-0.980621337890625,0.0180816650390625,0.0035552978515625
1690840810468534300,3.1135341796875,-0.9810638427734375,0.0181121826171875,0.0030670166015625
1690840810478575000,3.1235751953125,-0.9818267822265625,0.01873779296875,0.002532958984375
1690840810488615200,3.133615234375,-0.9819183349609375,0.0179290771484375,0.002471923828125
1690840810498655200,3.1436552734375,-0.981170654296875,0.0176849365234375,0.002166748046875
1690840810508696300,3.1536962890625,-0.9805450439453125,0.017791748046875,0.00164794921875
1690840810518736400,3.163736328125,-0.9803009033203125,0.0171966552734375,0.00225830078125
1690840810528776200,3.173776123046875,-0.9810791015625,0.018310546875,0.002838134765625
1690840810538816300,3.183816162109375,-0.9816131591796875,0.01788330078125,0.0019989013671875
1690840810548857000,3.193857177734375,-0.9814300537109375,0.018310546875,0.0031585693359375
1690840810558897200,3.203897216796875,-0.981231689453125,0.0174713134765625,0.002899169921875
1690840810568937200,3.213937255859375,-0.9814453125,0.018035888671875,0.0026702880859375
1690840810578978300,3.223978271484375,-0.981353759765625,0.0185394287109375,0.0025482177734375
1690840810589018400,3.234018310546875,-0.9817352294921875,0.017669677734375,0.00238037109375
1690840810599058400,3.244058349609375,-0.9810943603515625,0.017822265625,0.003082275390625
1690840810609098200,3.25409814453125,-0.980987548828125,0.018035888671875,0.0023040771484375
1690840810619139000,3.26413916015625,-0.98101806640625,0.017852783203125,0.0028228759765625
1690840810629210000,3.274210205078125,-0.981475830078125,0.0175628662109375,0.00262451171875
1690840810639250200,3.284250244140625,-0.9816741943359375,0.017303466796875,0.002166748046875
1690840810649290200,3.294290283203125,-0.982177734375,0.0181427001953125,0.0028839111328125
1690840810659330300,3.304330322265625,-0.981231689453125,0.017852783203125,0.002288818359375
1690840810669371400,3.314371337890625,-0.9820404052734375,0.0185394287109375,0.0028228759765625
1690840810679411200,3.3244111328125,-0.982391357421875,0.0181884765625,0.0034637451171875
1690840810689451300,3.334451171875,-0.982940673828125,0.0179901123046875,0.002197265625
1690840810699491300,3.3444912109375,-0.9823455810546875,0.0185699462890625,0.0023040771484375
1690840810709532200,3.3545322265625,-0.9821929931640625,0.0178070068359375,0.0019378662109375
1690840810719572200,3.364572265625,-0.98175048828125,0.017333984375,0.0021514892578125
1690840810729612300,3.3746123046875,-0.981903076171875,0.0174407958984375,0.002899169921875
1690840810739653400,3.3846533203125,-0.9813385009765625,0.017913818359375,0.002197265625
1690840810749693400,3.394693359375,-0.9818267822265625,0.0180816650390625,0.0029449462890625
1690840810759733200,3.404733154296875,-0.9810333251953125,0.0177154541015625,0.0027313232421875
1690840810769773300,3.414773193359375,-0.982269287109375,0.0167999267578125,0.0026092529296875
1690840810779844400,3.42484423828125,-0.9816436767578125,0.017425537109375,0.0030670166015625
1690840810789885200,3.43488525390625,-0.9804840087890625,0.018585205078125,0.002685546875
1690840810799925200,3.44492529296875,-0.98077392578125,0.01776123046875,0.0032196044921875
1690840810809965300,3.45496533203125,-0.981353759765625,0.0169830322265625,0.002105712890625
1690840810820005000,3.465005126953125,-0.9810943603515625,0.01806640625,0.001190185546875
1690840810830046200,3.475046142578125,-0.981475830078125,0.0183258056640625,0.0018768310546875
1690840810840086300,3.485086181640625,-0.981658935546875,0.017578125,0.0029449462890625
1690840810850126300,3.495126220703125,-0.981658935546875,0.018341064453125,0.00311279296875
1690840810860170500,3.50517041015625,-0.9798583984375,0.0184478759765625,0.00286865234375
1690840810870210600,3.51521044921875,-0.9812469482421875,0.017425537109375,0.0031280517578125
1690840810880250600,3.525250732421875,-0.982269287109375,0.01806640625,0.00250244140625
1690840810890290700,3.535290771484375,-0.98211669921875,0.018096923828125,0.002716064453125
1690840810900331800,3.545331787109375,-0.9818572998046875,0.017822265625,0.00225830078125
1690840810910371600,3.55537158203125,-0.9818572998046875,0.0181732177734375,0.0027618408203125
1690840810920411600,3.56541162109375,-0.981597900390625,0.018280029296875,0.0032501220703125
1690840810930482700,3.575482666015625,-0.9810943603515625,0.0183258056640625,0.0035552978515625
1690840810940522800,3.585522705078125,-0.9814910888671875,0.01861572265625,0.0028533935546875
1690840810950563600,3.5955634765625,-0.9813690185546875,0.0181884765625,0.0025482177734375
1690840810960603600,3.605603759765625,-0.98162841796875,0.01824951171875,0.0030364990234375
1690840810970643700,3.615643798828125,-0.9823150634765625,0.017974853515625,0.00201416015625
1690840810980683500,3.62568359375,-0.981475830078125,0.0178375244140625,0.002227783203125
1690840810990724600,3.635724609375,-0.9840240478515625,0.0010223388671875,-0.0340576171875
1690840811000764700,3.6457646484375,-1.026458740234375,-0.0613555908203125,0.072021484375
1690840811010804700,3.6558046875,-1.0094146728515625,0.04937744140625,0.086639404296875
1690840811020845600,3.665845458984375,-0.937164306640625,0.0251922607421875,-0.0821990966796875
1690840811030885600,3.6758857421875,-0.9810028076171875,0.0373687744140625,-0.02459716796875
1690840811040925700,3.68592578125,-0.9549407958984375,0.03887939453125,-0.0462493896484375
1690840811050965500,3.695965576171875,-0.9806365966796875,0.0297393798828125,-0.0148468017578125
1690840811061006600,3.706006591796875,-0.9652557373046875,0.04547119140625,0.02667236328125
1690840811071046700,3.716046630859375,-0.98663330078125,0.0748138427734375,0.0262298583984375
1690840811081117700,3.72611767578125,-0.9714202880859375,0.0372467041015625,-0.009185791015625
1690840811091157800,3.73615771484375,-0.9765167236328125,0.025970458984375,0.013031005859375
1690840811101197800,3.74619775390625,-0.97991943359375,0.03515625,0.030731201171875
1690840811111238700,3.75623876953125,-0.981475830078125,0.0291900634765625,-0.00262451171875
1690840811121278700,3.76627880859375,-0.989349365234375,-0.0062255859375,0.0025177001953125
1690840811131318500,3.776318603515625,-0.9791412353515625,0.0018310546875,-0.00640869140625
1690840811141359600,3.786359619140625,-0.996734619140625,-0.0101470947265625,-0.00616455078125
1690840811151399700,3.796399658203125,-0.9893035888671875,-0.0101776123046875,0.0010223388671875
1690840811161439700,3.806439697265625,-0.9892730712890625,-0.009307861328125,0.00616455078125
1690840811171479800,3.816479736328125,-0.9948272705078125,-0.0062408447265625,0.0096588134765625
1690840811181520600,3.826520751953125,-0.9887237548828125,0.0008087158203125,0.0080413818359375
1690840811191560700,3.836560791015625,-0.9882659912109375,0.0076904296875,0.0057220458984375
1690840811201600500,3.8466005859375,-0.9781341552734375,0.0160369873046875,0.001953125
1690840811211640600,3.856640625,-0.9848785400390625,0.023651123046875,-0.00006103515625
1690840811221681700,3.866681640625,-0.9744873046875,0.02874755859375,-0.000335693359375
1690840811231752700,3.876752685546875,-0.976409912109375,0.0338592529296875,-0.000274658203125
1690840811241792800,3.886792724609375,-0.9745330810546875,0.0361785888671875,0.00054931640625
1690840811251832800,3.896832763671875,-0.9764251708984375,0.038909912109375,0.0016326904296875
1690840811261873000,3.906872802734375,-0.971954345703125,0.0388031005859375,0.00250244140625
1690840811271913700,3.916913818359375,-0.974334716796875,0.0372161865234375,0.0027313232421875
1690840811281953500,3.92695361328125,-0.9796905517578125,0.0348663330078125,0.0028839111328125
1690840811291993600,3.93699365234375,-0.975006103515625,0.02960205078125,0.001708984375
1690840811302034700,3.94703466796875,-0.982421875,0.0246429443359375,0.0019683837890625
1690840811312074800,3.95707470703125,-0.98199462890625,0.01806640625,0.00146484375
1690840811322114800,3.96711474609375,-0.9851226806640625,0.011932373046875,0.001220703125
1690840811332154600,3.977154541015625,-0.98358154296875,0.007415771484375,0.0023345947265625
1690840811342195700,3.98719580078125,-0.987762451171875,0.002838134765625,0.003509521484375
1690840811352235500,3.997235595703125,-0.9896697998046875,0.0008697509765625,0.00390625
1690840811362275600,4.007275634765625,-0.986724853515625,0.0008392333984375,0.00396728515625
1690840811372316700,4.017316650390625,-0.9880828857421875,0.0030517578125,0.0032501220703125
1690840811382386700,4.02738671875,-0.9872589111328125,0.007720947265625,0.002716064453125
1690840811392427800,4.037427734375,-0.984466552734375,0.0130462646484375,0.003173828125
1690840811402467800,4.0474677734375,-0.9801788330078125,0.017822265625,0.0024871826171875
1690840811412507600,4.057507568359375,-0.9824981689453125,0.022491455078125,0.0025482177734375
1690840811422547500,4.06754736328125,-0.9772186279296875,0.0269317626953125,0.0012054443359375
1690840811432588500,4.077588623046875,-0.9771728515625,0.0292205810546875,0.0013275146484375
1690840811442628600,4.087628662109375,-0.9785003662109375,0.02978515625,0.0019378662109375
1690840811452668700,4.097668701171875,-0.977294921875,0.0309295654296875,0.001953125
1690840811462709800,4.107709716796875,-0.97650146484375,0.0298919677734375,0.0023651123046875
1690840811472749800,4.117749755859375,-0.97662353515625,0.02862548828125,0.0035400390625
1690840811482789600,4.12778955078125,-0.980255126953125,0.0261688232421875,0.002410888671875
1690840811492829400,4.137829345703125,-0.979095458984375,0.0228424072265625,0.0033721923828125
1690840811502870500,4.14787060546875,-0.9816436767578125,0.0201873779296875,0.002349853515625
1690840811512910600,4.15791064453125,-0.981964111328125,0.0163116455078125,0.0014190673828125
1690840811522950700,4.16795068359375,-0.9869842529296875,0.012664794921875,0.002105712890625
1690840811532991700,4.17799169921875,-0.982696533203125,0.01025390625,0.0022735595703125
1690840811543061800,4.188061767578125,-0.9857940673828125,0.008453369140625,0.0023956298828125
1690840811553102800,4.198102783203125,-0.9852294921875,0.00860595703125,0.0041351318359375
1690840811563142700,4.208142578125,-0.9848480224609375,0.0096588134765625,0.003875732421875
1690840811573182500,4.218182373046875,-0.9841156005859375,0.011383056640625,0.0030059814453125
1690840811583223600,4.2282236328125,-0.9818267822265625,0.0155181884765625,0.0036468505859375
1690840811593263600,4.238263671875,-0.982696533203125,0.0185699462890625,0.0030364990234375
1690840811603303700,4.2483037109375,-0.980682373046875,0.0206298828125,0.0023345947265625
1690840811613343700,4.25834375,-0.98089599609375,0.0224609375,0.002471923828125
1690840811623384800,4.268384765625,-0.97930908203125,0.02374267578125,0.002044677734375
1690840811633424600,4.278424560546875,-0.97998046875,0.02581787109375,0.0019683837890625
1690840811643464400,4.28846435546875,-0.9776611328125,0.0253448486328125,0.00201416015625
1690840811653505500,4.298505615234375,-0.9788055419921875,0.025726318359375,0.002410888671875
1690840811663545600,4.308545654296875,-0.9810943603515625,0.02508544921875,0.002197265625
1690840811673585700,4.318585693359375,-0.9782562255859375,0.0225982666015625,0.001434326171875
1690840811683625700,4.328625732421875,-0.982574462890625,0.020416259765625,0.002899169921875
1690840811693696800,4.33869677734375,-0.980499267578125,0.0182342529296875,0.002349853515625
1690840811703736600,4.348736572265625,-0.9821014404296875,0.0169525146484375,0.0026397705078125
1690840811713777700,4.358777587890625,-0.982208251953125,0.01593017578125,0.0032958984375
1690840811723817500,4.3688173828125,-0.98321533203125,0.0142669677734375,0.002593994140625
1690840811733857500,4.378857421875,-0.9844207763671875,0.013641357421875,0.0021820068359375
1690840811743898600,4.388898681640625,-0.9840545654296875,0.0129547119140625,0.00213623046875
1690840811753938700,4.398938720703125,-0.9834442138671875,0.0146636962890625,0.0020751953125
1690840811763978800,4.408978759765625,-0.9817962646484375,0.016082763671875,0.0018310546875
1690840811774018800,4.419018798828125,-0.9830780029296875,0.017578125,0.0023345947265625
1690840811784059600,4.4290595703125,-0.9804534912109375,0.0186004638671875,0.002777099609375
1690840811794099500,4.439099365234375,-0.9807891845703125,0.0196685791015625,0.0032501220703125
1690840811804139500,4.449139404296875,-0.98004150390625,0.0216064453125,0.004608154296875
1690840811814180600,4.4591806640625,-0.9796142578125,0.02288818359375,0.003631591796875
1690840811824220700,4.469220703125,-0.9811859130859375,0.0221710205078125,0.002471923828125
1690840811834260700,4.4792607421875,-0.98126220703125,0.02325439453125,0.0018157958984375
1690840811844331800,4.489331787109375,-0.9805450439453125,0.0224609375,0.00128173828125
1690840811854366700,4.49936669921875,-0.980316162109375,0.02093505859375,0.0010223388671875
1690840811864406800,4.50940673828125,-0.9805755615234375,0.02001953125,0.0011444091796875
1690840811874448000,4.51944775390625,-0.9827880859375,0.0182037353515625,0.0014190673828125
1690840811884488000,4.529488037109375,-0.9811248779296875,0.0176239013671875,0.001678466796875
1690840811894527700,4.53952783203125,-0.9819793701171875,0.0164337158203125,0.0027008056640625
1690840811904568600,4.549568603515625,-0.9817962646484375,0.0156707763671875,0.0034942626953125
1690840811914608600,4.559608642578125,-0.9835357666015625,0.016265869140625,0.003265380859375
1690840811924648700,4.569648681640625,-0.982086181640625,0.016082763671875,0.0033721923828125
1690840811934688800,4.579688720703125,-0.9822845458984375,0.0162811279296875,0.00299072265625
1690840811944729900,4.589729736328125,-0.9828948974609375,0.0174102783203125,0.0028839111328125
1690840811954770000,4.59977001953125,-0.9819793701171875,0.0186004638671875,0.0029144287109375
1690840811964810000,4.60981005859375,-0.981964111328125,0.01995849609375,0.0021514892578125
1690840811974850800,4.619850830078125,-0.9814605712890625,0.020538330078125,0.001678466796875
1690840811984890600,4.629890625,-0.97918701171875,0.0208740234375,0.00250244140625
1690840811994961700,4.639961669921875,-0.9792022705078125,0.0208587646484375,0.00299072265625
1690840812005001700,4.650001708984375,-0.9813079833984375,0.020782470703125,0.002410888671875
1690840812015041800,4.660041748046875,-0.9809417724609375,0.0204010009765625,0.003143310546875
1690840812025083000,4.670082763671875,-0.9810943603515625,0.019683837890625,0.003509521484375
1690840812035123000,4.680123046875,-0.981475830078125,0.019744873046875,0.0035400390625
1690840812045162800,4.690162841796875,-0.98248291015625,0.01898193359375,0.003265380859375
1690840812055202800,4.700202880859375,-0.982666015625,0.0186614990234375,0.0026702880859375
1690840812065243600,4.71024365234375,-0.982208251953125,0.0179901123046875,0.001800537109375
1690840812075283700,4.72028369140625,-0.9820404052734375,0.0179901123046875,0.001739501953125
1690840812085323800,4.73032373046875,-0.982452392578125,0.017852783203125,0.00152587890625
1690840812095364900,4.74036474609375,-0.9813995361328125,0.0169677734375,0.0026092529296875
1690840812105405000,4.750405029296875,-0.9823150634765625,0.0179901123046875,0.00286865234375
1690840812115445000,4.760445068359375,-0.9820556640625,0.0179595947265625,0.0031280517578125
1690840812125484800,4.77048486328125,-0.9818572998046875,0.0189056396484375,0.003082275390625
1690840812135525600,4.780525634765625,-0.98260498046875,0.018768310546875,0.0033721923828125
1690840812145596000,4.790595947265625,-0.981231689453125,0.019439697265625,0.002532958984375
1690840812155636700,4.80063671875,-0.9821929931640625,0.0198822021484375,0.001739501953125
1690840812165676800,4.8106767578125,-0.9814453125,0.0200347900390625,0.0019989013671875
1690840812175716900,4.820716796875,-0.9805145263671875,0.020294189453125,0.00225830078125
1690840812185758000,4.830758056640625,-0.9820404052734375,0.0201416015625,0.0025634765625
1690840812195797800,4.8407978515625,-0.980194091796875,0.019561767578125,0.0024566650390625
1690840812205837800,4.850837890625,-0.980682373046875,0.0183868408203125,0.002593994140625
1690840812215878000,4.8608779296875,-0.9811859130859375,0.0178375244140625,0.002349853515625
1690840812225918700,4.870918701171875,-0.981048583984375,0.0176239013671875,0.002960205078125
1690840812235958800,4.880958740234375,-0.9822540283203125,0.0182647705078125,0.0034637451171875
1690840812245998800,4.890998779296875,-0.982818603515625,0.0184173583984375,0.004364013671875
1690840812256040000,4.9010400390625,-0.98162841796875,0.018463134765625,0.0036163330078125
1690840812266079700,4.911079833984375,-0.9842529296875,0.0180511474609375,0.0038604736328125
1690840812276119800,4.921119873046875,-0.98211669921875,0.0178375244140625,0.0035247802734375
1690840812286160000,4.931159912109375,-0.9826202392578125,0.0184478759765625,0.00286865234375
1690840812296231000,4.94123095703125,-0.980987548828125,0.018646240234375,0.0011444091796875
1690840812306270700,4.951270751953125,-0.9801788330078125,0.0183868408203125,0.0000457763671875
1690840812316311800,4.961311767578125,-0.9821929931640625,0.0194549560546875,0.0012969970703125
1690840812326352000,4.971351806640625,-0.9813385009765625,0.01971435546875,0.0017547607421875
1690840812336391700,4.9813916015625,-0.9822540283203125,0.019775390625,0.002471923828125
1690840812346432800,4.991432861328125,-0.9807586669921875,0.019683837890625,0.0035247802734375
1690840812356472800,5.001472900390625,-0.982208251953125,0.02020263671875,0.0034942626953125
1690840812366513000,5.011512939453125,-0.9812469482421875,0.019622802734375,0.0041046142578125
1690840812376552700,5.021552734375,-0.98236083984375,0.01922607421875,0.0044403076171875
1690840812386593800,5.03159375,-0.9819793701171875,0.01971435546875,0.0029144287109375
1690840812396633900,5.0416337890625,-0.9804229736328125,0.0188751220703125,0.0017852783203125
1690840812406673700,5.051673583984375,-0.98248291015625,0.017913818359375,0.001220703125
1690840812416714800,5.06171484375,-0.981842041015625,0.0177764892578125,0.0003204345703125
1690840812426754800,5.0717548828125,-0.981781005859375,0.0169830322265625,-0.0003662109375
1690840812436795000,5.081794921875,-0.980316162109375,0.017608642578125,0.000701904296875
1690840812446834700,5.091834716796875,-0.9820098876953125,0.0183868408203125,0.0015716552734375
1690840812456905700,5.10190576171875,-0.9819183349609375,0.018646240234375,0.003814697265625
1690840812466946800,5.11194677734375,-0.982147216796875,0.018402099609375,0.0036163330078125
1690840812476987000,5.12198681640625,-0.9821929931640625,0.019134521484375,0.0043182373046875
1690840812487026700,5.132026611328125,-0.98162841796875,0.0191192626953125,0.0042724609375
1690840812497066800,5.142066650390625,-0.9818115234375,0.0198211669921875,0.0031585693359375
1690840812507107800,5.15210791015625,-0.98046875,0.019439697265625,0.001678466796875
1690840812517148000,5.16214794921875,-0.9806671142578125,0.0186614990234375,0.001556396484375
1690840812527187700,5.172187744140625,-0.9805755615234375,0.01910400390625,0.0013427734375
1690840812537228800,5.182228759765625,-0.982269287109375,0.0186309814453125,0.0012969970703125
1690840812547268900,5.192268798828125,-0.9813995361328125,0.0187225341796875,0.00164794921875
1690840812557308700,5.20230859375,-0.9817352294921875,0.0189361572265625,0.0016326904296875
1690840812567348700,5.2123486328125,-0.98138427734375,0.018585205078125,0.0019683837890625
1690840812577389800,5.222389892578125,-0.9819488525390625,0.01934814453125,0.0030975341796875
1690840812587430000,5.232429931640625,-0.9823455810546875,0.0181884765625,0.003326416015625
1690840812597469700,5.2424697265625,-0.98162841796875,0.0179443359375,0.0030975341796875
1690840812607540700,5.252540771484375,-0.98028564453125,0.017730712890625,0.002655029296875
1690840812617580800,5.262580810546875,-0.9806671142578125,0.01763916015625,0.0020904541015625
1690840812627622000,5.272621826171875,-0.9818267822265625,0.0183868408203125,0.001251220703125
1690840812637661700,5.28266162109375,-0.9813079833984375,0.018798828125,0.001312255859375
1690840812647701800,5.29270166015625,-0.980682373046875,0.0187225341796875,0.001373291015625
1690840812657741800,5.302741943359375,-0.9815216064453125,0.01910400390625,0.0020599365234375
1690840812667782700,5.31278271484375,-0.9829864501953125,0.018524169921875,0.0023040771484375
1690840812677822700,5.32282275390625,-0.982391357421875,0.0200653076171875,0.002899169921875
1690840812687862800,5.33286279296875,-0.981536865234375,0.0196990966796875,0.0028228759765625
1690840812697903900,5.34290380859375,-0.9816131591796875,0.0187835693359375,0.0035552978515625
1690840812707943700,5.352943603515625,-0.981109619140625,0.0191802978515625,0.0026397705078125
1690840812717983700,5.362983642578125,-0.981231689453125,0.0183258056640625,0.0032196044921875
1690840812728023800,5.37302392578125,-0.9817962646484375,0.0178375244140625,0.0026397705078125
1690840812738064600,5.383064697265625,-0.9803314208984375,0.01837158203125,0.0024261474609375
1690840812748104700,5.393104736328125,-0.9814453125,0.0185699462890625,0.0029144287109375
1690840812758175700,5.40317578125,-0.98193359375,0.0185546875,0.00274658203125
1690840812768215800,5.4132158203125,-0.9821319580078125,0.0186309814453125,0.0028533935546875
1690840812778255600,5.423255615234375,-0.981842041015625,0.019012451171875,0.0031890869140625
1690840812788296700,5.433296630859375,-0.9818878173828125,0.018798828125,0.002227783203125
1690840812798336800,5.443336669921875,-0.9818267822265625,0.019134521484375,0.002227783203125
1690840812808376800,5.453376953125,-0.98126220703125,0.0187225341796875,0.0015869140625
1690840812818417000,5.4634169921875,-0.98089599609375,0.018890380859375,0.00323486328125
1690840812828457700,5.473457763671875,-0.9813995361328125,0.0186920166015625,0.0024871826171875
1690840812838497800,5.483497802734375,-0.9814300537109375,0.0183563232421875,0.002960205078125
1690840812848537600,5.49353759765625,-0.9815521240234375,0.01776123046875,0.002960205078125
1690840812858567400,5.5035673828125,-0.98138427734375,0.019012451171875,0.0025177001953125
1690840812868607500,5.513607421875,-0.9828948974609375,0.0189361572265625,0.0033111572265625
1690840812878647600,5.5236474609375,-0.9820098876953125,0.01898193359375,0.0023040771484375
1690840812888687600,5.5336875,-0.9815216064453125,0.01861572265625,0.0019989013671875
1690840812898728700,5.543728759765625,-0.9818115234375,0.0185089111328125,0.001953125
1690840812908799700,5.5537998046875,-0.98150634765625,0.019378662109375,0.0019989013671875
1690840812918839600,5.563839599609375,-0.9804229736328125,0.018280029296875,0.002105712890625
1690840812928879600,5.573879638671875,-0.9807586669921875,0.0189666748046875,0.0024261474609375
1690840812938919400,5.58391943359375,-0.9810943603515625,0.0179443359375,0.0025482177734375
1690840812948960500,5.59396044921875,-0.981048583984375,0.0183868408203125,0.002410888671875
1690840812959000600,5.60400048828125,-0.9808349609375,0.0179290771484375,0.001953125
1690840812969040600,5.61404052734375,-0.981964111328125,0.018218994140625,0.003662109375
1690840812979081700,5.624081787109375,-0.9822540283203125,0.0193328857421875,0.0035858154296875
1690840812989121500,5.63412158203125,-0.9816131591796875,0.018402099609375,0.002960205078125
1690840812999161600,5.64416162109375,-0.9816436767578125,0.0184326171875,0.0025787353515625
1690840813009201400,5.654201416015625,-0.981597900390625,0.01861572265625,0.0014495849609375
1690840813019242500,5.664242431640625,-0.981292724609375,0.0185699462890625,0.0014495849609375
1690840813029282600,5.674282470703125,-0.980560302734375,0.0189056396484375,0.0023956298828125
1690840813039322600,5.684322509765625,-0.9807281494140625,0.0182952880859375,0.0024871826171875
1690840813049363700,5.69436376953125,-0.98101806640625,0.019378662109375,0.0025177001953125
1690840813059433500,5.70443359375,-0.981781005859375,0.0195159912109375,0.0029144287109375
1690840813069474600,5.714474609375,-0.982086181640625,0.018829345703125,0.003570556640625
1690840813079514600,5.7245146484375,-0.9821929931640625,0.0196990966796875,0.00311279296875
1690840813089554400,5.734554443359375,-0.982086181640625,0.0183258056640625,0.0028839111328125
1690840813099594500,5.744594482421875,-0.9819488525390625,0.0184783935546875,0.0023345947265625
1690840813109635600,5.754635498046875,-0.98175048828125,0.0192413330078125,0.001800537109375
1690840813119675600,5.764675537109375,-0.9807281494140625,0.0184173583984375,0.0017852783203125
1690840813129715500,5.774715576171875,-0.9824981689453125,0.01873779296875,0.00140380859375
1690840813139756500,5.784756591796875,-0.9818878173828125,0.0184326171875,0.0015716552734375
1690840813149796600,5.794796630859375,-0.98126220703125,0.0186614990234375,0.001983642578125
1690840813159836400,5.80483642578125,-0.982025146484375,0.0186614990234375,0.0024566650390625
1690840813169876500,5.81487646484375,-0.9815673828125,0.018951416015625,0.00347900390625
1690840813179917600,5.82491748046875,-0.9815521240234375,0.0190277099609375,0.00341796875
1690840813189957600,5.83495751953125,-0.9812164306640625,0.018585205078125,0.0029144287109375
1690840813199997400,5.84499755859375,-0.98077392578125,0.0186309814453125,0.002471923828125
1690840813210038500,5.85503857421875,-0.9820404052734375,0.0185699462890625,0.0028839111328125
1690840813220108500,5.865108642578125,-0.9810333251953125,0.0191192626953125,0.0023956298828125
1690840813230149600,5.875149658203125,-0.9811248779296875,0.0193328857421875,0.001953125
1690840813240189400,5.885189453125,-0.9804229736328125,0.01837158203125,0.0014495849609375
1690840813250229500,5.8952294921875,-0.98077392578125,0.0186309814453125,0.0016326904296875
1690840813260270600,5.9052705078125,-0.98126220703125,0.018890380859375,0.002044677734375
1690840813270310700,5.915310546875,-0.98223876953125,0.01873779296875,0.0027313232421875
1690840813280350500,5.9253505859375,-0.9817962646484375,0.0191192626953125,0.002655029296875
1690840813290390500,5.935390625,-0.981109619140625,0.0180511474609375,0.002960205078125
1690840813300431600,5.945431640625,-0.9814300537109375,0.01898193359375,0.002899169921875
1690840813310471400,5.955471435546875,-0.98162841796875,0.019012451171875,0.002838134765625
1690840813320511500,5.965511474609375,-0.982452392578125,0.0186309814453125,0.0025482177734375
1690840813330551600,5.975551513671875,-0.9830322265625,0.018341064453125,0.00299072265625
1690840813340592600,5.985592529296875,-0.9803314208984375,0.0183868408203125,0.001983642578125
1690840813350632400,5.995632568359375,-0.980682373046875,0.018524169921875,0.0018157958984375
1690840813360672500,6.005672607421875,-0.9820404052734375,0.018768310546875,0.0023040771484375
1690840813370743600,6.01574365234375,-0.981292724609375,0.019134521484375,0.0027313232421875
1690840813380783600,6.02578369140625,-0.9811553955078125,0.0193328857421875,0.0020904541015625
1690840813390824400,6.035824462890625,-0.982269287109375,0.0182647705078125,0.00286865234375
1690840813400864500,6.045864501953125,-0.9817047119140625,0.01910400390625,0.00225830078125
1690840813410904600,6.055904541015625,-0.98193359375,0.01947021484375,0.0028533935546875
1690840813420945700,6.065945556640625,-0.98126220703125,0.0190887451171875,0.0030517578125
1690840813430985500,6.0759853515625,-0.981170654296875,0.0192718505859375,0.0026397705078125
1690840813441025500,6.086025634765625,-0.98162841796875,0.0184173583984375,0.0028228759765625
1690840813451065600,6.096065673828125,-0.982025146484375,0.0179443359375,0.001708984375
1690840813461106400,6.1061064453125,-0.9825897216796875,0.0185546875,0.0025482177734375
1690840813471146500,6.116146484375,-0.981658935546875,0.0191802978515625,0.002777099609375
1690840813481186600,6.1261865234375,-0.9806060791015625,0.0186614990234375,0.0028076171875
1690840813491227600,6.1362275390625,-0.9816131591796875,0.0186767578125,0.0031890869140625
1690840813501267500,6.146267333984375,-0.982147216796875,0.018707275390625,0.0035858154296875
1690840813511307500,6.1563076171875,-0.982208251953125,0.018707275390625,0.00323486328125
1690840813521378600,6.166378662109375,-0.9812164306640625,0.01849365234375,0.003265380859375
1690840813531418600,6.176418701171875,-0.9820404052734375,0.018768310546875,0.0025787353515625
1690840813541458700,6.186458740234375,-0.9815216064453125,0.0179443359375,0.00311279296875
1690840813551499500,6.19649951171875,-0.98138427734375,0.0180511474609375,0.0027618408203125
1690840813561539300,6.206539306640625,-0.9818267822265625,0.0189666748046875,0.002655029296875
1690840813571579400,6.216579345703125,-0.98126220703125,0.0192108154296875,0.00274658203125
1690840813581620500,6.226620361328125,-0.9813690185546875,0.0188140869140625,0.003021240234375
1690840813591660500,6.23666064453125,-0.98199462890625,0.018890380859375,0.0026397705078125
1690840813601700600,6.24670068359375,-0.981536865234375,0.018829345703125,0.0017547607421875
1690840813611740700,6.25674072265625,-0.9812164306640625,0.0186767578125,0.0029144287109375
1690840813621781500,6.266781494140625,-0.9816131591796875,0.01910400390625,0.0024871826171875
1690840813631821600,6.276821533203125,-0.980224609375,0.019012451171875,0.0026092529296875
1690840813641861400,6.286861328125,-0.9814605712890625,0.019012451171875,0.00189208984375
1690840813651902500,6.29690234375,-0.981109619140625,0.0179443359375,0.002532958984375
1690840813661942500,6.306942626953125,-0.9813995361328125,0.018218994140625,0.0024871826171875
1690840813672013600,6.317013671875,-0.9819183349609375,0.0188140869140625,0.0026702880859375
1690840813682053600,6.3270537109375,-0.981475830078125,0.018890380859375,0.0027618408203125
1690840813692093700,6.33709375,-0.981658935546875,0.019317626953125,0.002410888671875
1690840813702134500,6.347134521484375,-0.9816436767578125,0.01947021484375,0.003326416015625
1690840813712174300,6.35717431640625,-0.9816436767578125,0.019073486328125,0.0030059814453125
1690840813722214400,6.36721435546875,-0.9816131591796875,0.019195556640625,0.0021209716796875
1690840813732254500,6.37725439453125,-0.981201171875,0.0190277099609375,0.002044677734375
1690840813742295600,6.387295654296875,-0.9814910888671875,0.0189208984375,0.002655029296875
1690840813752335600,6.397335693359375,-0.98138427734375,0.0185546875,0.0023651123046875
1690840813762375700,6.407375732421875,-0.9808502197265625,0.019287109375,0.002471923828125
1690840813772416500,6.41741650390625,-0.9813385009765625,0.019287109375,0.0026092529296875
1690840813782456600,6.42745654296875,-0.981536865234375,0.019073486328125,0.0030975341796875
1690840813792496400,6.437496337890625,-0.9810943603515625,0.01910400390625,0.00274658203125
1690840813802536400,6.447536376953125,-0.9814910888671875,0.0192413330078125,0.00244140625
1690840813812577500,6.45757763671875,-0.9818115234375,0.01800537109375,0.0023345947265625
1690840813822647600,6.4676474609375,-0.9813690185546875,0.017822265625,0.0029754638671875
1690840813832688600,6.477688720703125,-0.9810943603515625,0.0193023681640625,0.0026702880859375
1690840813842728700,6.487728759765625,-0.9809112548828125,0.0187530517578125,0.0019989013671875
1690840813852768500,6.4977685546875,-0.981353759765625,0.0191650390625,0.002227783203125
1690840813862792700,6.507792724609375,-0.98138427734375,0.01806640625,0.002655029296875
1690840813872832500,6.51783251953125,-0.982025146484375,0.0179595947265625,0.0023193359375
1690840813882872600,6.52787255859375,-0.982208251953125,0.0182647705078125,0.0020904541015625
1690840813892912600,6.53791259765625,-0.9815826416015625,0.0189056396484375,0.0026397705078125
1690840813902953700,6.54795361328125,-0.9810333251953125,0.0189971923828125,0.0019989013671875
1690840813912993800,6.557993896484375,-0.9810943603515625,0.0184783935546875,0.00225830078125
1690840813923033600,6.56803369140625,-0.9811859130859375,0.0185089111328125,0.0030059814453125
1690840813933074700,6.57807470703125,-0.9811248779296875,0.0188140869140625,0.0028533935546875
1690840813943114800,6.58811474609375,-0.981719970703125,0.0187225341796875,0.002410888671875
1690840813953154600,6.598154541015625,-0.982269287109375,0.0189208984375,0.001983642578125
1690840813963194600,6.608194580078125,-0.9817352294921875,0.01898193359375,0.0023040771484375
1690840813973265700,6.618265625,-0.9810943603515625,0.0188140869140625,0.002838134765625
1690840813983305700,6.6283056640625,-0.981597900390625,0.01849365234375,0.0026092529296875
1690840813993346800,6.638346923828125,-0.98211669921875,0.01885986328125,0.00286865234375
1690840814003386600,6.64838671875,-0.9812164306640625,0.018798828125,0.002593994140625
1690840814013426400,6.658426513671875,-0.9805450439453125,0.01873779296875,0.0025482177734375
1690840814023467500,6.668467529296875,-0.981597900390625,0.0185546875,0.002593994140625
1690840814033507600,6.678507568359375,-0.9816436767578125,0.0190582275390625,0.0021209716796875
1690840814043547600,6.688547607421875,-0.98193359375,0.0190887451171875,0.0022430419921875
1690840814053587700,6.698587646484375,-0.9817047119140625,0.018463134765625,0.0023345947265625
1690840814063628800,6.70862890625,-0.9815826416015625,0.0189361572265625,0.0027923583984375
1690840814073668600,6.718668701171875,-0.982147216796875,0.0186309814453125,0.0030517578125
1690840814083708700,6.728708740234375,-0.981658935546875,0.020050048828125,0.002227783203125
1690840814093749800,6.738749755859375,-0.9810028076171875,0.01837158203125,0.0029144287109375
1690840814103789600,6.74878955078125,-0.9820098876953125,0.0186767578125,0.00274658203125
1690840814113829600,6.75882958984375,-0.9819488525390625,0.01947021484375,0.0020904541015625
1690840814123869700,6.76886962890625,-0.981903076171875,0.018707275390625,0.002593994140625
1690840814133940700,6.778940673828125,-0.9805145263671875,0.0187530517578125,0.0026092529296875
1690840814143981600,6.788981689453125,-0.980712890625,0.0194854736328125,0.0025634765625
1690840814154021600,6.799021728515625,-0.981109619140625,0.01953125,0.0024566650390625
1690840814164061400,6.8090615234375,-0.981353759765625,0.0188751220703125,0.0024261474609375
1690840814174101500,6.8191015625,-0.9810943603515625,0.0184478759765625,0.001922607421875
1690840814184142600,6.829142578125,-0.9812164306640625,0.018890380859375,0.002716064453125
1690840814194182700,6.8391826171875,-0.981048583984375,0.018402099609375,0.0016937255859375
1690840814204222700,6.84922265625,-0.9820404052734375,0.0183868408203125,0.0021514892578125
1690840814214263600,6.859263671875,-0.9825592041015625,0.0181884765625,0.002593994140625
1690840814224303600,6.8693037109375,-0.9813232421875,0.018798828125,0.0026397705078125
1690840814234343700,6.87934375,-0.9814300537109375,0.0186004638671875,0.0035400390625
1690840814244383500,6.889383544921875,-0.980804443359375,0.018280029296875,0.002166748046875
1690840814254424600,6.899424560546875,-0.9808502197265625,0.019317626953125,0.00225830078125
1690840814264464600,6.909464599609375,-0.98095703125,0.0187530517578125,0.00213623046875
1690840814274504700,6.919504638671875,-0.9814300537109375,0.018768310546875,0.0030364990234375
1690840814284575700,6.92957568359375,-0.982513427734375,0.018310546875,0.002960205078125
1690840814294615800,6.93961572265625,-0.981597900390625,0.0186767578125,0.002197265625
1690840814304656600,6.94965673828125,-0.981475830078125,0.0188140869140625,0.0027618408203125
1690840814314696400,6.959696533203125,-0.981842041015625,0.0187530517578125,0.0036163330078125
1690840814324736500,6.969736572265625,-0.9810943603515625,0.0179901123046875,0.00244140625
1690840814334776600,6.979776611328125,-0.9816131591796875,0.0183258056640625,0.001678466796875
1690840814344817700,6.989817626953125,-0.980865478515625,0.0185546875,0.0024566650390625
1690840814354857700,6.999857666015625,-0.98138427734375,0.0185394287109375,0.002288818359375
1690840814364897800,7.009897705078125,-0.9817047119140625,0.0187835693359375,0.002105712890625
1690840814374938600,7.019938720703125,-0.9821014404296875,0.0191802978515625,0.0019989013671875
1690840814384978700,7.029978759765625,-0.98187255859375,0.0194854736328125,0.0028228759765625
1690840814395018500,7.0400185546875,-0.9812469482421875,0.0185546875,0.002716064453125
1690840814405058600,7.05005859375,-0.981048583984375,0.0188140869140625,0.0026092529296875
1690840814415099600,7.060099609375,-0.9808502197265625,0.0185699462890625,0.0012664794921875
1690840814425139700,7.0701396484375,-0.980743408203125,0.0188751220703125,0.00225830078125
1690840814435210800,7.080210693359375,-0.9814453125,0.0192108154296875,0.0024261474609375
1690840814445250800,7.090250732421875,-0.9797515869140625,0.019073486328125,0.0024261474609375
1690840814455290600,7.10029052734375,-0.9937896728515625,-0.0771026611328125,0.0187835693359375
1690840814465331500,7.11033154296875,-1.0245513916015625,0.051910400390625,-0.06280517578125
1690840814475371500,7.12037158203125,-0.93414306640625,0.04974365234375,0.0818328857421875
1690840814485411600,7.13041162109375,-0.9833984375,0.001068115234375,-0.01446533203125
1690840814495451600,7.14045166015625,-0.98394775390625,0.0501556396484375,-0.0137481689453125
1690840814505492700,7.15049267578125,-0.967315673828125,0.0333709716796875,0.0048065185546875
1690840814515532800,7.16053271484375,-0.9934539794921875,0.0163421630859375,0.0367889404296875
1690840814525572600,7.170572509765625,-0.98004150390625,0.0526885986328125,0.009429931640625
1690840814535613400,7.180613525390625,-0.9517669677734375,0.05474853515625,-0.0220184326171875
1690840814545653500,7.190653564453125,-0.9734344482421875,0.049041748046875,-0.008392333984375
1690840814555693600,7.200693603515625,-0.9789276123046875,0.01324462890625,-0.019927978515625
1690840814565733600,7.210733642578125,-0.9739532470703125,0.021148681640625,-0.007537841796875
1690840814575774700,7.220774658203125,-0.983795166015625,0.0290679931640625,-0.01263427734375
1690840814585845800,7.230845703125,-0.972900390625,0.0158233642578125,-0.0031890869140625
1690840814595885800,7.2408857421875,-0.993621826171875,0.0041046142578125,0.0097808837890625
1690840814605925600,7.250925537109375,-0.9933319091796875,0.0064697265625,0.013916015625
1690840814615965700,7.260965576171875,-0.986968994140625,0.001678466796875,0.0189056396484375
1690840814626006500,7.271006591796875,-0.9955902099609375,-0.0025482177734375,0.0191802978515625
1690840814636046600,7.281046630859375,-0.9918670654296875,0.0004425048828125,0.011077880859375
1690840814646086700,7.291086669921875,-0.985626220703125,0.0018310546875,0.0035247802734375
1690840814656127700,7.301127685546875,-0.9840087890625,0.0074920654296875,-0.0037994384765625
1690840814666167800,7.311167724609375,-0.9819488525390625,0.013580322265625,-0.0078125
1690840814676207600,7.32120751953125,-0.97698974609375,0.0184478759765625,-0.0077667236328125
1690840814686247700,7.33124755859375,-0.980316162109375,0.024322509765625,-0.0056915283203125
1690840814696288500,7.34128857421875,-0.9743194580078125,0.0269622802734375,-0.0019073486328125
1690840814706328600,7.35132861328125,-0.98138427734375,0.03125,0.0012664794921875
1690840814716368600,7.36136865234375,-0.9764251708984375,0.03265380859375,0.004547119140625
1690840814726409700,7.37140966796875,-0.9756317138671875,0.034393310546875,0.006378173828125
1690840814736479700,7.381479736328125,-0.983917236328125,0.03509521484375,0.007659912109375
1690840814746520800,7.391520751953125,-0.975189208984375,0.03369140625,0.0065765380859375
1690840814756560600,7.401560546875,-0.9781036376953125,0.0322113037109375,0.0045013427734375
1690840814766600700,7.4116005859375,-0.9808502197265625,0.03009033203125,0.0005340576171875
1690840814776640800,7.421640869140625,-0.9769134521484375,0.02618408203125,-0.0016632080078125
1690840814786681600,7.431681640625,-0.9796600341796875,0.0234527587890625,-0.0035552978515625
1690840814796721700,7.4417216796875,-0.9811248779296875,0.0185089111328125,-0.00439453125
1690840814806761700,7.45176171875,-0.98150634765625,0.0150299072265625,-0.0024566650390625
1690840814816802800,7.461802734375,-0.9850921630859375,0.0114593505859375,0.00115966796875
1690840814826842600,7.471842529296875,-0.984375,0.0091552734375,0.0047607421875
1690840814836882700,7.481882568359375,-0.986968994140625,0.0088958740234375,0.00640869140625
1690840814846922800,7.4919228515625,-0.9894256591796875,0.0077667236328125,0.00750732421875
1690840814856963000,7.501963134765625,-0.9836273193359375,0.0087890625,0.0062408447265625
1690840814867003100,7.512003173828125,-0.988037109375,0.0115966796875,0.003997802734375
1690840814877043200,7.522043212890625,-0.983367919921875,0.014739990234375,0.0017242431640625
1690840814887084300,7.532084228515625,-0.9801025390625,0.017181396484375,-0.0002899169921875
1690840814897154000,7.542154052734375,-0.98236083984375,0.01971435546875,-0.0005950927734375
1690840814907195100,7.552195068359375,-0.977813720703125,0.0217132568359375,-0.0007171630859375
1690840814917235200,7.562235107421875,-0.9788665771484375,0.025054931640625,-0.0008087158203125
1690840814927275300,7.572275146484375,-0.979888916015625,0.027557373046875,0.000457763671875
1690840814937315300,7.5823154296875,-0.9780731201171875,0.028045654296875,0.0024566650390625
1690840814947356200,7.592356201171875,-0.979461669921875,0.028533935546875,0.002166748046875
1690840814957396200,7.602396240234375,-0.978424072265625,0.0283355712890625,0.002166748046875
1690840814967436000,7.61243603515625,-0.978759765625,0.027618408203125,0.002227783203125
1690840814977477000,7.62247705078125,-0.9808349609375,0.0262908935546875,0.0014495849609375
1690840814987517200,7.63251708984375,-0.9781036376953125,0.024261474609375,0.0008392333984375
1690840814997557200,7.64255712890625,-0.9811553955078125,0.021881103515625,0.00018310546875
1690840815007597300,7.652597412109375,-0.9821014404296875,0.0194549560546875,0.0003509521484375
1690840815017638100,7.66263818359375,-0.98095703125,0.0183258056640625,0.00103759765625
1690840815027678200,7.67267822265625,-0.983856201171875,0.016326904296875,0.001800537109375
1690840815037718000,7.682718017578125,-0.983673095703125,0.0144500732421875,0.0016021728515625
1690840815047789000,7.6927890625,-0.985076904296875,0.0134429931640625,0.001678466796875
1690840815057829000,7.7028291015625,-0.98583984375,0.013397216796875,0.002105712890625
1690840815067870200,7.7128701171875,-0.9818115234375,0.013458251953125,0.002532958984375
1690840815077910300,7.72291015625,-0.9832916259765625,0.0141448974609375,0.002349853515625
1690840815087950300,7.732950439453125,-0.98419189453125,0.0162506103515625,0.0019378662109375
1690840815097991200,7.7429912109375,-0.980255126953125,0.0182037353515625,0.001800537109375
1690840815108031200,7.75303125,-0.9822235107421875,0.0195770263671875,0.001190185546875
1690840815118071000,7.763071044921875,-0.9801483154296875,0.020843505859375,0.001708984375
1690840815128111000,7.773111083984375,-0.9792327880859375,0.022064208984375,0.0018463134765625
1690840815138152200,7.783152099609375,-0.980743408203125,0.0243377685546875,0.001495361328125
1690840815148192300,7.793192138671875,-0.979156494140625,0.0247039794921875,0.001220703125
1690840815158232300,7.803232421875,-0.97979736328125,0.024658203125,0.001861572265625
1690840815168273200,7.813273193359375,-0.979522705078125,0.0248870849609375,0.0015716552734375
1690840815178313200,7.823313232421875,-0.97906494140625,0.02471923828125,0.0010223388671875
1690840815188353000,7.83335302734375,-0.979827880859375,0.02203369140625,0.0005645751953125
1690840815198424000,7.843424072265625,-0.9800872802734375,0.0210418701171875,0.002227783203125
1690840815208464100,7.853464111328125,-0.98089599609375,0.0205841064453125,0.001556396484375
1690840815218504200,7.863504150390625,-0.9813232421875,0.0187530517578125,0.0010986328125
1690840815228545300,7.873545166015625,-0.98101806640625,0.01824951171875,0.002044677734375
1690840815238585300,7.88358544921875,-0.9825897216796875,0.01690673828125,0.0021820068359375
1690840815248625200,7.893625244140625,-0.9827728271484375,0.0160675048828125,0.001922607421875
1690840815258666000,7.903666015625,-0.9818572998046875,0.0169525146484375,0.0019989013671875
1690840815268706000,7.9137060546875,-0.983551025390625,0.0174713134765625,0.002532958984375
1690840815278746000,7.92374609375,-0.983154296875,0.0164337158203125,0.0018157958984375
1690840815288786200,7.9337861328125,-0.981658935546875,0.0172882080078125,0.0013275146484375
1690840815298827300,7.9438271484375,-0.9817962646484375,0.017974853515625,0.0011138916015625
1690840815308867300,7.953867431640625,-0.9802398681640625,0.0191497802734375,0.0015411376953125
1690840815318907100,7.9639072265625,-0.9818115234375,0.019287109375,0.0016326904296875
1690840815328948200,7.9739482421875,-0.98028564453125,0.0205841064453125,0.00164794921875
1690840815338988000,7.983988037109375,-0.980072021484375,0.022247314453125,0.0013885498046875
1690840815349059000,7.99405908203125,-0.9804840087890625,0.022247314453125,0.0018768310546875
1690840815359099100,8.00409912109375,-0.9804534912109375,0.022735595703125,0.001251220703125
1690840815369139200,8.01413916015625,-0.9814910888671875,0.0222015380859375,0.0015411376953125
1690840815379180300,8.02418017578125,-0.980743408203125,0.0221710205078125,0.0019683837890625
1690840815389220400,8.034220458984375,-0.980499267578125,0.02252197265625,0.0014801025390625
1690840815399260200,8.04426025390625,-0.98089599609375,0.02099609375,0.001373291015625
1690840815409300000,8.054300048828125,-0.980926513671875,0.0203857421875,0.001434326171875
1690840815419341000,8.064341064453124,-0.9812774658203125,0.019439697265625,0.0013427734375
1690840815429381000,8.074381103515625,-0.9816741943359375,0.018341064453125,0.0018157958984375
1690840815439421200,8.084421142578124,-0.981689453125,0.017578125,0.0019989013671875
1690840815449461200,8.094461181640625,-0.9824371337890625,0.0172119140625,0.00250244140625
1690840815459502300,8.10450244140625,-0.9819183349609375,0.017578125,0.0017547607421875
1690840815469542100,8.114542236328125,-0.9808349609375,0.0180816650390625,0.00177001953125
1690840815479582000,8.12458203125,-0.9817962646484375,0.01910400390625,0.0020599365234375
1690840815489623000,8.134623046875,-0.981353759765625,0.0183868408203125,0.0018157958984375
1690840815499693000,8.144693115234375,-0.9804840087890625,0.0191192626953125,0.00164794921875
1690840815509734100,8.154734130859374,-0.98040771484375,0.0200347900390625,0.001007080078125
1690840815519774200,8.164774169921875,-0.979461669921875,0.0208587646484375,0.001312255859375
1690840815529814300,8.174814208984374,-0.9808502197265625,0.0203704833984375,0.0005340576171875
1690840815539855400,8.18485546875,-0.981719970703125,0.0208282470703125,0.0013580322265625
1690840815549895200,8.194895263671874,-0.9804229736328125,0.0210723876953125,0.001861572265625
1690840815559935000,8.20493505859375,-0.981842041015625,0.0213165283203125,0.0016021728515625
1690840815569975000,8.21497509765625,-0.9817657470703125,0.0211334228515625,0.0014801025390625
1690840815580016000,8.22501611328125,-0.9811553955078125,0.0215911865234375,0.001373291015625
1690840815590056200,8.23505615234375,-0.9820098876953125,0.02093505859375,0.002044677734375
1690840815600096300,8.24509619140625,-0.9800262451171875,0.0209808349609375,0.0020599365234375
1690840815610137300,8.255137451171874,-0.9814453125,0.019195556640625,0.0015411376953125
1690840815620177200,8.26517724609375,-0.9816436767578125,0.0192413330078125,0.0019378662109375
1690840815630217000,8.275217041015624,-0.9815673828125,0.018646240234375,0.0009918212890625
1690840815640257000,8.285257080078125,-0.9829254150390625,0.0191650390625,0.001434326171875
1690840815650328000,8.295328125,-0.9823760986328125,0.0194091796875,0.0016632080078125
1690840815660368100,8.3053681640625,-0.9812469482421875,0.0192108154296875,0.001129150390625
1690840815670409200,8.3154091796875,-0.9822845458984375,0.0191192626953125,0.001708984375
1690840815680449300,8.32544921875,-0.9820404052734375,0.01910400390625,0.001678466796875
1690840815690489000,8.335489013671875,-0.9817962646484375,0.0188751220703125,0.002349853515625
1690840815700530200,8.3455302734375,-0.981597900390625,0.019073486328125,0.00140380859375
1690840815710570000,8.355570068359375,-0.981964111328125,0.0202178955078125,0.001983642578125
1690840815720610000,8.365610107421874,-0.982208251953125,0.02099609375,0.0016632080078125
1690840815730650000,8.375650146484375,-0.980804443359375,0.020538330078125,0.0018157958984375
1690840815740691200,8.385691162109374,-0.981231689453125,0.020263671875,0.0018157958984375
1690840815750731300,8.395731201171875,-0.9822845458984375,0.0214080810546875,0.0013275146484375
1690840815760771000,8.40577099609375,-0.9817962646484375,0.0201416015625,0.0013885498046875
1690840815770812200,8.415812255859375,-0.9814453125,0.020263671875,0.000762939453125
1690840815780852000,8.42585205078125,-0.9803009033203125,0.0201568603515625,0.001556396484375
1690840815790892000,8.43589208984375,-0.980224609375,0.020294189453125,0.001800537109375
1690840815800932000,8.44593212890625,-0.9819793701171875,0.020172119140625,0.000946044921875
1690840815811003100,8.456003173828124,-0.981170654296875,0.0198211669921875,0.00152587890625
1690840815821044200,8.466044189453125,-0.981109619140625,0.019561767578125,0.0026702880859375
1690840815831084300,8.476084228515624,-0.9820098876953125,0.0192718505859375,0.002532958984375
1690840815841124000,8.4861240234375,-0.9821319580078125,0.018402099609375,0.0014190673828125
1690840815851164200,8.4961640625,-0.9815673828125,0.01904296875,0.002044677734375
1690840815861200100,8.5062001953125,-0.9815216064453125,0.0190582275390625,0.0013427734375
1690840815871240200,8.516240234375,-0.98211669921875,0.018951416015625,0.00140380859375
1690840815881280300,8.5262802734375,-0.9818115234375,0.0198974609375,0.0006561279296875
1690840815891321000,8.536321044921875,-0.98193359375,0.0198211669921875,0.0020599365234375
1690840815901361200,8.546361083984374,-0.9815521240234375,0.01959228515625,0.0015411376953125
1690840815911401200,8.556401123046875,-0.981201171875,0.0197296142578125,0.0017242431640625
1690840815921441000,8.56644091796875,-0.9815673828125,0.0196075439453125,0.0013885498046875
1690840815931482400,8.576482421875,-0.981903076171875,0.019866943359375,0.001434326171875
1690840815941522200,8.586522216796874,-0.9810943603515625,0.0208892822265625,0.0015869140625
1690840815951562200,8.596562255859375,-0.9808197021484375,0.020660400390625,0.0017242431640625
1690840815961633300,8.60663330078125,-0.9809417724609375,0.0203399658203125,0.0013427734375
1690840815971673300,8.61667333984375,-0.98095703125,0.01995849609375,0.0014495849609375
1690840815981714200,8.626714111328125,-0.9803619384765625,0.0197601318359375,0.0013275146484375
1690840815991754200,8.636754150390624,-0.9814453125,0.02032470703125,0.0012969970703125
1690840816001794000,8.6467939453125,-0.9802398681640625,0.0201873779296875,0.001373291015625
1690840816011834000,8.656834228515624,-0.982086181640625,0.0192413330078125,0.001800537109375
1690840816021875200,8.666875244140625,-0.98162841796875,0.0200347900390625,0.001495361328125
1690840816031915300,8.676915283203124,-0.98095703125,0.019378662109375,0.0015411376953125
1690840816041955300,8.686955322265625,-0.9815673828125,0.0194854736328125,0.00128173828125
1690840816051996200,8.69699609375,-0.9813995361328125,0.019287109375,0.001861572265625
1690840816062036200,8.7070361328125,-0.981353759765625,0.019744873046875,0.0025634765625
1690840816072076000,8.717075927734374,-0.9813995361328125,0.019805908203125,0.002197265625
1690840816082116000,8.7271162109375,-0.981231689453125,0.019866943359375,0.0016021728515625
1690840816092157200,8.7371572265625,-0.9813232421875,0.0193328857421875,0.0012054443359375
1690840816102197200,8.747197265625,-0.9820404052734375,0.0208587646484375,0.0005645751953125
1690840816112268300,8.757268310546875,-0.9819183349609375,0.0208892822265625,0.0009918212890625
1690840816122308400,8.767308349609374,-0.9803314208984375,0.0205841064453125,0.0009307861328125
1690840816132348400,8.777348388671875,-0.9808502197265625,0.019989013671875,0.001129150390625
1690840816142389200,8.78738916015625,-0.9818267822265625,0.0206756591796875,0.0013427734375
1690840816152429000,8.797428955078125,-0.9817047119140625,0.0201416015625,0.001617431640625
1690840816162469000,8.80746923828125,-0.98138427734375,0.0193023681640625,0.0014495849609375
1690840816172509200,8.81750927734375,-0.980865478515625,0.0195770263671875,0.0016632080078125
1690840816182550300,8.82755029296875,-0.9814453125,0.019775390625,0.0012969970703125
1690840816192590300,8.83759033203125,-0.9821014404296875,0.0199432373046875,0.00152587890625
1690840816202630400,8.84763037109375,-0.9810333251953125,0.020477294921875,0.001556396484375
1690840816212671200,8.857671142578125,-0.981201171875,0.019927978515625,0.001922607421875
1690840816222711000,8.8677109375,-0.9814910888671875,0.020233154296875,0.0022735595703125
1690840816232751000,8.877751220703125,-0.9817047119140625,0.02001953125,0.0017242431640625
1690840816242791200,8.887791259765624,-0.980743408203125,0.0194549560546875,0.001434326171875
1690840816252832300,8.897832275390625,-0.980499267578125,0.01983642578125,0.001312255859375
1690840816262903300,8.9079033203125,-0.9811248779296875,0.0197906494140625,0.0016326904296875
1690840816272943400,8.917943359375,-0.98150634765625,0.019805908203125,0.001190185546875
1690840816282983400,8.9279833984375,-0.9811248779296875,0.0196533203125,0.001708984375
1690840816293023200,8.938023193359374,-0.981781005859375,0.0201873779296875,0.002838134765625
1690840816303064000,8.94806396484375,-0.98095703125,0.01971435546875,0.0019378662109375
1690840816313104100,8.958104248046874,-0.9810638427734375,0.020050048828125,0.0019683837890625
1690840816323144200,8.968144287109375,-0.98046875,0.020111083984375,0.0010986328125
1690840816333185300,8.978185302734374,-0.9806671142578125,0.019805908203125,0.00140380859375
1690840816343225300,8.988225341796875,-0.980926513671875,0.019927978515625,0.00103759765625
1690840816353265400,8.998265380859374,-0.9805145263671875,0.020477294921875,0.0018768310546875
1690840816363305200,9.00830517578125,-0.9812774658203125,0.019500732421875,0.001708984375
1690840816373346000,9.018345947265624,-0.9807891845703125,0.019744873046875,0.002532958984375
1690840816383386000,9.02838623046875,-0.980743408203125,0.020538330078125,0.0014190673828125
1690840816393426200,9.03842626953125,-0.9821319580078125,0.0206298828125,0.001312255859375
1690840816403467300,9.04846728515625,-0.981689453125,0.0198822021484375,0.00177001953125
1690840816413537300,9.058537353515625,-0.982086181640625,0.01953125,0.001800537109375
1690840816423578400,9.068578369140624,-0.981170654296875,0.0198974609375,0.00238037109375
1690840816433618400,9.078618408203125,-0.98162841796875,0.01953125,0.0018310546875
1690840816443658200,9.088658203125,-0.982269287109375,0.020477294921875,0.0015411376953125
1690840816453698000,9.098697998046875,-0.9812469482421875,0.0211639404296875,0.00091552734375
1690840816463739100,9.1087392578125,-0.98175048828125,0.02001953125,0.0020751953125
1690840816473779200,9.118779296875,-0.9817352294921875,0.0200653076171875,0.002471923828125
1690840816483819300,9.1288193359375,-0.980987548828125,0.0197296142578125,0.0026702880859375
1690840816493860400,9.1388603515625,-0.981201171875,0.019989013671875,0.0020751953125
1690840816503900400,9.148900390625,-0.9808502197265625,0.0206451416015625,0.001739501953125
1690840816513940000,9.15893994140625,-0.981231689453125,0.020263671875,0.0018310546875
1690840816523980000,9.16897998046875,-0.9809112548828125,0.02001953125,0.0018463134765625
1690840816534021000,9.179021240234375,-0.98089599609375,0.0196075439453125,0.00140380859375
1690840816544061200,9.189061279296874,-0.98065185546875,0.019287109375,0.0014190673828125
1690840816554101200,9.199101318359375,-0.9810028076171875,0.019805908203125,0.00030517578125
1690840816564172300,9.20917236328125,-0.98162841796875,0.0193634033203125,0.0008392333984375
1690840816574212400,9.21921240234375,-0.9807281494140625,0.019500732421875,0.0009613037109375
1690840816584253200,9.229253173828125,-0.980621337890625,0.0200958251953125,0.0011444091796875
1690840816594293000,9.23929296875,-0.9807586669921875,0.0203857421875,0.0013885498046875
1690840816604333000,9.2493330078125,-0.9813232421875,0.0199432373046875,0.00238037109375
1690840816614373000,9.259373046875,-0.9808502197265625,0.0194854736328125,0.002166748046875
1690840816624414200,9.269414306640625,-0.9808502197265625,0.01922607421875,0.00201416015625
1690840816634454300,9.279454345703124,-0.9813385009765625,0.0198822021484375,0.0021209716796875
1690840816644494300,9.289494384765625,-0.9821014404296875,0.0198974609375,0.0018157958984375
1690840816654535200,9.29953515625,-0.98211669921875,0.0196685791015625,0.001220703125
1690840816664575000,9.309574951171875,-0.9814605712890625,0.02069091796875,0.00091552734375
1690840816674615000,9.319614990234374,-0.9820709228515625,0.020416259765625,0.001373291015625
1690840816684655000,9.329655029296875,-0.9811248779296875,0.0204620361328125,0.002410888671875
1690840816694696200,9.3396962890625,-0.9808197021484375,0.01971435546875,0.00250244140625
1690840816704736300,9.349736328125,-0.9812164306640625,0.019134521484375,0.0021514892578125
1690840816714776300,9.3597763671875,-0.9817352294921875,0.0198516845703125,0.0016632080078125
1690840816724847000,9.36984716796875,-0.9813079833984375,0.0201263427734375,0.00164794921875
1690840816734887200,9.37988720703125,-0.9810943603515625,0.0202484130859375,0.00128173828125
1690840816744928000,9.389927978515624,-0.981964111328125,0.0195770263671875,0.0018768310546875
1690840816754968000,9.399968017578125,-0.981475830078125,0.019805908203125,0.0016326904296875
1690840816765008100,9.410008056640624,-0.9812164306640625,0.020782470703125,0.0013275146484375
1690840816775049200,9.42004931640625,-0.9803466796875,0.0198516845703125,0.002105712890625
1690840816785089300,9.43008935546875,-0.9805755615234375,0.0201263427734375,0.0018310546875
1690840816795129300,9.44012939453125,-0.9807586669921875,0.0204010009765625,0.0026092529296875
1690840816805169200,9.450169189453124,-0.9822540283203125,0.020050048828125,0.0016021728515625
1690840816815210000,9.4602099609375,-0.98101806640625,0.020263671875,0.0023193359375
1690840816825250000,9.47025,-0.9820556640625,0.020355224609375,0.0020294189453125
1690840816835290000,9.4802900390625,-0.9810333251953125,0.0199737548828125,0.0017242431640625
1690840816845331200,9.490331298828124,-0.9809722900390625,0.019744873046875,0.0010986328125
1690840816855371300,9.500371337890625,-0.98223876953125,0.020294189453125,0.0019073486328125
1690840816865387500,9.510387451171875,-0.981842041015625,0.0198211669921875,0.001251220703125
1690840816875458600,9.52045849609375,-0.9814300537109375,0.0209808349609375,0.00146484375
1690840816885498600,9.53049853515625,-0.98126220703125,0.0199737548828125,0.0010528564453125
1690840816895538700,9.54053857421875,-0.9821319580078125,0.020233154296875,0.0018463134765625
1690840816905579500,9.55057958984375,-0.98114013671875,0.0205078125,0.0021209716796875
1690840816915619600,9.56061962890625,-0.9810943603515625,0.020233154296875,0.0018463134765625
1690840816925659400,9.570659423828126,-0.98095703125,0.0192413330078125,0.0012664794921875
1690840816935700500,9.580700439453125,-0.981719970703125,0.02032470703125,0.001312255859375
1690840816945740500,9.590740478515626,-0.9817962646484375,0.02093505859375,0.0010833740234375
1690840816955780600,9.600780517578125,-0.9806976318359375,0.019622802734375,0.001434326171875
1690840816965820700,9.610820556640626,-0.981231689453125,0.0201873779296875,0.001495361328125
1690840816975861500,9.620861572265625,-0.9810028076171875,0.0195159912109375,0.001190185546875
1690840816985901600,9.630901611328126,-0.9805908203125,0.019775390625,0.001312255859375
1690840816995941600,9.640941650390625,-0.9811553955078125,0.0199737548828125,0.0012054443359375
1690840817005982700,9.650982666015626,-0.981689453125,0.019927978515625,0.0016937255859375
1690840817016022500,9.6610224609375,-0.9822235107421875,0.01934814453125,0.0015869140625
1690840817026093600,9.671093505859375,-0.98138427734375,0.01983642578125,0.001617431640625
1690840817036133600,9.681133544921876,-0.9803466796875,0.020111083984375,0.001800537109375
1690840817046173700,9.691173583984375,-0.9808807373046875,0.019927978515625,0.0023651123046875
1690840817056213500,9.701213623046876,-0.9806671142578125,0.0203399658203125,0.001556396484375
1690840817066254600,9.711254638671875,-0.9814605712890625,0.0200042724609375,0.0018768310546875
1690840817076294400,9.72129443359375,-0.9806671142578125,0.0200653076171875,0.001220703125
1690840817086334500,9.73133447265625,-0.980621337890625,0.0204315185546875,0.00079345703125
1690840817096375600,9.74137548828125,-0.981231689453125,0.02032470703125,0.0015411376953125
1690840817106415600,9.75141552734375,-0.9816436767578125,0.0191802978515625,0.0017547607421875
1690840817116455700,9.76145556640625,-0.9811248779296875,0.0200042724609375,0.0014801025390625
1690840817126495500,9.77149560546875,-0.9802093505859375,0.0201568603515625,0.00274658203125
1690840817136536600,9.78153662109375,-0.9810638427734375,0.0198822021484375,0.0022430419921875
1690840817146576600,9.79157666015625,-0.981353759765625,0.0195465087890625,0.0011749267578125
1690840817156616400,9.801616455078126,-0.981689453125,0.01885986328125,0.00146484375
1690840817166657500,9.811657470703125,-0.9813232421875,0.019439697265625,0.0012969970703125
1690840817176727600,9.8217275390625,-0.98101806640625,0.019775390625,0.0017852783203125
1690840817186768600,9.8317685546875,-0.9818878173828125,0.0208282470703125,0.0015716552734375
1690840817196808700,9.84180859375,-0.9814300537109375,0.0205230712890625,0.0016326904296875
1690840817206848500,9.8518486328125,-0.98187255859375,0.0200958251953125,0.001800537109375
1690840817216889600,9.8618896484375,-0.9816741943359375,0.019500732421875,0.00152587890625
1690840817226929400,9.871929443359376,-0.9818878173828125,0.0200958251953125,0.0006256103515625
1690840817236969500,9.881969482421875,-0.9808349609375,0.019989013671875,0.0016632080078125
1690840817247009500,9.892009521484376,-0.9813995361328125,0.0206146240234375,0.0017547607421875
1690840817257050600,9.902050537109375,-0.981719970703125,0.0196075439453125,0.00164794921875
1690840817267090400,9.91209033203125,-0.98211669921875,0.019927978515625,0.00164794921875
1690840817277130500,9.922130615234375,-0.9819488525390625,0.020477294921875,0.0012969970703125
1690840817287171600,9.932171630859376,-0.98162841796875,0.0201416015625,0.00177001953125
1690840817297211600,9.942211669921875,-0.98126220703125,0.0201416015625,0.00140380859375
1690840817307251500,9.95225146484375,-0.980682373046875,0.0194244384765625,0.0011749267578125
1690840817317291500,9.96229150390625,-0.9807586669921875,0.019744873046875,0.001617431640625
1690840817327362600,9.972362548828125,-0.9814910888671875,0.01995849609375,0.0017547607421875
1690840817337402600,9.982402587890626,-0.98077392578125,0.0201263427734375,0.0017242431640625
1690840817347443500,9.992443359375,-0.9811553955078125,0.0197296142578125,0.001983642578125
1690840817357483500,10.0024833984375,-0.9810028076171875,0.0194091796875,0.001739501953125
1690840817367523300,10.0125234375,-0.9813232421875,0.0198822021484375,0.001739501953125
1690840817377564400,10.022564453125,-0.98089599609375,0.020904541015625,0.0016632080078125
1690840817387604500,10.0326044921875,-0.9806976318359375,0.0203399658203125,0.00164794921875
1690840817397644500,10.04264453125,-0.9813690185546875,0.020416259765625,0.0009765625
1690840817407684600,10.0526845703125,-0.9811553955078125,0.0205230712890625,0.00146484375
1690840817417725400,10.062725341796876,-0.982208251953125,0.020355224609375,0.0012969970703125
1690840817427765500,10.072765625,-0.9824981689453125,0.0197296142578125,0.001434326171875
1690840817437805300,10.082805419921876,-0.981353759765625,0.0196075439453125,0.0016937255859375
1690840817447846400,10.092846435546875,-0.9810333251953125,0.019866943359375,0.0013275146484375
1690840817457886500,10.102886474609376,-0.9808502197265625,0.01971435546875,0.00177001953125
1690840817467926500,10.112926513671875,-0.9822235107421875,0.019805908203125,0.0016937255859375
1690840817477997600,10.12299755859375,-0.981689453125,0.0197601318359375,0.001678466796875
1690840817488037600,10.13303759765625,-0.9810791015625,0.0201416015625,0.00201416015625
1690840817498078500,10.143078369140625,-0.981048583984375,0.0205230712890625,0.0017547607421875
1690840817508118500,10.153118408203126,-0.9813385009765625,0.0203399658203125,0.001800537109375
1690840817518158300,10.163158447265625,-0.98114013671875,0.020660400390625,0.001800537109375
1690840817528198400,10.173198486328126,-0.9814910888671875,0.0198822021484375,0.0016632080078125
1690840817538239500,10.183239501953125,-0.980712890625,0.0199432373046875,0.0023040771484375
1690840817548279600,10.193279541015626,-0.981414794921875,0.019989013671875,0.0006866455078125
1690840817558319600,10.203319580078125,-0.98101806640625,0.0202789306640625,0.0011749267578125
1690840817568359700,10.213359619140626,-0.9811859130859375,0.0199432373046875,0.0016937255859375
1690840817578400500,10.223400390625,-0.98150634765625,0.0207061767578125,0.0012359619140625
1690840817588440300,10.2334404296875,-0.9814605712890625,0.020416259765625,0.0015106201171875
1690840817598480400,10.24348046875,-0.98193359375,0.020355224609375,0.001251220703125
1690840817608521500,10.253521484375,-0.9815826416015625,0.0197296142578125,0.0017242431640625
1690840817618561500,10.2635615234375,-0.9818572998046875,0.019561767578125,0.001556396484375
1690840817628601600,10.2736015625,-0.9802703857421875,0.0199737548828125,0.0021820068359375
1690840817638672600,10.283672607421876,-0.980926513671875,0.0196990966796875,0.00128173828125
1690840817648712700,10.293712646484375,-0.9812774658203125,0.0205078125,0.0019378662109375
1690840817658753500,10.30375341796875,-0.9820404052734375,0.0201568603515625,0.001861572265625
1690840817668793300,10.31379345703125,-0.9809112548828125,0.019683837890625,0.00140380859375
1690840817678833400,10.32383349609375,-0.980255126953125,0.0194854736328125,0.0012359619140625
1690840817688873500,10.33387353515625,-0.980621337890625,0.0195159912109375,0.0023040771484375
1690840817698914600,10.34391455078125,-0.9814453125,0.0190887451171875,0.002044677734375
1690840817708954600,10.35395458984375,-0.9822235107421875,0.0197601318359375,0.0022125244140625
1690840817718994700,10.36399462890625,-0.9818267822265625,0.0194244384765625,0.00244140625
1690840817729035500,10.374035400390625,-0.98095703125,0.02001953125,0.0013427734375
1690840817739075300,10.384075439453126,-0.9817047119140625,0.02001953125,0.0010223388671875
1690840817749115400,10.394115478515625,-0.9810638427734375,0.019775390625,0.0018310546875
1690840817759155500,10.404155517578126,-0.98150634765625,0.01959228515625,0.0016937255859375
1690840817769196500,10.414196533203125,-0.98162841796875,0.0200347900390625,0.001953125
1690840817779236600,10.424236572265626,-0.9817657470703125,0.0200653076171875,0.0016937255859375
1690840817789307600,10.4343076171875,-0.9792938232421875,0.0196990966796875,0.00201416015625
1690840817799347700,10.44434765625,-0.97259521484375,0.002593994140625,-0.0023193359375
1690840817809387500,10.454387451171876,-1.038543701171875,0.013519287109375,-0.0011444091796875
1690840817819428400,10.464428466796875,-0.9542083740234375,0.015899658203125,0.020172119140625
1690840817829468400,10.474468505859376,-0.995880126953125,-0.0013427734375,0.0157470703125
1690840817839508500,10.484508544921875,-0.996917724609375,0.0032806396484375,0.0174560546875
1690840817849548500,10.494548583984376,-0.9855804443359375,0.0299224853515625,-0.005096435546875
1690840817859609600,10.504609619140625,-0.968994140625,0.0638885498046875,-0.0016021728515625
1690840817869649700,10.514649658203124,-0.968505859375,0.02734375,-0.0065460205078125
1690840817879689500,10.524689453125,-0.9924774169921875,0.0249481201171875,-0.0003662109375
1690840817889730600,10.53473046875,-0.9709625244140625,0.0301055908203125,-0.0044708251953125
1690840817899770600,10.5447705078125,-0.9776458740234375,0.037322998046875,-0.0145416259765625
1690840817909810400,10.554810546875,-0.960906982421875,0.0485687255859375,-0.02557373046875
1690840817919850500,10.5648505859375,-0.9767608642578125,0.0389404296875,-0.0173797607421875
1690840817929891600,10.5748916015625,-0.9747772216796875,0.0298309326171875,-0.0074920654296875
1690840817939962600,10.584962646484374,-0.9739532470703125,0.03021240234375,-0.0044708251953125
1690840817950002700,10.595002685546875,-0.9868927001953125,0.0365142822265625,-0.0017852783203125
1690840817960042500,10.60504248046875,-0.9653778076171875,0.039794921875,0.0018463134765625
1690840817970082600,10.61508251953125,-0.9911346435546875,0.0259552001953125,0.0141754150390625
1690840817980123400,10.625123291015624,-0.983367919921875,0.018951416015625,0.0189971923828125
1690840817990163500,10.63516357421875,-0.9865264892578125,0.027374267578125,0.0147247314453125
1690840818000203500,10.64520361328125,-0.982086181640625,0.0226898193359375,0.01123046875
1690840818010244600,10.65524462890625,-0.988250732421875,0.0091400146484375,0.0118408203125
1690840818020284700,10.66528466796875,-0.98895263671875,0.0091552734375,0.0038909912109375
1690840818030324500,10.675324462890625,-0.97882080078125,0.0115203857421875,-0.006439208984375
1690840818040364500,10.685364501953124,-0.9853363037109375,0.0055999755859375,-0.0075531005859375
1690840818050405400,10.6954052734375,-0.9850921630859375,0.00189208984375,-0.00775146484375
1690840818060445400,10.705445556640624,-0.9847869873046875,0.0089263916015625,-0.009368896484375
1690840818070485500,10.715485595703125,-0.97772216796875,0.012054443359375,-0.007781982421875
1690840818080525600,10.725525634765624,-0.990478515625,0.0100555419921875,-0.000457763671875
1690840818090596600,10.7355966796875,-0.9817962646484375,0.01446533203125,0.0035400390625
1690840818100637700,10.7456376953125,-0.982391357421875,0.0223541259765625,0.005340576171875
1690840818110677500,10.755677490234374,-0.9850311279296875,0.02252197265625,0.0085601806640625
1690840818120717600,10.765717529296875,-0.98175048828125,0.0232086181640625,0.01104736328125
1690840818130757600,10.775757568359374,-0.9822235107421875,0.0285186767578125,0.0081329345703125
1690840818140798500,10.785798583984375,-0.9775848388671875,0.0308380126953125,0.0042877197265625
1690840818150838500,10.795838623046874,-0.9815521240234375,0.030731201171875,0.0030975341796875
1690840818160878600,10.805878662109375,-0.9775390625,0.03131103515625,0.0006561279296875
1690840818170919700,10.815919677734374,-0.975555419921875,0.033477783203125,-0.0043792724609375
1690840818180959500,10.82595947265625,-0.9763641357421875,0.0323028564453125,-0.006744384765625
1690840818190999600,10.83599951171875,-0.9771575927734375,0.0309295654296875,-0.006561279296875
1690840818201039600,10.84603955078125,-0.974578857421875,0.0300750732421875,-0.0070648193359375
1690840818211080400,10.85608056640625,-0.978485107421875,0.030426025390625,-0.0062255859375
1690840818221120500,10.86612060546875,-0.978912353515625,0.0283050537109375,-0.0031585693359375
1690840818231160600,10.87616064453125,-0.978759765625,0.025787353515625,-0.0005340576171875
1690840818241231600,10.886231689453124,-0.981719970703125,0.0258636474609375,0.0023345947265625
1690840818251271400,10.896271484375,-0.9798583984375,0.024200439453125,0.0048980712890625
1690840818261312500,10.9063125,-0.9835052490234375,0.021209716796875,0.006378173828125
1690840818271352600,10.9163525390625,-0.9831390380859375,0.0192413330078125,0.0064697265625
1690840818281392600,10.926392578125,-0.9838714599609375,0.0189971923828125,0.0061798095703125
1690840818291432700,10.9364326171875,-0.985260009765625,0.0159912109375,0.004608154296875
1690840818301473500,10.9464736328125,-0.9828948974609375,0.0142974853515625,0.001922607421875
1690840818311513600,10.956513671875,-0.983795166015625,0.0145721435546875,0.0004119873046875
1690840818321553400,10.966553466796874,-0.98431396484375,0.0147247314453125,-0.0009613037109375
1690840818331594500,10.976594482421875,-0.98199462890625,0.0150604248046875,-0.0012969970703125
1690840818341634600,10.986634521484374,-0.9824981689453125,0.0159759521484375,-0.001953125
1690840818351674600,10.996674560546875,-0.9833831787109375,0.0177154541015625,-0.001678466796875
1690840818361714700,11.006714599609374,-0.9814453125,0.019012451171875,0.000946044921875
1690840818371755500,11.016755615234375,-0.9823760986328125,0.019744873046875,0.0017852783203125
1690840818381795600,11.026795654296874,-0.9818115234375,0.02191162109375,0.0033111572265625
1690840818391866600,11.03686669921875,-0.9814300537109375,0.023956298828125,0.0033721923828125
1690840818401906400,11.046906494140625,-0.9801483154296875,0.0247650146484375,0.0033416748046875
1690840818411946500,11.056946533203124,-0.9796600341796875,0.0265045166015625,0.0031890869140625
1690840818421987600,11.066987548828125,-0.9821929931640625,0.0281829833984375,0.0016937255859375
1690840818432027600,11.077027587890624,-0.9799652099609375,0.027374267578125,0.0004730224609375
1690840818442067700,11.087067626953125,-0.979095458984375,0.0279083251953125,-0.000885009765625
1690840818452108500,11.097108642578124,-0.9801483154296875,0.027801513671875,-0.0016021728515625
1690840818462148600,11.107148681640625,-0.978790283203125,0.0274505615234375,-0.0019683837890625
1690840818472188400,11.1171884765625,-0.9787750244140625,0.0274200439453125,-0.0021209716796875
1690840818482228500,11.127228515625,-0.9797515869140625,0.026153564453125,-0.0010986328125
1690840818492269600,11.13726953125,-0.9797821044921875,0.0255279541015625,-0.00018310546875
1690840818502309600,11.1473095703125,-0.980926513671875,0.0249481201171875,0.00054931640625
1690840818512349700,11.157349609375,-0.9807891845703125,0.02349853515625,0.0010833740234375
1690840818522390500,11.167390625,-0.98138427734375,0.0227508544921875,0.001312255859375
1690840818532430600,11.1774306640625,-0.9818115234375,0.02203369140625,0.002288818359375
1690840818542501600,11.187501708984374,-0.98211669921875,0.0204620361328125,0.002838134765625
1690840818552541400,11.19754150390625,-0.983428955078125,0.0195770263671875,0.00250244140625
1690840818562581500,11.20758154296875,-0.98370361328125,0.01922607421875,0.001861572265625
1690840818572621600,11.21762158203125,-0.9817657470703125,0.017913818359375,0.001068115234375
1690840818582662700,11.22766259765625,-0.982696533203125,0.018096923828125,0.000885009765625
1690840818592702700,11.23770263671875,-0.9830169677734375,0.018890380859375,-0.0001373291015625
1690840818602742800,11.24774267578125,-0.9830169677734375,0.0194854736328125,0.00042724609375
1690840818612783600,11.25778369140625,-0.982696533203125,0.0197296142578125,-0.000030517578125
1690840818622823400,11.267823486328124,-0.982086181640625,0.0205078125,0.0001068115234375
1690840818632863500,11.277863525390625,-0.9817962646484375,0.02044677734375,0.00006103515625
1690840818642903600,11.287903564453124,-0.98126220703125,0.0214996337890625,0.00048828125
1690840818652944600,11.297944580078125,-0.9805755615234375,0.0232086181640625,0.0017242431640625
1690840818662984700,11.307984619140624,-0.9816741943359375,0.02447509765625,0.0015106201171875
1690840818673024800,11.318024658203125,-0.9808197021484375,0.0252227783203125,0.001373291015625
1690840818683065600,11.328065673828124,-0.9805908203125,0.0256500244140625,0.0012054443359375
1690840818693105400,11.33810546875,-0.98101806640625,0.0255889892578125,0.000457763671875
1690840818703176400,11.348176513671875,-0.98077392578125,0.025634765625,0.0004730224609375
1690840818713216500,11.358216552734374,-0.98028564453125,0.0259857177734375,-0.0004730224609375
1690840818723256600,11.368256591796875,-0.9801788330078125,0.02593994140625,-0.000335693359375
1690840818733296600,11.378296630859374,-0.9806976318359375,0.0248870849609375,-0.0007171630859375
1690840818743337700,11.388337646484375,-0.980377197265625,0.0250091552734375,-0.000885009765625
1690840818753377800,11.398377685546874,-0.979217529296875,0.0234375,-0.000396728515625
1690840818763417600,11.40841748046875,-0.981231689453125,0.023406982421875,0.0002288818359375
1690840818773458400,11.41845849609375,-0.981719970703125,0.023040771484375,0.00048828125
1690840818783498500,11.42849853515625,-0.9804534912109375,0.0230712890625,0.001983642578125
1690840818793538600,11.43853857421875,-0.981109619140625,0.0218963623046875,0.0020751953125
1690840818803578600,11.44857861328125,-0.98150634765625,0.021881103515625,0.0024261474609375
1690840818813619700,11.45861962890625,-0.9821319580078125,0.02056884765625,0.0017547607421875
1690840818823659800,11.46865966796875,-0.9824676513671875,0.020965576171875,0.001953125
1690840818833699600,11.478699462890624,-0.982421875,0.01983642578125,0.0025177001953125
1690840818843740400,11.488740478515625,-0.98223876953125,0.0198822021484375,0.001495361328125
1690840818853810400,11.498810546875,-0.9814605712890625,0.0206146240234375,0.0006103515625
1690840818863842300,11.50884228515625,-0.982269287109375,0.021240234375,0.0005035400390625
1690840818873882400,11.51888232421875,-0.9813232421875,0.0218658447265625,0.001129150390625
1690840818883922400,11.52892236328125,-0.9820404052734375,0.022003173828125,0.000640869140625
1690840818893963300,11.53896337890625,-0.982513427734375,0.021942138671875,0.00030517578125
1690840818904003300,11.54900341796875,-0.9817047119140625,0.0222015380859375,0.0007171630859375
1690840818914043100,11.559043212890625,-0.9809722900390625,0.0234222412109375,0.000885009765625
1690840818924083200,11.569083251953124,-0.9810943603515625,0.0240325927734375,0.0002899169921875
1690840818934124300,11.579124267578125,-0.981353759765625,0.024383544921875,0.0011444091796875
1690840818944164400,11.589164306640624,-0.98101806640625,0.0246734619140625,0.00115966796875
1690840818954204400,11.599204345703125,-0.9808197021484375,0.0250396728515625,0.0008087158203125
1690840818964245200,11.609245361328124,-0.9816131591796875,0.0245513916015625,0.000274658203125
1690840818974285300,11.619285400390625,-0.98089599609375,0.0237579345703125,0.000823974609375
1690840818984325000,11.6293251953125,-0.9810028076171875,0.023681640625,0.0001373291015625
1690840818994365200,11.639365234375,-0.980438232421875,0.02392578125,0.0004119873046875
1690840819004436200,11.649436279296875,-0.9806365966796875,0.023956298828125,0.0002288818359375
1690840819014476300,11.659476318359374,-0.98138427734375,0.02398681640625,0.0001220703125
1690840819024517400,11.669517333984375,-0.9808349609375,0.0235748291015625,-0.000030517578125
1690840819034557400,11.679557373046874,-0.9822998046875,0.023101806640625,-0.0003509521484375
1690840819044597500,11.689597412109375,-0.9821624755859375,0.02252197265625,0.000244140625
1690840819054638300,11.699638427734374,-0.98126220703125,0.0224151611328125,0.000396728515625
1690840819064678100,11.70967822265625,-0.9827117919921875,0.0211334228515625,0.001373291015625
1690840819074718200,11.71971826171875,-0.9815673828125,0.021697998046875,0.001556396484375
1690840819084758300,11.72975830078125,-0.9817657470703125,0.021759033203125,0.0018463134765625
1690840819094799400,11.73979931640625,-0.9814453125,0.0211639404296875,0.0012664794921875
1690840819104839400,11.74983935546875,-0.98101806640625,0.020965576171875,0.00079345703125
1690840819114879500,11.75987939453125,-0.9821319580078125,0.0214385986328125,0.0003509521484375
1690840819124920300,11.76992041015625,-0.9822998046875,0.0218048095703125,-0.0001373291015625
1690840819134960000,11.779960205078124,-0.9805908203125,0.0223846435546875,-0.000030517578125
1690840819145000200,11.790000244140625,-0.9806671142578125,0.0217437744140625,-0.0000762939453125
1690840819155071200,11.8000712890625,-0.9814605712890625,0.0222015380859375,0.0003509521484375
1690840819165111300,11.810111328125,-0.980621337890625,0.022735595703125,0.001251220703125
1690840819175152400,11.82015234375,-0.980987548828125,0.0236053466796875,0.0014801025390625
1690840819185192400,11.8301923828125,-0.980987548828125,0.0233306884765625,0.0019378662109375
1690840819195232500,11.840232421875,-0.98089599609375,0.023284912109375,0.001556396484375
1690840819205272300,11.850272216796874,-0.9809417724609375,0.023406982421875,0.0011444091796875
1690840819215313200,11.860313232421875,-0.9815673828125,0.02386474609375,0.000274658203125
1690840819225353200,11.870353271484374,-0.9810333251953125,0.02447509765625,0.00006103515625
1690840819235393300,11.880393310546875,-0.98077392578125,0.0237274169921875,-0.0003204345703125
1690840819245433300,11.890433349609374,-0.981201171875,0.0235595703125,-0.0002288818359375
1690840819255474400,11.900474365234375,-0.9804840087890625,0.0234222412109375,0.000030517578125
1690840819265514500,11.910514404296874,-0.9804534912109375,0.0235595703125,-0.0000457763671875
1690840819275554300,11.92055419921875,-0.9807891845703125,0.023345947265625,0.00006103515625
1690840819285595100,11.93059521484375,-0.9818572998046875,0.022430419921875,0.000396728515625
1690840819295635200,11.94063525390625,-0.9811248779296875,0.0223541259765625,0.000946044921875
1690840819305706200,11.950706298828125,-0.981781005859375,0.0221099853515625,0.0019683837890625
1690840819315746300,11.960746337890624,-0.98193359375,0.021881103515625,0.0016326904296875
1690840819325786400,11.970786376953125,-0.98284912109375,0.02203369140625,0.00103759765625
1690840819335827500,11.980827392578124,-0.9825439453125,0.0215606689453125,0.0003814697265625
1690840819345867500,11.990867431640625,-0.9817962646484375,0.021942138671875,0.0001678466796875
1690840819355907300,12.0009072265625,-0.9814453125,0.0222320556640625,0.0004425048828125
1690840819365947100,12.010947021484375,-0.9815216064453125,0.0220489501953125,-0.0002593994140625
1690840819375988200,12.02098828125,-0.9816741943359375,0.0223846435546875,-0.0004425048828125
1690840819386028300,12.0310283203125,-0.981475830078125,0.0217132568359375,0.0001068115234375
1690840819396068400,12.041068359375,-0.9822540283203125,0.0223388671875,0.00006103515625
1690840819406109400,12.051109375,-0.980438232421875,0.0226287841796875,0.0002899169921875
1690840819416149500,12.0611494140625,-0.9822540283203125,0.0225982666015625,0.0020904541015625
1690840819426189300,12.071189208984375,-0.981781005859375,0.0226593017578125,0.0015716552734375
1690840819436229000,12.08122900390625,-0.9811248779296875,0.0232391357421875,0.001708984375
1690840819446270200,12.091270263671875,-0.9812774658203125,0.0238037109375,0.0011444091796875
1690840819456340200,12.10134033203125,-0.9806365966796875,0.0241546630859375,0.00054931640625
1690840819466381300,12.11138134765625,-0.9820098876953125,0.0231475830078125,0.00054931640625
1690840819476421400,12.12142138671875,-0.9812164306640625,0.02276611328125,0.0003662109375
1690840819486461200,12.131461181640624,-0.9807891845703125,0.0237579345703125,-0.0004425048828125
1690840819496502300,12.141502197265625,-0.980743408203125,0.02362060546875,-0.00042724609375
1690840819506542000,12.1515419921875,-0.979888916015625,0.0220794677734375,-0.000457763671875
1690840819516582100,12.16158203125,-0.9807586669921875,0.0228729248046875,0.0010833740234375
1690840819526622200,12.171622314453124,-0.9819793701171875,0.0224761962890625,0.000518798828125
1690840819536663300,12.181663330078125,-0.9820098876953125,0.023040771484375,0.0009307861328125
1690840819546703400,12.191703369140624,-0.9810333251953125,0.0235595703125,0.001312255859375
1690840819556743400,12.201743408203125,-0.98126220703125,0.0227508544921875,0.0009918212890625
1690840819566784300,12.2117841796875,-0.9819793701171875,0.0224761962890625,0.001220703125
1690840819576824000,12.221823974609375,-0.9810638427734375,0.0226593017578125,0.0003509521484375
1690840819586864000,12.231864013671874,-0.9808349609375,0.02294921875,0.0005035400390625
1690840819596904200,12.241904296875,-0.9810028076171875,0.0229644775390625,-0.0004425048828125
1690840819606945300,12.2519453125,-0.9818572998046875,0.0224761962890625,0.000152587890625
1690840819617016300,12.262016357421874,-0.9820404052734375,0.022186279296875,-0.0001678466796875
1690840819627056400,12.272056396484375,-0.981964111328125,0.023284912109375,0.0003509521484375
1690840819637096200,12.28209619140625,-0.9827117919921875,0.0224609375,0.00030517578125
1690840819647136300,12.29213623046875,-0.98236083984375,0.0233154296875,0.0001220703125
1690840819657177000,12.302177001953124,-0.9811553955078125,0.02325439453125,0.0010528564453125
1690840819667217200,12.312217041015625,-0.981597900390625,0.0239105224609375,0.0010986328125
1690840819677257200,12.32225732421875,-0.98187255859375,0.02325439453125,0.001861572265625
1690840819687297300,12.33229736328125,-0.98004150390625,0.0229949951171875,0.0013580322265625
1690840819697338400,12.34233837890625,-0.9813690185546875,0.0230255126953125,0.0016632080078125
1690840819707378400,12.35237841796875,-0.98187255859375,0.0235443115234375,0.0006866455078125
1690840819717418200,12.362418212890624,-0.9808807373046875,0.0234222412109375,0.00048828125
1690840819727459000,12.372458984375,-0.9814910888671875,0.02288818359375,0.0000762939453125
1690840819737499100,12.3824990234375,-0.9807281494140625,0.0237884521484375,0.000396728515625
1690840819747539200,12.392539306640625,-0.980499267578125,0.022918701171875,0.0005035400390625
1690840819757579300,12.402579345703124,-0.980926513671875,0.022796630859375,0.0003814697265625
1690840819767650300,12.412650390625,-0.9814910888671875,0.02252197265625,-0.0003814697265625
1690840819777691400,12.42269140625,-0.981536865234375,0.023406982421875,0.0012969970703125
1690840819787731200,12.432731201171874,-0.9819488525390625,0.0238800048828125,0.0006256103515625
1690840819797771300,12.442771240234375,-0.981536865234375,0.0229339599609375,0.0003814697265625
1690840819807811300,12.452811279296874,-0.9820098876953125,0.0224761962890625,0.000274658203125
1690840819817852200,12.46285205078125,-0.9815216064453125,0.0223388671875,0.0008392333984375
1690840819827892200,12.472892333984374,-0.9811248779296875,0.0225677490234375,0.0009002685546875
1690840819837932300,12.482932373046875,-0.9809417724609375,0.0227813720703125,0.0004730224609375
1690840819847973400,12.492973388671874,-0.9817352294921875,0.0228729248046875,0.0009765625
1690840819858013400,12.503013427734375,-0.982452392578125,0.022491455078125,0.000732421875
1690840819868038000,12.513037841796875,-0.98187255859375,0.0223541259765625,-0.000030517578125
1690840819878078000,12.523077880859375,-0.9822235107421875,0.02264404296875,0.000030517578125
1690840819888119000,12.533119140625,-0.9818267822265625,0.02301025390625,0.0004730224609375
1690840819898158800,12.543158935546876,-0.9817657470703125,0.0233001708984375,0.0010528564453125
1690840819908199000,12.553198974609375,-0.98211669921875,0.0228424072265625,-0.0000762939453125
1690840819918270000,12.56327001953125,-0.981292724609375,0.0226898193359375,0.000640869140625
1690840819928310000,12.57331005859375,-0.982208251953125,0.02288818359375,0.0011138916015625
1690840819938350800,12.583350830078125,-0.981292724609375,0.022491455078125,0.0006561279296875
1690840819948391000,12.593390869140626,-0.9808197021484375,0.02374267578125,0.00054931640625
1690840819958431000,12.603430908203125,-0.9811859130859375,0.0238189697265625,0.0005950927734375
1690840819968470800,12.613470703125,-0.981414794921875,0.0232086181640625,0.0001373291015625
1690840819978512000,12.623511962890625,-0.9810638427734375,0.0235595703125,0.0003204345703125
1690840819988552000,12.633552001953126,-0.981475830078125,0.0228729248046875,0.00079345703125
1690840819998592000,12.643592041015625,-0.981109619140625,0.022308349609375,0.0010986328125
1690840820008632800,12.6536328125,-0.9815826416015625,0.022735595703125,0.0005645751953125
1690840820018673000,12.6636728515625,-0.982269287109375,0.022674560546875,0.0002899169921875
1690840820028713000,12.673712890625,-0.9815521240234375,0.022796630859375,0.00067138671875
1690840820038752800,12.683752685546875,-0.98101806640625,0.022247314453125,0.0003204345703125
1690840820048793900,12.6937939453125,-0.981719970703125,0.022430419921875,-0.00006103515625
1690840820058834000,12.703833984375,-0.9812774658203125,0.0224761962890625,0.0009918212890625
1690840820068905000,12.713905029296875,-0.9810943603515625,0.0225067138671875,0.0005035400390625
1690840820078945000,12.723945068359376,-0.9815216064453125,0.0226287841796875,0.0013275146484375
1690840820088985000,12.733985107421875,-0.981842041015625,0.0225677490234375,0.0001220703125
1690840820099026000,12.74402587890625,-0.9819488525390625,0.023284912109375,0.00091552734375
1690840820109066000,12.75406591796875,-0.9823455810546875,0.0230255126953125,0.00067138671875
1690840820119105800,12.764105712890625,-0.9813690185546875,0.022186279296875,0.001007080078125
1690840820129147000,12.77414697265625,-0.9816741943359375,0.0230712890625,0.0008544921875
1690840820139187000,12.78418701171875,-0.981353759765625,0.022857666015625,0.00048828125
1690840820149227000,12.79422705078125,-0.9810943603515625,0.022705078125,0.0011749267578125
1690840820159267000,12.80426708984375,-0.9808349609375,0.023284912109375,0.00030517578125
1690840820169308000,12.814307861328125,-0.98138427734375,0.023223876953125,0.0008544921875
1690840820179348000,12.824347900390626,-0.981842041015625,0.0228424072265625,0.000732421875
1690840820189387800,12.8343876953125,-0.9822845458984375,0.0235137939453125,0.000274658203125
1690840820199427800,12.844427734375,-0.9807891845703125,0.022705078125,0.000152587890625
1690840820209469000,12.854468994140625,-0.9812469482421875,0.02301025390625,-0.0001068115234375
1690840820219540000,12.8645400390625,-0.981353759765625,0.023101806640625,0.0001983642578125
1690840820229580000,12.874580078125,-0.9817962646484375,0.0233917236328125,0.000823974609375
1690840820239620000,12.8846201171875,-0.9814910888671875,0.022705078125,0.0012359619140625
1690840820249660000,12.894659912109375,-0.9819793701171875,0.022003173828125,0.0013885498046875
1690840820259701000,12.904700927734375,-0.9817047119140625,0.0225677490234375,0.001312255859375
1690840820269740800,12.91474072265625,-0.9810028076171875,0.0231475830078125,0.000640869140625
1690840820279780900,12.92478076171875,-0.9815673828125,0.0225830078125,-0.00048828125
1690840820289822000,12.934822021484376,-0.981597900390625,0.0229339599609375,0.0008544921875
1690840820299862000,12.944862060546875,-0.980926513671875,0.02215576171875,0.0008392333984375
1690840820309902000,12.954902099609376,-0.98114013671875,0.0217132568359375,0.0006103515625
1690840820319942000,12.96494189453125,-0.980712890625,0.0220947265625,0.00091552734375
1690840820329983000,12.97498291015625,-0.98126220703125,0.023101806640625,0.00030517578125
1690840820340022800,12.985022705078125,-0.981414794921875,0.0231170654296875,0.001007080078125
1690840820350062800,12.995062744140625,-0.980926513671875,0.02294921875,0.0007476806640625
1690840820360104000,13.00510400390625,-0.9809722900390625,0.023223876953125,0.001007080078125
1690840820370174000,13.015174072265625,-0.98089599609375,0.0229644775390625,0.00103759765625
1690840820380215000,13.025215087890626,-0.9813385009765625,0.023162841796875,0.0006256103515625
1690840820390254800,13.0352548828125,-0.981597900390625,0.02392578125,0.000762939453125
1690840820400295000,13.045294921875,-0.98138427734375,0.022613525390625,0.0010223388671875
1690840820410334700,13.055334716796875,-0.9813690185546875,0.02252197265625,0.001068115234375
1690840820420375800,13.065375732421876,-0.98077392578125,0.022796630859375,0.0009765625
