time,seconds_elapsed,z,y,x
1690840807387566800,0.03256689453125,0.2722965997010469,0.18570687866974622,-0.055502152657182884
1690840807397607000,0.04260693359375,0.24892449194192884,0.13173192644668744,-0.07349628913842607
1690840807407647000,0.05264697265625,0.22252865244746206,0.05825365245556458,-0.07898209557179361
1690840807417687800,0.062687744140625,0.18528993189930915,-0.023032116948720066,-0.051465042628208175
1690840807427727600,0.0727275390625,0.1283633450627327,-0.11249028782211243,-0.01817521496945992
1690840807437767700,0.082767578125,0.0773328305274248,-0.20151551063833756,0.017588674652623013
1690840807447808800,0.092808837890625,0.05194762938022613,-0.27607222751593213,0.04382624571230262
1690840807457878800,0.102878662109375,0.053557402664422986,-0.3107489338226616,0.04048126896622125
1690840807467920000,0.112919921875,0.06331365752518177,-0.31493615637943145,0.00904501045201905
1690840807477960000,0.1229599609375,0.09079612321257591,-0.28475564724709834,-0.026957930356636642
1690840807487999700,0.132999755859375,0.12435177133381366,-0.23542030099080874,-0.05993230342462193
1690840807498039800,0.143039794921875,0.1447065770983696,-0.15726897542104123,-0.07037737623318098
1690840807508080600,0.15308056640625,0.17688041547238825,-0.07230040758447721,-0.050790842294227326
1690840807518120700,0.16312060546875,0.20788521006703375,-0.002245714833866805,-0.024725951787177472
1690840807528160800,0.173160888671875,0.22144144173264502,0.04764582226676866,-0.0027281143562169746
1690840807538201900,0.183201904296875,0.23117899189293384,0.09771510882079601,0.0047922575115226206
1690840807548242000,0.193241943359375,0.24460136804580687,0.12853592515066264,0.006710562455351464
1690840807558282000,0.203281982421875,0.25676643761396406,0.1514692579000257,-0.0019928634508047252
1690840807568321800,0.21332177734375,0.26392098554372784,0.14636451863953842,-0.022009596367413176
1690840807578362600,0.223362548828125,0.26096272026002404,0.13776578151714056,-0.04480117342537269
1690840807588402700,0.233402587890625,0.24876433294415473,0.10597840344375,-0.054447547304024915
1690840807598442800,0.24344287109375,0.24017653734087943,0.07621990084946155,-0.06328243126985617
1690840807608513800,0.253513671875,0.215415605571866,0.02510709659187123,-0.06066968235503882
1690840807618553900,0.263553955078125,0.18688333857059478,-0.026300598959065974,-0.03704309294477571
1690840807628595000,0.273594970703125,0.1550105289697647,-0.08361996623920276,-0.019569518872071055
1690840807638634800,0.283634765625,0.11006196469664573,-0.14681882001198826,0.005470828059944324
1690840807648674800,0.2936748046875,0.09782382989227771,-0.18429443632224574,0.013903401135466993
1690840807658715000,0.30371484375,0.0979465794891119,-0.2028850271595642,0.010257655911101027
1690840807668755700,0.313755615234375,0.12180442493855953,-0.20497518610553814,-0.00226515931985341
1690840807678795800,0.323795654296875,0.1281108316063881,-0.18515969311576336,-0.02277546160679776
1690840807688835800,0.3338359375,0.14575871649980543,-0.14716573375351727,-0.04218432372417301
1690840807698877000,0.343876953125,0.17342004588544369,-0.10057986886845902,-0.049913543436466715
1690840807708916700,0.353916748046875,0.18417875578701495,-0.05245996281653642,-0.038896666655899026
1690840807718956800,0.363956787109375,0.19541034389734266,-0.007419409411028027,-0.026936791670485398
1690840807728996900,0.373996826171875,0.20982582274079323,0.03109994379850104,-0.018242617649864405
1690840807739037700,0.38403759765625,0.21755495568811892,0.06412354913596063,-0.011159098262852057
1690840807749077800,0.394077880859375,0.22668518760502337,0.07712256704391911,-0.016006369330664166
1690840807759148800,0.404148681640625,0.22389000392854214,0.07771518090851605,-0.022193638564273713
1690840807769188900,0.41418896484375,0.2221826154887676,0.07379537711627782,-0.031568702954566104
1690840807779228700,0.424228759765625,0.2264876192063093,0.058506512971781194,-0.04491295410362072
1690840807789269800,0.434269775390625,0.20686521936953067,0.04059314554259181,-0.045025396935571914
1690840807799309800,0.444309814453125,0.20609598856270311,0.0023514036980457603,-0.039718435934139415
1690840807809350000,0.454349853515625,0.17493337305784223,-0.039777865370642394,-0.037547658633161334
1690840807819390700,0.464390625,0.16544424470067023,-0.07102372044585645,-0.02428321298835799
1690840807829430800,0.4744306640625,0.16130699876546858,-0.09649497417500243,-0.011009200364188291
1690840807839470800,0.484470947265625,0.14052023132443428,-0.11538195414301007,-0.005602459649555385
1690840807849502200,0.494502197265625,0.14080021730959413,-0.12914711585156619,-0.0012508129118476061
1690840807859543000,0.50454296875,0.14239537754654882,-0.12531036896659062,-0.013332122319843619
1690840807869583000,0.5145830078125,0.1448597218334675,-0.11379572613118216,-0.016239899525325743
1690840807879623200,0.524623046875,0.1622737979710102,-0.0953913785809651,-0.026150673660938626
1690840807889664300,0.534664306640625,0.1708575019210577,-0.06375765669932588,-0.029184246370289473
1690840807899704300,0.544704345703125,0.18858020561635494,-0.04064293950106948,-0.03168552056753542
1690840807909775400,0.554775390625,0.20467326228320598,-0.009727869016490876,-0.03432913497807458
1690840807919815200,0.564815185546875,0.20178689319193363,0.016755776625592262,-0.01977063550131861
1690840807929855200,0.574855224609375,0.2215250283628702,0.016480375484004616,-0.012948835790413431
1690840807939895000,0.58489501953125,0.21525310848653315,0.029499413266684857,-0.012998771312786265
1690840807949936000,0.59493603515625,0.20421791973114012,0.027012345691304653,-0.02257054101868998
1690840807959976200,0.60497607421875,0.19813947660028933,0.02106202245214954,-0.021795149899134413
1690840807970016300,0.615016357421875,0.20015198546648025,0.003332176630012691,-0.012980153377284295
1690840807980057300,0.625057373046875,0.19618249731361864,-0.016925251440983266,-0.02554376640950795
1690840807990097200,0.63509716796875,0.1901110684454441,-0.032636268253996965,-0.02196709066624753
1690840808000137200,0.64513720703125,0.17145546781420706,-0.049446441947948186,-0.0352948290719185
1690840808010177000,0.655177001953125,0.15262918679118156,-0.0631808979909867,-0.02789537103695329
1690840808020218000,0.665218017578125,0.18061960200071334,-0.0805516099108383,-0.02353473270861432
1690840808030258200,0.675258056640625,0.15831015503704546,-0.0911735051576048,-0.020719469791906885
1690840808040298200,0.68529833984375,0.16381518219411373,-0.0874436709795147,-0.0180358521645423
1690840808050339300,0.69533935546875,0.1652677190899849,-0.08608489504801109,-0.012243587297620252
1690840808060409000,0.7054091796875,0.17179916668534279,-0.061818468797672534,-0.015021212484524584
1690840808070450200,0.7154501953125,0.17398995472788809,-0.05640280042449012,-0.019769365992839447
1690840808080490200,0.725490234375,0.17783377067446707,-0.03747970796348527,-0.025464426696137524
1690840808090530000,0.735530029296875,0.19410978269279003,-0.02514421373186633,-0.024532420242764055
1690840808100571100,0.745571044921875,0.19139701660275457,-0.005935454463586211,-0.020715200042165816
1690840808110611200,0.755611083984375,0.2026192523628473,-0.001819452245812863,-0.029079626085190102
1690840808120651300,0.7656513671875,0.19530279186964034,-0.0014225253500975668,-0.021078567161574028
1690840808130691000,0.775691162109375,0.1963759740591049,-0.008313015516195446,-0.02368915151876863
1690840808140732200,0.785732177734375,0.20105039561092852,-0.012360482542403042,-0.019874958958895877
1690840808150772000,0.79577197265625,0.17026187411546706,-0.02378565699607134,-0.022623307818965984
1690840808160812000,0.80581201171875,0.1833142479121685,-0.032206352404132485,-0.008729674592264928
1690840808170852000,0.81585205078125,0.17705343395173548,-0.03718156526712701,-0.016826873667002654
1690840808180893200,0.82589306640625,0.17467676794826983,-0.042755894800741226,-0.025367012469959444
1690840808190933200,0.835933349609375,0.170944595682621,-0.05824965213388204,-0.010636293664877302
1690840808200973300,0.845973388671875,0.16211539253890514,-0.06406683224635198,-0.014731321593280881
1690840808211044000,0.856044189453125,0.17048516147732734,-0.06729019647333771,-0.02251805277962703
1690840808221084200,0.866084228515625,0.18423662345409392,-0.06395882356092333,-0.035821775555470954
1690840808231125000,0.876125,0.1843634647041559,-0.05933660712037235,-0.03151919669045601
1690840808241165000,0.8861650390625,0.18074702777266502,-0.051483719929214564,-0.030342700256989336
1690840808251205000,0.896205078125,0.19374153390228746,-0.03683262396529317,-0.025660396792809476
1690840808261246200,0.90624609375,0.20374621056616304,-0.03298654299639165,-0.01193800108032301
1690840808271286300,0.916286376953125,0.1627314786106348,-0.020307569089345633,-0.016542951292241922
1690840808281326000,0.926326171875,0.18442717759013175,-0.020439104780834168,-0.014589593301340936
1690840808291366100,0.9363662109375,0.18473755871355532,-0.027179993875790384,-0.014433133231149985
1690840808301407000,0.946406982421875,0.22711013501882552,-0.0361088214690797,-0.018575808826717548
1690840808311447000,0.956447021484375,0.17073416780233383,-0.04893852895842865,-0.029743017330789004
1690840808321487000,0.966487060546875,0.2001011320620775,-0.05075361555637792,-0.03736821497960482
1690840808331528200,0.976528076171875,0.13264438338279724,-0.05431914428453892,-0.03926148594687692
1690840808341568300,0.986568359375,0.15225509278178215,-0.0407871885436587,-0.04337093969285488
1690840808351608000,0.996608154296875,0.19623451976180076,-0.040272791014425456,-0.035397485728794705
1690840808361679000,1.00667919921875,0.13529402110874653,-0.029055121831595896,-0.012613443523319437
1690840808371719200,1.01671923828125,0.16995850725471973,-0.02517055374952033,0.008245398206659591
1690840808381759200,1.02675927734375,0.170661102566123,-0.019911427644919603,0.027155654018977654
1690840808391800000,1.036800048828125,0.1969733554303646,-0.01889532767124474,0.021874169952096418
1690840808401840000,1.046840087890625,0.17557634713649747,-0.029134708140138535,0.017279777666809968
1690840808411880200,1.056880126953125,0.20343992109596729,-0.03465527992621064,-0.018032564228912813
1690840808421921300,1.06692138671875,0.19091537056565283,-0.03925020650103688,-0.060470990578318014
1690840808431961000,1.076961181640625,0.2178957319498062,-0.0395896127895452,-0.08952552788802422
1690840808442001200,1.087001220703125,0.18935002094507217,-0.040039000524859876,-0.10475028642090037
1690840808452041200,1.097041259765625,0.177841369459033,-0.0369509896479547,-0.08415425577899441
1690840808462082000,1.10708203125,0.1977308957993984,-0.02735993528626859,-0.050231002754648216
1690840808472122000,1.1171220703125,0.11824234854280948,-0.02445672465804964,0.004831941067939624
1690840808482162200,1.127162109375,0.1753659192562103,-0.03182003823397681,0.045890069207199846
1690840808492203300,1.137203369140625,0.16770459084808825,-0.03161536424104124,0.053895027987798674
1690840808502243000,1.1472431640625,0.16484744785130023,-0.04111784527013078,0.043244518567901104
1690840808512314000,1.157314208984375,0.1904378161817789,-0.049117538787145164,0.01719622756920289
1690840808522354200,1.167354248046875,0.2046720932394266,-0.04583332948470488,-0.031421869229245926
1690840808532394200,1.177394287109375,0.2041015998750925,-0.04954022117862478,-0.07093035220713355
1690840808542435000,1.18743505859375,0.2020312233418226,-0.041874527122639116,-0.08292102418961003
1690840808552475100,1.19747509765625,0.18857552944123743,-0.035264643996208905,-0.06903589392977301
1690840808562515200,1.20751513671875,0.18153496327996252,-0.03203203701684251,-0.050414780090027485
1690840808572555000,1.217554931640625,0.17163608507812023,-0.020902758503518998,-0.025141852811421266
1690840808582596000,1.22759619140625,0.15350129345059393,-0.0206597435278818,0.0010336995624471456
1690840808592636200,1.23763623046875,0.18130875330865381,-0.025941739051416515,0.020264643263071775
1690840808602676200,1.24767626953125,0.16274200000464914,-0.03578837560936808,0.02397818846006412
1690840808612717000,1.257717041015625,0.19042963287532327,-0.04233755979081615,0.005789684750768355
1690840808622757000,1.267757080078125,0.207207749196887,-0.042957901912555094,-0.025547264407691544
1690840808632797200,1.277797119140625,0.19152561141848562,-0.046601208584662525,-0.039272244802908966
1690840808642837000,1.2878369140625,0.2038274591088295,-0.0511065937125124,-0.05881468843838665
1690840808652878000,1.297878173828125,0.18020459145903586,-0.044533882525004446,-0.057030640866095196
1690840808662918100,1.307918212890625,0.17242869676053524,-0.037879320006631315,-0.05238971515849698
1690840808672989200,1.3179892578125,0.1637333491295576,-0.03625634018098935,-0.037587716648913916
1690840808683029200,1.328029296875,0.15966566129922866,-0.03642373263714835,-0.02033447536258027
1690840808693069300,1.3380693359375,0.1716062744617462,-0.03503474423047155,-0.00463308032786008
1690840808703110100,1.348110107421875,0.17158230906426905,-0.03234263733597472,-0.0016144037935417145
1690840808713150200,1.358150146484375,0.17456220165789127,-0.032481388219539074,-0.004873003730690106
1690840808723190000,1.36818994140625,0.19731120908260344,-0.034032617983222005,-0.015067293815687298
1690840808733230000,1.37822998046875,0.1944850457459688,-0.044089737220387906,-0.024423676338396035
1690840808743271200,1.388271240234375,0.19256489133834837,-0.04603948304867372,-0.033785858414229
1690840808753311200,1.398311279296875,0.20905016219317912,-0.037469972020760176,-0.032986775891832076
1690840808763351300,1.408351318359375,0.16522271090447901,-0.034036070315632966,-0.0339804220051039
1690840808773392100,1.41839208984375,0.17555121269524096,-0.029771983130369335,-0.020879295429540798
1690840808783432200,1.42843212890625,0.1761421643257141,-0.028774131199438124,-0.0030819464622996746
1690840808793472000,1.438471923828125,0.1626578288525343,-0.03711666507106274,-0.009453509054519235
1690840808803512000,1.448511962890625,0.17386252895593643,-0.0401256193623878,-0.015588271782756782
1690840808813553200,1.45855322265625,0.17624153304696083,-0.04018876599278301,-0.017406271856999955
1690840808823623200,1.468623046875,0.18761282188892364,-0.04659828597521409,-0.02979210346979089
1690840808833664300,1.478664306640625,0.2045283008545637,-0.044729313765559345,-0.029788852066779507
1690840808843704300,1.488704345703125,0.19346914670169352,-0.03277025163089856,-0.02628682616204023
1690840808853745400,1.498745361328125,0.19034370815753934,-0.043291444715857504,-0.02764004456901457
1690840808863786500,1.508786376953125,0.18676409610509873,-0.04525127354674041,-0.022939735090686007
1690840808873826600,1.51882666015625,0.17000877613723278,-0.03171069610798731,-0.009169815008621662
1690840808883866400,1.528866455078125,0.17778350179195404,-0.027562837447226048,-0.017503339023306034
1690840808893906400,1.538906494140625,0.17537644065022467,-0.02763382032420486,-0.017632897386839614
1690840808903947300,1.548947265625,0.17117022113204,-0.03236945227766409,-0.02217583347952459
1690840808913987300,1.5589873046875,0.180129772657156,-0.037921204653289166,-0.03031644243772607
1690840808924027400,1.56902734375,0.1804214490801096,-0.04381375155691057,-0.03558178365398198
1690840808934068500,1.579068359375,0.19015140045583248,-0.036722898246813566,-0.04172319531871471
1690840808944108500,1.589108642578125,0.19315701201260088,-0.03621030908217653,-0.03233100169710815
1690840808954148400,1.5991484375,0.19466975466310976,-0.033270858096797015,-0.022483543155249208
1690840808964188400,1.6091884765625,0.19513737217485905,-0.043130646397266534,-0.009535104657057673
1690840808974259500,1.619259521484375,0.1771925501614809,-0.04302283864123747,-0.015587294535222462
1690840808984300300,1.62930029296875,0.16642331886589526,-0.03701397188156843,-0.009857185351429506
1690840808994340400,1.63934033203125,0.17419745999872682,-0.03843625976964831,-0.01110797999696806
1690840809004380400,1.64938037109375,0.17388240270018576,-0.03311097309365869,-0.01933444060771726
1690840809014420500,1.65942041015625,0.1798492021501064,-0.032393399408832194,-0.03029886111526284
1690840809024461600,1.669461669921875,0.18417524865567683,-0.029128022671025246,-0.039048541882517745
1690840809034501400,1.67950146484375,0.18491817597746849,-0.037181583533436056,-0.038725273878057485
1690840809044541400,1.68954150390625,0.1895622023910284,-0.044503925778158,-0.029034576800488866
1690840809054582300,1.699582275390625,0.20274258648157117,-0.036381172137055544,-0.024467798607912844
1690840809064622300,1.709622314453125,0.18300562035441398,-0.045648200442455704,-0.01574084569569677
1690840809074662400,1.719662353515625,0.18660861328244208,-0.037424105318728834,-0.017924642308452164
1690840809084702500,1.729702392578125,0.17164777551591395,-0.036103451174218204,-0.018339990776847115
1690840809094743600,1.73974365234375,0.16356325325965881,-0.03395624654507264,-0.0019052125668153166
1690840809104783400,1.749783447265625,0.16460311770141123,-0.03186298232655972,-0.007734416477219201
1690840809114823400,1.759823486328125,0.1785083089351654,-0.03471040764693171,-0.021902555796364322
1690840809124894500,1.76989453125,0.18568097704350947,-0.04060374000184238,-0.034833508870215156
1690840809134934500,1.7799345703125,0.19225977091193197,-0.03727501570424065,-0.04380122086890042
1690840809144975400,1.789975341796875,0.1907645639181137,-0.04468516409657895,-0.03898997552911751
1690840809155015400,1.800015380859375,0.19241759182214735,-0.04411315462859347,-0.027902572529297322
1690840809165055500,1.810055419921875,0.1925771662980318,-0.04507149653304368,-0.02918884491359349
1690840809175095300,1.82009521484375,0.18555472031533718,-0.03972162340506911,-0.021711791597772388
1690840809185136400,1.830136474609375,0.17972645255327224,-0.039665162243787196,-0.0014019118203315883
1690840809195176400,1.840176513671875,0.1688011539131403,-0.036792456351686265,0.000597710164822638
1690840809205216500,1.850216552734375,0.1696943033605814,-0.03215383676560595,-0.014212718246388248
1690840809215257300,1.86025732421875,0.1653454605013132,-0.026225670559331775,-0.011030768308602272
1690840809225297400,1.87029736328125,0.17715689432621,-0.03227481453046203,-0.022983738629193975
1690840809235337500,1.88033740234375,0.184630006685853,-0.03839234756268561,-0.03219590407535434
1690840809245377300,1.890377197265625,0.18582593847215176,-0.041418143390957264,-0.032434137844596984
1690840809255418400,1.90041845703125,0.18463468286097048,-0.04680133426664397,-0.03158473164075985
1690840809265458400,1.91045849609375,0.1835965719848871,-0.04152054431950673,-0.03385706962007098
1690840809275498500,1.92049853515625,0.18854513430297373,-0.035311095220129936,-0.021044564427272417
1690840809285569500,1.930569580078125,0.18047347152829168,-0.03743395085930824,-0.01947798639740795
1690840809295609600,1.940609619140625,0.16895488317012786,-0.034308640179317444,-0.014715091977687552
1690840809305650400,1.950650390625,0.17299100681841373,-0.03589764467012137,-0.001024940867256373
1690840809315690500,1.9606904296875,0.17911854978799818,-0.033917394105717535,-0.00890465213325806
1690840809325730300,1.970730224609375,0.18315058178305624,-0.03780683929231018,-0.015256235949951224
1690840809335770400,1.980770263671875,0.18613456602990627,-0.04077469438826665,-0.027243994456133805
1690840809345811500,1.9908115234375,0.18268997853398322,-0.03987085915002972,-0.03237751685311086
1690840809355851500,2.0008515625,0.1900233901619911,-0.040960590615496034,-0.03607936247915495
1690840809365891600,2.0108916015625,0.1930249100655317,-0.046846360718458886,-0.03373749836101197
1690840809375932400,2.020932373046875,0.18091420103311537,-0.044841377571597694,-0.023833843519352374
1690840809385972500,2.030972412109375,0.17478607354164122,-0.02729715398205444,-0.020910133525799027
1690840809396012300,2.04101220703125,0.163119016623497,-0.02947552093444392,-0.013581923229293897
1690840809406052400,2.05105224609375,0.17314415155351162,-0.032655904536228623,-0.011724362896219826
1690840809416093400,2.061093505859375,0.17388766339719294,-0.031712066081166265,-0.010893935387488453
1690840809426133500,2.071133544921875,0.1768739857316017,-0.035791225153580304,-0.021695813143928534
1690840809436204500,2.08120458984375,0.17746610640585422,-0.03780948790712282,-0.016005734576424582
1690840809446244400,2.091244384765625,0.18150281457602976,-0.04130839940616861,-0.02632779292666819
1690840809456284400,2.101284423828125,0.18778993202149866,-0.03670395608432591,-0.031804863497731276
1690840809466325500,2.111325439453125,0.18659809188842771,-0.0331691330216825,-0.03394068364975974
1690840809476365300,2.121365234375,0.17822598486244678,-0.040717831368185575,-0.03363575045301113
1690840809486405400,2.1314052734375,0.1774848111063242,-0.04171442292379215,-0.02239208374582231
1690840809496446500,2.141446533203125,0.17898469427525995,-0.03732999729448929,-0.01756786932661198
1690840809506486500,2.151486572265625,0.1752437541812658,-0.0377904544130899,-0.017189619731903076
1690840809516526300,2.1615263671875,0.18167641757726669,-0.037749976272229105,-0.01454071722489316
1690840809526566400,2.17156640625,0.18047464057207108,-0.03203685932243243,-0.015328785162931307
1690840809536607500,2.181607421875,0.17642565744221209,-0.03694242274900898,-0.02124069435414858
1690840809546647300,2.191647216796875,0.18091186294555664,-0.03127513596862554,-0.017107713602110743
1690840809556687400,2.201687255859375,0.1795662935554981,-0.03557314368980005,-0.026350689745065756
1690840809566728400,2.211728515625,0.18241408420205116,-0.038320780163817104,-0.03360787149881944
1690840809576768500,2.2217685546875,0.1861597004711628,-0.030308263697847723,-0.02660350916208699
1690840809586839600,2.231839599609375,0.18048048579096793,-0.03341808454776182,-0.027183469041087663
1690840809596879400,2.24187939453125,0.1875187138646841,-0.0339141244363971,-0.018235516622220165
1690840809606919200,2.251919189453125,0.1737543924063444,-0.03530778901819139,-0.010593911261297762
1690840809616959200,2.261959228515625,0.16432488528192044,-0.03616997707178816,-0.014665430449950508
1690840809627000300,2.272000244140625,0.17329846533238888,-0.03341784708574414,-0.012965325700910761
1690840809637040400,2.282040283203125,0.1786789893269539,-0.0403152967155911,-0.016521547744609413
1690840809647080400,2.29208056640625,0.1834615474283695,-0.03282545241685584,-0.017853992791613562
1690840809657121500,2.30212158203125,0.18779636176228523,-0.03846349483644589,-0.027156074144085867
1690840809667161300,2.312161376953125,0.190637138146162,-0.031987741217389704,-0.026557998653082174
1690840809677201400,2.322201416015625,0.19228665891885757,-0.04018555112238973,-0.03100816016208846
1690840809687241200,2.3322412109375,0.17687983095049858,-0.037336883693002164,-0.02065048250919208
1690840809697282300,2.3422822265625,0.18511515985429286,-0.03394873909205198,-0.017048686024406925
1690840809707322400,2.352322265625,0.1785346124202013,-0.031569424473773686,-0.016102144155604764
1690840809717362400,2.362362548828125,0.1737450400561094,-0.030557818012125787,-0.02224645559689961
1690840809727403500,2.372403564453125,0.17568799081742761,-0.037104737171251324,-0.02054776192023419
1690840809737473500,2.3824736328125,0.17568389916419982,-0.041561899243202055,-0.019046892370609567
1690840809747514400,2.392514404296875,0.1861538552522659,-0.0386515464881435,-0.019570194725506005
1690840809757554200,2.40255419921875,0.19019056342244148,-0.03913616993362084,-0.020294070286955682
1690840809767594200,2.41259423828125,0.18929390684366226,-0.04478856967212632,-0.032718233749293724
1690840809777634300,2.42263427734375,0.1753805323034525,-0.039388500726874914,-0.028501369539508593
1690840809787675400,2.43267529296875,0.18885259281694888,-0.03446262516463175,-0.015135559579194522
1690840809797715500,2.442715576171875,0.18227204538285732,-0.03490147323962301,-0.0212039471069118
1690840809807755500,2.452755615234375,0.1683557482331991,-0.030089360250160097,-0.019881717493245375
1690840809817796400,2.46279638671875,0.17583587485551833,-0.03409490609709173,-0.014571861281828023
1690840809827836400,2.47283642578125,0.18256547537148,-0.03051184171224013,-0.013565004060533828
1690840809837876200,2.482876220703125,0.17118951035439967,-0.036396917695458976,-0.014043448926974088
1690840809847916300,2.492916259765625,0.1840548371464014,-0.03674094536015764,-0.019624536994937807
1690840809857939200,2.502939208984375,0.18435118974447248,-0.034658403465058656,-0.014943950563808902
1690840809867979300,2.512979248046875,0.18764263250529764,-0.02977099674968049,-0.023966045931121335
1690840809878019300,2.523019287109375,0.17836743915975092,-0.03744492891104892,-0.026257947127427905
1690840809888090400,2.53309033203125,0.18375614646077154,-0.03314341405853629,-0.02238984155638609
1690840809898130200,2.543130126953125,0.1842109044909477,-0.030316611401084808,-0.02482228830112144
1690840809908171300,2.553171142578125,0.1765817247867584,-0.03765890045529231,-0.023475759929837657
1690840809918211300,2.56321142578125,0.1807739157795906,-0.03277390489270911,-0.02162014039210044
1690840809928251400,2.57325146484375,0.18271569749712943,-0.03607124767135828,-0.010390936035104095
1690840809938292200,2.583292236328125,0.17762568088173866,-0.029796752245444803,-0.017833621290442532
1690840809948332300,2.593332275390625,0.18300678939819334,-0.03142270947946235,-0.029136087246472014
1690840809958372400,2.603372314453125,0.18868951120972632,-0.036674529060441996,-0.022838475806452332
1690840809968412200,2.613412109375,0.1834492724686861,-0.04114551872834563,-0.027600712639046832
1690840809978453500,2.62345361328125,0.18254910875856875,-0.038682507881987835,-0.017889520762721076
1690840809988493300,2.633493408203125,0.18494681755006312,-0.033132837865594775,-0.02001358197829686
1690840809998533400,2.643533447265625,0.1855488750964403,-0.04088498636232689,-0.02324596062880009
1690840810008574200,2.65357421875,0.18285715179443357,-0.03973230919586494,-0.022240482513839376
1690840810018614300,2.6636142578125,0.17747195162475107,-0.03980314594237134,-0.017639829451125116
1690840810028654300,2.673654296875,0.18480302516520022,-0.03148381028324365,-0.016153294387529604
1690840810038694400,2.6836943359375,0.1824076544612646,-0.03828759028026834,-0.019109682807978243
1690840810048765200,2.69376513671875,0.17162965533733368,-0.030757413971144704,-0.013313508950918911
1690840810058805200,2.70380517578125,0.17596914584636686,-0.03228840466439724,-0.01696081594470888
1690840810068846300,2.713846435546875,0.18255261588990687,-0.03922264264067635,-0.019650612151110542
1690840810078886100,2.72388623046875,0.17911036648154258,-0.038083939200639724,-0.019535086879506707
1690840810088926200,2.73392626953125,0.18360300172567368,-0.03672465181248262,-0.024462798205809665
1690840810098967300,2.74396728515625,0.1779202799141407,-0.043113768327701835,-0.028134828648902474
1690840810109007400,2.75400732421875,0.18211422447264194,-0.038731717318575824,-0.016225441741710526
1690840810119047200,2.764047119140625,0.17942425473630427,-0.03362158949691802,-0.010091615161811932
1690840810129087200,2.774087158203125,0.1816705723583698,-0.03610293971756473,-0.013689000332960858
1690840810139128300,2.78412841796875,0.17972528350949285,-0.031044925675634293,-0.014088283582543954
1690840810149168000,2.794168212890625,0.1827174510627985,-0.03575761514492333,-0.016904144720872864
1690840810159208200,2.804208251953125,0.18106851481199263,-0.04579182843053713,-0.015086802233755588
1690840810169249300,2.814249267578125,0.1794225011706352,-0.031625794303510334,-0.026988238729932345
1690840810179289300,2.824289306640625,0.1828653351008892,-0.030525029987376183,-0.02488775475276634
1690840810189329400,2.834329345703125,0.18181787187457082,-0.03422010337933898,-0.02250393292272929
1690840810199400200,2.844400146484375,0.1830178953140974,-0.04303460214426741,-0.018903876303881406
1690840810209440300,2.854440185546875,0.17164894455969332,-0.03791672940757125,-0.014874575122026727
1690840810219481300,2.8644814453125,0.17973054420650003,-0.035286727963853626,-0.01915141675758641
1690840810229521200,2.874521240234375,0.1822773060798645,-0.038481505417171866,-0.020248829206009393
1690840810239561200,2.884561279296875,0.16940788763463496,-0.03235343272462487,-0.02445685252221301
1690840810249601300,2.894601318359375,0.1752402470499277,-0.03283323386451229,-0.021956674303510226
1690840810259642400,2.904642333984375,0.17583645937740802,-0.03925574119267985,-0.01363973609744571
1690840810269682200,2.91468212890625,0.17912556405067442,-0.04149144608918577,-0.013169332973565906
1690840810279722200,2.92472216796875,0.18556056553423403,-0.03401004082523286,-0.021282510502147488
1690840810289762300,2.93476220703125,0.18601181643307207,-0.0320950375167653,-0.024157358118984847
1690840810299803100,2.94480322265625,0.1697030711889267,-0.038755901911761606,-0.01976652101520449
1690840810309843200,2.95484326171875,0.18017887249588965,-0.04365852446258068,-0.029748999547003767
1690840810319883300,2.96488330078125,0.1797328822940588,-0.03857314748968929,-0.019097827973403037
1690840810329924400,2.97492431640625,0.18153087162673473,-0.03697913803020492,-0.016536105992924422
1690840810339964400,2.98496435546875,0.17060674203038215,-0.03807774692187085,-0.021253120010881685
1690840810350035200,2.99503515625,0.17045710442662237,-0.035244551056250926,-0.027333421738678587
1690840810360075300,3.0050751953125,0.1854191112369299,-0.038199875464197244,-0.01851552087368909
1690840810370115300,3.015115234375,0.18227496799230575,-0.040535296141821886,-0.011796921242354437
1690840810380156200,3.02515625,0.1809305676460266,-0.03969873571982607,-0.02157182600465603
1690840810390196200,3.0351962890625,0.18153028710484503,-0.031582357020583,-0.02168279383215122
1690840810400236300,3.045236328125,0.1798848579853773,-0.03529507566709071,-0.017346262465184552
1690840810410276000,3.055276123046875,0.17644494666457175,-0.03804185362458229,-0.018021567910863085
1690840810420317200,3.065317138671875,0.17734511037468909,-0.03508550630332902,-0.0162965661825845
1690840810430357200,3.075357177734375,0.18183540753126143,-0.03368844418805093,-0.01658729732404463
1690840810440397300,3.085397216796875,0.18018939388990401,-0.03832057923441753,-0.020192833835608326
1690840810450438100,3.095438232421875,0.16971359258294105,-0.03208219630150124,-0.011022073545493186
1690840810460478200,3.105478271484375,0.18497604364454745,-0.033467494913749396,-0.011686766265612094
1690840810470518300,3.115518310546875,0.18467559939324854,-0.03429778999174014,-0.0059420120685361325
1690840810480558300,3.125558349609375,0.17928747661411762,-0.030340394135471432,-0.017976865686033853
1690840810490599400,3.135599365234375,0.17240297779738903,-0.030843156025838106,-0.01610986167117953
1690840810500669200,3.145669189453125,0.17943769873976706,-0.03809153798520565,-0.021056670423597094
1690840810510710300,3.155710205078125,0.1851262657701969,-0.035900457681715486,-0.024090818521683103
1690840810520750300,3.165750244140625,0.1915624362975359,-0.04255759574966505,-0.025735512422211466
1690840810530790400,3.175790283203125,0.18737433695793151,-0.034393048793449996,-0.01546038935307879
1690840810540831200,3.185831298828125,0.17869652498364447,-0.03315525062680244,-0.021579169060895218
1690840810550871300,3.195871337890625,0.17884382449984548,-0.03414681894741952,-0.0168052280907752
1690840810560911000,3.2059111328125,0.1819856296569109,-0.03655828226963058,-0.012626618098723702
1690840810570951200,3.215951171875,0.17913842353224754,-0.039456743657495824,-0.015730415633227676
1690840810580992300,3.2259921875,0.182429281771183,-0.028291845841519534,-0.01747009890740737
1690840810591032300,3.2360322265625,0.17599252672195434,-0.03241807719236239,-0.020413166621979326
1690840810601072400,3.246072265625,0.18287702553868293,-0.03940433761682361,-0.01382595198508352
1690840810611113200,3.25611328125,0.1812362725943327,-0.033950602255575356,-0.018851086670719087
1690840810621153300,3.2661533203125,0.18737550600171088,-0.03523176463991404,-0.018321098846709356
1690840810631193000,3.276193115234375,0.17959844225943086,-0.03818138995943591,-0.013892550947889685
1690840810641233200,3.286233154296875,0.18004910863637924,-0.041384003659337754,-0.019707137244474142
1690840810651304200,3.29630419921875,0.17406301996409893,-0.03497873972691595,-0.01668311781475786
1690840810661345300,3.30634521484375,0.17810206622183322,-0.03533827548800036,-0.017992396615305915
1690840810671385300,3.31638525390625,0.17660510566234588,-0.03240797592345625,-0.018795940683688967
1690840810681425400,3.32642529296875,0.1721159775495529,-0.0288229205109179,-0.008689214717713185
1690840810691465500,3.336465576171875,0.16568448319733142,-0.0373931804575026,-0.016315448979567736
1690840810701506300,3.34650634765625,0.17047580912709234,-0.03025585765717551,-0.021740296173049137
1690840810711546000,3.356546142578125,0.17152677948474884,-0.03130217010602355,-0.020657277576159684
1690840810721586200,3.366586181640625,0.1794616641372442,-0.03933262408748269,-0.02662170240590349
1690840810731627300,3.376627197265625,0.17213059059679509,-0.03822979567842558,-0.013908122976357117
1690840810741667300,3.386667236328125,0.1829044980674982,-0.03704517073743045,-0.020545862224092704
1690840810751707400,3.396707275390625,0.17392624184191227,-0.03315859336135909,-0.015962425157660616
1690840810761747500,3.40674755859375,0.18290274450182914,-0.03427316700713709,-0.016125735093746332
1690840810771788300,3.416788330078125,0.175718970477581,-0.04347624496454373,-0.016473790479591115
1690840810781828000,3.426828125,0.17212708346545696,-0.04261564607983455,-0.014262567003793082
1690840810791868200,3.4368681640625,0.18499650191068648,-0.03166101174736395,-0.01466148036061786
1690840810801908200,3.446908203125,0.1905325087279081,-0.03154613492973149,-0.013119575547706335
1690840810811979300,3.456979248046875,0.1818546967536211,-0.04436163123063743,-0.016113907658634706
1690840810822020400,3.467020263671875,0.1809609627842903,-0.03832819628529251,-0.026533439600560812
1690840810832060400,3.477060302734375,0.18260931451320647,-0.028801147070527076,-0.027098727066814897
1690840810842100500,3.4871005859375,0.17602233733832834,-0.035808833875507116,-0.019058865936193613
1690840810852143900,3.497143798828125,0.17692074748277664,-0.03563822654895484,-0.011852163127507082
1690840810862184700,3.507184814453125,0.1900894411355257,-0.027517116875667123,-0.011271436063526197
1690840810872224500,3.517224609375,0.18814473680853844,-0.03720943965474143,-0.012060412750439717
1690840810882264600,3.5272646484375,0.17437690821886062,-0.03591673296308145,-0.016544435429852455
1690840810892305700,3.5373056640625,0.1718336534768343,-0.032302031330950554,-0.019052344863861797
1690840810902345700,3.547345703125,0.17362930472195148,-0.036669834619015455,-0.01730902202760335
1690840810912385800,3.5573857421875,0.17527707192897796,-0.03270602728826925,-0.021252581154764628
1690840810922425900,3.56742578125,0.17572598474025725,-0.03062593307858333,-0.010120425697765313
1690840810932466700,3.577466796875,0.18126491416692733,-0.03183680670568719,-0.0099684500064468
1690840810942506500,3.587506591796875,0.1785743599087,-0.02780703973295167,-0.010330045293876901
1690840810952546600,3.597546630859375,0.1815665274620056,-0.02975313229942694,-0.018752494267607108
1690840810962617600,3.60761767578125,0.17842472230494022,-0.031241124101169405,-0.014190364850685
1690840810972657700,3.61765771484375,0.1731874061733484,-0.03305619243280962,-0.0189309241410112
1690840810982698800,3.62769873046875,0.17306757918596266,-0.04476893338989466,-0.0252222337044077
1690840810992738800,3.63773876953125,0.3940045785278082,-0.10790869565289467,-0.085530695231352
1690840811002779000,3.64777880859375,-0.17284078469276426,-0.6255402749039233,-0.24053417340582237
1690840811012818700,3.657818603515625,-0.4485410553574562,-0.13104712252030148,1.6903288761630653
1690840811022859500,3.667859619140625,0.6085036537766456,0.07094563197465613,-0.6428779248043894
1690840811032899600,3.677899658203125,0.25545184788405895,0.011359013882279395,-0.3260488308178261
1690840811042939600,3.687939697265625,0.3454185345351696,0.11424568012207746,-0.3521434954086318
1690840811052980700,3.697980712890625,0.27783552912771703,-0.043115576692298055,-0.28331428933236746
1690840811063020800,3.708020751953125,0.19566519544124603,0.11354136777762323,0.07831390485349111
1690840811073060900,3.718060791015625,0.36848552186787126,0.4169320843245834,0.5199330245938152
1690840811083100700,3.7281005859375,0.12896072643399237,0.2474580909174867,-0.06542239330746233
1690840811093141500,3.7381416015625,0.35829613628685475,0.05430531668858602,0.05721820389402564
1690840811103181600,3.748181640625,0.11554068836867809,0.04998365409718826,0.2506789343938231
1690840811113252600,3.758252685546875,0.2167413012176752,0.22779071942782028,0.13758536518262698
1690840811123292700,3.768292724609375,0.10672668279409409,-0.20152340168384833,-0.025013929282547906
1690840811133332700,3.778332763671875,0.15674129828512667,-0.17405690075056626,0.010578270734171382
1690840811143373800,3.788373779296875,0.1366325762361288,-0.24776697420356794,-0.07328572882739827
1690840811153414000,3.798413818359375,0.019619477227330206,-0.29585743496529754,-0.0020415568641619754
1690840811163453700,3.80845361328125,0.1664735877484083,-0.2865260544531047,0.05212544733227696
1690840811173494500,3.81849462890625,0.022649054181575774,-0.27783065202319995,0.0980421305517666
1690840811183534600,3.82853466796875,0.11413549774587153,-0.23437660062415525,0.10063890557931736
1690840811193574700,3.83857470703125,0.08347381750047206,-0.17832992016095667,0.08177033805083483
1690840811203614700,3.84861474609375,0.19466274040043352,-0.11461506142374127,0.04862581888060085
1690840811213655800,3.85865576171875,0.16475918504595755,-0.04145840233610943,0.02061305027536582
1690840811223696000,3.86869580078125,0.19565642761290072,0.004810469021648168,0.015335192070831543
1690840811233735700,3.878735595703125,0.25669863307476043,0.054302649807464326,0.012829533959412947
1690840811243775500,3.888775390625,0.2223486197054386,0.08334739637551829,0.02034448073336389
1690840811253816600,3.898816650390625,0.2486860070109367,0.10432143001696094,0.028767957186978308
1690840811263887600,3.9088876953125,0.23485154292583466,0.12362279947213828,0.03844222371955402
1690840811273927700,3.918927734375,0.2869248445123434,0.11143802055651321,0.04196501385110896
1690840811283967700,3.9289677734375,0.1904594434916973,0.10617701302208006,0.044859694113000295
1690840811294007600,3.939007568359375,0.23812603455185888,0.07474434840418398,0.03456501239344943
1690840811304048600,3.949048583984375,0.1993044287264347,0.031394049640558655,0.03376473342780955
1690840811314088700,3.959088623046875,0.16540449721217154,-0.01362248356854543,0.032327097273548135
1690840811324128500,3.96912841796875,0.1615454836964607,-0.07263389558885246,0.0262910091468133
1690840811334169600,3.979169677734375,0.1432645615965128,-0.1162240309903398,0.03203446643594652
1690840811344209700,3.989209716796875,0.14886486582159994,-0.15988677497031167,0.04206049184852745
1690840811354249700,3.999249755859375,0.09065642248094082,-0.19052554926415904,0.050012944123754274
1690840811364289800,4.009289794921875,0.12486556607484817,-0.20062953985035417,0.05359176615832839
1690840811374331000,4.019330810546875,0.12086568278372287,-0.19257402449287472,0.04848429608463775
1690840811384370700,4.02937060546875,0.11742927859425543,-0.1635351779426448,0.0409141896239249
1690840811394410500,4.039410400390625,0.13133154721856116,-0.11912631003679706,0.04596598855420016
1690840811404451600,4.04945166015625,0.18428689233660697,-0.07324769837195053,0.04041090257717296
1690840811414521600,4.059521484375,0.17620704625546932,-0.038161315285786986,0.04142317119252402
1690840811424562700,4.069562744140625,0.19389526315927505,0.006107632692717016,0.031885203291522335
1690840811434602800,4.079602783203125,0.2342214283287525,0.03419544386211783,0.024771338998596182
1690840811444642600,4.089642578125,0.20636136150062084,0.04296383846299723,0.03245499340295791
1690840811454682600,4.0996826171875,0.21476152557730674,0.05064235546793788,0.0351516942741815
1690840811464723700,4.1097236328125,0.22335341283380983,0.05628134773559868,0.03409017968962434
1690840811474763500,4.119763427734375,0.23332944792509078,0.04341591134574264,0.048915970066748554
1690840811484803600,4.129803466796875,0.20337445464432238,0.036475298427604136,0.04239950541139115
1690840811494844700,4.1398447265625,0.19497545961141585,0.006040266544930637,0.04347297072864603
1690840811504884700,4.149884765625,0.19345336461067197,-0.01374271241473034,0.0425030982166063
1690840811514924800,4.1599248046875,0.17934183714985846,-0.04206920944452285,0.028784136570221743
1690840811524964600,4.169964599609375,0.13288053022623061,-0.07920465228129178,0.03317165377233177
1690840811535005700,4.180005615234375,0.1652449227362871,-0.10451118043540045,0.03648866479925345
1690840811545045500,4.19004541015625,0.1449012228876352,-0.12708901427797972,0.0341799083662685
1690840811555085600,4.20008544921875,0.13933891258537767,-0.13128838393026962,0.04671702155063394
1690840811565156600,4.210156494140625,0.14780980381071568,-0.12794557630838826,0.05709752295669168
1690840811575196700,4.22019677734375,0.1427934369534254,-0.11842592494878917,0.04270104564123321
1690840811585237800,4.23023779296875,0.1736795736044645,-0.09044119056137279,0.0468128009421518
1690840811595277600,4.240277587890625,0.16386545107662676,-0.05604428757671266,0.050920053597888905
1690840811605317600,4.250317626953125,0.18623451927304266,-0.03880111102666706,0.035529194950219244
1690840811615358500,4.2603583984375,0.17689502851963043,-0.019541626218147576,0.04048269830490462
1690840811625398500,4.2703984375,0.20349311258792877,-0.009267430164199323,0.03400511348836589
1690840811635438600,4.2804384765625,0.18731880737841128,0.010835008274484425,0.03430288629196584
1690840811645478700,4.290478759765625,0.21486381690800188,0.016830558894854037,0.0353880740130553
1690840811655519700,4.300519775390625,0.21055939771234988,0.014395787762291728,0.0355783587210346
1690840811665559800,4.310559814453125,0.1865250266522169,0.01708157451385632,0.03922014928949065
1690840811675599600,4.320599609375,0.20275193883180617,0.0038553419875912366,0.028250417852587997
1690840811685640400,4.330640380859375,0.18247195186913012,-0.018108159348927438,0.03465686452852096
1690840811695680500,4.340680419921875,0.18418460100591183,-0.036766719122231006,0.038844667040603235
1690840811705720600,4.350720458984375,0.17615794641673563,-0.05234404481928795,0.03689524087272584
1690840811715760600,4.3607607421875,0.17544716779887676,-0.05935549448393285,0.04406033759596757
1690840811725831700,4.370831787109375,0.16573533660173415,-0.07443561124857515,0.04118385514447
1690840811735871500,4.38087158203125,0.15121405929625034,-0.08486434027710929,0.03341441301964223
1690840811745912600,4.39091259765625,0.15627426529526708,-0.09313702378291636,0.0336467787371017
1690840811755952600,4.40095263671875,0.1494979030281305,-0.08558753998512401,0.03474822803982534
1690840811765992700,4.41099267578125,0.17698095323741436,-0.07193394889226183,0.03189399851933122
1690840811776033500,4.421033447265625,0.16391162830591202,-0.062004456356447184,0.03510164915395435
1690840811786073600,4.431073486328125,0.18436872540116309,-0.050846189210657027,0.03803235514387488
1690840811796113700,4.44111376953125,0.18239304141402243,-0.04274201240586117,0.04389850266433786
1690840811806153500,4.451153564453125,0.19434476049244404,-0.02649217600841075,0.05514195017581805
1690840811816194800,4.46119482421875,0.19643033459484577,-0.0071247007807716724,0.055277897180942816
1690840811826234600,4.471234619140625,0.18640753775238988,-0.011624277222342789,0.041690635622828265
1690840811836274700,4.481274658203125,0.18028700904548167,-0.0081500069742091,0.0347412000774173
1690840811846315500,4.4913154296875,0.1862982321590185,-0.0028650340422987936,0.030774237241782246
1690840811856351000,4.50135107421875,0.1879763945043087,-0.01780627205921337,0.02413130122912116
1690840811866390800,4.511390869140625,0.18906068260967732,-0.027761173030920325,0.026584425435704176
1690840811876461800,4.5214619140625,0.17637480403780936,-0.03725150696448982,0.025107813544501548
1690840811886502000,4.531501953125,0.17116554495692252,-0.04890632545556873,0.030138871080847455
1690840811896542000,4.5415419921875,0.18046295013427732,-0.05567039449671283,0.033519827889185394
1690840811906582800,4.551582763671875,0.17493688018918035,-0.0692674513630569,0.046868038260727184
1690840811916622800,4.561622802734375,0.16056874761879444,-0.06683755733501166,0.04633837009712588
1690840811926662700,4.57166259765625,0.1695323907971382,-0.06418395581999793,0.04541496250873897
1690840811936703700,4.581703857421875,0.16606734503507614,-0.06536136556891724,0.046031966462498526
1690840811946743800,4.591743896484375,0.17172142527401446,-0.057910702503100035,0.040481310065416616
1690840811956783900,4.601783935546875,0.16719839489161967,-0.05098526888778433,0.04530961157127749
1690840811966824000,4.611823974609375,0.18482406795322895,-0.036334666114207353,0.039273043953930026
1690840811976864800,4.62186474609375,0.1698334195703268,-0.030450229451805352,0.03175285474928096
1690840811986904800,4.63190478515625,0.19660510663986205,-0.02909631235850975,0.032851326643629
1690840811996944600,4.641944580078125,0.2058843916386366,-0.024550850948598234,0.044046067042020146
1690840812006985700,4.65198583984375,0.18839257408976554,-0.026579415900446473,0.039961227147490716
1690840812017025800,4.66202587890625,0.18377952733635902,-0.025929263162333516,0.038008339514047834
1690840812027096800,4.672096923828125,0.18186580266952512,-0.032526907861698415,0.04748044823775999
1690840812037137000,4.682136962890625,0.186233934751153,-0.03232681871233508,0.04883659838733729
1690840812047177000,4.692177001953125,0.1676981611073017,-0.0380392232760787,0.048244514245702884
1690840812057217800,4.7022177734375,0.17085048765838146,-0.040461555052176114,0.04224810054223053
1690840812067257900,4.7122578125,0.16456453925669193,-0.0445301927305758,0.034933964436850505
1690840812077297700,4.722297607421875,0.17937573941946028,-0.05007151504373178,0.029892189143667928
1690840812087337700,4.732337646484375,0.1688923393279314,-0.04686181401591748,0.03139685808557551
1690840812097378800,4.74237890625,0.1750181287318468,-0.05789650958096608,0.03262226712810807
1690840812107419000,4.7524189453125,0.17890169216692448,-0.050875123044196516,0.04041270180861466
1690840812117459000,4.762458984375,0.16781915713846682,-0.051713053439371284,0.04168847106520552
1690840812127499800,4.772499755859375,0.18158114050924776,-0.043088999212626364,0.04306991091966629
1690840812137539800,4.782539794921875,0.1645183620274067,-0.04161141920704394,0.04444526352663524
1690840812147579600,4.79257958984375,0.1796282528758049,-0.03951048313872888,0.04279338183349464
1690840812157619700,4.80261962890625,0.17527882549464702,-0.033196861278824506,0.03076307196037378
1690840812167660800,4.812660888671875,0.17721593103706837,-0.034150819269102066,0.03211412124314811
1690840812177730800,4.822730712890625,0.187535664999485,-0.030034232529439032,0.034137352432752954
1690840812187772000,4.83277197265625,0.17825871808826924,-0.031200737291853874,0.037285473166173325
1690840812197812000,4.84281201171875,0.18155600606799124,-0.029925438392721115,0.03812860032627359
1690840812207851800,4.852851806640625,0.19024901561141014,-0.04263391238888725,0.04095485499445349
1690840812217892900,4.862892822265625,0.18457973780333994,-0.04835634515630081,0.036140184721723194
1690840812227932700,4.8729326171875,0.18085808693170546,-0.05306936341915279,0.039502235900191585
1690840812237972700,4.88297265625,0.17787936338186264,-0.050217535918299104,0.04454062735962216
1690840812248012800,4.8930126953125,0.16516542775928972,-0.045056006702966986,0.054706029276852496
1690840812258054000,4.903053955078125,0.16920388949513435,-0.044674715767800806,0.05658302039618138
1690840812268094000,4.913093994140625,0.15677578507661818,-0.04502442425461486,0.04728372465583961
1690840812278133800,4.9231337890625,0.17187457000911235,-0.05207439756505191,0.05213497777902521
1690840812288174800,4.9331748046875,0.1679693792641163,-0.04702524268301204,0.043502626081393096
1690840812298214700,4.943214599609375,0.1770832445681095,-0.044182895396556704,0.035970956501504406
1690840812308254700,4.953254638671875,0.19323767603337763,-0.04819530937569216,0.015411577208712696
1690840812318294800,4.963294677734375,0.17677753961980341,-0.03818098810063675,0.020592308881436473
1690840812328365800,4.97336572265625,0.17977438334822654,-0.036657303931005296,0.03234914014199748
1690840812338407000,4.983406982421875,0.17259703906476498,-0.031069639991782604,0.030792923675943166
1690840812348446700,4.99344677734375,0.1844201633274555,-0.03429589029559865,0.04629321121457033
1690840812358486800,5.00348681640625,0.17828677513897417,-0.030052535371109843,0.046718391523812894
1690840812368526600,5.013526611328125,0.17798983801901339,-0.031158213324379173,0.050164189162710676
1690840812378567700,5.023567626953125,0.17889175529479978,-0.03503370305085555,0.057265760229644365
1690840812388607700,5.033607666015625,0.16587562185525892,-0.03608730375701561,0.04950991280532908
1690840812398647800,5.043647705078125,0.18488368918597697,-0.03411770245078951,0.03534378278017975
1690840812408687900,5.05368798828125,0.17830489531755447,-0.048511572250630706,0.025078336288267746
1690840812418728700,5.063728759765625,0.17292437132298946,-0.04897889750143513,0.022791376128559932
1690840812428768800,5.073768798828125,0.17517828772962094,-0.056816751520242535,0.010933988836663775
1690840812438808600,5.08380859375,0.18775076905488966,-0.05566922545293346,0.015499990711105055
1690840812448849700,5.093849609375,0.18056582598686216,-0.048634486244246364,0.021978192015574313
1690840812458889700,5.1038896484375,0.17337386865615845,-0.04247340633124113,0.04403685625568032
1690840812468929800,5.1139296875,0.17126432915627957,-0.04730243392288685,0.04791991280068177
1690840812479000800,5.124000732421875,0.16885492992699144,-0.040323406956810505,0.05097705818186514
1690840812489041000,5.134041015625,0.17886837441921233,-0.03993331166068092,0.05541057451674714
1690840812499081700,5.144081787109375,0.17182780825793742,-0.03707629652805626,0.05075711812113877
1690840812509121800,5.154121826171875,0.18454642005562782,-0.03439500328851863,0.035333046757034026
1690840812519161600,5.16416162109375,0.18754443282783032,-0.04150019565122202,0.029161249087192115
1690840812529201700,5.17420166015625,0.18890052361190318,-0.0405181440776214,0.028743069340893997
1690840812539242800,5.18424267578125,0.1749965014219284,-0.04074276488004252,0.024624619437707586
1690840812549282800,5.19428271484375,0.17635376124978064,-0.04297901776582003,0.029099120803526602
1690840812559323000,5.204322998046875,0.17830372627377508,-0.03920317075522616,0.028811444702255537
1690840812569363700,5.21436376953125,0.17695464975237846,-0.04393841911619529,0.030590126546262763
1690840812579403800,5.22440380859375,0.17844459604918955,-0.03761844058074057,0.03684786720019765
1690840812589443600,5.234443603515625,0.16931144152283667,-0.04607877387944609,0.047998252433631566
1690840812599483600,5.244483642578125,0.1748439412087202,-0.050885443508811294,0.04572214702807832
1690840812609524700,5.254524658203125,0.18352058413922787,-0.05096879267701879,0.04140795992366038
1690840812619564800,5.264564697265625,0.19250000940859316,-0.055397148779593404,0.03748552121634129
1690840812629604900,5.27460498046875,0.17649287745952605,-0.04878863562634214,0.029288939720625056
1690840812639676000,5.284676025390625,0.17769231637716293,-0.04238991103256121,0.02514276156029664
1690840812649715700,5.2947158203125,0.18487725944519043,-0.042286852516885846,0.026353950281231664
1690840812659756800,5.3047568359375,0.18472294566631317,-0.040552338608168065,0.0334040742887184
1690840812669796600,5.314796630859375,0.1690051520526409,-0.04334763188250362,0.03520297693684697
1690840812679836700,5.324836669921875,0.16391162830591202,-0.03644937853505835,0.041519402675190935
1690840812689876700,5.334876708984375,0.1773749209910631,-0.028677082299441096,0.04001166042678524
1690840812699917800,5.344917724609375,0.17811960187852383,-0.043056192921567704,0.0470525051492732
1690840812709958000,5.3549580078125,0.1797673690855503,-0.038034254840016365,0.04407115581750404
1690840812719998000,5.364998046875,0.18321487919092178,-0.043323118495754896,0.04158792873360216
1690840812730038800,5.375038818359375,0.17514204737246036,-0.05061364083010703,0.042284669692954045
1690840812740078600,5.38507861328125,0.18726970753967762,-0.04641295600356534,0.03798703643111512
1690840812750118700,5.39511865234375,0.18578151480853555,-0.045175212635844945,0.03906803660085425
1690840812760158700,5.40515869140625,0.1732137096583843,-0.04195457008890807,0.043875793075608086
1690840812770199800,5.41519970703125,0.17171733362078664,-0.04508831980368122,0.03894557469838764
1690840812780240000,5.425239990234375,0.17470599404275416,-0.041670894309319556,0.04602730855369009
1690840812790311000,5.435310791015625,0.17754267877340316,-0.039985114913154395,0.03746493965261616
1690840812800350700,5.445350830078125,0.17185118913352487,-0.04066761728459969,0.037920725162676534
1690840812810390800,5.455390869140625,0.1784293984800577,-0.040466870548110455,0.02750178687579464
1690840812820431600,5.465431640625,0.18321604823470114,-0.04368979638367891,0.042069930963730434
1690840812830471700,5.4754716796875,0.18172201028466223,-0.04179740676581859,0.042757346972310914
1690840812840511700,5.48551171875,0.18097908296287057,-0.04487226590020582,0.03977709818566218
1690840812850552800,5.495552734375,0.17619594033956526,-0.050476570446975524,0.04527171811314765
1690840812860581600,5.50558154296875,0.18547639438211916,-0.045418446807190774,0.03727619388117455
1690840812870621400,5.515621337890625,0.1691664800941944,-0.038065124902315436,0.04672841516090557
1690840812880661500,5.52566162109375,0.1679687947422266,-0.04286616850849241,0.04307988889098633
1690840812890702600,5.53570263671875,0.1766466067165136,-0.037372667392436415,0.03448358118769247
1690840812900742700,5.54574267578125,0.17814298275411128,-0.04786772138914093,0.03180848479350097
1690840812910782500,5.555782470703125,0.17604864082336424,-0.038259788957890124,0.03310386749943718
1690840812920822500,5.565822509765625,0.18637480452656746,-0.04285347342370078,0.03172861079059076
1690840812930863600,5.575863525390625,0.18982173011004924,-0.044273971213493496,0.03869107478093356
1690840812940934400,5.585934326171875,0.1824947482228279,-0.042845363182481375,0.03775795408270787
1690840812950974500,5.595974365234375,0.1826467239141464,-0.04949959690729156,0.03902346224018838
1690840812961014500,5.6060146484375,0.1825000089198351,-0.04683297151392325,0.0343540958893951
1690840812971054600,5.6160546875,0.18085341075658798,-0.052248804283887146,0.03936038431066554
1690840812981095700,5.626095703125,0.16947919930517671,-0.0358610572530888,0.054294101174827664
1690840812991135500,5.636135498046875,0.17456278617978094,-0.04198956833705306,0.03980696360096335
1690840813001175600,5.646175537109375,0.17904723811745643,-0.04593324619522318,0.043408819451252925
1690840813011216600,5.656216552734375,0.17769582350850105,-0.04283559070713818,0.03130457212566398
1690840813021256400,5.66625634765625,0.17545067493021488,-0.04376103498898446,0.027370105053833683
1690840813031296500,5.676296630859375,0.18712357706725596,-0.04072466296777129,0.03236959840813652
1690840813041336600,5.686336669921875,0.1854834086447954,-0.04303602691637352,0.03886530796983279
1690840813051377400,5.69637744140625,0.18653671709001063,-0.042037681795097884,0.037909441150259224
1690840813061417500,5.70641748046875,0.17905834403336046,-0.030967275595851242,0.039362599100638176
1690840813071457500,5.71645751953125,0.17322423105239868,-0.042273737306986005,0.04582795462326612
1690840813081498600,5.72649853515625,0.17187573905289172,-0.03439969772994518,0.04824874746282585
1690840813091568400,5.736568359375,0.17381868981420992,-0.03988985611144453,0.03953541208400856
1690840813101609500,5.746609375,0.17516484372615812,-0.0482985688207671,0.04095891011506319
1690840813111649500,5.7566494140625,0.17485972329974173,-0.04017711208760738,0.030496826806198803
1690840813121689600,5.766689697265625,0.18458382945656776,-0.03907116013970226,0.03219942947300151
1690840813131729700,5.776729736328125,0.1769523116648197,-0.04609563368270173,0.02755181829629
1690840813141770500,5.7867705078125,0.16947335408627986,-0.04284107059985399,0.026893244789703747
1690840813151810600,5.796810546875,0.18339198932349682,-0.04409435859657824,0.032294633475784214
1690840813161850400,5.806850341796875,0.173066994664073,-0.041845593289099633,0.03658167684494983
1690840813171891500,5.816891357421875,0.17606033126115797,-0.041382158762123436,0.04059025946576148
1690840813181931500,5.826931640625,0.17994973991513252,-0.037690756898280234,0.05050387401243206
1690840813191971600,5.8369716796875,0.17710370283424853,-0.040659306113980706,0.041293895956780756
1690840813202011600,5.84701171875,0.1862280895322561,-0.046049273790325966,0.03776557570016011
1690840813212052500,5.857052490234375,0.17814239823222158,-0.04491727408571169,0.039417169698933135
1690840813222092500,5.867092529296875,0.17783961589336394,-0.040717593906167894,0.03978629070569295
1690840813232132400,5.87713232421875,0.1818798311948776,-0.033993546348158266,0.032741564392531286
1690840813242203400,5.887203369140625,0.18382979621887205,-0.04440881310692057,0.030093465603119693
1690840813252243500,5.897243408203125,0.1877238810479641,-0.04411187598695978,0.028137787790969013
1690840813262284500,5.907284423828125,0.1862327657073736,-0.04117777703013271,0.03206030413010157
1690840813272324600,5.91732470703125,0.17306816370785236,-0.04358136757314205,0.03784946829106193
1690840813282364700,5.92736474609375,0.17306757918596266,-0.03716958256838843,0.04101531191084068
1690840813292405500,5.937405517578125,0.18054945937395095,-0.045860783747211094,0.04003052039088215
1690840813302445300,5.9474453125,0.17935060497820376,-0.04368669111113995,0.04270680866173934
1690840813312485400,5.9574853515625,0.1790478226393461,-0.03769788075881079,0.042208115591714154
1690840813322525400,5.967525390625,0.17051847922503946,-0.041606651700381185,0.038515234156837684
1690840813332566500,5.97756640625,0.1654284626096487,-0.04347611710038036,0.04201009053527377
1690840813342606600,5.987606689453125,0.17769933063983917,-0.04838708735443652,0.03579792432242539
1690840813352646700,5.997646728515625,0.19236615389585493,-0.04306899760421365,0.030183564172522163
1690840813362687500,6.0076875,0.1772533404380083,-0.04198304726472124,0.03000791077809408
1690840813372727600,6.0177275390625,0.17680735023617744,-0.04036978511549532,0.039882284726342185
1690840813382767400,6.027767333984375,0.18399053973853588,-0.034347072493564335,0.033618415725720115
1690840813392807400,6.037807373046875,0.17187047835588454,-0.043319739228580144,0.04068614845513366
1690840813402878500,6.04787841796875,0.17396482028663157,-0.041973694914486256,0.03810129219423979
1690840813412918500,6.05791845703125,0.17456103261411188,-0.03414040747294202,0.03729830524828285
1690840813422959600,6.067959716796875,0.17830021914243696,-0.03766226145615801,0.04321657568162773
1690840813432999700,6.077999755859375,0.18308686889708042,-0.03638402168126777,0.04012617191823665
1690840813443039500,6.08803955078125,0.18129063313007354,-0.041949090196192265,0.040846622546738945
1690840813453080300,6.098080322265625,0.17411095075905322,-0.0487090127851814,0.034774526958283966
1690840813463120400,6.108120361328125,0.17082184608578682,-0.04515290947249159,0.03343093032960314
1690840813473160400,6.118160400390625,0.17052315540015697,-0.04153163196910172,0.040534022066765464
1690840813483200500,6.128200439453125,0.1883288612037897,-0.03859519492471591,0.04165100686533842
1690840813493241600,6.13824169921875,0.18324118267595768,-0.04713579038539901,0.0412805341517087
1690840813503281700,6.14828173828125,0.17291677253842352,-0.04080790253812447,0.04600334315621294
1690840813513321700,6.15832177734375,0.16842647538185118,-0.042944658838491884,0.048585674099880266
1690840813523362600,6.168362548828125,0.17919979833066463,-0.04567941756462678,0.045251858068630094
1690840813533402400,6.17840234375,0.17620704625546932,-0.04147902499902993,0.041062014296511185
1690840813543442400,6.1884423828125,0.17426409549415112,-0.04707739299535751,0.04093947476223111
1690840813553513500,6.198513427734375,0.18339549645483494,-0.05050305659510195,0.04346117982615251
1690840813563553500,6.208553466796875,0.176813779976964,-0.0423429483519867,0.03806743102383334
1690840813573593600,6.218593505859375,0.17935761924088,-0.03769026370793581,0.04282917923266068
1690840813583634700,6.228634765625,0.18205343419611453,-0.03580476048858836,0.03946653439914807
1690840813593674500,6.238674560546875,0.17577099292576312,-0.04245643693013117,0.04229407684211619
1690840813603714600,6.248714599609375,0.1748702446937561,-0.03807575589418411,0.030400376127823255
1690840813613755400,6.25875537109375,0.18519465483129025,-0.044074576183874156,0.03842406700835563
1690840813623795500,6.26879541015625,0.17486673756241797,-0.03868462677383795,0.03946332409533206
1690840813633835500,6.27883544921875,0.18743278914690018,-0.03867655306523666,0.040182834008918145
1690840813643875600,6.28887548828125,0.18398995521664618,-0.04022022057697177,0.03479131826288066
1690840813653916700,6.298916748046875,0.17890344573259354,-0.04406642941003665,0.03348993507442064
1690840813663956700,6.308956787109375,0.18399170878231524,-0.052116245679091656,0.03770791809563525
1690840813673996500,6.31899658203125,0.17396774289608,-0.04022880574222654,0.036813558505219404
1690840813684037400,6.329037353515625,0.17666297332942485,-0.042843591350503266,0.040430260298191564
1690840813694077400,6.339077392578125,0.17950725684463978,-0.036813005949370564,0.03894546966711059
1690840813704148500,6.3491484375,0.17786065868139267,-0.03475444771805778,0.038338041825871916
1690840813714188500,6.3591884765625,0.1759153698325157,-0.035947968351561575,0.04604375736499205
1690840813724228600,6.369228515625,0.1772586011350155,-0.039694096077326685,0.03529640454107429
1690840813734269700,6.379269775390625,0.18414193090796468,-0.03683516298225149,0.030889397187205028
1690840813744309500,6.3893095703125,0.17815759580135346,-0.04338452982679009,0.037410519751370885
1690840813754349600,6.399349609375,0.1812999854803085,-0.04126821352625266,0.03692057167680468
1690840813764389600,6.4093896484375,0.1816015987753868,-0.03864761923169717,0.036417485559452324
1690840813774430500,6.419430419921875,0.18399872304499149,-0.03328958106357604,0.0367841680139536
1690840813784470500,6.429470458984375,0.17666648046076297,-0.040008313125651326,0.04212299002495128
1690840813794510600,6.439510498046875,0.18325170406997202,-0.03786454256260768,0.04254084554426372
1690840813804551700,6.4495517578125,0.18040800507664678,-0.037888635824248194,0.03737907886691391
1690840813814591700,6.459591796875,0.1762199057370424,-0.04275722824130207,0.03706152821718715
1690840813824631600,6.469631591796875,0.18086042501926422,-0.05480163057185709,0.038380163934547455
1690840813834671600,6.479671630859375,0.18055939624607562,-0.03961427230676636,0.04339513798577245
1690840813844712400,6.48971240234375,0.186547238484025,-0.03965480524655431,0.034078059993567875
1690840813854765600,6.499765625,0.18310674264132976,-0.03660926353819668,0.03350793195541482
1690840813864806700,6.509806640625,0.1787695902198553,-0.04387123563149944,0.04023712147942278
1690840813874846700,6.5198466796875,0.17907003447115422,-0.0475556597652845,0.035188331923563965
1690840813884886800,6.52988671875,0.169946816816926,-0.046302627496886996,0.03137875617330428
1690840813894927600,6.539927734375,0.17398703211843966,-0.042258868531417096,0.035530309195071455
1690840813904967400,6.549967529296875,0.18176818751394747,-0.03792341487668455,0.03819898498163093
1690840813915007500,6.560007568359375,0.18565876521170138,-0.04063537724912166,0.02958137419540435
1690840813925047600,6.570047607421875,0.18056933311820028,-0.04503947569327429,0.04029999868175946
1690840813935088600,6.580088623046875,0.18161679634451866,-0.04352167327515781,0.04342667020177468
1690840813945128700,6.590128662109375,0.18086860832571983,-0.038893337621074164,0.03900652480511926
1690840813955168800,6.600168701171875,0.1717418835401535,-0.042302269281726326,0.03277297787752468
1690840813965209600,6.610209716796875,0.17533377055227756,-0.03703463107710704,0.03177864221108612
1690840813975249700,6.620249755859375,0.18132102826833724,-0.04070725517524406,0.03821034205928445
1690840813985289500,6.63028955078125,0.18251871362030506,-0.04114442274980247,0.03887854191074148
1690840813995329500,6.64032958984375,0.17234394108653067,-0.04453673206921666,0.03780687125835102
1690840814005400600,6.650400634765625,0.1786304740101099,-0.036701636263076216,0.04061650358529296
1690840814015440600,6.660440673828125,0.18731120859384537,-0.0417134000104852,0.03621466103030834
1690840814025481700,6.670481689453125,0.18147768013477325,-0.042501445115637033,0.03924239765391685
1690840814035521800,6.680521728515625,0.17788345503509043,-0.03964377239588648,0.032545621695322914
1690840814045561600,6.6905615234375,0.17249708582162857,-0.0349709582792595,0.035472902752296066
1690840814055602400,6.7006025390625,0.17578852858245372,-0.04204296075841412,0.032429530168138446
1690840814065642500,6.710642578125,0.180277072173357,-0.03952706894734874,0.03784607989073265
1690840814075682600,6.7206826171875,0.17324819644987582,-0.04083807848067954,0.04283983305741567
1690840814085722600,6.73072265625,0.17250234651863575,-0.03221044405736029,0.034007716437405903
1690840814095763700,6.740763671875,0.1846253305107355,-0.03764605924002826,0.03804453877201304
1690840814105803800,6.7508037109375,0.1771440348446369,-0.0440664476763457,0.04296726796252187
1690840814115843800,6.76084375,0.17490063983201978,-0.0335603425626643,0.030945762450364418
1690840814125884700,6.770884765625,0.17026187411546706,-0.03908252178393304,0.03717705348879099
1690840814135924500,6.780924560546875,0.18447920003831386,-0.04156029180800542,0.03646670412919484
1690840814145964500,6.790964599609375,0.18717384594976902,-0.036120840700436384,0.03763928700594697
1690840814156035600,6.80103564453125,0.18433014695644379,-0.034369978445116425,0.03709456740368623
1690840814166075600,6.81107568359375,0.18074001350998878,-0.033864385276846584,0.035216644702595654
1690840814176116700,6.82111669921875,0.18089082015752792,-0.04428704989077523,0.02960453587528318
1690840814186156800,6.83115673828125,0.1837362727165222,-0.036843821212742475,0.03707939723401796
1690840814196196600,6.841196533203125,0.18074410516321657,-0.043548652613628655,0.03463283063238486
1690840814206236700,6.851236572265625,0.18134265557825563,-0.04281094945622608,0.0273578757599229
1690840814216277500,6.861277587890625,0.1668260544478893,-0.04588047482836991,0.038990893411147406
1690840814226317600,6.871317626953125,0.1755062045097351,-0.04224980844212696,0.03596082326655742
1690840814236357600,6.881357666015625,0.17805238186120986,-0.037953590819239616,0.044823092996235936
1690840814246398700,6.891398681640625,0.18538462444543838,-0.04587444694638252,0.0368207645641407
1690840814256438800,6.901438720703125,0.18418810813724992,-0.03837757011866197,0.032309333287994374
1690840814266478600,6.911478515625,0.1850871028035879,-0.03818451349828392,0.033461891723447476
1690840814276518700,6.9215185546875,0.18089958798587322,-0.04017510279361158,0.035140871486067767
1690840814286559500,6.9315595703125,0.172969964030385,-0.043727096186764534,0.04458507385612465
1690840814296599600,6.941599609375,0.17222177601158617,-0.04253249784102663,0.032870533667597915
1690840814306639600,6.9516396484375,0.18164777600467205,-0.040168709585443135,0.034334281510650176
1690840814316710700,6.961710693359375,0.173419461363554,-0.03845876386240125,0.045015450930292716
1690840814326750700,6.971750732421875,0.18374445602297781,-0.04443217571619898,0.03940853430132847
1690840814336791800,6.981791748046875,0.17820669564008712,-0.04479415916269645,0.028140372473699972
1690840814346831600,6.99183154296875,0.18329495868980883,-0.042223998147435486,0.030367012714338486
1690840814356871700,7.00187158203125,0.18464111260175703,-0.043148255119193346,0.03495066897647921
1690840814366911700,7.011911865234375,0.17671148864626884,-0.0393448259819299,0.03211234027801547
1690840814376952600,7.02195263671875,0.1771621550232172,-0.03778429866693914,0.032973418653337284
1690840814386992600,7.03199267578125,0.16938216867148875,-0.03277079962017015,0.03471372754860203
1690840814397032700,7.04203271484375,0.1804594430029392,-0.038602300518937406,0.03781640170509927
1690840814407073800,7.05207373046875,0.18240823898315428,-0.041438766053877765,0.037442554290872065
1690840814417113600,7.062113525390625,0.18420447475016116,-0.041860644727759064,0.02694757792598102
1690840814427153700,7.072153564453125,0.1891431001961231,-0.03840316121764481,0.027655032075592317
1690840814437193700,7.08219384765625,0.17896774314045905,-0.03569207562804222,0.036616560928663236
1690840814447234600,7.092234619140625,0.18350304848253726,-0.04613198363771662,0.02427830848437734
1690840814457274600,7.102274658203125,0.18023498659729956,-0.2032138207225129,0.14421288443044758
1690840814467345700,7.112345703125,-0.35842005492746826,-0.8685905410502105,-0.626824907886982
1690840814477385700,7.1223857421875,0.43605859040319916,0.6707767162077128,0.490194012151286
1690840814487425500,7.132425537109375,0.4111889375627041,-0.2725848055252805,0.3119526105239987
1690840814497466600,7.142466552734375,0.016731354570388792,0.06329215807942673,-0.25188390800310295
1690840814507506700,7.152506591796875,0.353265740904212,0.1333611898826435,0.05362507933946326
1690840814517546800,7.162546630859375,0.21277005949914454,-0.048666525350324806,0.12578457148275338
1690840814527586800,7.1725869140625,-0.02903670939207077,0.08264050848148763,0.4182460164673626
1690840814537627600,7.182627685546875,0.45643677704334257,0.28213034024480727,-0.18509828178472815
1690840814547667700,7.192667724609375,0.30140988146066666,0.29841506529254835,-0.049420211528148496
1690840814557707500,7.20270751953125,0.22595921141803263,-0.0042195356574840845,-0.15462627889253197
1690840814567748600,7.21274853515625,0.2322393146008253,-0.10102879994604735,-0.07080353378995786
1690840814577788700,7.22278857421875,0.1943891841560602,0.05662572246016934,-0.0908890713261906
1690840814587828700,7.232828857421875,0.22037819641530512,0.0030187998319044706,-0.06473422381363343
1690840814597868800,7.242868896484375,0.16340017165243625,-0.1470783477310091,0.06426203972462098
1690840814607909600,7.25290966796875,0.016729601004719732,-0.14914538152972234,0.1334442193904426
1690840814617980700,7.262980712890625,0.1300479371488094,-0.15845086041567846,0.17666427023736758
1690840814628020700,7.273020751953125,0.073298460444808,-0.22231572208283468,0.21026421415805815
1690840814638060500,7.283060546875,0.04057517149448395,-0.21744219776233656,0.16095683362092822
1690840814648100600,7.2931005859375,0.1292991646081209,-0.19994462632611393,0.08236766462316736
1690840814658141700,7.3031416015625,0.1445101777434349,-0.18347508276337757,0.016616418387251905
1690840814668181800,7.313181640625,0.16089374178946017,-0.11686464871512725,-0.04249840834175702
1690840814678221800,7.323221923828125,0.21438976965546608,-0.08392983590597286,-0.05046631848101969
1690840814688262700,7.3332626953125,0.19368541980087756,-0.031631347261462356,-0.04175896988499444
1690840814698302700,7.343302734375,0.23346505700349807,-0.006355634370725602,-0.013358702082803937
1690840814708342500,7.353342529296875,0.2119353622406721,0.02998772650659084,0.018368538734607864
1690840814718382600,7.363382568359375,0.1919534814417362,0.05297768481401726,0.051185832961183036
1690840814728423700,7.373423583984375,0.2549292853146791,0.06189973560664802,0.07423619795264676
1690840814738463700,7.383463623046875,0.17491057670414448,0.07965414961446077,0.09104477334455587
1690840814748503800,7.39350390625,0.19490005628764628,0.07239798620743676,0.09298447270286268
1690840814758544600,7.403544677734375,0.24441139843165874,0.06430648622112348,0.0744618325352203
1690840814768614700,7.41361474609375,0.17693711409568785,0.05645551699241623,0.0465827961451374
1690840814778655700,7.42365576171875,0.21302783365249633,0.027799039089586586,0.011911661062669008
1690840814788695600,7.433695556640625,0.211560683709383,0.005407503333035856,-0.00021413822431350126
1690840814798735600,7.443735595703125,0.1806038199096918,-0.02701693053487688,-0.0235201881600311
1690840814808775700,7.453775634765625,0.18702829999923706,-0.06349593702321872,-0.012354899901698808
1690840814818816800,7.463816650390625,0.1540600963771343,-0.09192362940516323,0.014247506431979126
1690840814828856800,7.47385693359375,0.14543898302614688,-0.12294568566186354,0.05503180433223024
1690840814838896600,7.483896728515625,0.14545242702960967,-0.12490863803159445,0.0715076726044761
1690840814848937700,7.493937744140625,0.0961900912106037,-0.13723755639195442,0.08828679813961499
1690840814858977000,7.50397705078125,0.14490005384385585,-0.14303623273335397,0.08802443000953644
1690840814869017000,7.51401708984375,0.13327683606743812,-0.1222410262575373,0.06646522145785856
1690840814879057200,7.52405712890625,0.12926935399174688,-0.0967837279885076,0.04698370052964892
1690840814889098200,7.53409814453125,0.19513211147785187,-0.07634875139351933,0.02437297819762025
1690840814899138300,7.54413818359375,0.171218736448884,-0.05468381287846714,0.01515332584803691
1690840814909178400,7.554178466796875,0.19355565594136714,-0.039328331504855304,0.01875648088955786
1690840814919249200,7.564249267578125,0.21726035665571689,-0.015933829250838607,0.011241088874323759
1690840814929289200,7.574289306640625,0.18847031550109386,0.012517572800256312,0.017195035692537202
1690840814939330000,7.584330078125,0.20894553277492522,0.02181037486772984,0.039479302549175914
1690840814949370000,7.5943701171875,0.20476035604476928,0.027673458214849234,0.044001711877062914
1690840814959410200,7.60441015625,0.19925883601903915,0.030402956243976948,0.040887018489209004
1690840814969451300,7.614451171875,0.21338673009276388,0.027309958664700387,0.04334629844194278
1690840814979491300,7.6244912109375,0.18578736002743243,0.016441851838212458,0.03928225930684712
1690840814989531100,7.63453125,0.20234160446524618,0.009183204213157296,0.031391976414481174
1690840814999571200,7.6445712890625,0.19899813925623894,-0.01415728456499055,0.024467867106571794
1690840815009612000,7.654612060546875,0.16766601240336895,-0.032791312685236336,0.019457779293018392
1690840815019652000,7.664652099609375,0.1861544397741556,-0.04473925063768402,0.02754310755016049
1690840815029692200,7.674692138671875,0.1673632300645113,-0.056850142333190884,0.032335399311012585
1690840815039732200,7.684732177734375,0.15318682067394257,-0.07659370259791612,0.037954225573479196
1690840815049773300,7.694773193359375,0.15424655885994434,-0.08759193861009552,0.03159757285602391
1690840815059813400,7.7048134765625,0.13238251757621763,-0.09341987757859752,0.036715829185210165
1690840815069853200,7.714853271484375,0.16257365770041943,-0.09348015639847145,0.04133934253370389
1690840815079924200,7.72492431640625,0.17613515006303787,-0.0930001725954935,0.04187496551405638
1690840815089964000,7.734964111328125,0.14614157833755015,-0.08156601111777126,0.03865343705113046
1690840815100005000,7.745005126953125,0.1803419541031122,-0.060557015760801726,0.037554663762683044
1690840815110045200,7.755045166015625,0.18147241943776607,-0.05402642668196931,0.03167693540228065
1690840815120085200,7.765085205078125,0.17707272317409514,-0.035991314302943646,0.03447337488750927
1690840815130126300,7.775126220703125,0.20470891811847686,-0.03190017253179103,0.03761241726533044
1690840815140166100,7.785166259765625,0.18642331984341143,-0.012158128370717168,0.0364378387943143
1690840815150206200,7.795206298828125,0.19598609795868396,-0.0034678953062742945,0.03185999350174097
1690840815160246000,7.80524609375,0.19928104785084724,0.0008680880714207887,0.03626101178952958
1690840815170287000,7.815287109375,0.1943622961491346,0.0014765570922754703,0.03723370187974069
1690840815180327200,7.8253271484375,0.20187983217239377,0.003381148604582995,0.03199476917979773
1690840815190367200,7.8353671875,0.20073007761538028,-0.01041108377398923,0.024465195658872833
1690840815200408300,7.845408203125,0.1921019500017166,-0.02958995936065912,0.03650429847651394
1690840815210448400,7.855448486328125,0.18946224914789198,-0.028279169023036954,0.039604645961895585
1690840815220488200,7.86548828125,0.1784387508302927,-0.04072994193108752,0.03183890733122825
1690840815230559200,7.875559326171875,0.1841676498711109,-0.04804996435455978,0.0307443809596356
1690840815240599000,7.88559912109375,0.17192600793540477,-0.05836757942512631,0.042911934745823964
1690840815250639000,7.89563916015625,0.16341069304645062,-0.06632021893002092,0.03607954514224548
1690840815260680200,7.90568017578125,0.1753793632596731,-0.0696969288215041,0.03593688983512111
1690840815270720300,7.91572021484375,0.1665355470687151,-0.0573241530531086,0.04342843290059827
1690840815280760000,7.925760009765625,0.15648352413177488,-0.06530092235226184,0.03646494143037125
1690840815290801200,7.93580126953125,0.17560498870909214,-0.06845237212050706,0.034680405234312636
1690840815300841200,7.94584130859375,0.17377309710681438,-0.05800446346746757,0.02795681433402933
1690840815310881000,7.955881103515625,0.18525953676104545,-0.05304925221288576,0.03234470599547494
1690840815320921000,7.965921142578125,0.18088614398241043,-0.04637834134791046,0.032511938621429724
1690840815330962200,7.975962158203125,0.18235329392552374,-0.042949919535499065,0.038170498672663235
1690840815341002200,7.986002197265625,0.1941536218345165,-0.02271673085661605,0.03245021676314063
1690840815351042300,7.996042236328125,0.18860709362328051,-0.021042532300390302,0.037177927988336884
1690840815361083400,8.00608349609375,0.19009996252954006,-0.01711863685492426,0.034015392853785305
1690840815371123200,8.016123291015624,0.18128186530172824,-0.018646997199673204,0.030161489338031967
1690840815381194200,8.0261943359375,0.18204641993343829,-0.02184215824548155,0.03870378813203424
1690840815391234000,8.036234130859375,0.18715514124929905,-0.015890629429928957,0.03910161007689312
1690840815401274000,8.046274169921874,0.1868821695268154,-0.021703462160844355,0.02825598679356044
1690840815411315200,8.056315185546875,0.18301964887976646,-0.03401376715227961,0.03527754914355464
1690840815421355300,8.066355224609374,0.1814011077672243,-0.03810260736849159,0.029988146631699054
1690840815431395000,8.07639501953125,0.17783435519635676,-0.04905130515052005,0.03357137084675487
1690840815441435100,8.08643505859375,0.17635493029356003,-0.05643178905695676,0.03962462017084472
1690840815451476200,8.096476318359375,0.17337445317804812,-0.06117304703360423,0.039726715138717554
1690840815461516000,8.10651611328125,0.1703817011028528,-0.06118225325336679,0.03896841671785805
1690840815471556000,8.11655615234375,0.1818938597202301,-0.0556040512622334,0.03543329226111527
1690840815481597200,8.12659716796875,0.17933540740907192,-0.04677899457067251,0.03994036702255253
1690840815491637200,8.13663720703125,0.1770738922178745,-0.05122201851941645,0.039652526524499986
1690840815501677000,8.146677001953124,0.18618191230297088,-0.04889052509823814,0.034414333610073664
1690840815511717000,8.156717041015625,0.1893050127595663,-0.03892250891663134,0.03205383100683102
1690840815521758000,8.166758056640624,0.19751812983155248,-0.03559071587910875,0.03008754046912072
1690840815531828200,8.176828125,0.19391279881596565,-0.03317116058198735,0.029907172083668408
1690840815541869000,8.186869140625,0.17564473619759083,-0.034293935800530015,0.025448471075179984
1690840815551909000,8.1969091796875,0.18686171126067638,-0.029161468282900747,0.03769710900725331
1690840815561949200,8.20694921875,0.18416998795866965,-0.02834048902252689,0.03440864365480374
1690840815571990300,8.216990234375,0.17280395981371402,-0.028981928731221705,0.033263483074516986
1690840815582030000,8.227030029296875,0.18433540765345097,-0.026789953378587958,0.033249144021910614
1690840815592070100,8.237070068359374,0.17222820575237274,-0.026687260189093648,0.03298239654423669
1690840815602110200,8.247110107421875,0.18810440479815005,-0.02696121829226613,0.04107674150818493
1690840815612151000,8.257151123046874,0.1855745940595865,-0.03940232832282781,0.03497895435604732
1690840815622191000,8.267191162109375,0.17765958315134048,-0.04427649196414277,0.03727649984185118
1690840815632231200,8.277231201171874,0.17871873681545256,-0.04904434568677097,0.031169999660295433
1690840815642272300,8.287272216796875,0.17154373061954975,-0.049188302468415344,0.029186461160262113
1690840815652312000,8.29731201171875,0.16391279734969139,-0.04241811421373859,0.03679367106123827
1690840815662352100,8.30735205078125,0.1779769785374403,-0.044887883594445885,0.03206343680210411
1690840815672392200,8.31739208984375,0.1775233895510435,-0.04554084934415296,0.031925736231310294
1690840815682463200,8.327463134765624,0.16973405084908008,-0.04768379792328924,0.0382622594761895
1690840815692503300,8.33750341796875,0.17705577203929423,-0.04603150067161768,0.037806003608671014
1690840815702544100,8.347544189453124,0.17809154482781886,-0.04950978950774297,0.03467379739701282
1690840815712584200,8.357584228515625,0.17478958067297934,-0.04079244924066588,0.033909566992288455
1690840815722624000,8.3676240234375,0.1716372541218996,-0.032799769986327734,0.03608725352466572
1690840815732665000,8.3776650390625,0.17821546346843242,-0.027679796624090522,0.03366275262436829
1690840815742705200,8.387705078125,0.18419862953126429,-0.04257692150464281,0.03643791642612777
1690840815752745200,8.3977451171875,0.17641805865764618,-0.025361582809593528,0.0340009213704383
1690840815762785300,8.407785400390624,0.17118249609172342,-0.03562839927468449,0.03330178752460051
1690840815772826000,8.417826171875,0.1792670183479786,-0.03590394654674455,0.027074642938328904
1690840815782866200,8.4278662109375,0.1869032123148441,-0.037664873538352545,0.029606622801092452
1690840815792906000,8.437906005859375,0.19169804537594318,-0.03469681751299649,0.038096232426632196
1690840815802947000,8.447947021484374,0.18048399292230605,-0.03808361040707677,0.03159372779796831
1690840815812987100,8.457987060546875,0.17211071685254573,-0.03869516643416136,0.02936886395588517
1690840815823027200,8.468027099609374,0.18783026403188705,-0.04198021598681807,0.03954785144047346
1690840815833098200,8.47809814453125,0.17361995237171648,-0.041902054450381546,0.04420923998078797
1690840815843138300,8.48813818359375,0.1730225710004568,-0.0488737383602187,0.03310810528313741
1690840815853179100,8.49817919921875,0.17451953155994415,-0.051394726471509784,0.03484366037147119
1690840815863214300,8.50821435546875,0.18140169228911399,-0.04591930900141596,0.03349937875620089
1690840815873254400,8.51825439453125,0.1716717409133911,-0.04934926518378779,0.031758540137973613
1690840815883294200,8.528294189453124,0.1745090101659298,-0.04047686221916228,0.028978681894787587
1690840815893335000,8.5383349609375,0.1742033052176237,-0.041195184822659936,0.031355188068049024
1690840815903375000,8.548375,0.1750917784899473,-0.04142057281006127,0.03722924490033183
1690840815913415200,8.558415283203125,0.18227146086096763,-0.04109145045354962,0.0314139736171579
1690840815923456300,8.568456298828124,0.18032675653398036,-0.04138504483895376,0.03499873220217414
1690840815933496300,8.578496337890625,0.17419103025794028,-0.04318427628064528,0.03113539413779508
1690840815943536400,8.588536376953124,0.17883271858394145,-0.03213832866922021,0.03489172816374339
1690840815953576200,8.598576171875,0.18287702553868293,-0.028989965907204894,0.03712564752853941
1690840815963617000,8.608616943359374,0.18392916494011877,-0.03567274987306446,0.03469827881772071
1690840815973657000,8.618656982421875,0.18273674028515816,-0.03578357157008722,0.032555079076834956
1690840815983697200,8.628697265625,0.19202011693716048,-0.042267124903108924,0.030531564759439786
1690840815993768200,8.638768310546874,0.17736089246571063,-0.03622947044037282,0.03114035344070289
1690840816003808300,8.648808349609375,0.18858663535714149,-0.03414694681158289,0.028174612670019267
1690840816013849300,8.658849365234374,0.18200550340116023,-0.04316489572674036,0.03583283123902511
1690840816023889400,8.668889404296875,0.17198153751492498,-0.04037833374813199,0.03311577713293955
1690840816033929200,8.67892919921875,0.18425415911078452,-0.04117523801317438,0.03576958414393011
1690840816043969300,8.68896923828125,0.17871581420600413,-0.04333482719985768,0.03283159446327481
1690840816054010000,8.699010009765624,0.1781149257034063,-0.04313557830071076,0.03172590737685095
1690840816064050200,8.70905029296875,0.18050620475411414,-0.04177082928614691,0.04041645553512498
1690840816074090200,8.71909033203125,0.1819979046165943,-0.04196348404772579,0.04012887533197645
1690840816084131300,8.72913134765625,0.18064941261708736,-0.03905373408086598,0.03620770156655926
1690840816094171400,8.73917138671875,0.1816939532339573,-0.04486842997530475,0.030163909623981452
1690840816104211200,8.749211181640625,0.17705343395173548,-0.03430831138575449,0.02902838908829726
1690840816114251300,8.759251220703124,0.17166589569449422,-0.027903211850114164,0.024024543785862624
1690840816124292000,8.7692919921875,0.18543080167472362,-0.030366478424798695,0.027571879270207135
1690840816134332200,8.779332275390624,0.18872399800121784,-0.03630270007336512,0.02956461029027123
1690840816144403200,8.7894033203125,0.1764525454491377,-0.033666963008604944,0.029272500042477622
1690840816154443300,8.799443359375,0.17645488353669642,-0.03282601867243647,0.034470365513092835
1690840816164483300,8.8094833984375,0.17855331712067127,-0.04181552694439888,0.031424554376676676
1690840816174524400,8.8195244140625,0.18394377798736095,-0.04509485914232209,0.036413982994691466
1690840816184564200,8.829564208984374,0.18095336399972436,-0.039920159918162966,0.026895144485845228
1690840816194604000,8.83960400390625,0.1769131486982107,-0.040059805850870905,0.0347713486205088
1690840816204644000,8.84964404296875,0.17616671424508093,-0.034436230348050594,0.03165275994224939
1690840816214685200,8.859685302734375,0.1875403411746025,-0.035902393910475075,0.037225212612608444
1690840816224725200,8.869725341796874,0.17631810541450976,-0.038566388955339787,0.037281911235908044
1690840816234765300,8.879765380859375,0.1778150659739971,-0.035252222906053066,0.042016086451220326
1690840816244806400,8.889806396484374,0.17945932604968548,-0.04219995968472212,0.029583657484035936
1690840816254846200,8.89984619140625,0.19127777413725852,-0.040533122451044616,0.03137462798745837
1690840816264886000,8.909885986328124,0.18499065669178963,-0.03911918226620182,0.03310383096681908
1690840816274926000,8.919926025390625,0.17990180912017822,-0.040212000737898046,0.031125621662451884
1690840816284967200,8.92996728515625,0.17989947103261947,-0.03775054252780974,0.032124007882922884
1690840816295038200,8.9400380859375,0.17690613443553446,-0.03986828360045328,0.044610984615515915
1690840816305078300,8.950078369140625,0.17989888651072977,-0.03868672739937901,0.0405485392158851
1690840816315118300,8.960118408203124,0.18199439748525617,-0.04030855644755065,0.04170225756196305
1690840816325158100,8.970158203125,0.1878320175975561,-0.03453939846158027,0.028711180931865237
1690840816335199200,8.98019921875,0.18798282424509524,-0.038374793639685954,0.03368896934443619
1690840816345239000,8.990239013671875,0.18424480676054952,-0.03884842076711356,0.028962708007520994
1690840816355279000,9.000279052734374,0.1872398969233036,-0.03473393465299159,0.03353279696861282
1690840816365320200,9.0103203125,0.18245324716866015,-0.03735104008251801,0.033855151657620444
1690840816375360300,9.0203603515625,0.1836491789549589,-0.042791769831720734,0.04108355484146159
1690840816385400300,9.030400390625,0.18769114782214164,-0.03509268496278673,0.039017242561955934
1690840816395440000,9.040440185546874,0.17871522968411443,-0.029476251586806026,0.027909363029687665
1690840816405481200,9.050481201171875,0.1731786383450031,-0.03634807358505204,0.03494425293542445
1690840816415521000,9.06052099609375,0.17722002269029616,-0.03915668299868703,0.03436436612165999
1690840816425561000,9.07056103515625,0.17542144883573055,-0.03881292932862416,0.03884645257231314
1690840816435602200,9.080602294921874,0.18275252237617967,-0.03858094720365479,0.03668832469035405
1690840816445672200,9.090672119140624,0.17137831092476843,-0.03833930220119655,0.03613579624097328
1690840816455713300,9.10071337890625,0.17885960659086703,-0.026099980086740106,0.02576809038440697
1690840816465753000,9.110753173828124,0.1779600274026394,-0.03171102490155026,0.03510791906453669
1690840816475793200,9.120793212890625,0.1758639319062233,-0.03609923165682703,0.03936642589238472
1690840816485833200,9.130833251953124,0.18229717982411384,-0.04036425042385235,0.04325190728991292
1690840816495874000,9.1408740234375,0.181998489138484,-0.039899884315114466,0.04188677468285896
1690840816505914000,9.1509140625,0.1837935558617115,-0.03424631553282961,0.03359476085549686
1690840816515954200,9.1609541015625,0.18409516915678978,-0.03309619564963504,0.036091030084062364
1690840816525995300,9.170995361328124,0.18140403037667274,-0.03823242602692917,0.03686615634213667
1690840816536035300,9.181035400390625,0.1854448302000761,-0.03834706538254395,0.03195447370202746
1690840816546075100,9.1910751953125,0.18574644349515437,-0.04379060814334079,0.03317688250329811
1690840816556115200,9.201115234375,0.18784370803534983,-0.040238651282805946,0.02778211078767199
1690840816566156000,9.211156005859374,0.17722352982163428,-0.03885459477957338,0.020863942596782
1690840816576196000,9.221196044921875,0.18261106807887553,-0.045296007737610486,0.02928533669116441
1690840816586236200,9.231236083984374,0.1891957071661949,-0.03972618998233229,0.029124716469086705
1690840816596307200,9.24130712890625,0.1841109512478113,-0.034525497800391165,0.031215651733195408
1690840816606347000,9.251346923828125,0.18560791180729866,-0.03435624218070879,0.03585584222185425
1690840816616388000,9.26138818359375,0.17977087621688842,-0.039931010105740274,0.04241458424951415
1690840816626428200,9.27142822265625,0.1860544865310192,-0.04491237871488556,0.03523976528327912
1690840816636468200,9.28146826171875,0.1833615941852331,-0.041903351358324285,0.03922561548247468
1690840816646508300,9.29150830078125,0.17692776174545288,-0.03798678070278838,0.03637300709690899
1690840816656549000,9.301549072265624,0.16824761168360708,-0.038470381234958766,0.031574068682850336
1690840816666589200,9.311589111328125,0.1772264524310827,-0.03275609524138272,0.027423556840699165
1690840816676629200,9.321629150390624,0.17423545392155645,-0.03238744459208101,0.02785537695328239
1690840816686670300,9.33167041015625,0.1766296555817127,-0.03268514889702201,0.03851606984047685
1690840816696710100,9.341710205078124,0.18800445155501364,-0.03692375458115712,0.0434983471984975
1690840816706750200,9.351750244140625,0.18276713542342185,-0.04441157131958753,0.04250103412368335
1690840816716790300,9.361790283203124,0.18007365855574606,-0.0408307171581313,0.034725847244658506
1690840816726831000,9.3718310546875,0.1767828003168106,-0.03538755798982456,0.03536370675677899
1690840816736871200,9.38187109375,0.18606150079369543,-0.03368968629706651,0.03171570564324502
1690840816746942200,9.391942138671874,0.17513854024112224,-0.037865437611751256,0.032882767528085964
1690840816756982000,9.40198193359375,0.178281514441967,-0.0415635066783987,0.0358876210330287
1690840816767022000,9.41202197265625,0.1803805325478315,-0.03136929879179224,0.03318749066228047
1690840816777063200,9.422063232421875,0.18741291540265081,-0.03258696748586371,0.037649986496474594
1690840816787103200,9.432103271484374,0.18935878877341747,-0.038267223345674575,0.03566699598571285
1690840816797143300,9.442143310546875,0.18846505480408668,-0.032257315406389535,0.043252427879720924
1690840816807184100,9.45218408203125,0.17724281904399394,-0.035232732754293825,0.03579280975589063
1690840816817224200,9.46222412109375,0.17634440889954567,-0.03479779366943985,0.03919466778836213
1690840816827264300,9.47226416015625,0.18098200557231903,-0.031107049392722547,0.038935121803032234
1690840816837304000,9.482303955078125,0.175894327044487,-0.03708555754674599,0.03653222537976689
1690840816847345200,9.49234521484375,0.18861761501729488,-0.040073870908841486,0.027962212028354406
1690840816857361700,9.502361572265626,0.17470599404275416,-0.03433753748023882,0.03514839720539748
1690840816867401500,9.5124013671875,0.17425825027525424,-0.037734870034642515,0.03348809931036085
1690840816877442600,9.522442626953126,0.17605390152037143,-0.02993924772236496,0.03213636504099704
1690840816887482600,9.532482666015625,0.18203882114887238,-0.032660105787310746,0.02893571496931836
1690840816897522400,9.5425224609375,0.17455927904844282,-0.0353989379003644,0.03234321729128715
1690840816907593500,9.552593505859376,0.17755144660174846,-0.03244569585165009,0.03751772928577848
1690840816917633500,9.562633544921875,0.18279226986467836,-0.029462460523471234,0.038371948662051
1690840816927673600,9.572673583984376,0.18444003707170487,-0.04193321677362546,0.03168590416002553
1690840816937714700,9.582714599609375,0.17935469663143158,-0.03944706251369789,0.02931472261585295
1690840816947754500,9.59275439453125,0.17411738049983977,-0.023875837763864545,0.030294522866862825
1690840816957794300,9.602794189453125,0.18130232356786727,-0.03499291438274085,0.031225497273774817
1690840816967835400,9.61283544921875,0.18414777612686156,-0.03534808449596166,0.03352679191951174
1690840816977875500,9.62287548828125,0.1826560762643814,-0.0374103690543212,0.031076731886272316
1690840816987915500,9.63291552734375,0.18534955313205717,-0.03951910483660176,0.03084201438152231
1690840816997955600,9.64295556640625,0.186097741150856,-0.034567090186104175,0.029153723367862403
1690840817007996700,9.65299658203125,0.1777192043840885,-0.03495853718910366,0.033616639327164737
1690840817018036500,9.663036376953125,0.1754752248495817,-0.040176728495117275,0.036013877761201
1690840817028076500,9.67307666015625,0.1757762536227703,-0.03904858298171311,0.03567671366212889
1690840817038117600,9.68311767578125,0.18580314211845397,-0.03316387232467532,0.03302297058322001
1690840817048157400,9.693157470703126,0.18744740219414233,-0.03772212015092373,0.04100830221474171
1690840817058228500,9.703228515625,0.18670155226290225,-0.031332473912741986,0.03675704254501033
1690840817068268500,9.7132685546875,0.18041852647066114,-0.03185695444457233,0.032563782973098566
1690840817078308600,9.72330859375,0.18281389717459678,-0.03465626630689948,0.03605651132653002
1690840817088349700,9.733349609375,0.18835224207937717,-0.034285734227765347,0.02364064533507917
1690840817098389500,9.743389404296876,0.1841623891741037,-0.027408176608476786,0.0317216102276463
1690840817108429300,9.75342919921875,0.17698095323741436,-0.0397836557906121,0.03535180168985389
1690840817118469400,9.763469482421876,0.17862755140066147,-0.039303434525616465,0.03139846552077215
1690840817128510500,9.773510498046875,0.18775719879567623,-0.030555096332076936,0.041200303955771955
1690840817138550500,9.783550537109376,0.18551263473927973,-0.034139749885816126,0.04431775555629283
1690840817148590600,9.793590576171875,0.18237082958221434,-0.0365071000716649,0.031075909902364945
1690840817158630700,9.803630615234376,0.1772843200981617,-0.044671318234317005,0.031033312869654037
1690840817168671500,9.81367138671875,0.17907997134327888,-0.04287561219027266,0.033182097534532655
1690840817178711300,9.823711181640626,0.1834188773304224,-0.037363424640055744,0.033430679167853666
1690840817188751400,9.83375146484375,0.17608838831186294,-0.02965542581230402,0.035561448685429056
1690840817198792400,9.84379248046875,0.17728782722949982,-0.026868571572750806,0.03284067738545127
1690840817208862500,9.853862548828126,0.17519173173308372,-0.03153687391104176,0.03535014402230736
1690840817218903600,9.863903564453125,0.1777361555188894,-0.038254875320754944,0.03736140164632815
1690840817228943600,9.873943603515626,0.1741466065943241,-0.03386827600067481,0.027043462348775936
1690840817238983700,9.883983642578125,0.18492051406502721,-0.03416267410367727,0.0282798951088218
1690840817249024500,9.8940244140625,0.1822282062411308,-0.02993035202985629,0.0356716904271394
1690840817259064300,9.904064208984375,0.1757932047575712,-0.034899774472881104,0.03173994503535796
1690840817269104400,9.9141044921875,0.17743921839892862,-0.037579003619495774,0.03379195022829808
1690840817279144400,9.92414453125,0.17459727297127245,-0.029909400573372838,0.029643265017052178
1690840817289185500,9.934185546875,0.17654548442959783,-0.029483247583173215,0.0328108485027682
1690840817299225600,9.9442255859375,0.17774258525967596,-0.036529476300254465,0.03300446224557236
1690840817309265700,9.954265625,0.18537527209520338,-0.0346911366908811,0.028527536027226595
1690840817319306500,9.964306396484375,0.1865723729252815,-0.0396327943441458,0.029865922191250137
1690840817329346300,9.97434619140625,0.1777449233472347,-0.03268798017492518,0.03519649696371052
1690840817339386400,9.984386474609375,0.1837327655851841,-0.03499262212179601,0.03556114272475242
1690840817349426400,9.994426513671876,0.18298516208827495,-0.03405256479270756,0.038618626032653265
1690840817359497500,10.00449755859375,0.18028934713304043,-0.03907958090817556,0.034496723797055893
1690840817369537500,10.01453759765625,0.18043547760546205,-0.03817817508904263,0.03484963345453143
1690840817379578600,10.02457861328125,0.18148235630989074,-0.026983320526219903,0.034167085417313496
1690840817389618700,10.03461865234375,0.18701953217089176,-0.027699122379068283,0.03466895225853659
1690840817399658500,10.044658447265626,0.18313187708258627,-0.030253190776053814,0.031539243964641354
1690840817409699300,10.05469921875,0.1829828240007162,-0.028285507432278242,0.02697040624571964
1690840817419739400,10.064739501953126,0.17610066327154636,-0.030476459871605036,0.035078729502670464
1690840817429779500,10.074779541015625,0.1677197884172201,-0.031870288850180804,0.02970696876987349
1690840817439819500,10.084819580078126,0.17460253366827963,-0.03773901648679748,0.0359195414080983
1690840817449860600,10.094860595703125,0.18447978456020353,-0.03529109361171722,0.03146211904124357
1690840817459900700,10.104900634765626,0.18403145627081394,-0.03796042241882533,0.03568646787116304
1690840817469940500,10.1149404296875,0.17774667691290377,-0.0345129305797629,0.032008765739109366
1690840817479981300,10.124981201171876,0.17265782934129237,-0.037122017099615184,0.03774963834551163
1690840817490021400,10.135021484375,0.18358195893764495,-0.03422841454995796,0.03635663135084324
1690840817500061400,10.1450615234375,0.1835842970252037,-0.031431294644717125,0.03565240120477974
1690840817510132500,10.155132568359376,0.18059154495000837,-0.0290375861749053,0.03364344970227685
1690840817520172500,10.165172607421875,0.181039873239398,-0.02712831848748028,0.037376247589010744
1690840817530213600,10.175213623046876,0.18043956925868987,-0.03318619375433773,0.03321961653332692
1690840817540253700,10.185253662109375,0.18268530235886574,-0.03642482861569151,0.039832965691899876
1690840817550293500,10.19529345703125,0.18133914844691754,-0.03415372361224144,0.03173881252419669
1690840817560333600,10.20533349609375,0.18238836523890495,-0.033034035399928684,0.025724178177444264
1690840817570374400,10.21537451171875,0.18164134626388548,-0.034188137338496745,0.0329991239167517
1690840817580414500,10.22541455078125,0.17834873445928096,-0.02732139337416738,0.032683322266116734
1690840817590454500,10.23545458984375,0.17835048802495002,-0.028735625819955018,0.0304337669407716
1690840817600495600,10.24549560546875,0.1761070930123329,-0.030636363141052423,0.03315232345077675
1690840817610535700,10.25553564453125,0.17610417040288448,-0.031205723994225262,0.033196034728339874
1690840817620575500,10.265575439453125,0.17685002033412456,-0.04043556209439411,0.035396535880723966
1690840817630615600,10.275615478515626,0.18373159654140472,-0.033915165616013106,0.03725448437286541
1690840817640656400,10.285656494140625,0.18941607191860674,-0.036687406808324156,0.035611617103242316
1690840817650696400,10.295696533203126,0.1823813509762287,-0.031662052926979954,0.03135014656675048
1690840817660767500,10.305767578125,0.1757978809326887,-0.029702881683222947,0.039998536083730864
1690840817670807600,10.3158076171875,0.17654548442959783,-0.0324261874335818,0.030679562961962073
1690840817680847600,10.32584765625,0.1912082160323858,-0.03981719273403287,0.03264868021099828
1690840817690888700,10.335888671875,0.18776772018969057,-0.03872534237671643,0.035962270871549844
1690840817700928500,10.345928466796876,0.18282792569994927,-0.03969997782884165,0.04034659603615291
1690840817710968600,10.355968505859375,0.17265081507861613,-0.03887373787146062,0.03760389603215735
1690840817721008600,10.366008544921876,0.17115268547534943,-0.03863507027737796,0.043026464503584425
1690840817731049500,10.376049560546875,0.1810270137578249,-0.034082649403717365,0.036738602706021625
1690840817741089500,10.386089599609376,0.18102759827971457,-0.03434690809678286,0.029526520469319074
1690840817751129600,10.396129638671875,0.17773440195322035,-0.03365282488539815,0.03546218499545939
1690840817761170700,10.406170654296876,0.18057926999032498,-0.03868501036632806,0.03580679261547048
1690840817771210500,10.41621044921875,0.17908523204028606,-0.03620645489096641,0.037928821704164145
1690840817781250600,10.42625048828125,0.17325053453743458,-0.0315026793804951,0.03450488427062519
1690840817791290600,10.43629052734375,0.18536650426685808,-0.03901813304452225,0.03328608763196971
1690840817801331500,10.44633154296875,0.4856412442177534,-0.005671981221809983,0.1010279140300583
1690840817811371500,10.45637158203125,-0.2765817296743393,-0.290705111969728,-0.380846588932164
1690840817821442600,10.466442626953125,0.18456570927798746,-0.004766173222195357,0.35098124669622627
1690840817831482600,10.476482666015626,0.26700083138048647,-0.24447783299768341,0.089755573784234
1690840817841522400,10.4865224609375,-0.11332008970975875,-0.3018174758808687,0.3293737739894539
1690840817851563500,10.4965634765625,0.24116905550956724,-0.1573564345087856,0.009969797146739437
1690840817861623600,10.50662353515625,0.20777531995177267,0.2775809515784494,-0.005299522047070786
1690840817871663600,10.51666357421875,0.3792278651565313,0.14174979138569904,-0.006549042617552913
1690840817881703700,10.52670361328125,0.13872633364498616,-0.09990693804295733,-0.0017301802268950269
1690840817891744500,10.53674462890625,0.17733283541500566,-0.01738455778211355,0.05356360407634638
1690840817901784600,10.54678466796875,0.27574294076263905,0.017657840031851082,-0.06694425997934304
1690840817911824400,10.556824462890624,0.2788157723367214,0.14318026258023456,-0.16263053898680954
1690840817921865500,10.566865478515625,0.36289690808057784,0.14525847536008804,-0.19501133464239537
1690840817931905500,10.576905517578124,0.15131225897371767,0.013751644639857112,-0.05829651434975676
1690840817941945600,10.586945556640625,0.32970541709661483,0.0018167488320730626,-0.03681091445698403
1690840817951985700,10.596985595703124,0.10264496643841266,0.0420621221166104,-0.003918022827105597
1690840817962026500,10.607026611328125,0.2971580692350864,0.12897961379755288,0.0003400273430161178
1690840817972097500,10.61709765625,0.1872825670212507,0.054818380777258424,0.09819819789631291
1690840817982137600,10.6271376953125,0.09804185655713081,-0.06063177976375445,0.1866205046496354
1690840817992177400,10.637177490234375,0.16368424929082392,-0.009975578433554618,0.17332991991657762
1690840818002217500,10.647217529296874,0.1333773738324642,0.03221406078655273,0.12510479992451146
1690840818012258600,10.657258544921875,0.16974866389632223,-0.09332295654276386,0.13038427469739688
1690840818022298600,10.667298583984374,0.0631727877497673,-0.14446728844977916,0.10388665532888844
1690840818032338700,10.677338623046875,0.1944768624395132,-0.10397252524774521,-0.010413449261011554
1690840818042379500,10.687379638671874,0.15767653330862522,-0.1301301720721647,-0.05024825985012576
1690840818052419600,10.697419677734375,0.14865034628808496,-0.19994826132161542,-0.050268270591693
1690840818062459400,10.70745947265625,0.12672317664027213,-0.16841080288868396,-0.06215633158306591
1690840818072499500,10.71749951171875,0.20786299823522567,-0.11097842195443808,-0.07403042341459076
1690840818082540500,10.72754052734375,0.14066402370929718,-0.1309013573740609,-0.02090256214069668
1690840818092580600,10.73758056640625,0.11578911017179488,-0.12979273854503406,0.0391867219439242
1690840818102620700,10.74762060546875,0.2035872206121683,-0.055657060091104354,0.051747960355971005
1690840818112661500,10.75766162109375,0.13171908523142337,-0.03234985252805054,0.0844105412281584
1690840818122731800,10.767731689453125,0.17537644065022467,-0.04779454655507579,0.11243401845707557
1690840818132772600,10.777772705078124,0.16249766985476016,-0.014885872834175824,0.11292386606694199
1690840818142812400,10.7878125,0.2039665753185749,0.023315628331527113,0.07142831005821935
1690840818152852500,10.7978525390625,0.19533786318302154,0.02409302417850122,0.05725393736111
1690840818162892500,10.807892578125,0.18988953464925287,0.0199586643201299,0.046746800200967116
1690840818172933600,10.81793359375,0.2382031914412975,0.041326008128095414,0.005134202816989272
1690840818182973700,10.8279736328125,0.22999007436931132,0.04500045885713771,-0.03383807950852206
1690840818193013800,10.838013671875,0.22031565257310867,0.027496731674764303,-0.037203612702153624
1690840818203054600,10.8480546875,0.23566578191816806,0.021283483183104544,-0.04142407994139939
1690840818213094400,10.858094482421874,0.2291933710336685,0.025795992171484976,-0.04412565791714005
1690840818223134500,10.868134521484375,0.19385843828022478,0.02007586095901206,-0.02281562693711603
1690840818233174500,10.878174560546874,0.21569325346946716,-0.002289462644048035,0.0016299221647263038
1690840818243215600,10.888215576171875,0.18022212711572647,-0.006632606414891779,0.02566064795455895
1690840818253255700,10.898255615234374,0.1879892539858818,-0.0016530827029608188,0.052059684053109956
1690840818263295700,10.908295654296875,0.17674129926264284,-0.026440555419027803,0.07022869304406922
1690840818273366800,10.91836669921875,0.15695231068730353,-0.05017545034224167,0.0758199052138254
1690840818283406600,10.928406494140624,0.1637777727931738,-0.05045642270809039,0.07533180203647352
1690840818293447400,10.938447509765625,0.14079612565636634,-0.06665673914169892,0.06717719195238314
1690840818303487500,10.948487548828124,0.1547457405537367,-0.08972056640293449,0.04410386621044017
1690840818313527600,10.958527587890625,0.16432956145703792,-0.09398417866416275,0.027533771182945928
1690840818323567600,10.968567626953124,0.14934475829303265,-0.0907660386015661,0.015083652437088311
1690840818333608700,10.978608642578125,0.16440964095592497,-0.09037565104449168,0.006359415496699512
1690840818343648800,10.988648681640624,0.1764560525804758,-0.08835863039996475,0.0031727893837960436
1690840818353688600,10.9986884765625,0.15661445703506469,-0.07466982186324894,-0.004199639080348425
1690840818363729400,11.0087294921875,0.1720773991048336,-0.06714348147902638,0.01591077260223683
1690840818373769500,11.01876953125,0.1721212382465601,-0.06086018169214949,0.030300263054482638
1690840818383809500,11.0288095703125,0.17246785972714423,-0.051059375303611154,0.04318128973911516
1690840818393849600,11.038849609375,0.17536533473432064,-0.031166999419033524,0.05165682974010705
1690840818403890700,11.048890625,0.18455752597153186,-0.022645291321910916,0.048625088228238744
1690840818413930800,11.0589306640625,0.20005495483279226,-0.013455365107022225,0.05312268734185491
1690840818424001500,11.06900146484375,0.1772621082663536,0.0049038463935256,0.04369916700022295
1690840818434041600,11.07904150390625,0.17962942191958425,0.004153356819786131,0.028904504697013177
1690840818444081700,11.08908154296875,0.20506606099307537,0.0034180100162513553,0.01988495976310223
1690840818454122500,11.09912255859375,0.19475801746845245,0.007222334202658384,0.005820374433265533
1690840818464162600,11.10916259765625,0.19613748912811277,0.006497143466956913,0.0073730015695909965
1690840818474202600,11.11920263671875,0.2095049202233553,0.00427175903506577,-0.0006222783504985272
1690840818484243700,11.12924365234375,0.19609949520528316,-0.001729180146474391,0.007166149319300893
1690840818494283800,11.13928369140625,0.19721885462403296,-0.008529562610015272,0.016351337710279037
1690840818504323600,11.149323486328125,0.18996084631979465,-0.009533223227225244,0.020303477436117826
1690840818514363600,11.15936376953125,0.1833008039087057,-0.01739149897955358,0.02565738285181578
1690840818524404500,11.169404541015625,0.1836708062648773,-0.025333288296870884,0.028214026798377742
1690840818534444500,11.179444580078124,0.1761030013591051,-0.028560945106483993,0.03323320210068487
1690840818544484600,11.189484619140625,0.17436112612783908,-0.03780917737986892,0.04242543443709146
1690840818554525700,11.199525634765624,0.16602350589334963,-0.050331682083569466,0.044033645951864306
1690840818564565800,11.209565673828125,0.15407529394626618,-0.053711661644373083,0.03874633493239525
1690840818574636500,11.219636474609375,0.17069091318249702,-0.0630199170093052,0.029074812912754714
1690840818584676600,11.229676513671874,0.17173077762424946,-0.06853047885801643,0.02956409883361775
1690840818594716700,11.239716552734375,0.16407880156636237,-0.06379466424146667,0.020378793994919396
1690840818604756500,11.249756591796874,0.1616506976366043,-0.0567584454617463,0.019305333244241774
1690840818614797600,11.259797607421875,0.16459902604818344,-0.05583059002710506,0.023328556311759164
1690840818624837600,11.269837646484374,0.17068331439793108,-0.049627625467441976,0.017684161783196033
1690840818634877700,11.279877685546875,0.17361995237171648,-0.05078044876437634,0.01901423677660059
1690840818644918800,11.289918701171874,0.17865268584191799,-0.049039505114872005,0.020540957720112055
1690840818654958600,11.29995849609375,0.18518413343727588,-0.03459366766577587,0.027945425290334967
1690840818664998700,11.30999853515625,0.18004910863637924,-0.023808124556206164,0.0359270442945417
1690840818675038500,11.32003857421875,0.1806131722599268,-0.014311379148159175,0.03181860432871617
1690840818685079600,11.33007958984375,0.18836977773606775,-0.008329637857433408,0.031925233907811344
1690840818695119600,11.34011962890625,0.18356325423717498,-0.009560549625568092,0.025268059307243674
1690840818705159700,11.35015966796875,0.1849047319740057,-0.00973775108968839,0.0252873462463147
1690840818715200800,11.36020068359375,0.1868558660417795,-0.00768865480646491,0.020069828510447404
1690840818725270500,11.3702705078125,0.19061492631435392,-0.0037268385034054516,0.015343126498826312
1690840818735311600,11.3803115234375,0.18959435109496114,-0.013492957171052693,0.016907035364280454
1690840818745351700,11.3903515625,0.1851397097736597,-0.010865202483348548,0.008442012190725654
1690840818755391500,11.4003916015625,0.19819617522358893,-0.019184099751058965,0.013345575456460937
1690840818765431600,11.410431640625,0.1873141312032938,-0.027046193161979315,0.01867272072939668
1690840818775472600,11.42047265625,0.17373861031532287,-0.025170298021193593,0.020180348813370802
1690840818785512700,11.4305126953125,0.18335399540066719,-0.022517463691160082,0.03271089069305453
1690840818795552500,11.440552490234374,0.18518237987160682,-0.0324650033403188,0.03825450086141936
1690840818805593600,11.450593505859375,0.1768260549366474,-0.03410069651706144,0.039754982251976614
1690840818815633400,11.46063330078125,0.17909049273729324,-0.041421248663496224,0.03681665464460384
1690840818825673500,11.470673583984375,0.1671311748743057,-0.045888530270662156,0.03427536353080068
1690840818835713500,11.480713623046874,0.16878244921267033,-0.04655546974679455,0.04107178220527712
1690840818845754600,11.490754638671875,0.16937690797448157,-0.05552928725928068,0.035771748701552857
1690840818855794700,11.500794677734374,0.17430267393887042,-0.04793463087920099,0.02709404175854288
1690840818865825300,11.5108251953125,0.1745826599240303,-0.04644395393002778,0.021147801039461046
1690840818875866000,11.5208662109375,0.1742600038409233,-0.03642729456741363,0.029326034027733837
1690840818885936400,11.530936279296874,0.17932137888371943,-0.03580558247249573,0.027555772952199912
1690840818895977200,11.540977294921875,0.16762041969597338,-0.03559066108018159,0.02168494012346491
1690840818906017300,11.551017333984374,0.1743248857706785,-0.03852423031404614,0.021604956522700374
1690840818916057300,11.561057373046875,0.18072949211597442,-0.02844135558111593,0.029899020743253638
1690840818926098400,11.571098388671874,0.18414952969253062,-0.021331998499948532,0.02446186662404798
1690840818936138500,11.581138427734375,0.17964345044493674,-0.017340024520643055,0.024646228481316937
1690840818946178300,11.59117822265625,0.18247428995668888,-0.016146028963103888,0.03207350610496942
1690840818956218400,11.60121826171875,0.18515782995223998,-0.010670246166829019,0.030433744107885283
1690840818966259200,11.61125927734375,0.18365853130519388,-0.014677527313120662,0.020089177098311484
1690840818976299300,11.62129931640625,0.1763333029836416,-0.020251948178280143,0.02743211917306762
1690840818986339300,11.63133935546875,0.18532441869080066,-0.027519674158934502,0.023539312985609285
1690840818996380400,11.64138037109375,0.18519465483129025,-0.021229835033416748,0.020550068041752093
1690840819006420500,11.65142041015625,0.18910861340463161,-0.018097418759204446,0.022240153720276427
1690840819016460300,11.661460205078125,0.18329905034303665,-0.018570260435342788,0.019369872680702244
1690840819026500400,11.671500244140624,0.17928455400466917,-0.01759894945146516,0.019585401427792384
1690840819036571400,11.6815712890625,0.18005612289905548,-0.0231514872783795,0.015608652417082338
1690840819046611200,11.691611083984375,0.16690788751244545,-0.026580621476843952,0.019213266480038873
1690840819056652300,11.70165234375,0.17964286592304707,-0.029129502242058514,0.01911512616807595
1690840819066692400,11.7116923828125,0.17606208482682703,-0.0384706004306674,0.027711616534460335
1690840819076732400,11.721732421875,0.17023323254287243,-0.038937195029109715,0.032843915088730864
1690840819086773500,11.7317734375,0.17921265781223772,-0.03589799172999337,0.03562690600391943
1690840819096813300,11.741813232421874,0.17053133870661258,-0.04046146372063085,0.03377888068417087
1690840819106853000,11.75185302734375,0.18863164354264736,-0.0427378294210881,0.026698621833324433
1690840819116893200,11.76189306640625,0.17350830869078634,-0.044147276093903925,0.023348352424195036
1690840819126934300,11.771934326171875,0.17020517549216746,-0.03678768884502351,0.020089017268107273
1690840819136974300,11.781974365234374,0.18036533497869967,-0.035728005457948894,0.01726358915041201
1690840819147014400,11.792014404296875,0.18977379931509494,-0.034523744234722105,0.018949779538530855
1690840819157055500,11.802055419921874,0.17688392260372637,-0.03807542710062116,0.01634870736177545
1690840819167095300,11.81209521484375,0.18494623302817342,-0.03224533270765096,0.027791823897510764
1690840819177135000,11.822135009765624,0.1859767451196909,-0.02513259635930881,0.02944128073812462
1690840819187206100,11.8322060546875,0.18057751642465592,-0.02278228863980621,0.03349077989121433
1690840819197246200,11.84224609375,0.1844599108159542,-0.026389464552607385,0.03570529586921911
1690840819207287300,11.852287353515624,0.18326397902965544,-0.026317093436140564,0.03269863399968017
1690840819217327400,11.862327392578125,0.1802759031295776,-0.025062161471601573,0.024061779656866563
1690840819227367200,11.8723671875,0.17654548442959783,-0.016090042725857345,0.018711751265265045
1690840819237407200,11.8824072265625,0.18763035754561422,-0.017253953672386704,0.015308098567929118
1690840819247448300,11.8924482421875,0.1812047084122896,-0.02558930888455361,0.016236419793451203
1690840819257488100,11.902488037109375,0.18465689469277857,-0.02070727246403694,0.01683028946679551
1690840819267528200,11.912528076171874,0.1896060415327549,-0.024060985072422773,0.018937431513611228
1690840819277568300,11.922568359375,0.18647183516025542,-0.02214298608927056,0.016215089311054906
1690840819287609300,11.932609375,0.1784036795169115,-0.027995913368556648,0.020441488534165546
1690840819297649400,11.9426494140625,0.18065759592354297,-0.03454531674571335,0.022779388863244092
1690840819307689200,11.952689208984374,0.17946984744369981,-0.03316374446051195,0.030989980618003753
1690840819317730300,11.962730224609375,0.17633681011497973,-0.035787060435116286,0.03670695632558781
1690840819327770000,11.97277001953125,0.16766192075014114,-0.037390294380672276,0.026742091082292606
1690840819337841200,11.982841064453124,0.16721300793886185,-0.03585638107797131,0.02331263265684247
1690840819347881200,11.992881103515625,0.17274843023419378,-0.037220235043391586,0.01817365776661318
1690840819357921300,12.00292138671875,0.17842822943627834,-0.034149997285194696,0.020576608988805672
1690840819367962400,12.01296240234375,0.1763245351552963,-0.030738764069601892,0.019894887502072377
1690840819378002200,12.023002197265624,0.17930676583647726,-0.03610460195168853,0.009350993961538188
1690840819388042200,12.033042236328125,0.17914251518547533,-0.034884723034221674,0.017638043919415213
1690840819398082300,12.043082275390624,0.17164894455969332,-0.03685786800440401,0.018021924103889614
1690840819408123100,12.053123046875,0.18241408420205116,-0.030055384915322062,0.01611833723857999
1690840819418163200,12.0631630859375,0.18016133683919905,-0.03159054032703861,0.029821740556228903
1690840819428203300,12.073203369140625,0.17357085253298282,-0.03333696386925876,0.03530475681088865
1690840819438244400,12.083244384765624,0.17700608767867088,-0.029988804218824952,0.030856874023936685
1690840819448284400,12.093284423828125,0.17924656008183956,-0.02384381692409515,0.029798291181982493
1690840819458324200,12.10332421875,0.18178630769252777,-0.017830073059909045,0.02465421542495023
1690840819468364300,12.1133642578125,0.18088614398241043,-0.02297233131919056,0.020732352106366304
1690840819478405000,12.123405029296874,0.175649996894598,-0.0317352277610451,0.02327232347934041
1690840819488475400,12.133475341796874,0.18537702566087244,-0.02467226710487157,0.014293985055363737
1690840819498516200,12.14351611328125,0.18523147971034049,-0.019294483056664466,0.016487134018354117
1690840819508556300,12.153556396484374,0.1918231330603361,-0.03397712493631989,0.010708039160259067
1690840819518596000,12.16359619140625,0.18914251567423343,-0.031271902831923215,0.023545952788949942
1690840819528637200,12.17363720703125,0.1755365996479988,-0.03103045875886455,0.023528376033063975
1690840819538677200,12.18367724609375,0.17285130608677862,-0.028340361158363518,0.02068502866618801
1690840819548717300,12.19371728515625,0.17973989655673503,-0.021856990488432346,0.03160283355303108
1690840819558757400,12.20375732421875,0.18438216940462587,-0.025466212227847427,0.02429592177288141
1690840819568798200,12.213798095703124,0.1760077242910862,-0.030626042676437645,0.028365787860564887
