time,seconds_elapsed,z,y,x
1690840807387566800,0.03256689453125,-0.009829461574554443,0.010745855048298836,0.15808497369289398
1690840807397607000,0.04260693359375,-0.008130896836519241,0.019845876842737198,0.16862842440605164
1690840807407647000,0.05264697265625,-0.0016820525052025914,0.019233349710702896,0.16254949569702148
1690840807417687800,0.062687744140625,0.0014913701452314854,0.015805860981345177,0.13508352637290955
1690840807427727600,0.0727275390625,0.003209641668945551,0.008883239701390266,0.0933922678232193
1690840807437767700,0.082767578125,-0.0000066579027588886674,-0.005361209623515606,0.042213235050439835
1690840807447808800,0.092808837890625,-0.0035902075469493866,-0.010605772957205772,-0.015628760680556297
1690840807457878800,0.102878662109375,-0.006833404768258333,-0.0217156819999218,-0.0718156024813652
1690840807467920000,0.112919921875,-0.009621734730899334,-0.01648363471031189,-0.11640144139528275
1690840807477960000,0.1229599609375,-0.008227569982409477,-0.006650179624557495,-0.1487463414669037
1690840807487999700,0.132999755859375,-0.006530337035655975,0.005419532768428326,-0.16359585523605347
1690840807498039800,0.143039794921875,-0.0033686324022710323,0.007213970646262169,-0.16208957135677338
1690840807508080600,0.15308056640625,-0.0032461269292980433,0.005818474106490612,-0.1481013149023056
1690840807518120700,0.16312060546875,-0.002710299100726843,0.0015725966077297926,-0.12484366446733475
1690840807528160800,0.173160888671875,-0.0032730249222368,-0.005407282151281834,-0.09566047787666321
1690840807538201900,0.183201904296875,-0.0015041533624753356,-0.009311743080615997,-0.061461761593818665
1690840807548242000,0.193241943359375,-0.003907123580574989,-0.013177587650716305,-0.02497326023876667
1690840807558282000,0.203281982421875,-0.00780545873567462,-0.01251153089106083,0.010153833776712418
1690840807568321800,0.21332177734375,-0.006700513418763876,-0.008194546215236187,0.039572443813085556
1690840807578362600,0.223362548828125,-0.006651777308434248,-0.0005227785441093147,0.06527967005968094
1690840807588402700,0.233402587890625,-0.00640916358679533,0.006803577765822411,0.08316013216972351
1690840807598442800,0.24344287109375,-0.003510312642902136,0.01053067110478878,0.09116745740175247
1690840807608513800,0.253513671875,-0.0020927118603140116,0.012297945097088814,0.08824411034584045
1690840807618553900,0.263553955078125,-0.0036458675749599934,0.009921872988343239,0.07250935584306717
1690840807628595000,0.273594970703125,-0.0021283982787281275,0.002011485630646348,0.04571875184774399
1690840807638634800,0.283634765625,-0.004773982334882021,-0.00506959343329072,0.014273477718234062
1690840807648674800,0.2936748046875,-0.005652559455484152,-0.008341020904481411,-0.02129250578582287
1690840807658715000,0.30371484375,-0.006679740734398365,-0.011038802564144135,-0.05284590274095535
1690840807668755700,0.313755615234375,-0.005840578582137823,-0.009298693388700485,-0.07931852340698242
1690840807678795800,0.323795654296875,-0.007216101046651602,-0.00532685499638319,-0.09605702757835388
1690840807688835800,0.3338359375,-0.004677576012909412,0.0006588660762645304,-0.10355062782764435
1690840807698877000,0.343876953125,-0.004733768757432699,0.0020003002136945724,-0.1002376526594162
1690840807708916700,0.353916748046875,-0.0033955303952097893,0.0035119105596095324,-0.09125268459320068
1690840807718956800,0.363956787109375,-0.003433080855756998,-0.0016463662032037973,-0.07627852261066437
1690840807728996900,0.373996826171875,-0.0037151097785681486,-0.0037710361648350954,-0.05609256401658058
1690840807739037700,0.38403759765625,-0.004833903629332781,-0.008073905482888222,-0.03365436568856239
1690840807749077800,0.394077880859375,-0.005568403284996748,-0.00833889003843069,-0.011215370148420334
1690840807759148800,0.404148681640625,-0.004355866461992264,-0.006520483642816544,0.0057194046676158905
1690840807769188900,0.41418896484375,-0.0052171326242387295,-0.0032988577149808407,0.024744227528572083
1690840807779228700,0.424228759765625,-0.0054275221191346645,-0.00017070861940737814,0.03628157451748848
1690840807789269800,0.434269775390625,-0.003687146585434675,0.0009675264009274542,0.040286168456077576
1690840807799309800,0.444309814453125,-0.004896754398941994,0.0040765004232525826,0.04008350521326065
1690840807809350000,0.454349853515625,-0.002778209513053298,0.00558065390214324,0.03068281151354313
1690840807819390700,0.464390625,-0.004987834487110376,0.00044368262751959264,0.01587909832596779
1690840807829430800,0.4744306640625,-0.002466619713231921,-0.0006255765329115093,-0.0029944581910967827
1690840807839470800,0.484470947265625,-0.0054389736615121365,-0.0036312201991677284,-0.021577464416623116
1690840807849502200,0.494502197265625,-0.005525260232388973,-0.00512818293645978,-0.03852954879403114
1690840807859543000,0.50454296875,-0.005058674607425928,-0.004828843753784895,-0.05398174375295639
1690840807869583000,0.5145830078125,-0.004313522018492222,-0.002567820018157363,-0.06741578876972198
1690840807879623200,0.524623046875,-0.006656571291387081,-0.002912965603172779,-0.06552281975746155
1690840807889664300,0.534664306640625,-0.0054512242786586285,-0.0010852381819859147,-0.06521522253751755
1690840807899704300,0.544704345703125,-0.004162520635873079,-0.0016879114555194974,-0.056046489626169205
1690840807909775400,0.554775390625,-0.004989165812730789,-0.000027430558475316502,-0.048353683203458786
1690840807919815200,0.564815185546875,-0.0033920682035386562,-0.0014354437589645386,-0.034403245896101
1690840807929855200,0.574855224609375,-0.005170527379959822,0.001288171042688191,-0.02039182372391224
1690840807939895000,0.58489501953125,-0.0038695731200277805,0.000054861116950633004,-0.009052084758877754
1690840807949936000,0.59493603515625,-0.003938282374292612,-0.0021547635551542044,0.0008785768295638263
1690840807959976200,0.60497607421875,-0.004051999654620886,-0.0008500810363329947,0.007685882970690727
1690840807970016300,0.615016357421875,-0.004763329867273569,-0.0013451626291498542,0.01170299481600523
1690840807980057300,0.625057373046875,-0.005680522415786982,-0.0034133736044168472,0.01221831701695919
1690840807990097200,0.63509716796875,-0.004566255956888199,-0.0009078715811483562,0.007507450878620148
1690840808000137200,0.64513720703125,-0.003875698195770383,-0.00148151651956141,-0.002490055514499545
1690840808010177000,0.655177001953125,-0.004466121084988117,-0.00036751621519215405,-0.010879545472562313
1690840808020218000,0.665218017578125,-0.004062385763972998,0.0007701861904934049,-0.02202247828245163
1690840808030258200,0.675258056640625,-0.004296744242310524,-0.0027632960118353367,-0.029264943674206734
1690840808040298200,0.68529833984375,-0.005595301277935505,0.00020985709852539003,-0.040106140077114105
1690840808050339300,0.69533935546875,-0.005046157632023096,-0.003117230022326112,-0.04379808157682419
1690840808060409000,0.7054091796875,-0.005656553898006678,-0.0041702440939843655,-0.04596029967069626
1690840808070450200,0.7154501953125,-0.005032841581851244,-0.003229881636798382,-0.04513951390981674
1690840808080490200,0.725490234375,-0.0030005834996700287,-0.002826679265126586,-0.040342628955841064
1690840808090530000,0.735530029296875,-0.004603540059179068,-0.0010381002211943269,-0.03196458891034126
1690840808100571100,0.745571044921875,-0.004483431577682495,-0.00282082031480968,-0.02664892189204693
1690840808110611200,0.755611083984375,-0.0054549528285861015,-0.0028210864402353764,-0.01896064169704914
1690840808120651300,0.7656513671875,-0.005604089703410864,-0.0024607607629150152,-0.012571718543767929
1690840808130691000,0.775691162109375,-0.0037491980474442244,-0.000859934720210731,-0.005526325665414333
1690840808140732200,0.785732177734375,-0.002886600326746702,0.0009126652730628848,-0.0037771612405776978
1690840808150772000,0.79577197265625,-0.0031763522420078516,-0.00012650014832615852,-0.004531368613243103
1690840808160812000,0.80581201171875,-0.0041010016575455666,-0.0013859090395271778,-0.006867227144539356
1690840808170852000,0.81585205078125,-0.005711681675165892,0.0004577973741106689,-0.009461145848035812
1690840808180893200,0.82589306640625,-0.004007524810731411,-0.0020839234348386526,-0.013951501809060574
1690840808190933200,0.835933349609375,-0.005148689262568951,-0.004707137122750282,-0.019775303080677986
1690840808200973300,0.845973388671875,-0.003695402294397354,-0.0062096924521028996,-0.02341264858841896
1690840808211044000,0.856044189453125,-0.0036887445021420717,-0.004048803821206093,-0.027354393154382706
1690840808221084200,0.866084228515625,-0.002817624481394887,-0.0017129451734945178,-0.030233535915613174
1690840808231125000,0.876125,-0.003909253980964422,-0.002264752285555005,-0.03144953399896622
1690840808241165000,0.8861650390625,-0.003710848744958639,0.0012743226252496243,-0.030598655343055725
1690840808251205000,0.896205078125,-0.0038743666373193264,-0.0008522115531377494,-0.02972620353102684
1690840808261246200,0.90624609375,-0.004551874939352274,-0.001984587637707591,-0.03044232726097107
1690840808271286300,0.916286376953125,-0.0048826392740011215,-0.0019803266040980816,-0.026130937039852142
1690840808281326000,0.926326171875,-0.0038400120101869106,-0.004132693167775869,-0.020907944068312645
1690840808291366100,0.9363662109375,-0.004156395327299833,-0.003963049966841936,-0.013950969092547894
1690840808301407000,0.946406982421875,-0.00446878420189023,-0.0030458574183285236,-0.008489091880619526
1690840808311447000,0.956447021484375,-0.004893558565527201,-0.0024772724136710167,-0.0012604740913957357
1690840808321487000,0.966487060546875,-0.005615008994936943,-0.00384374032728374,-0.0015387744642794132
1690840808331528200,0.976528076171875,-0.004565190523862839,0.0016639430541545153,-0.010689661838114262
1690840808341568300,0.986568359375,-0.005562544334679842,0.00430127140134573,-0.020444288849830627
1690840808351608000,0.996608154296875,-0.005115932319313288,0.0035835495218634605,-0.030978422611951828
1690840808361679000,1.00667919921875,-0.004572913981974125,0.004516454879194498,-0.042210835963487625
1690840808371719200,1.01671923828125,-0.005565207917243242,0.0013957626651972532,-0.04361112788319588
1690840808381759200,1.02675927734375,-0.005213404074311256,-0.005048554390668869,-0.03906963765621185
1690840808391800000,1.036800048828125,-0.00544350128620863,-0.009653160348534584,-0.02876613475382328
1690840808401840000,1.046840087890625,-0.0043747746385633945,-0.016531838104128838,-0.015805860981345177
1690840808411880200,1.056880126953125,-0.005043760873377323,-0.01612037979066372,-0.0054640076123178005
1690840808421921300,1.06692138671875,-0.002801911672577262,-0.00839614775031805,-0.00020293287525419146
1690840808431961000,1.076961181640625,-0.001999501371756196,0.000395745737478137,0.0008029430755414069
1690840808442001200,1.087001220703125,-0.0036629117093980312,0.012257731519639492,-0.005769205745309591
1690840808452041200,1.097041259765625,-0.005673065781593323,0.017492441460490227,-0.015155516564846039
1690840808462082000,1.10708203125,-0.0054123420268297195,0.013771472498774529,-0.027102723717689514
1690840808472122000,1.1171220703125,-0.007513043470680714,0.007134342100471258,-0.035235218703746796
1690840808482162200,1.127162109375,-0.005985986907035112,-0.004762797150760889,-0.03815191239118576
1690840808492203300,1.137203369140625,-0.006449643522500992,-0.014644189737737179,-0.03389165550470352
1690840808502243000,1.1472431640625,-0.005258677992969751,-0.01841256208717823,-0.026163160800933838
1690840808512314000,1.157314208984375,-0.0024839304387569427,-0.015784556046128273,-0.01931564137339592
1690840808522354200,1.167354248046875,-0.0032804817892611027,-0.010713630355894566,-0.011897938326001167
1690840808532394200,1.177394287109375,-0.004533765371888876,0.0002878876985050738,-0.006677609868347645
1690840808542435000,1.18743505859375,-0.006653109099715948,0.006464557256549597,-0.008766327053308487
1690840808552475100,1.19747509765625,-0.005991845857352018,0.011151987127959728,-0.01720588468015194
1690840808562515200,1.20751513671875,-0.0065172878094017506,0.008715194649994373,-0.0253375805914402
1690840808572555000,1.217554931640625,-0.004262122791260481,0.003993410151451826,-0.031508658081293106
1690840808582596000,1.22759619140625,-0.004984638653695583,-0.0018777948571369052,-0.03411216288805008
1690840808592636200,1.23763623046875,-0.003231213428080082,-0.00780705688521266,-0.032038893550634384
1690840808602676200,1.24767626953125,-0.004147340543568134,-0.010963168926537037,-0.02454742044210434
1690840808612717000,1.257717041015625,-0.0037404096219688654,-0.009497897699475288,-0.017546502873301506
1690840808622757000,1.267757080078125,-0.004322843160480261,-0.0070371367037296295,-0.01107502169907093
1690840808632797200,1.277797119140625,-0.006188387516885996,-0.0025156219489872456,-0.005768673028796911
1690840808642837000,1.2878369140625,-0.003995274193584919,0.0023877902422100306,-0.0062733422964811325
1690840808652878000,1.297878173828125,-0.004404069390147924,0.0030128341168165207,-0.01438399963080883
1690840808662918100,1.307918212890625,-0.002980609890073538,0.004186222795397043,-0.022007564082741737
1690840808672989200,1.3179892578125,-0.0036013927310705185,0.0036751623265445232,-0.0315944105386734
1690840808683029200,1.328029296875,-0.004093278665095568,-0.0026146916206926107,-0.03433666750788689
1690840808693069300,1.3380693359375,-0.004685831721872091,-0.004701278172433376,-0.03591086342930794
1690840808703110100,1.348110107421875,-0.006730873137712479,-0.007770837750285864,-0.03167111054062843
1690840808713150200,1.358150146484375,-0.0054938350804150105,-0.006187322083860636,-0.02467685006558895
1690840808723190000,1.36818994140625,-0.005544701125472784,-0.004406998865306377,-0.016167784109711647
1690840808733230000,1.37822998046875,-0.004840561654418707,-0.003162770066410303,-0.012240154668688774
1690840808743271200,1.388271240234375,-0.0037888791412115097,-0.0001030643325066194,-0.007472563534975052
1690840808753311200,1.398311279296875,-0.004277302883565426,0.0019451729021966457,-0.010647584684193134
1690840808763351300,1.408351318359375,-0.0027276095934212208,0.001531850197352469,-0.01504100114107132
1690840808773392100,1.41839208984375,-0.006368417292833328,0.00015393071225844324,-0.021921543404459953
1690840808783432200,1.42843212890625,-0.007795604877173901,-0.002302302746102214,-0.026585005223751068
1690840808793472000,1.438471923828125,-0.005537777207791805,-0.005471730604767799,-0.029578931629657745
1690840808803512000,1.448511962890625,-0.005359877832233906,-0.006071740761399269,-0.03111610747873783
1690840808813553200,1.45855322265625,-0.004282363224774599,-0.006372678093612194,-0.024534104391932487
1690840808823623200,1.468623046875,-0.0046693203039467335,-0.002223206916823983,-0.01949460618197918
1690840808833664300,1.478664306640625,-0.0041585261933505535,0.0016900419723242521,-0.015007179230451584
1690840808843704300,1.488704345703125,-0.0036642432678490877,0.002621882129460573,-0.011715511791408062
1690840808853745400,1.498745361328125,-0.004808337427675724,0.000290018244413659,-0.011999937705695629
1690840808863786500,1.508786376953125,-0.006079730577766895,0.001419198582880199,-0.01606258936226368
1690840808873826600,1.51882666015625,-0.005086104851216078,-0.002531867241486907,-0.022010494023561478
1690840808883866400,1.528866455078125,-0.005140167195349932,-0.00484349112957716,-0.026386599987745285
1690840808893906400,1.538906494140625,-0.004150802735239267,-0.007050452753901482,-0.029021797701716423
1690840808903947300,1.548947265625,-0.003704190719872713,-0.006717291194945574,-0.031319040805101395
1690840808913987300,1.5589873046875,-0.0036224317736923695,-0.0035872780717909336,-0.028244687244296074
1690840808924027400,1.56902734375,-0.005342034623026848,-0.000830107310321182,-0.02004428207874298
1690840808934068500,1.579068359375,-0.004141481593251228,0.00012516857532318681,-0.015507587231695652
1690840808944108500,1.589108642578125,-0.004880775231868029,0.0035081820096820593,-0.013059875927865505
1690840808954148400,1.5991484375,-0.005301021970808506,0.000916393706575036,-0.012689696624875069
1690840808964188400,1.6091884765625,-0.004351072479039431,0.00016937704640440643,-0.012267052195966244
1690840808974259500,1.619259521484375,-0.003935352899134159,-0.0034706315491348505,-0.01793425902724266
1690840808984300300,1.62930029296875,-0.002947586588561535,-0.00452817277982831,-0.02232208289206028
1690840808994340400,1.63934033203125,-0.005607285536825657,-0.00443975580856204,-0.026824690401554108
1690840809004380400,1.64938037109375,-0.003971039317548275,-0.005364671815186739,-0.030046848580241203
1690840809014420500,1.65942041015625,-0.005259742960333824,-0.002897785510867834,-0.028603415936231613
1690840809024461600,1.669461669921875,-0.005370797123759985,-0.0014937670202925801,-0.024980716407299042
1690840809034501400,1.67950146484375,-0.005524194799363613,-0.0013145363191142678,-0.021082649007439613
1690840809044541400,1.68954150390625,-0.00574869941920042,0.0005185174522921443,-0.01564580574631691
1690840809054582300,1.699582275390625,-0.00570049649104476,0.0026522420812398195,-0.013205550611019135
1690840809064622300,1.709622314453125,-0.0057590859942138195,-0.0014112089993432164,-0.013679592870175838
1690840809074662400,1.719662353515625,-0.004932973068207502,0.0006617955514229834,-0.01631266064941883
1690840809084702500,1.729702392578125,-0.0049409628845751286,-0.004589159041643143,-0.022184398025274277
1690840809094743600,1.73974365234375,-0.00561128044500947,-0.004119643941521645,-0.02334420382976532
1690840809104783400,1.749783447265625,-0.004597414750605822,-0.005087703000754118,-0.026820428669452667
1690840809114823400,1.759823486328125,-0.005319397896528244,-0.006216350477188826,-0.025653697550296783
1690840809124894500,1.76989453125,-0.005251487251371145,-0.004513525404036045,-0.025186846032738686
1690840809134934500,1.7799345703125,-0.0052261874079704285,-0.0009773800848051906,-0.02184963785111904
1690840809144975400,1.789975341796875,-0.005348159931600094,0.002416019793599844,-0.018021611496806145
1690840809155015400,1.800015380859375,-0.005772934295237064,0.0013696637470275164,-0.01613076590001583
1690840809165055500,1.810055419921875,-0.003968376200646162,0.002398442942649126,-0.014711834490299225
1690840809175095300,1.82009521484375,-0.0034674357157200575,-0.0004854942671954632,-0.014795724302530289
1690840809185136400,1.830136474609375,-0.005888515617698431,-0.0034314829390496016,-0.01943308673799038
1690840809195176400,1.840176513671875,-0.0057404437102377415,-0.0038333539851009846,-0.022307703271508217
1690840809205216500,1.850216552734375,-0.0038892803713679314,-0.007044860161840916,-0.02448909729719162
1690840809215257300,1.86025732421875,-0.0049012815579771996,-0.005366535857319832,-0.026620158925652504
1690840809225297400,1.87029736328125,-0.005517537239938974,-0.003490072675049305,-0.025786856189370155
1690840809235337500,1.88033740234375,-0.0038802255876362324,-0.0011203918838873506,-0.023781761527061462
1690840809245377300,1.890377197265625,-0.0046181874349713326,0.0005475459038279951,-0.01967090740799904
1690840809255418400,1.90041845703125,-0.004035221878439188,0.0006205165409483016,-0.016889235004782677
1690840809265458400,1.91045849609375,-0.005720736458897591,-0.00025007082149386406,-0.014480139128863811
1690840809275498500,1.92049853515625,-0.004548146389424801,0.0007475492893718183,-0.01666552945971489
1690840809285569500,1.930569580078125,-0.003887948812916875,-0.00344533147290349,-0.01780056767165661
1690840809295609600,1.940609619140625,-0.004709267523139715,-0.00436065997928381,-0.02171728014945984
1690840809305650400,1.950650390625,-0.004358795937150717,-0.00299259414896369,-0.024921860545873642
1690840809315690500,1.9606904296875,-0.005548429675400257,-0.007129282224923372,-0.02545156329870224
1690840809325730300,1.970730224609375,-0.005508482456207275,-0.0034048515371978283,-0.026697658002376556
1690840809335770400,1.980770263671875,-0.004376106429845095,-0.0027020431589335203,-0.02400599978864193
1690840809345811500,1.9908115234375,-0.005534847732633352,-0.00015659387281630188,-0.020871194079518318
1690840809355851500,2.0008515625,-0.003975833300501108,0.0011448930017650127,-0.018183797597885132
1690840809365891600,2.0108916015625,-0.00452870549634099,-0.001067927572876215,-0.01465670671314001
1690840809375932400,2.020932373046875,-0.00529676117002964,-0.0009379653492942452,-0.01600613072514534
1690840809385972500,2.030972412109375,-0.006691192276775837,-0.0011664645280689,-0.018340658396482468
1690840809396012300,2.04101220703125,-0.005046423990279436,-0.0023177489638328552,-0.018788868561387062
1690840809406052400,2.05105224609375,-0.005303685087710619,-0.002472478663548827,-0.023624636232852936
1690840809416093400,2.061093505859375,-0.003972903825342655,-0.0041558630764484406,-0.02304992452263832
1690840809426133500,2.071133544921875,-0.004186755511909723,-0.005504753906279802,-0.02406379021704197
1690840809436204500,2.08120458984375,-0.005785717628896236,-0.004098871257156134,-0.024759408086538315
1690840809446244400,2.091244384765625,-0.004718588665127754,-0.004880508873611689,-0.02053004316985607
1690840809456284400,2.101284423828125,-0.0046211169101297855,0.00043888893560506403,-0.019812321290373802
1690840809466325500,2.111325439453125,-0.006106894463300705,-0.0010492854053154588,-0.017167534679174423
1690840809476365300,2.121365234375,-0.004960403777658939,0.0014626081101596355,-0.017068998888134956
1690840809486405400,2.1314052734375,-0.0044227116741240025,-0.0013899037148803473,-0.01942749321460724
1690840809496446500,2.141446533203125,-0.002740659052506089,-0.0016375777777284384,-0.018921492621302605
1690840809506486500,2.151486572265625,-0.004260791465640068,-0.0027867318131029606,-0.02154470607638359
1690840809516526300,2.1615263671875,-0.005571066867560148,-0.00239258399233222,-0.02346724271774292
1690840809526566400,2.17156640625,-0.004761465825140476,-0.004991562571376562,-0.02576342038810253
1690840809536607500,2.181607421875,-0.00427117757499218,-0.003438939806073904,-0.024650484323501587
1690840809546647300,2.191647216796875,-0.00478303711861372,-0.0021228056866675615,-0.02112232893705368
1690840809556687400,2.201687255859375,-0.004652009811252356,-0.0013137373607605696,-0.018938004970550537
1690840809566728400,2.211728515625,-0.006470948923379183,-0.0019534286111593246,-0.018282335251569748
1690840809576768500,2.2217685546875,-0.004222708288580179,-0.002088983543217182,-0.017345700412988663
1690840809586839600,2.231839599609375,-0.004333761986345053,0.00019228023302275687,-0.017496967688202858
1690840809596879400,2.24187939453125,-0.005525792948901653,-0.0025507756508886814,-0.019700733944773674
1690840809606919200,2.251919189453125,-0.004141481593251228,-0.0020964404102414846,-0.021330855786800385
1690840809616959200,2.261959228515625,-0.005150021053850651,-0.0025182850658893585,-0.02149091102182865
1690840809627000300,2.272000244140625,-0.003980893176048994,-0.0015302523970603943,-0.023384684696793556
1690840809637040400,2.282040283203125,-0.0037643781397491693,-0.0035140409599989653,-0.023058181628584862
1690840809647080400,2.29208056640625,-0.004570517223328352,-0.004030161537230015,-0.023851802572607994
1690840809657121500,2.30212158203125,-0.0044261738657951355,-0.0022895196452736855,-0.022893598303198814
1690840809667161300,2.312161376953125,-0.00458836043253541,0.0005752427969127893,-0.018668759614229202
1690840809677201400,2.322201416015625,-0.004222441930323839,0.0002466087171342224,-0.01703357882797718
1690840809687241200,2.3322412109375,-0.004606203176081181,-0.0004644552827812731,-0.016709204763174057
1690840809697282300,2.3422822265625,-0.004756405483931303,-0.0020652813836932182,-0.020613398402929306
1690840809707322400,2.352322265625,-0.004655738361179829,-0.001999235013499856,-0.021262943744659424
1690840809717362400,2.362362548828125,-0.004040814470499754,-0.000758734589908272,-0.020068783313035965
1690840809727403500,2.372403564453125,-0.004357197787612677,-0.003774498123675585,-0.0231708325445652
1690840809737473500,2.3824736328125,-0.003549993736669421,-0.003829625668004155,-0.02329227328300476
1690840809747514400,2.392514404296875,-0.004516721237450838,-0.0044394894503057,-0.022338328883051872
1690840809757554200,2.40255419921875,-0.004352936986833811,-0.003323625074699521,-0.021945511922240257
1690840809767594200,2.41259423828125,-0.006076534744352102,-0.0008117315010167658,-0.02179104834794998
1690840809777634300,2.42263427734375,-0.004661863669753075,0.0008519452530890703,-0.016930779442191124
1690840809787675400,2.43267529296875,-0.0027169568929821253,0.0002668487431947142,-0.019643476232886314
1690840809797715500,2.442715576171875,-0.003923634998500347,-0.0022530341520905495,-0.020251208916306496
1690840809807755500,2.452755615234375,-0.004278101958334446,-0.003230947069823742,-0.02062991075217724
1690840809817796400,2.46279638671875,-0.005018726922571659,-0.0024668860714882612,-0.02231515944004059
1690840809827836400,2.47283642578125,-0.005361475981771946,-0.0014759238110855222,-0.02245497517287731
1690840809837876200,2.482876220703125,-0.005654157139360905,-0.0026173547375947237,-0.021995313465595245
1690840809847916300,2.492916259765625,-0.005682653281837702,-0.0044168527238070965,-0.023004651069641113
1690840809857939200,2.502939208984375,-0.005529521498829126,-0.003549727378413081,-0.020739899948239326
1690840809867979300,2.512979248046875,-0.002740659052506089,-0.00166607357095927,-0.019052786752581596
1690840809878019300,2.523019287109375,-0.004338821861892939,0.0008988168556243181,-0.018739067018032074
1690840809888090400,2.53309033203125,-0.006844590418040752,-0.0004546015989035368,-0.018517225980758667
1690840809898130200,2.543130126953125,-0.005000085104256868,-0.00011930961773032323,-0.019413644447922707
1690840809908171300,2.553171142578125,-0.005559348501265049,-0.0008130630594678223,-0.020831778645515442
1690840809918211300,2.56321142578125,-0.004661330953240395,-0.0022572954185307026,-0.021436849609017372
1690840809928251400,2.57325146484375,-0.005302620120346546,-0.0032051142770797014,-0.02034175768494606
1690840809938292200,2.583292236328125,-0.004430967383086681,-0.0023398532066494226,-0.02327895723283291
1690840809948332300,2.593332275390625,-0.005132444202899933,-0.0018048242200165987,-0.024272050708532333
1690840809958372400,2.603372314453125,-0.004324440844357014,-0.002124936319887638,-0.0211806520819664
1690840809968412200,2.613412109375,-0.0038424087688326836,-0.0005376922199502587,-0.021678663790225983
1690840809978453500,2.62345361328125,-0.004307396709918976,-0.0007954862085171044,-0.020811006426811218
1690840809988493300,2.633493408203125,-0.004569185432046652,-0.00017789915727917105,-0.018102305009961128
1690840809998533400,2.643533447265625,-0.005608084611594677,-0.001347293145954609,-0.01854012906551361
1690840810008574200,2.65357421875,-0.004664793144911528,-0.001350755337625742,-0.019161710515618324
1690840810018614300,2.6636142578125,-0.004881307948380709,-0.0009648632840253413,-0.020596355199813843
1690840810028654300,2.673654296875,-0.0028184233233332634,-0.0028370653744786978,-0.021463479846715927
1690840810038694400,2.6836943359375,-0.003721234854310751,-0.004825115203857422,-0.023436617106199265
1690840810048765200,2.69376513671875,-0.0034171019215136766,-0.004478105343878269,-0.022429408505558968
1690840810058805200,2.70380517578125,-0.004995291121304035,-0.0027979169972240925,-0.02166295051574707
1690840810068846300,2.713846435546875,-0.005351089406758547,-0.004655205644667149,-0.021332718431949615
1690840810078886100,2.72388623046875,-0.0038365498185157776,-0.0012215919559821486,-0.02190343476831913
1690840810088926200,2.73392626953125,-0.003569967346265912,-0.0012314456980675459,-0.016806943342089653
1690840810098967300,2.74396728515625,-0.0032413334120064974,-0.000006924218723725062,-0.018483135849237442
1690840810109007400,2.75400732421875,-0.0033627734519541264,-0.0022719427943229675,-0.018248245120048523
1690840810119047200,2.764047119140625,-0.003224022686481476,-0.0013616742799058557,-0.019825369119644165
1690840810129087200,2.774087158203125,-0.004126834217458963,-0.0018599516479298472,-0.020859209820628166
1690840810139128300,2.78412841796875,-0.004429901950061321,-0.004227501805871725,-0.02298281341791153
1690840810149168000,2.794168212890625,-0.005166532471776009,-0.0022796657867729664,-0.021637383848428726
1690840810159208200,2.804208251953125,-0.005546032916754484,-0.0025798040442168713,-0.021281320601701736
1690840810169249300,2.814249267578125,-0.0037294907961040735,-0.0035926043055951595,-0.02004827745258808
1690840810179289300,2.824289306640625,-0.004662129562348127,0.0001525991247035563,-0.021350562572479248
1690840810189329400,2.834329345703125,-0.005163336638361216,0.0005752427969127893,-0.019206717610359192
1690840810199400200,2.844400146484375,-0.004082093480974436,-0.001469798618927598,-0.018730277195572853
1690840810209440300,2.854440185546875,-0.0025987126864492893,-0.0004362257895991206,-0.018217353150248528
1690840810219481300,2.8644814453125,-0.005622465629130602,-0.0019507654942572117,-0.019533487036824226
1690840810229521200,2.874521240234375,-0.005101284943521023,-0.0018322548130527139,-0.019157981500029564
1690840810239561200,2.884561279296875,-0.004650145769119263,-0.002168612089008093,-0.021914886310696602
1690840810249601300,2.894601318359375,-0.004877313040196896,-0.0015326491557061672,-0.023298664018511772
1690840810259642400,2.904642333984375,-0.004908205941319466,-0.0016831178218126297,-0.02165203168988228
1690840810269682200,2.91468212890625,-0.004429901950061321,-0.0030085730832070112,-0.02215084247291088
1690840810279722200,2.92472216796875,-0.004584631882607937,-0.0016982977977022529,-0.02009914256632328
1690840810289762300,2.93476220703125,-0.004808071069419384,-0.0018410432385280728,-0.019768910482525826
1690840810299803100,2.94480322265625,-0.0043838294222950935,-0.002092179376631975,-0.020068250596523285
1690840810309843200,2.95484326171875,-0.0037734329234808683,-0.00026791400159709156,-0.018750252202153206
1690840810319883300,2.96488330078125,-0.0048424256965518,-0.0012871057260781527,-0.019352393224835396
1690840810329924400,2.97492431640625,-0.004923386033624411,-0.0009595369338057935,-0.02034495212137699
1690840810339964400,2.98496435546875,-0.0046661244705319405,-0.004147074185311794,-0.021994514390826225
1690840810350035200,2.99503515625,-0.005626194179058075,-0.001520665013231337,-0.021683724597096443
1690840810360075300,3.0050751953125,-0.006138053722679615,-0.002028796123340726,-0.022592926397919655
1690840810370115300,3.015115234375,-0.006958307232707739,-0.00404587434604764,-0.020918332040309906
1690840810380156200,3.02515625,-0.005559614859521389,-0.0029640982393175364,-0.02034122496843338
1690840810390196200,3.0351962890625,-0.00529596209526062,-0.003674895968288183,-0.020198745653033257
1690840810400236300,3.045236328125,-0.004751345608383417,-0.0009235842735506594,-0.02064615674316883
1690840810410276000,3.055276123046875,-0.005191300064325333,-0.0014524880098178983,-0.018308166414499283
1690840810420317200,3.065317138671875,-0.0036826191935688257,-0.00013422331539914012,-0.019240539520978928
1690840810430357200,3.075357177734375,-0.0037015276029706,-0.001859152689576149,-0.02070181630551815
1690840810440397300,3.085397216796875,-0.0044261738657951355,-0.0013227921444922686,-0.021872010082006454
1690840810450438100,3.095438232421875,-0.006043777801096439,-0.0021888520568609238,-0.02064429223537445
1690840810460478200,3.105478271484375,-0.005058674607425928,-0.0022953785955905914,-0.020969463512301445
1690840810470518300,3.115518310546875,-0.0036943370942026377,-0.002496979897841811,-0.022059496492147446
1690840810480558300,3.125558349609375,-0.005195028148591518,-0.002817624481394887,-0.021857894957065582
1690840810490599400,3.135599365234375,-0.0036914076190441847,-0.0019499665359035134,-0.021579859778285027
1690840810500669200,3.145669189453125,-0.004192081745713949,-0.003748399205505848,-0.019060509279370308
1690840810510710300,3.155710205078125,-0.0051984903402626514,-0.0035302862524986267,-0.019809124991297722
1690840810520750300,3.165750244140625,-0.0038804919458925724,-0.0008127967594191432,-0.02022670768201351
1690840810530790400,3.175790283203125,-0.005104747135192156,-0.0029941920656710863,-0.021135911345481873
1690840810540831200,3.185831298828125,-0.004296744242310524,-0.002709766384214163,-0.02087971568107605
1690840810550871300,3.195871337890625,-0.005530852824449539,-0.00004474110755836591,-0.023458188399672508
1690840810560911000,3.2059111328125,-0.00515774404630065,-0.0025798040442168713,-0.021889319643378258
1690840810570951200,3.215951171875,-0.0054613444954156876,-0.0012114719720557332,-0.02280331589281559
1690840810580992300,3.2259921875,-0.005517270881682634,-0.0007784419576637447,-0.02256576344370842
1690840810591032300,3.2360322265625,-0.0057593523524701595,-0.0019893813878297806,-0.021313278004527092
1690840810601072400,3.246072265625,-0.004492220003157854,-0.0016519587952643633,-0.018818961456418037
1690840810611113200,3.25611328125,-0.004863731097429991,-0.0011150655336678028,-0.017898039892315865
1690840810621153300,3.2661533203125,-0.005085039883852005,-0.0013928331900388002,-0.019335081800818443
1690840810631193000,3.276193115234375,-0.005245361942797899,-0.003775030840188265,-0.018754512071609497
1690840810641233200,3.286233154296875,-0.004620318301022053,-0.0015092133544385433,-0.02064802125096321
1690840810651304200,3.29630419921875,-0.0037468012887984514,-0.002287122653797269,-0.021163076162338257
1690840810661345300,3.30634521484375,-0.00503896689042449,-0.0019217369845137,-0.022183066233992577
1690840810671385300,3.31638525390625,-0.005420065484941006,-0.0028692898340523243,-0.021649368107318878
1690840810681425400,3.32642529296875,-0.006364955101162195,-0.003870904678478837,-0.01998729072511196
1690840810691465500,3.336465576171875,-0.00566933723166585,-0.003430950455367565,-0.018822956830263138
1690840810701506300,3.34650634765625,-0.003775297198444605,-0.0009954896522685885,-0.020870128646492958
1690840810711546000,3.356546142578125,-0.004011519718915224,-0.0031425300985574722,-0.019154252484440804
1690840810721586200,3.366586181640625,-0.004836300387978554,-0.0009781790431588888,-0.020300744101405144
1690840810731627300,3.376627197265625,-0.004369182046502829,-0.0030692932195961475,-0.020004333928227425
1690840810741667300,3.386667236328125,-0.00520701240748167,-0.0027057717088609934,-0.021768677979707718
1690840810751707400,3.396707275390625,-0.005828860681504011,0.00008655273268232122,-0.021372666582465172
1690840810761747500,3.40674755859375,-0.0031734227668493986,-0.002326537622138858,-0.02220676839351654
1690840810771788300,3.416788330078125,-0.006423544604331255,-0.0021888520568609238,-0.021559620276093483
1690840810781828000,3.426828125,-0.00433163158595562,-0.0021550299134105444,-0.021747905761003494
1690840810791868200,3.4368681640625,-0.004505802411586046,-0.001580053474754095,-0.022764168679714203
1690840810801908200,3.446908203125,-0.005419799126684666,-0.00024820660473778844,-0.021398765966296196
1690840810811979300,3.456979248046875,-0.004493019077926874,-0.0024264061357825994,-0.01967703178524971
1690840810822020400,3.467020263671875,-0.005653092171996832,-0.0009363674325868487,-0.020479176193475723
1690840810832060400,3.477060302734375,-0.004761732183396816,-0.003552656853571534,-0.020793695002794266
1690840810842100500,3.4871005859375,-0.0038860845379531384,-0.0025782061275094748,-0.0224379301071167
1690840810852143900,3.497143798828125,-0.005878395400941372,-0.002683933824300766,-0.01979021541774273
1690840810862184700,3.507184814453125,-0.0048858351074159145,-0.001163268811069429,-0.021086908876895905
1690840810872224500,3.517224609375,-0.00452843913808465,-0.0020548950415104628,-0.021282386034727097
1690840810882264600,3.5272646484375,-0.003991013392806053,-0.002286856295540929,-0.02076147124171257
1690840810892305700,3.5373056640625,-0.004532434046268463,-0.0005587312043644488,-0.021470937877893448
1690840810902345700,3.547345703125,-0.0038219024427235126,-0.0034168355632573366,-0.021044299006462097
1690840810912385800,3.5573857421875,-0.005244562868028879,-0.003704457078129053,-0.019842414185404778
1690840810922425900,3.56742578125,-0.004580903332680464,-0.0024865935556590557,-0.020778514444828033
1690840810932466700,3.577466796875,-0.004147606901824474,-0.000464188982732594,-0.01769137941300869
1690840810942506500,3.587506591796875,-0.0040978058241307735,-0.001728657865896821,-0.021696772426366806
1690840810952546600,3.597546630859375,-0.006271744146943092,-0.002357163932174444,-0.020146813243627548
1690840810962617600,3.60761767578125,-0.005662146955728531,-0.00267807487398386,-0.021228589117527008
1690840810972657700,3.61765771484375,-0.005356415640562773,-0.0026407905388623476,-0.020239491015672684
1690840810982698800,3.62769873046875,0.005311674904078245,0.16143204271793365,-0.4837978184223175
1690840810992738800,3.63773876953125,-0.03376675024628639,-0.9680936932563782,-0.009154083207249641
1690840811002779000,3.64777880859375,-0.06716412305831909,-0.43855446577072144,-0.13967694342136383
1690840811012818700,3.657818603515625,-0.018741197884082794,-0.003032541600987315,-0.13893738389015198
1690840811022859500,3.667859619140625,-0.0008412926108576357,-0.024823591113090515,-0.11053769290447235
1690840811032899600,3.677899658203125,0.006311425473541021,0.07417409867048264,-0.0864989385008812
1690840811042939600,3.687939697265625,0.013951235450804234,0.09892471879720688,-0.058634549379348755
1690840811052980700,3.697980712890625,0.014062821865081787,-0.16060352325439453,-0.07155594229698181
1690840811063020800,3.708020751953125,0.017643442377448082,-0.06586050242185593,0.033857833594083786
1690840811073060900,3.718060791015625,0.005981992464512587,0.0003834952076431364,0.0876411721110344
1690840811083100700,3.7281005859375,-0.0036131106317043304,-0.0044378917664289474,0.12215493619441986
1690840811093141500,3.7381416015625,-0.008891495876014233,0.14976978302001953,0.17419017851352692
1690840811103181600,3.748181640625,-0.011918711476027966,-0.037641119211912155,0.16647793352603912
1690840811113252600,3.758252685546875,-0.013292103074491024,-0.00011211907985853031,0.1320168823003769
1690840811123292700,3.768292724609375,-0.007376157213002443,-0.04090295732021332,0.10170905292034149
1690840811133332700,3.778332763671875,0.0030123014003038406,0.00999058224260807,0.05091484636068344
1690840811143373800,3.788373779296875,0.008802279829978943,0.013676131144165993,0.005526059307157993
1690840811153414000,3.798413818359375,0.002457564929500222,0.010517888702452183,-0.043242812156677246
1690840811163453700,3.80845361328125,-0.007435812149196863,0.00173744629137218,-0.09094934910535812
1690840811173494500,3.81849462890625,-0.013205284252762794,-0.006325273774564266,-0.1257142573595047
1690840811183534600,3.82853466796875,-0.015511581674218178,-0.014461230486631393,-0.14640168845653534
1690840811193574700,3.83857470703125,-0.012227371335029602,-0.017420269548892975,-0.15082547068595886
1690840811203614700,3.84861474609375,-0.0057463026605546474,-0.016289224848151207,-0.14327514171600342
1690840811213655800,3.85865576171875,-0.002127333078533411,-0.01266679260879755,-0.1250452697277069
1690840811223696000,3.86869580078125,0.0023526365403085947,-0.006588660646229982,-0.09791724383831024
1690840811233735700,3.878735595703125,-0.00006364954606397077,-0.0011646003695204854,-0.0713958889245987
1690840811243775500,3.888775390625,-0.002035187790170312,0.002150236163288355,-0.03927523270249367
1690840811253816600,3.898816650390625,-0.005792108830064535,0.003626959165558219,-0.007399326656013727
1690840811263887600,3.9088876953125,-0.007363640237599611,0.0021670141723006964,0.021921277046203613
1690840811273927700,3.918927734375,-0.009495234116911888,0.0007379619055427611,0.046666037291288376
1690840811283967700,3.9289677734375,-0.0073684342205524445,0.00016298545233439654,0.067656010389328
1690840811294007600,3.939007568359375,-0.004905010107904673,-0.00038935415796004236,0.07834140956401825
1690840811304048600,3.949048583984375,-0.004848551005125046,-0.002010952914133668,0.08065516501665115
1690840811314088700,3.959088623046875,-0.0011456918437033892,0.0004215783847030252,0.07167791575193405
1690840811324128500,3.96912841796875,-0.0014950985787436366,0.0035571842454373837,0.05210261419415474
1690840811334169600,3.979169677734375,-0.0022330605424940586,0.0020836573094129562,0.024650217965245247
1690840811344209700,3.989209716796875,-0.005026716738939285,0.0031345405150204897,-0.00464588450267911
1690840811354249700,3.999249755859375,-0.005238970275968313,-0.003491936717182398,-0.03454625979065895
1690840811364289800,4.009289794921875,-0.00660517206415534,-0.003468767274171114,-0.06169905140995979
1690840811374331000,4.019330810546875,-0.00498197553679347,-0.006967095658183098,-0.08046208322048187
1690840811384370700,4.02937060546875,-0.005082376766949892,-0.0036077843979001045,-0.09349186718463898
1690840811394410500,4.039410400390625,-0.004209658596664667,-0.006907707080245018,-0.09587886184453964
1690840811404451600,4.04945166015625,-0.00370126124471426,-0.00646588858217001,-0.09063483029603958
1690840811414521600,4.059521484375,-0.003931358456611633,-0.003703924361616373,-0.07792702317237854
1690840811424562700,4.069562744140625,-0.003481017891317606,-0.002398176584392786,-0.06245804950594902
1690840811434602800,4.079602783203125,-0.006442186422646046,-0.0018170748371630907,-0.04296451061964035
1690840811444642600,4.089642578125,-0.004287423100322485,-0.00017550231132190675,-0.023256586864590645
1690840811454682600,4.0996826171875,-0.00523604080080986,-0.00022663500567432493,-0.005653092171996832
1690840811464723700,4.1097236328125,-0.00290391081944108,-0.00013901700731366873,0.013316071592271328
1690840811474763500,4.119763427734375,-0.005395564250648022,0.000568318588193506,0.025177791714668274
1690840811484803600,4.129803466796875,-0.005600361619144678,-0.0007249124464578927,0.03400137647986412
1690840811494844700,4.1398447265625,-0.005062402691692114,-0.0005797701887786388,0.03663657605648041
1690840811504884700,4.149884765625,-0.004252535756677389,-0.00024501082953065634,0.03133075684309006
1690840811514924800,4.1599248046875,-0.004671184346079826,0.0006149238906800747,0.01924826204776764
1690840811524964600,4.169964599609375,-0.0043798345141112804,-0.000016245283404714428,0.008683236315846443
1690840811535005700,4.180005615234375,-0.004437359049916267,0.0011619371362030506,-0.00986461527645588
1690840811545045500,4.19004541015625,-0.005434712860733271,-0.0004524710529949516,-0.026159431785345078
1690840811555085600,4.20008544921875,-0.004904477391391993,0.0012538161827251315,-0.039981503039598465
1690840811565156600,4.210156494140625,-0.0041582598350942135,-0.002380866091698408,-0.05198650062084198
1690840811575196700,4.22019677734375,-0.004627774935215712,-0.004447745159268379,-0.059294480830430984
1690840811585237800,4.23023779296875,-0.0046456181444227695,-0.005072789266705513,-0.06067666411399841
1690840811595277600,4.240277587890625,-0.004956941585987806,-0.0054123420268297195,-0.05656607449054718
1690840811605317600,4.250317626953125,-0.003366768127307296,-0.005922603886574507,-0.05229409784078598
1690840811615358500,4.2603583984375,-0.004393416922539473,-0.0030123014003038406,-0.043296340852975845
1690840811625398500,4.2703984375,-0.0046850331127643585,-0.0034104441292583942,-0.031096134334802628
1690840811635438600,4.2804384765625,-0.005572131834924221,-0.0013379721203818917,-0.02130954898893833
1690840811645478700,4.290478759765625,-0.00583844818174839,0.00015579492901451886,-0.012131230905652046
1690840811655519700,4.300519775390625,-0.005455485545098782,0.0004468784318305552,-0.0004410194815136492
1690840811665559800,4.310559814453125,-0.003547064261510968,-0.0008471515611745417,0.004834702704101801
1690840811675599600,4.320599609375,-0.0049465554766356945,0.0002537992550060153,0.01005076989531517
1690840811685640400,4.330640380859375,-0.00407463638111949,-0.0016072177095338702,0.009280850179493427
1690840811695680500,4.340680419921875,-0.004801945760846138,-0.0006210491410456598,0.0062493737787008286
1690840811705720600,4.350720458984375,-0.004722849931567907,-0.0015153386630117893,-0.00032091091270558536
1690840811715760600,4.3607607421875,-0.0032501218374818563,-0.002225070958957076,-0.00980416126549244
1690840811725831700,4.370831787109375,-0.005624063778668642,-0.0030208237003535032,-0.019297797232866287
1690840811735871500,4.38087158203125,-0.00424241553992033,-0.004999019671231508,-0.027645742520689964
1690840811745912600,4.39091259765625,-0.006087719928473234,-0.002086320426315069,-0.03762220963835716
1690840811755952600,4.40095263671875,-0.003567304229363799,-0.0023180153220891953,-0.043237484991550446
1690840811765992700,4.41099267578125,-0.0049316417425870895,-0.0013965616235509515,-0.04246330261230469
1690840811776033500,4.421033447265625,-0.005687180440872908,-0.0021198762115091085,-0.04295146092772484
1690840811786073600,4.431073486328125,-0.004430168308317661,-0.0008229167433455586,-0.038294125348329544
1690840811796113700,4.44111376953125,-0.003884486621245742,-0.00327275856398046,-0.031688153743743896
1690840811806153500,4.451153564453125,-0.006325007416307926,-0.003555586328729987,-0.02707609161734581
1690840811816194800,4.46119482421875,-0.004697815980762243,-0.0031140341889113188,-0.023240607231855392
1690840811826234600,4.471234619140625,-0.0049556102603673935,-0.006205431651324034,-0.01714516431093216
1690840811836274700,4.481274658203125,-0.004840561654418707,-0.00293373828753829,-0.013143232092261314
1690840811846315500,4.4913154296875,-0.004351871553808451,-0.00001651159800530877,-0.00836658664047718
1690840811856351000,4.50135107421875,-0.004405667539685965,-0.0007107976707629859,-0.007757255341857672
1690840811866390800,4.511390869140625,-0.0054877097718417645,0.0002407497668173164,-0.005262406077235937
1690840811876461800,4.5214619140625,-0.00440939562395215,0.002409894485026598,-0.007246194873005152
1690840811886502000,4.531501953125,-0.006409695837646723,-0.002385659608989954,-0.011008975096046925
1690840811896542000,4.5415419921875,-0.004733236040920019,-0.001525991247035563,-0.013428457081317902
1690840811906582800,4.551582763671875,-0.004251736681908369,-0.004515655804425478,-0.020197413861751556
1690840811916622800,4.561622802734375,-0.0049614692106842995,-0.0028133634477853775,-0.02472478710114956
1690840811926662700,4.57166259765625,-0.004116714466363192,-0.00566960358992219,-0.029758960008621216
1690840811936703700,4.581703857421875,-0.0036309538409113884,-0.004021106753498316,-0.03358911722898483
1690840811946743800,4.591743896484375,-0.004453071393072605,-0.006143379956483841,-0.03754950687289238
1690840811956783900,4.601783935546875,-0.006843258626759052,0.00018668759730644524,-0.03507010266184807
1690840811966824000,4.611823974609375,-0.005330849438905716,-0.0009912285022437572,-0.03531697764992714
1690840811976864800,4.62186474609375,-0.004245611373335123,-0.0037404096219688654,-0.031385887414216995
1690840811986904800,4.63190478515625,-0.0028061727061867714,-0.0024490428622812033,-0.02376125566661358
1690840811996944600,4.641944580078125,-0.0030799456872045994,0.0025630262680351734,-0.017051687464118004
1690840812006985700,4.65198583984375,-0.005349491722881794,0.0008503473363816738,-0.0122481444850564
1690840812017025800,4.66202587890625,-0.00512685114517808,-0.0010093380697071552,-0.008088020607829094
1690840812027096800,4.672096923828125,-0.004771851934492588,-0.004193946253508329,-0.006717024836689234
1690840812037137000,4.682136962890625,-0.00487225316464901,-0.0046874298714101315,-0.00926194153726101
1690840812047177000,4.692177001953125,-0.005393700208514929,-0.0038136467337608337,-0.013013004325330257
1690840812057217800,4.7022177734375,-0.003894340479746461,-0.003576891729608178,-0.019719641655683517
1690840812067257900,4.7122578125,-0.0035720979794859886,-0.0008338357438333333,-0.02239079214632511
1690840812077297700,4.722297607421875,-0.005573729984462261,-0.0016713999211788177,-0.022530876100063324
1690840812087337700,4.732337646484375,-0.005013667047023773,-0.00024714134633541107,-0.025555694475769997
1690840812097378800,4.74237890625,-0.005178516730666161,-0.002767823403701186,-0.024119984358549118
1690840812107419000,4.7524189453125,-0.005747634451836348,-0.0028421254828572273,-0.024584438651800156
1690840812117459000,4.762458984375,-0.005481051746755838,-0.0010628675809130073,-0.021923674270510674
1690840812127499800,4.772499755859375,-0.005528722424060106,-0.0029577065724879503,-0.022471753880381584
1690840812137539800,4.782539794921875,-0.0024053670931607485,-0.002064748667180538,-0.02287042886018753
1690840812147579600,4.79257958984375,-0.003287938656285405,-0.004140949342399836,-0.024956215173006058
1690840812157619700,4.80261962890625,-0.004055461846292019,-0.0009595369338057935,-0.026153840124607086
1690840812167660800,4.812660888671875,-0.004700745455920696,-0.0038655782118439674,-0.022891467437148094
1690840812177730800,4.822730712890625,-0.005334045272320509,-0.0027092336677014828,-0.02375992387533188
1690840812187772000,4.83277197265625,-0.006405168678611517,-0.003162503708153963,-0.019164906814694405
1690840812197812000,4.84281201171875,-0.005272259935736656,-0.002428004052489996,-0.017120663076639175
1690840812207851800,4.852851806640625,-0.004732703324407339,-0.0015198660548776388,-0.01359490491449833
1690840812217892900,4.862892822265625,-0.0046845003962516785,0.00007137271313695237,-0.013085974380373955
1690840812227932700,4.8729326171875,-0.003991812001913786,0.00040506679215468466,-0.01380928885191679
1690840812237972700,4.88297265625,-0.004227501805871725,0.0009890979854390025,-0.014654044061899185
1690840812248012800,4.8930126953125,-0.002703641075640917,-0.0012745888670906425,-0.020607540383934975
1690840812258054000,4.903053955078125,-0.005110872443765402,-0.006044842768460512,-0.022304240614175797
1690840812268094000,4.913093994140625,-0.005109807010740042,-0.0029678267892450094,-0.025786323472857475
1690840812278133800,4.9231337890625,-0.005391037091612816,-0.002773415995761752,-0.026875022798776627
1690840812288174800,4.9331748046875,-0.005673065781593323,-0.004546282347291708,-0.0286505538970232
1690840812298214700,4.943214599609375,-0.0038104509003460407,-0.0035657063126564026,-0.025496838614344597
1690840812308254700,4.953254638671875,-0.00307568465359509,-0.0022397185675799847,-0.02261902578175068
1690840812318294800,4.963294677734375,-0.00663446681573987,-0.0012114719720557332,-0.020422451198101044
1690840812328365800,4.97336572265625,-0.004713262431323528,0.0016674051294103265,-0.016689764335751534
1690840812338407000,4.983406982421875,-0.0049095372669398785,0.00048709215479902923,-0.021390242502093315
1690840812348446700,4.99344677734375,-0.005559881217777729,0.001856489572674036,-0.02075800858438015
1690840812358486800,5.00348681640625,-0.001564873498864472,-0.0007382282637991011,-0.02063177525997162
1690840812368526600,5.013526611328125,-0.002927346620708704,-0.0006953513366170228,-0.018384866416454315
1690840812378567700,5.023567626953125,-0.0041406829841434956,-0.0038812910206615925,-0.01918887533247471
1690840812388607700,5.033607666015625,-0.0065199509263038635,-0.00410473020747304,-0.019297530874609947
1690840812398647800,5.043647705078125,-0.003724963404238224,-0.006148173473775387,-0.01936757192015648
1690840812408687900,5.05368798828125,-0.0035835495218634605,-0.0056949034333229065,-0.019221631810069084
1690840812418728700,5.063728759765625,-0.005106877535581589,-0.002439189236611128,-0.01685541309416294
1690840812428768800,5.073768798828125,-0.00449727987870574,0.002183792181313038,-0.018197646364569664
1690840812438808600,5.08380859375,-0.004254932515323162,0.0033965955954045057,-0.020361198112368584
1690840812448849700,5.093849609375,-0.0065415226854383945,0.0033430662006139755,-0.023241406306624413
1690840812458889700,5.1038896484375,-0.003695668652653694,-0.0009603358921594918,-0.026623621582984924
1690840812468929800,5.1139296875,-0.004864530172199011,-0.0018913770327344537,-0.026789536699652672
1690840812479000800,5.124000732421875,-0.003930559381842613,-0.005465605296194553,-0.026693662628531456
1690840812489041000,5.134041015625,-0.004278368316590786,-0.007445931900292635,-0.024879517033696175
1690840812499081700,5.144081787109375,-0.0035185683518648148,-0.005832855589687824,-0.023922642692923546
1690840812509121800,5.154121826171875,-0.0033545177429914474,-0.004794222768396139,-0.020679179579019547
1690840812519161600,5.16416162109375,-0.004252802114933729,-0.0027089675422757864,-0.017888719215989113
1690840812529201700,5.17420166015625,-0.003677825443446636,-0.0006431533838622272,-0.01607297547161579
1690840812539242800,5.18424267578125,-0.0062975771725177765,0.0012282498646527529,-0.014935806393623352
1690840812549282800,5.19428271484375,-0.0062943813391029835,-0.000391218374716118,-0.018331868574023247
1690840812559323000,5.204322998046875,-0.00287434970960021,-0.002091646660119295,-0.02046186476945877
1690840812569363700,5.21436376953125,-0.002796585438773036,-0.001145425601862371,-0.02237641252577305
1690840812579403800,5.22440380859375,-0.004175303969532251,-0.006198240909725428,-0.025113608688116074
1690840812589443600,5.234443603515625,-0.005245361942797899,-0.0038687740452587605,-0.022817697376012802
1690840812599483600,5.244483642578125,-0.004638161510229111,-0.0038980687968432903,-0.02364221215248108
1690840812609524700,5.254524658203125,-0.006767891347408295,-0.0038248319178819656,-0.020113524049520493
1690840812619564800,5.264564697265625,-0.005872270092368126,-0.0012546151410788298,-0.02034282125532627
1690840812629604900,5.27460498046875,-0.005101018585264683,-0.002570483135059476,-0.01834731549024582
1690840812639676000,5.284676025390625,-0.004624845460057259,-0.0022884542122483253,-0.019291406497359276
1690840812649715700,5.2947158203125,-0.0032384039368480444,-0.0011403656098991632,-0.022548452019691467
1690840812659756800,5.3047568359375,-0.00469541922211647,-0.0008229167433455586,-0.02311304211616516
1690840812669796600,5.314796630859375,-0.004465055651962757,0.0003451456723269075,-0.02431759051978588
1690840812679836700,5.324836669921875,-0.003906590864062309,-0.000002663161012605997,-0.02281343750655651
1690840812689876700,5.334876708984375,-0.006494651082903147,-0.0038956720381975174,-0.022546587511897087
1690840812699917800,5.344917724609375,-0.005723932292312384,-0.0012258529895916581,-0.021732991561293602
1690840812709958000,5.3549580078125,-0.004655472002923489,-0.0021164140198379755,-0.01936810463666916
1690840812719998000,5.364998046875,-0.0046267095021903515,-0.0013169331941753626,-0.016875652596354485
1690840812730038800,5.375038818359375,-0.004247209057211876,-0.003808053908869624,-0.017825867980718613
1690840812740078600,5.38507861328125,-0.0029023129027336836,-0.0017041567480191588,-0.017307616770267487
1690840812750118700,5.39511865234375,-0.004850415047258139,-0.0013733921805396676,-0.01877661794424057
1690840812760158700,5.40515869140625,-0.005637645721435547,-0.0026077672373503447,-0.020496485754847527
1690840812770199800,5.41519970703125,-0.0041057956404984,-0.0025923210196197033,-0.021143367514014244
1690840812780240000,5.425239990234375,-0.004995024763047695,-0.004548412747681141,-0.02249705232679844
1690840812790311000,5.435310791015625,-0.004536961205303669,-0.003457848448306322,-0.02490481734275818
1690840812800350700,5.445350830078125,-0.004151069093495607,-0.0035111114848405123,-0.023366576060652733
1690840812810390800,5.455390869140625,-0.0043771713972091675,-0.002267681760713458,-0.023858461529016495
1690840812820431600,5.465431640625,-0.004466121084988117,-0.001612277701497078,-0.021894114091992378
1690840812830471700,5.4754716796875,-0.004223773255944252,-0.0004319647268857807,-0.019873039796948433
1690840812840511700,5.48551171875,-0.006764162797480822,0.00009347695595351979,-0.017354222014546394
1690840812850552800,5.495552734375,-0.006444583646953106,-0.0016016251174733043,-0.020476246252655983
1690840812860581600,5.50558154296875,-0.004252802114933729,0.00016671388584654778,-0.019788619130849838
1690840812870621400,5.515621337890625,-0.004012318328022957,-0.003341201925650239,-0.02305152267217636
1690840812880661500,5.52566162109375,-0.003320961957797408,-0.003358778776600957,-0.021411016583442688
1690840812890702600,5.53570263671875,-0.0035507925786077976,-0.002124669961631298,-0.02118784375488758
1690840812900742700,5.54574267578125,-0.006342850625514984,-0.002177933230996132,-0.021621406078338623
1690840812910782500,5.555782470703125,-0.005328985396772623,-0.00013129384024068713,-0.020710870623588562
1690840812920822500,5.565822509765625,-0.004751345608383417,-0.0026314693968743086,-0.01985652931034565
1690840812930863600,5.575863525390625,-0.005601692944765091,0.0002383529208600521,-0.018001902848482132
1690840812940934400,5.585934326171875,-0.006580404471606016,-0.0010873686987906694,-0.01967303641140461
1690840812950974500,5.595974365234375,-0.004114584065973759,-0.0016671388875693083,-0.020051471889019012
1690840812961014500,5.6060146484375,-0.005528988782316446,-0.0003802994033321738,-0.01906903274357319
1690840812971054600,5.6160546875,-0.0030069751664996147,-0.0021939121652394533,-0.021040303632616997
1690840812981095700,5.626095703125,-0.005227785091847181,-0.0022860574536025524,-0.021734323352575302
1690840812991135500,5.636135498046875,-0.0062517705373466015,-0.005244829226285219,-0.023960193619132042
1690840813001175600,5.646175537109375,-0.0060024987906217575,-0.0032647692132741213,-0.023363113403320312
1690840813011216600,5.656216552734375,-0.0037617150228470564,-0.003062102710828185,-0.02279985509812832
1690840813021256400,5.66625634765625,-0.0040975394658744335,-0.0013827132061123848,-0.02166508138179779
1690840813031296500,5.676296630859375,-0.00267754215747118,-0.0027302727103233337,-0.01889725774526596
1690840813041336600,5.686336669921875,-0.004240285139530897,-0.0006404902087524533,-0.01769404299557209
1690840813051377400,5.69637744140625,-0.002639192622154951,-0.0005725796218030155,-0.01948768086731434
1690840813061417500,5.70641748046875,-0.002767024328932166,0.000532365869730711,-0.019288476556539536
1690840813071457500,5.71645751953125,-0.004523379262536764,-0.0019283948931843042,-0.02075161784887314
1690840813081498600,5.72649853515625,-0.003913781605660915,-0.0019680759869515896,-0.022756177932024002
1690840813091568400,5.736568359375,-0.0029031119775027037,-0.0028967203106731176,-0.021585186943411827
1690840813101609500,5.746609375,-0.0044141896069049835,-0.0008503473363816738,-0.021332984790205956
1690840813111649500,5.7566494140625,-0.003995007835328579,-0.0022919164039194584,-0.023199329152703285
1690840813121689600,5.766689697265625,-0.005378520116209984,-0.002225603675469756,-0.021515412256121635
1690840813131729700,5.776729736328125,-0.003737214021384716,-0.0025624935515224934,-0.020676249638199806
1690840813141770500,5.7867705078125,-0.002936667762696743,-0.0012844426091760397,-0.01944001019001007
1690840813151810600,5.796810546875,-0.004281830508261919,-0.00096113485051319,-0.019302591681480408
1690840813161850400,5.806850341796875,-0.004525509662926197,-0.001683384063653648,-0.019826700910925865
1690840813171891500,5.816891357421875,-0.004217382054775953,-0.003578489413484931,-0.020441625267267227
1690840813181931500,5.826931640625,-0.005558816250413656,-0.002660231664776802,-0.022457106038928032
1690840813191971600,5.8369716796875,-0.002938798163086176,-0.0023904533591121435,-0.021216338500380516
1690840813202011600,5.84701171875,-0.004211256746202707,-0.002968891989439726,-0.02346830815076828
1690840813212052500,5.857052490234375,-0.004691424313932657,-0.004293814767152071,-0.022485867142677307
1690840813222092500,5.867092529296875,-0.003952929750084877,-0.0033838124945759773,-0.0210027527064085
1690840813232132400,5.87713232421875,-0.005624063778668642,-0.0018953717080876231,-0.019653595983982086
1690840813242203400,5.887203369140625,-0.0037883466575294733,-0.0011523497523739934,-0.019583821296691895
1690840813252243500,5.897243408203125,-0.004553206264972687,-0.0029856697656214237,-0.019184347242116928
1690840813262284500,5.907284423828125,-0.005132444202899933,0.0003936151915695518,-0.019353192299604416
1690840813272324600,5.91732470703125,-0.003430684097111225,-0.00011052118497900665,-0.02116973325610161
1690840813282364700,5.92736474609375,-0.0049462891183793545,-0.002728142309933901,-0.021584654226899147
1690840813292405500,5.937405517578125,-0.0056919739581644535,-0.00299259414896369,-0.021460285410284996
1690840813302445300,5.9474453125,-0.005242432467639446,-0.0004620584368240088,-0.023570572957396507
1690840813312485400,5.9574853515625,-0.00487251952290535,-0.0022391858510673046,-0.02112525887787342
1690840813322525400,5.967525390625,-0.004078364931046963,-0.0021318604703992605,-0.021731926128268242
1690840813332566500,5.97756640625,-0.004111654590815306,-0.0027262780349701643,-0.021146563813090324
1690840813342606600,5.987606689453125,-0.0048890309408307076,-0.0033244239166378975,-0.018988072872161865
1690840813352646700,5.997646728515625,-0.004787564743310213,-0.0008564725867472589,-0.020665863528847694
1690840813362687500,6.0076875,-0.0041585261933505535,-0.0015696671325713396,-0.02039715088903904
1690840813372727600,6.0177275390625,-0.0044394894503057,-0.002662095706909895,-0.018639463931322098
1690840813382767400,6.027767333984375,-0.005607019178569317,-0.002719087526202202,-0.021434186026453972
1690840813392807400,6.037807373046875,-0.004862132947891951,-0.003236273303627968,-0.021446703001856804
1690840813402878500,6.04787841796875,-0.0041611893102526665,-0.0007470166892744601,-0.021504227072000504
1690840813412918500,6.05791845703125,-0.003686880227178335,-0.004878112114965916,-0.02155349589884281
1690840813422959600,6.067959716796875,-0.004344947170466185,-0.0020908478181809187,-0.021923674270510674
1690840813432999700,6.077999755859375,-0.006478671915829182,-0.002007490722462535,-0.02172020822763443
1690840813443039500,6.08803955078125,-0.004276770167052746,-0.003433080855756998,-0.02003389596939087
1690840813453080300,6.098080322265625,-0.003911917097866535,-0.0002892192860599607,-0.019099924713373184
1690840813463120400,6.108120361328125,-0.005881058517843485,-0.0009158611064776778,-0.01888340897858143
1690840813473160400,6.118160400390625,-0.0037766287568956614,-0.0017038905061781406,-0.021750835701823235
1690840813483200500,6.128200439453125,-0.005041630007326603,0.001847701147198677,-0.0202738456428051
1690840813493241600,6.13824169921875,-0.004043211229145527,-0.0037561224307864904,-0.022129803895950317
1690840813503281700,6.14828173828125,-0.005833121482282877,-0.0010378338629379869,-0.020350545644760132
1690840813513321700,6.15832177734375,-0.005346562247723341,-0.003335609333589673,-0.02305471897125244
1690840813523362600,6.168362548828125,-0.004811533261090517,-0.0020391824655234814,-0.020737769082188606
1690840813533402400,6.17840234375,-0.0047116647474467754,-0.003183276392519474,-0.020507140085101128
1690840813543442400,6.1884423828125,-0.0037260286044329405,-0.0048948898911476135,-0.019869579002261162
1690840813553513500,6.198513427734375,-0.00535508431494236,-0.0016479641199111938,-0.018323346972465515
1690840813563553500,6.208553466796875,-0.0036903421860188246,-0.00040320257539860904,-0.01889326423406601
1690840813573593600,6.218593505859375,-0.005336442030966282,-0.0008117315010167658,-0.021266140043735504
1690840813583634700,6.228634765625,-0.00410526292398572,-0.0009720537927933037,-0.01931936852633953
1690840813593674500,6.238674560546875,-0.00436012726277113,-0.0022948458790779114,-0.021857362240552902
1690840813603714600,6.248714599609375,-0.005884787067770958,-0.002254898427054286,-0.022051505744457245
1690840813613755400,6.25875537109375,-0.0038213697262108326,-0.0015331818722188473,-0.02154337428510189
1690840813623795500,6.26879541015625,-0.0046847667545080185,-0.0034179009962826967,-0.0226840078830719
1690840813633835500,6.27883544921875,-0.004658667836338282,-0.0007126618875190616,-0.019944945350289345
1690840813643875600,6.28887548828125,-0.006681338418275118,-0.0032767534721642733,-0.02154364064335823
1690840813653916700,6.298916748046875,-0.0036075180396437645,-0.0031241541728377342,-0.0223817378282547
1690840813663956700,6.308956787109375,-0.003707120195031166,-0.0010684601729735732,-0.020780911669135094
1690840813673996500,6.31899658203125,-0.005273325368762016,-0.0015243934467434883,-0.019719908013939857
1690840813684037400,6.329037353515625,-0.005915147252380848,-0.0007086671539582312,-0.02118304930627346
1690840813694077400,6.339077392578125,-0.004347610287368298,-0.0010516822803765535,-0.021403025835752487
1690840813704148500,6.3491484375,-0.003894606838002801,-0.0035830168053507805,-0.021207284182310104
1690840813714188500,6.3591884765625,-0.0038519962690770626,-0.0026176210958510637,-0.0231708325445652
1690840813724228600,6.369228515625,-0.004610198084264994,-0.0036783581599593163,-0.021802233532071114
1690840813734269700,6.379269775390625,-0.005090632475912571,-0.00166633992921561,-0.019511116668581963
1690840813744309500,6.3893095703125,-0.0029196233954280615,-0.0010498181218281388,-0.020413395017385483
1690840813754349600,6.399349609375,-0.005014199763536453,-0.002594451420009136,-0.020928451791405678
1690840813764389600,6.4093896484375,-0.00452790642157197,-0.00047404266661033034,-0.01985226757824421
1690840813774430500,6.419430419921875,-0.004508997779339552,-0.001600826159119606,-0.019167302176356316
1690840813784470500,6.429470458984375,-0.003888747887685895,-0.003285275539383292,-0.020790498703718185
1690840813794510600,6.439510498046875,-0.004965197294950485,-0.0026458504144102335,-0.021636586636304855
1690840813804551700,6.4495517578125,-0.004168645944446325,-0.002379534300416708,-0.020600616931915283
1690840813814591700,6.459591796875,-0.0057558901607990265,-0.001961418194696307,-0.02009647898375988
1690840813824631600,6.469631591796875,-0.0038839541375637054,-0.0010013486025854945,-0.021191837266087532
1690840813834671600,6.479671630859375,-0.0037409423384815454,-0.001350222621113062,-0.02069329470396042
1690840813844712400,6.48971240234375,-0.004762530792504549,-0.0017859158106148243,-0.02110954560339451
1690840813854765600,6.499765625,-0.00469621829688549,0.00021118867152836174,-0.01992177590727806
1690840813864806700,6.509806640625,-0.004683168604969978,-0.0018703379901126027,-0.021377461031079292
1690840813874846700,6.5198466796875,-0.0048858351074159145,-0.0023196132387965918,-0.018791530281305313
1690840813884886800,6.52988671875,-0.004096474498510361,-0.000713993504177779,-0.019348131492733955
1690840813894927600,6.539927734375,-0.004465854726731777,-0.00155288923997432,-0.02184750884771347
1690840813904967400,6.549967529296875,-0.004454403184354305,-0.0017749968683347106,-0.020535368472337723
1690840813915007500,6.560007568359375,-0.003808053908869624,-0.0032530513126403093,-0.0221463143825531
1690840813925047600,6.570047607421875,-0.004743622615933418,-0.0025936525780707598,-0.021200360730290413
1690840813935088600,6.580088623046875,-0.005997705273330212,-0.001996039180085063,-0.020305804908275604
1690840813945128700,6.590128662109375,-0.004114051349461079,-0.002329733222723007,-0.021136710420250893
1690840813955168800,6.600168701171875,-0.006000102031975985,0.0014205301413312554,-0.02147999219596386
1690840813965209600,6.610209716796875,-0.0038131140172481537,-0.0004814995336346328,-0.021985460072755814
1690840813975249700,6.620249755859375,-0.004713795147836208,-0.0019289276096969843,-0.02034655027091503
1690840813985289500,6.63028955078125,-0.005050152540206909,-0.0041521345265209675,-0.02244538813829422
1690840813995329500,6.64032958984375,-0.004048271104693413,-0.0021438447292894125,-0.021456822752952576
1690840814005400600,6.650400634765625,-0.005511678289622068,-0.003859453136101365,-0.020617393776774406
1690840814015440600,6.660440673828125,-0.003980626817792654,0.0007829693495295942,-0.017848504707217216
1690840814025481700,6.670481689453125,-0.00552312983199954,-0.002150502521544695,-0.02190236933529377
1690840814035521800,6.680521728515625,-0.0049066077917814255,-0.002928145695477724,-0.02286616712808609
1690840814045561600,6.6905615234375,-0.004384362138807774,0.0014215953415259719,-0.019536416977643967
1690840814055602400,6.7006025390625,-0.0054666707292199135,-0.0021489046048372984,-0.021735122427344322
1690840814065642500,6.710642578125,-0.0037228327710181475,-0.0024056334514170885,-0.020531106740236282
1690840814075682600,6.7206826171875,-0.0049585397355258465,-0.001463939668610692,-0.017722271382808685
1690840814085722600,6.73072265625,-0.00495134899392724,-0.0018136126454919577,-0.019029350951313972
1690840814095763700,6.740763671875,-0.004852545913308859,-0.002644518855959177,-0.02178865298628807
1690840814105803800,6.7508037109375,-0.0022455775178968906,0.00019627496658358723,-0.021227257326245308
1690840814115843800,6.76084375,-0.003887682454660535,-0.002406432293355465,-0.020018182694911957
1690840814125884700,6.770884765625,-0.005470931995660067,-0.0025603631511330605,-0.022308766841888428
1690840814135924500,6.780924560546875,-0.004707137122750282,0.001246892032213509,-0.019363578408956528
1690840814145964500,6.790964599609375,-0.005776130128651857,-0.0013670006301254034,-0.02136281318962574
1690840814156035600,6.80103564453125,-0.004200071096420288,-0.00330311874859035,-0.01907648891210556
1690840814166075600,6.81107568359375,-0.003099919529631734,-0.0015939018921926618,-0.021689582616090775
1690840814176116700,6.82111669921875,-0.0064831990748643875,-0.0024897893890738487,-0.020857078954577446
1690840814186156800,6.83115673828125,-0.00558092026039958,-0.002968625631183386,-0.020685303956270218
1690840814196196600,6.841196533203125,-0.00487278588116169,0.000002663161012605997,-0.021197164431214333
1690840814206236700,6.851236572265625,-0.00436092633754015,0.0010423612548038363,-0.02124723233282566
1690840814216277500,6.861277587890625,-0.0033625070936977863,-0.002394980750977993,-0.021861622110009193
1690840814226317600,6.871317626953125,-0.003876497270539403,-0.0024679512716829777,-0.020967066287994385
1690840814236357600,6.881357666015625,-0.0048424256965518,-0.002531334524974227,-0.021131116896867752
1690840814246398700,6.891398681640625,-0.0037880802992731333,-0.0009739180095493793,-0.021202223375439644
1690840814256438800,6.901438720703125,-0.005085838492959738,-0.0024823325220495462,-0.020230703055858612
1690840814266478600,6.911478515625,-0.0029912625905126333,-0.0011707255616784096,-0.019942814484238625
1690840814276518700,6.9215185546875,-0.0038133803755044937,-0.0014056164072826505,-0.02002750337123871
1690840814286559500,6.9315595703125,-0.003998203668743372,-0.0035747610963881016,-0.01980512961745262
1690840814296599600,6.941599609375,-0.004582501482218504,-0.0027265443932265043,-0.02063896507024765
1690840814306639600,6.9516396484375,-0.00566960358992219,-0.002040780382230878,-0.02149224281311035
1690840814316710700,6.961710693359375,-0.005166798830032349,-0.0037641117814928293,-0.02225870080292225
1690840814326750700,6.971750732421875,-0.004591555800288916,0.00003834952076431364,-0.020552946254611015
1690840814336791800,6.981791748046875,-0.005310875829309225,-0.002338521648198366,-0.02346724271774292
1690840814346831600,6.99183154296875,-0.0037646444980055094,-0.0024658208712935448,-0.020327109843492508
1690840814356871700,7.00187158203125,-0.003306048223748803,-0.002590989461168647,-0.02184271439909935
1690840814366911700,7.011911865234375,-0.005453887395560741,-0.002788063371554017,-0.020197680220007896
1690840814376952600,7.02195263671875,-0.004991828929632902,-0.0034586472902446985,-0.02034521847963333
1690840814386992600,7.03199267578125,-0.006412625312805176,-0.001558748190291226,-0.020853083580732346
1690840814397032700,7.04203271484375,-0.0030543794855475426,-0.0014335796004161239,-0.018615761771798134
1690840814407073800,7.05207373046875,-0.004290352575480938,-0.001776062068529427,-0.020841099321842194
1690840814417113600,7.062113525390625,-0.0057556238025426865,-0.003168895374983549,-0.020068250596523285
1690840814427153700,7.072153564453125,-0.006785201840102673,-0.0027454528026282787,-0.021466409787535667
1690840814437193700,7.08219384765625,-0.003742540255188942,-0.002412024885416031,-0.019747072830796242
1690840814447234600,7.092234619140625,0.03484852612018585,0.38584038615226746,-0.21797147393226624
1690840814457274600,7.102274658203125,0.07166699320077896,0.24837864935398102,-0.19604167342185974
1690840814467345700,7.112345703125,0.017128387466073036,0.024567926302552223,-0.08397053182125092
1690840814477385700,7.1223857421875,0.00986514799296856,0.07734618335962296,-0.12006302177906036
1690840814487425500,7.132425537109375,-0.01744556985795498,0.01587670110166073,-0.11126713454723358
1690840814497466600,7.142466552734375,-0.032011728733778,0.022347649559378624,-0.07585082203149796
1690840814507506700,7.152506591796875,-0.045883070677518845,-0.08961030840873718,-0.11772982776165009
1690840814517546800,7.162546630859375,-0.05661054700613022,-0.06138346716761589,-0.07099667936563492
1690840814527586800,7.1725869140625,-0.03386875241994858,-0.04328515753149986,0.012438293546438217
1690840814537627600,7.182627685546875,-0.01404631044715643,-0.015803996473550797,0.09106413275003433
1690840814547667700,7.192667724609375,-0.0026082999538630247,0.0134465666487813,0.0886896550655365
1690840814557707500,7.20270751953125,0.009031577967107296,0.02135322615504265,0.08870164304971695
1690840814567748600,7.21274853515625,0.013855894096195698,0.049434393644332886,0.10277485102415085
1690840814577788700,7.22278857421875,0.01173362135887146,0.06464503705501556,0.10249707847833633
1690840814587828700,7.232828857421875,0.0024716798216104507,0.058094460517168045,0.07365291565656662
1690840814597868800,7.242868896484375,-0.0033542513847351074,0.041303232312202454,0.050216831266880035
1690840814607909600,7.25290966796875,-0.008233695290982723,0.01919926144182682,0.027689151465892792
1690840814617980700,7.262980712890625,-0.010403638705611229,-0.019033079966902733,-0.019392073154449463
1690840814628020700,7.273020751953125,-0.0080323601141572,-0.041003890335559845,-0.051370780915021896
1690840814638060500,7.283060546875,-0.0035712989047169685,-0.04952414333820343,-0.08132628351449966
1690840814648100600,7.2931005859375,-0.0015755260828882456,-0.041730668395757675,-0.1031000167131424
1690840814658141700,7.3031416015625,-0.0019542276859283447,-0.02582467347383499,-0.11302748322486877
1690840814668181800,7.313181640625,-0.002255431143566966,-0.004803809802979231,-0.1182858943939209
1690840814678221800,7.323221923828125,-0.005056810099631548,0.010076869279146194,-0.1116676777601242
1690840814688262700,7.3332626953125,-0.005818474106490612,0.01920325495302677,-0.1004757434129715
1690840814698302700,7.343302734375,-0.006271477788686752,0.01865757443010807,-0.08418438583612442
1690840814708342500,7.353342529296875,-0.004573978949338198,0.013575463555753231,-0.0654786080121994
1690840814718382600,7.363382568359375,-0.005487443413585424,0.0047849016264081,-0.04194745048880577
1690840814728423700,7.373423583984375,-0.0037151097785681486,-0.0054243262857198715,-0.020685570314526558
1690840814738463700,7.383463623046875,-0.0032091091852635145,-0.014933941885828972,0.0041425470262765884
1690840814748503800,7.39350390625,-0.0036762275267392397,-0.016149409115314484,0.022772690281271935
1690840814758544600,7.403544677734375,-0.004503405187278986,-0.017104418948292732,0.03801742196083069
1690840814768614700,7.41361474609375,-0.004950284026563168,-0.010860370472073555,0.0485968291759491
1690840814778655700,7.42365576171875,-0.005375057924538851,0.0005677859298884869,0.053401172161102295
1690840814788695600,7.433695556640625,-0.004255731590092182,0.007533283904194832,0.05260142683982849
1690840814798735600,7.443735595703125,-0.0060024987906217575,0.015868978574872017,0.04439116641879082
1690840814808775700,7.453775634765625,-0.00261788722127676,0.019214706495404243,0.032286033034324646
1690840814818816800,7.463816650390625,-0.0029060414526611567,0.016397615894675255,0.014621819369494915
1690840814828856800,7.47385693359375,-0.0035630431957542896,0.008716792799532413,-0.003739877138286829
1690840814838896600,7.483896728515625,-0.003037335118278861,-0.004012051969766617,-0.026035062968730927
1690840814848937700,7.493937744140625,-0.005570800509303808,-0.011009241454303265,-0.04348915442824364
1690840814858977000,7.50397705078125,-0.004748149774968624,-0.016995228826999664,-0.05997438728809357
1690840814869017000,7.51401708984375,-0.00512711750343442,-0.016929714009165764,-0.06839530169963837
1690840814879057200,7.52405712890625,-0.004893292207270861,-0.014182930812239647,-0.07273838669061661
1690840814889098200,7.53409814453125,-0.005560680292546749,-0.007679224945604801,-0.07334159314632416
1690840814899138300,7.54413818359375,-0.002672215923666954,-0.0012751214671880007,-0.06865309923887253
1690840814909178400,7.554178466796875,-0.004225904121994972,0.0009701895760372281,-0.06312303990125656
1690840814919249200,7.564249267578125,-0.0054762582294642925,0.002386725042015314,-0.051596082746982574
1690840814929289200,7.574289306640625,-0.005209675524383783,0.0019712718203663826,-0.03798546642065048
1690840814939330000,7.584330078125,-0.0043920851312577724,0.0008386294357478619,-0.027537617832422256
1690840814949370000,7.5943701171875,-0.004501807503402233,-0.0029909962322562933,-0.013975736685097218
1690840814959410200,7.60441015625,-0.004740160424262285,-0.002086054068058729,-0.001321194227784872
1690840814969451300,7.614451171875,-0.004057059530168772,-0.0049705239944159985,0.008521849289536476
1690840814979491300,7.6244912109375,-0.004582767374813557,-0.002029328839853406,0.01582849770784378
1690840814989531100,7.63453125,-0.0046240463852882385,-0.002338788006454706,0.019769975915551186
1690840814999571200,7.6445712890625,-0.0030831415206193924,-2.6631610694494157e-7,0.020853882655501366
1690840815009612000,7.654612060546875,-0.004010187927633524,0.0019228023011237383,0.01817713864147663
1690840815019652000,7.664652099609375,-0.005284244194626808,0.0017470336752012372,0.012111257761716843
1690840815029692200,7.674692138671875,-0.004791293293237686,0.003034672001376748,0.0015566176734864712
1690840815039732200,7.684732177734375,-0.003763579297810793,0.0034413367975503206,-0.010004431009292603
1690840815049773300,7.694773193359375,-0.0046160570345819,-0.0007222492713481188,-0.02219904586672783
1690840815059813400,7.7048134765625,-0.004059722647070885,-0.002814961364492774,-0.03393559530377388
1690840815069853200,7.714853271484375,-0.004358529578894377,-0.005116198677569628,-0.039809729903936386
1690840815079924200,7.72492431640625,-0.004245611373335123,-0.007183344569057226,-0.05012708157300949
1690840815089964000,7.734964111328125,-0.0049590724520385265,-0.005179582163691521,-0.04771159589290619
1690840815100005000,7.745005126953125,-0.004805674310773611,-0.005723399575799704,-0.05078941211104393
1690840815110045200,7.755045166015625,-0.006444583646953106,-0.004878644831478596,-0.04699387401342392
1690840815120085200,7.765085205078125,-0.004978246986865997,-0.0027265443932265043,-0.04436240345239639
1690840815130126300,7.775126220703125,-0.00652714166790247,-0.0020511667244136333,-0.03573056682944298
1690840815140166100,7.785166259765625,-0.0021899172570556402,-0.002689792774617672,-0.03127456456422806
1690840815150206200,7.795206298828125,-0.004963066894561052,-0.0011765845119953156,-0.02268880046904087
1690840815160246000,7.80524609375,-0.004006992094218731,-0.002067412016913295,-0.015293468721210957
1690840815170287000,7.815287109375,-0.005305016878992319,-0.0020812603179365396,-0.010735202580690384
1690840815180327200,7.8253271484375,-0.005783853121101856,-0.001520665013231337,-0.0036583843175321817
1690840815190367200,7.8353671875,-0.0049247173592448235,-0.0009768474847078323,-0.00008255799184553325
1690840815200408300,7.845408203125,-0.0027286747936159372,0.0016341155860573053,0.0007853662245906889
1690840815210448400,7.855448486328125,-0.0054128747433424,0.00021252025908324867,0.0015326491557061672
1690840815220488200,7.86548828125,-0.004335360135883093,0.001517469179816544,-0.0009030779474414885
1690840815230559200,7.875559326171875,-0.004174771253019571,0.0008753810543566942,-0.004745753016322851
1690840815240599000,7.88559912109375,-0.004322576802223921,-0.00012863067968282849,-0.011028949171304703
1690840815250639000,7.89563916015625,-0.004878911189734936,-0.0009145294898189604,-0.018273279070854187
1690840815260680200,7.90568017578125,-0.00538384635001421,-0.0030248183757066727,-0.02310398779809475
1690840815270720300,7.91572021484375,-0.005126318894326687,-0.004985703621059656,-0.029707295820116997
1690840815280760000,7.925760009765625,-0.004856008104979992,-0.0037121803034096956,-0.03453933447599411
1690840815290801200,7.93580126953125,-0.00624085171148181,-0.003555319970473647,-0.0363505519926548
1690840815300841200,7.94584130859375,-0.004807005636394024,-0.003023486817255616,-0.03720462694764137
1690840815310881000,7.955881103515625,-0.005477589555084705,-0.0021963089238852262,-0.035718049854040146
1690840815320921000,7.965921142578125,-0.0052381716668605804,-0.0033135050907731056,-0.03476756811141968
1690840815330962200,7.975962158203125,-0.004542021080851555,-0.0011286477092653513,-0.03183383122086525
1690840815341002200,7.986002197265625,-0.005336175672709942,-0.0023824640084058046,-0.028837241232395172
1690840815351042300,7.996042236328125,-0.004960403777658939,-0.0014202637830749154,-0.023367905989289284
1690840815361083400,8.00608349609375,-0.004240551497787237,-0.0015981629258021712,-0.02027757465839386
1690840815371123200,8.016123291015624,-0.005400091875344515,-0.00444002216681838,-0.01581411622464657
1690840815381194200,8.0261943359375,-0.004579039290547371,-0.0036887445021420717,-0.013223660178482533
1690840815391234000,8.036234130859375,-0.0056922403164207935,-0.0012639362830668688,-0.0117914117872715
1690840815401274000,8.046274169921874,-0.004013117402791977,-0.001261273049749434,-0.010161024518311024
1690840815411315200,8.056315185546875,-0.00430180411785841,0.0002545981842558831,-0.009239038452506065
1690840815421355300,8.066355224609374,-0.0044171190820634365,-0.002587793627753854,-0.009227853268384933
1690840815431395000,8.07639501953125,-0.003905259305611253,0.0001882854849100113,-0.011689413338899612
1690840815441435100,8.08643505859375,-0.004081028047949076,-0.001241033081896603,-0.015728097409009933
1690840815451476200,8.096476318359375,-0.00574816670268774,0.00003408846168895252,-0.018439726904034615
1690840815461516000,8.10651611328125,-0.005091165192425251,-0.0027140274178236723,-0.023202523589134216
1690840815471556000,8.11655615234375,-0.0046698530204594135,-0.0020716730505228043,-0.025739451870322227
1690840815481597200,8.12659716796875,-0.0049438923597335815,-0.0057036918587982655,-0.0264222864061594
1690840815491637200,8.13663720703125,-0.004324174486100674,-0.0033065807074308395,-0.02924470417201519
1690840815501677000,8.146677001953124,-0.004738562274724245,-0.0043867588974535465,-0.03003539703786373
1690840815511717000,8.156717041015625,-0.005126052536070347,-0.0023094932548701763,-0.028593560680747032
1690840815521758000,8.166758056640624,-0.004078098572790623,-0.0015675366157665849,-0.0278012715280056
1690840815531828200,8.176828125,-0.003934554290026426,-0.003665574826300144,-0.026976224035024643
1690840815541869000,8.186869140625,-0.005645102355629206,-0.000600809114985168,-0.025137310847640038
1690840815551909000,8.1969091796875,-0.004051200579851866,-0.0027169568929821253,-0.02172233909368515
1690840815561949200,8.20694921875,-0.005164668429642916,-0.002398442942649126,-0.019362512975931168
1690840815571990300,8.216990234375,-0.004073038697242737,-0.0008652610122226179,-0.017408018931746483
1690840815582030000,8.227030029296875,-0.005495699122548103,-0.0025590313598513603,-0.014886271208524704
1690840815592070100,8.237070068359374,-0.006185724399983883,-0.003477022983133793,-0.015133945271372795
1690840815602110200,8.247110107421875,-0.0029923277907073498,-0.0018775284988805652,-0.01606658473610878
1690840815612151000,8.257151123046874,-0.005664810072630644,-0.0008378304773941636,-0.014399711973965168
1690840815622191000,8.267191162109375,-0.005275189410895109,-0.0002561961009632796,-0.013601829297840595
1690840815632231200,8.277231201171874,-0.004622448701411486,0.00016484966909047216,-0.016947291791439056
1690840815642272300,8.287272216796875,-0.005596100352704525,-0.0003403519804123789,-0.01961711049079895
1690840815652312000,8.29731201171875,-0.003884486621245742,-0.002751844236627221,-0.020985975861549377
1690840815662352100,8.30735205078125,-0.0051742554642260075,-0.00011078749957960099,-0.023693079128861427
1690840815672392200,8.31739208984375,-0.005738845560699701,-0.0011171960504725575,-0.02437111921608448
1690840815682463200,8.327463134765624,-0.003716174978762865,-0.0023992417845875025,-0.024518659338355064
1690840815692503300,8.33750341796875,-0.005470665637403727,-0.0037140443455427885,-0.026024676859378815
1690840815702544100,8.347544189453124,-0.0049255164340138435,-0.003963316325098276,-0.02575116977095604
1690840815712584200,8.357584228515625,-0.00437956815585494,-0.0039041941054165363,-0.02473890222609043
1690840815722624000,8.3676240234375,-0.004597681108862162,-0.0019773971289396286,-0.024088824167847633
1690840815732665000,8.3776650390625,-0.0029547770973294973,-0.0022442457266151905,-0.023684291169047356
1690840815742705200,8.387705078125,-0.005660282447934151,-0.0016053534345701337,-0.0214214026927948
1690840815752745200,8.3977451171875,-0.005579322576522827,-0.0009291769238188863,-0.02046532742679119
1690840815762785300,8.407785400390624,-0.004599811974912882,-0.00047643951256759465,-0.018392322584986687
1690840815772826000,8.417826171875,-0.005844040773808956,-0.00013448962999973446,-0.019457055255770683
1690840815782866200,8.4278662109375,-0.004513259045779705,-0.0014322480419650674,-0.01853746548295021
1690840815792906000,8.437906005859375,-0.004603806417435408,-0.0009707222343422472,-0.016801882535219193
1690840815802947000,8.447947021484374,-0.0057255299761891365,-0.0022562299855053425,-0.017110543325543404
1690840815812987100,8.457987060546875,-0.004258926957845688,-0.0025603631511330605,-0.018086858093738556
1690840815823027200,8.468027099609374,-0.004571582190692425,-0.0021281319204717875,-0.01841709017753601
1690840815833098200,8.47809814453125,-0.002727875951677561,-0.00242107966914773,-0.01925518736243248
1690840815843138300,8.48813818359375,-0.005358546506613493,-0.0029379993211477995,-0.021872807294130325
1690840815853179100,8.49817919921875,-0.004078098572790623,-0.0034855452831834555,-0.02101154252886772
1690840815863214300,8.50821435546875,-0.006019542925059795,-0.0013851100811734796,-0.02262488566339016
1690840815873254400,8.51825439453125,-0.0037878139410167933,-0.001112668658606708,-0.02388029918074608
1690840815883294200,8.528294189453124,-0.005416869651526213,-0.0009635316673666239,-0.022826751694083214
1690840815893335000,8.5383349609375,-0.005772934295237064,-0.0034906051587313414,-0.022942600771784782
1690840815903375000,8.548375,-0.005366535857319832,-0.002304965863004327,-0.024650750681757927
1690840815913415200,8.558415283203125,-0.00264851376414299,-0.0036882117856293917,-0.021565480157732964
1690840815923456300,8.568456298828124,-0.003841609926894307,-0.0011222560424357653,-0.020506873726844788
1690840815933496300,8.578496337890625,-0.004548945464193821,-0.0013707289472222328,-0.02160036750137806
1690840815943536400,8.588536376953124,-0.0038152446504682302,-0.0037713022902607918,-0.01961018703877926
1690840815953576200,8.598576171875,-0.005104214418679476,-0.0013222594279795885,-0.018758241087198257
1690840815963617000,8.608616943359374,-0.0038155107758939266,-0.0018722022650763392,-0.019233083352446556
1690840815973657000,8.618656982421875,-0.004572647623717785,-0.002153431996703148,-0.019750269129872322
1690840815983697200,8.628697265625,-0.00407383730635047,-0.0019646140281111,-0.016077237203717232
1690840815993768200,8.638768310546874,-0.00446984963491559,-0.0036914076190441847,-0.02051938883960247
1690840816003808300,8.648808349609375,-0.0046911584213376045,-0.001329716295003891,-0.019838418811559677
1690840816013849300,8.658849365234374,-0.005508482456207275,-0.002177933230996132,-0.018609637394547462
1690840816023889400,8.668889404296875,-0.005638444796204567,-0.0020993698853999376,-0.020544955506920815
1690840816033929200,8.67892919921875,-0.005085572600364685,-0.0035087147261947393,-0.02009567990899086
1690840816043969300,8.68896923828125,-0.005545233841985464,0.00014061490946915,-0.02172074094414711
1690840816054010000,8.699010009765624,-0.00424268189817667,-0.0011491540353745222,-0.021384384483098984
1690840816064050200,8.70905029296875,-0.005545233841985464,-0.0021108214277774096,-0.02238813042640686
1690840816074090200,8.71909033203125,-0.0037033918779343367,-0.003492203075438738,-0.02197134494781494
1690840816084131300,8.72913134765625,-0.005057609174400568,-0.0015198660548776388,-0.022764168679714203
1690840816094171400,8.73917138671875,-0.0043625240214169025,-0.002103630919009447,-0.021981731057167053
1690840816104211200,8.749211181640625,-0.004788896068930626,-0.0003001382574439049,-0.021137243136763573
1690840816114251300,8.759251220703124,-0.003919640555977821,-0.005059739574790001,-0.022668560966849327
1690840816124292000,8.7692919921875,-0.004405667539685965,-0.0017089504981413484,-0.02105601690709591
1690840816134332200,8.779332275390624,-0.005640575196594,-0.0022248048335313797,-0.021227257326245308
1690840816144403200,8.7894033203125,-0.004883704707026482,-0.0025158883072435856,-0.020435767248272896
1690840816154443300,8.799443359375,-0.005151618737727404,-0.002031991956755519,-0.01913800835609436
1690840816164483300,8.8094833984375,-0.00401631323620677,-0.00216514989733696,-0.020671723410487175
1690840816174524400,8.8195244140625,-0.005631520412862301,-0.0012876383261755109,-0.01967170648276806
1690840816184564200,8.829564208984374,-0.005064533557742834,-0.003855724586173892,-0.02070447988808155
1690840816194604000,8.83960400390625,-0.00439075380563736,-0.0016085492679849267,-0.02057371847331524
1690840816204644000,8.84964404296875,-0.00490154791623354,-0.0024445154704153538,-0.021869080141186714
1690840816214685200,8.859685302734375,-0.004042678512632847,-0.00195156445261091,-0.020427776500582695
1690840816224725200,8.869725341796874,-0.004578772932291031,-0.0011124024167656898,-0.021924473345279694
1690840816234765300,8.879765380859375,-0.004677842371165752,-0.0020178770646452904,-0.021373998373746872
1690840816244806400,8.889806396484374,-0.005083974450826645,-0.002561161993071437,-0.021813951432704926
1690840816254846200,8.89984619140625,-0.004778776317834854,-0.0011350392596796155,-0.021946577355265617
1690840816264886000,8.909885986328124,-0.0065071675926446915,-0.0030269487760961056,-0.021097028627991676
1690840816274926000,8.919926025390625,-0.004706870764493942,-0.003254649229347706,-0.02232181653380394
1690840816284967200,8.92996728515625,-0.005106611177325249,-0.002112952060997486,-0.02173086255788803
1690840816295038200,8.9400380859375,-0.004994492046535015,-0.004254399798810482,-0.02124004065990448
1690840816305078300,8.950078369140625,-0.004960670135915279,-0.0007877630414441228,-0.019567575305700302
1690840816315118300,8.960118408203124,-0.0036975329276174307,-0.0019244002178311348,-0.020807277411222458
1690840816325158100,8.970158203125,-0.0036069853231310844,-0.0024972460232675076,-0.019840549677610397
1690840816335199200,8.98019921875,-0.004580104257911444,-0.0002103897277265787,-0.021284781396389008
1690840816345239000,8.990239013671875,-0.005116465035825968,-0.0023374564480036497,-0.019114306196570396
1690840816355279000,9.000279052734374,-0.003216033335775137,-0.002103630919009447,-0.021434186026453972
1690840816365320200,9.0103203125,-0.00558225205168128,-0.00017949705943465233,-0.02118171751499176
1690840816375360300,9.0203603515625,-0.004945490043610334,-0.0022240057587623596,-0.02281397022306919
1690840816385400300,9.030400390625,-0.005317533854395151,-0.0002069276088150218,-0.02076413482427597
1690840816395440000,9.040440185546874,-0.004303401801735163,-0.0026812704745680094,-0.021517276763916016
1690840816405481200,9.050481201171875,-0.005311674904078245,-0.002883670851588249,-0.02020913176238537
1690840816415521000,9.06052099609375,-0.0037787591572850943,-0.0021699436474591494,-0.02112419344484806
1690840816425561000,9.07056103515625,-0.0057708038948476315,-0.000985103310085833,-0.022913837805390358
1690840816435602200,9.080602294921874,-0.0038477350026369095,-0.0008567389450035989,-0.020108729600906372
1690840816445672200,9.090672119140624,-0.003993143793195486,-0.0037169738207012415,-0.02111833542585373
1690840816455713300,9.10071337890625,-0.006512760184705257,-0.002141714096069336,-0.020954018458724022
1690840816465753000,9.110753173828124,-0.004054662771522999,0.00008442220860160887,-0.021893847733736038
1690840816475793200,9.120793212890625,-0.005118595436215401,-0.0022652847692370415,-0.020958278328180313
1690840816485833200,9.130833251953124,-0.004024036228656769,0.000027430558475316502,-0.021862421184778214
1690840816495874000,9.1408740234375,-0.0046517434529960155,-0.0022746059112250805,-0.021795842796564102
1690840816505914000,9.1509140625,-0.0056919739581644535,-0.0022631543688476086,-0.02112552523612976
1690840816515954200,9.1609541015625,-0.002935868687927723,-0.002989398315548897,-0.01949300803244114
1690840816525995300,9.170995361328124,-0.004177168011665344,-0.0021528995130211115,-0.020173711702227592
1690840816536035300,9.181035400390625,-0.004252269398421049,-0.0025182850658893585,-0.020054401829838753
1690840816546075100,9.1910751953125,-0.003766508772969246,-0.002808303339406848,-0.019528694450855255
1690840816556115200,9.201115234375,-0.004231763072311878,-0.0022085595410317183,-0.01967676542699337
1690840816566156000,9.211156005859374,-0.0046669235453009605,-0.0019558256026357412,-0.019346266984939575
1690840816576196000,9.221196044921875,-0.0054754591546952724,-0.002161954063922167,-0.022055501118302345
1690840816586236200,9.231236083984374,-0.005834719631820917,-0.0016644756542518735,-0.020473849028348923
1690840816596307200,9.24130712890625,-0.004957474302500486,-0.0025534387677907944,-0.01914040558040142
1690840816606347000,9.251346923828125,-0.00267674308270216,-0.0016564861871302128,-0.02202460914850235
1690840816616388000,9.26138818359375,-0.004480235744267702,-0.0020759340841323137,-0.022232335060834885
1690840816626428200,9.27142822265625,-0.005024852231144905,-0.0026320021133869886,-0.021929800510406494
1690840816636468200,9.28146826171875,-0.005251220893114805,-0.0009882990270853043,-0.020358800888061523
1690840816646508300,9.29150830078125,-0.004905809182673693,-0.004475974943488836,-0.020383035764098167
1690840816656549000,9.301549072265624,-0.005251487251371145,-0.002040247665718198,-0.021498367190361023
1690840816666589200,9.311589111328125,-0.005438175052404404,-0.0026343988720327616,-0.019169433042407036
1690840816676629200,9.321629150390624,-0.004700745455920696,-0.0025454494170844555,-0.02130954898893833
1690840816686670300,9.33167041015625,-0.005115932319313288,-0.0005880259559489787,-0.018966499716043472
1690840816696710100,9.341710205078124,-0.005660548806190491,-0.00001304948909819359,-0.021164141595363617
1690840816706750200,9.351750244140625,-0.005120459944009781,-0.002983805723488331,-0.020019780844449997
1690840816716790300,9.361790283203124,-0.0028365328907966614,-0.0027449200861155987,-0.020422184839844704
1690840816726831000,9.3718310546875,-0.003938016481697559,-0.0018271948210895061,-0.02063390612602234
1690840816736871200,9.38187109375,-0.005681587848812342,-0.002290318487212062,-0.021507954224944115
1690840816746942200,9.391942138671874,-0.005627791862934828,-0.0031555795576423407,-0.02058010920882225
1690840816756982000,9.40198193359375,-0.005572664551436901,-0.0009843043517321348,-0.019119631499052048
1690840816767022000,9.41202197265625,-0.005097024142742157,-0.0029561088886111975,-0.021208615973591805
1690840816777063200,9.422063232421875,-0.004686897154897451,-0.0028613002505153418,-0.02172074094414711
1690840816787103200,9.432103271484374,-0.005353220272809267,-0.0025987126864492893,-0.018748121336102486
1690840816797143300,9.442143310546875,-0.0049337721429765224,-0.0018002968281507492,-0.020607806742191315
1690840816807184100,9.45218408203125,-0.004025368019938469,-0.0025361282750964165,-0.021642977371811867
1690840816817224200,9.46222412109375,-0.004299407359212637,-0.002585396869108081,-0.021393438801169395
1690840816827264300,9.47226416015625,-0.003570766421034932,-0.0009118663729168475,-0.02088344469666481
1690840816837304000,9.482303955078125,-0.0019233349012210965,-0.0025563682429492474,-0.02051619440317154
1690840816847345200,9.49234521484375,-0.005634183529764414,-0.0025979136116802692,-0.01913907378911972
1690840816857361700,9.502361572265626,-0.004117513541132212,-0.0011614045361056924,-0.02051033452153206
1690840816867401500,9.5124013671875,-0.004766792058944702,-0.0025712819769978523,-0.020248811691999435
1690840816877442600,9.522442626953126,-0.004201669245958328,-0.0024136228021234274,-0.022049374878406525
1690840816887482600,9.532482666015625,-0.0033987262286245823,-0.002910302486270666,-0.020930316299200058
1690840816897522400,9.5425224609375,-0.006198240909725428,-0.0023350596893578768,-0.020181700587272644
1690840816907593500,9.552593505859376,-0.004702077247202396,-0.001981125446036458,-0.020479442551732063
1690840816917633500,9.562633544921875,-0.00472418125718832,-0.002311623888090253,-0.017771806567907333
1690840816927673600,9.572673583984376,-0.004297010600566864,-0.004479969386011362,-0.021917283535003662
1690840816937714700,9.582714599609375,-0.005410744342952967,-0.000862864195369184,-0.020501280203461647
1690840816947754500,9.59275439453125,-0.003909786697477102,-0.00216488353908062,-0.02051086723804474
1690840816957794300,9.602794189453125,-0.004545483272522688,-0.002654106356203556,-0.02057318575680256
1690840816967835400,9.61283544921875,-0.006188387516885996,-0.0023616913240402937,-0.018867963925004005
1690840816977875500,9.62287548828125,-0.004310858901590109,-0.00039175100391730666,-0.019643209874629974
1690840816987915500,9.63291552734375,-0.00478383619338274,-0.001972070662304759,-0.02129223942756653
1690840816997955600,9.64295556640625,-0.0057281930930912495,-0.00284984870813787,-0.02003203146159649
1690840817007996700,9.65299658203125,-0.00413509039208293,-0.002070607617497444,-0.02183978445827961
1690840817018036500,9.663036376953125,-0.005334577988833189,-0.001306014135479927,-0.02014814503490925
1690840817028076500,9.67307666015625,-0.005243231542408466,-0.001975532853975892,-0.0199822299182415
1690840817038117600,9.68311767578125,-0.0039044604636728764,-0.0016740630380809307,-0.022228073328733444
1690840817048157400,9.693157470703126,-0.0054605454206466675,-0.0028189560398459435,-0.021392906084656715
1690840817058228500,9.703228515625,-0.005107143893837929,-0.0015931029338389635,-0.019838951528072357
1690840817068268500,9.7132685546875,-0.004436027258634567,-0.002025333931669593,-0.022373216226696968
1690840817078308600,9.72330859375,-0.0057100835256278515,-0.003824033075943589,-0.01931990124285221
1690840817088349700,9.733349609375,-0.003960653208196163,-0.0007123955874703825,-0.0191342793405056
1690840817098389500,9.743389404296876,-0.004824316129088402,-0.00242134602740407,-0.020917532965540886
1690840817108429300,9.75342919921875,-0.005169461946934462,-0.0012769857421517372,-0.020069582387804985
1690840817118469400,9.763469482421876,-0.005873868241906166,-0.0034016557037830353,-0.02172739990055561
1690840817128510500,9.773510498046875,-0.005036303773522377,-0.0011696603614836931,-0.01943228766322136
1690840817138550500,9.783550537109376,-0.004991296678781509,-0.0024628913961350918,-0.021586252376437187
1690840817148590600,9.793590576171875,-0.004129497334361076,-0.0035723643377423286,-0.021087441593408585
1690840817158630700,9.803630615234376,-0.005535380449146032,-0.0037468012887984514,-0.021196098998188972
1690840817168671500,9.81367138671875,-0.004293282050639391,-0.004800880327820778,-0.02184884063899517
1690840817178711300,9.823711181640626,-0.003922836389392614,-0.0014021543320268393,-0.021802499890327454
1690840817188751400,9.83375146484375,-0.005697567015886307,-0.0034964641090482473,-0.02082725055515766
1690840817198792400,9.84379248046875,-0.004350806120783091,-0.0021907163318246603,-0.01986078917980194
1690840817208862500,9.853862548828126,-0.005195294506847858,-0.0012514194240793586,-0.02185176871716976
1690840817218903600,9.863903564453125,-0.005702626891434193,-0.002031459240242839,-0.020320184528827667
1690840817228943600,9.873943603515626,-0.003363838652148843,-0.0016594156622886658,-0.02064402587711811
1690840817238983700,9.883983642578125,-0.0046701193787157536,-0.0012767193838953972,-0.020196082070469856
1690840817249024500,9.8940244140625,-0.005618737079203129,-0.0007486145477741957,-0.01896463707089424
1690840817259064300,9.904064208984375,-0.004054130055010319,0.0002460760879330337,-0.01984907127916813
1690840817269104400,9.9141044921875,-0.003849599277600646,-0.0028067054226994514,-0.02099556289613247
1690840817279144400,9.92414453125,-0.004659732803702354,-0.0016990967560559511,-0.018795792013406754
1690840817289185500,9.934185546875,-0.003040264593437314,-0.002433863002806902,-0.02166374959051609
1690840817299225600,9.9442255859375,-0.0046509443782269955,-0.0009203884401358664,-0.02136494405567646
1690840817309265700,9.954265625,-0.0036844832357019186,-0.0021398498211055994,-0.019843745976686478
1690840817319306500,9.964306396484375,-0.0041252365335822105,-0.0016101471846923232,-0.019899139180779457
1690840817329346300,9.97434619140625,-0.0036690370179712772,-0.0024019049014896154,-0.02118171751499176
1690840817339386400,9.984386474609375,-0.005548163317143917,-0.0031784826423972845,-0.0210040844976902
1690840817349426400,9.994426513671876,-0.004989698529243469,-0.0015267902053892612,-0.02046586014330387
1690840817359497500,10.00449755859375,-0.005033374298363924,-0.002670884132385254,-0.022952720522880554
1690840817369537500,10.01453759765625,-0.004334028344601393,-0.002635996788740158,-0.02171355113387108
1690840817379578600,10.02457861328125,-0.004160656593739986,-0.002276470186188817,-0.020802482962608337
1690840817389618700,10.03461865234375,-0.004772917367517948,-0.001835716888308525,-0.019639480859041214
1690840817399658500,10.044658447265626,-0.004013117402791977,-0.0017835189355537295,-0.019708190113306046
1690840817409699300,10.05469921875,-0.003943342715501785,-0.00373108871281147,-0.021156683564186096
1690840817419739400,10.064739501953126,-0.004436826333403587,-0.001160339335910976,-0.020267454907298088
1690840817429779500,10.074779541015625,-0.005054413340985775,-0.0008189220097847283,-0.02118917554616928
1690840817439819500,10.084819580078126,-0.00532685499638319,-0.0033244239166378975,-0.020620323717594147
1690840817449860600,10.094860595703125,-0.005488774739205837,-0.002182993106544018,-0.019884757697582245
1690840817459900700,10.104900634765626,-0.005517803598195314,-0.0036719664931297302,-0.02028556354343891
1690840817469940500,10.1149404296875,-0.00561048137024045,-0.0014085458824411035,-0.021641645580530167
1690840817479981300,10.124981201171876,-0.005628857295960188,-0.002055161399766803,-0.02155029959976673
1690840817490021400,10.135021484375,-0.004267715383321047,-0.001936917076818645,-0.01912975311279297
1690840817500061400,10.1450615234375,-0.004339088220149279,-0.00205276464112103,-0.0203928891569376
1690840817510132500,10.155132568359376,-0.005756688769906759,-0.0022650184109807014,-0.020688233897089958
1690840817520172500,10.165172607421875,-0.0026312030386179686,-0.0009238505735993385,-0.022035794332623482
1690840817530213600,10.175213623046876,-0.006142580881714821,-0.005577191710472107,-0.021886922419071198
1690840817540253700,10.185253662109375,-0.00497984467074275,-0.002388855442404747,-0.019663449376821518
1690840817550293500,10.19529345703125,-0.006557501386851072,-0.0032895365729928017,-0.019900737330317497
1690840817560333600,10.20533349609375,-0.004746285732835531,-0.0019800602458417416,-0.01986824721097946
1690840817570374400,10.21537451171875,-0.004177700728178024,-0.0008673915872350335,-0.02141794003546238
1690840817580414500,10.22541455078125,-0.004567587748169899,-0.0034791536163538694,-0.01936624012887478
1690840817590454500,10.23545458984375,-0.0032916669733822346,-0.00043116576853208244,-0.019939886406064034
1690840817600495600,10.24549560546875,-0.005219263024628162,-0.0024684839881956577,-0.021081317216157913
1690840817610535700,10.25553564453125,-0.003463441040366888,-0.0030088394414633512,-0.021863486617803574
1690840817620575500,10.265575439453125,-0.0054911719635128975,-0.003117230022326112,-0.022551914677023888
1690840817630615600,10.275615478515626,-0.00481366366147995,-0.0018823222490027547,-0.021825935691595078
1690840817640656400,10.285656494140625,-0.005107676610350609,-0.003525758860632777,-0.02166028879582882
1690840817650696400,10.295696533203126,-0.004998753312975168,-0.0010367685463279486,-0.02105335332453251
1690840817660767500,10.305767578125,-0.004702077247202396,-0.002666356973350048,-0.021157482638955116
1690840817670807600,10.3158076171875,-0.0049646650440990925,-0.0033574472181499004,-0.02148372121155262
1690840817680847600,10.32584765625,-0.004022172186523676,-0.003899400355294347,-0.021098360419273376
1690840817690888700,10.335888671875,-0.005868275184184313,-0.003888481529429555,-0.019906863570213318
1690840817700928500,10.345928466796876,-0.0029547770973294973,-0.00230789533816278,-0.0221543051302433
1690840817710968600,10.355968505859375,-0.004357730504125357,-0.002424009144306183,-0.02142379991710186
1690840817721008600,10.366008544921876,-0.005026716738939285,-0.004605670925229788,-0.02088743820786476
1690840817731049500,10.376049560546875,-0.004239752423018217,-0.0020820593927055597,-0.022334599867463112
1690840817741089500,10.386089599609376,-0.005191033706068993,-0.0014868428697809577,-0.021019265055656433
1690840817751129600,10.396129638671875,-0.006074403878301382,-0.003553189570084214,-0.02107013203203678
1690840817761170700,10.406170654296876,-0.00424348097294569,0.0012626046082004905,-0.01955559104681015
1690840817771210500,10.41621044921875,-0.003932956140488386,-0.0023901870008558035,-0.02022484503686428
1690840817781250600,10.42625048828125,-0.005460012704133987,-0.001347559504210949,-0.020790765061974525
1690840817791290600,10.43629052734375,-0.00019973708549514413,0.14849013090133667,-0.04265744984149933
1690840817801331500,10.44633154296875,0.019300460815429688,0.08189566433429718,-0.09125028550624847
1690840817811371500,10.45637158203125,-0.006280798930674791,-0.009728261269629002,-0.0942268967628479
1690840817821442600,10.466442626953125,-0.012299543246626854,-0.03313611447811127,-0.1145114004611969
1690840817831482600,10.476482666015626,-0.016153935343027115,-0.07174715399742126,-0.15176822245121002
1690840817841522400,10.4865224609375,-0.014713432639837265,-0.060919541865587234,-0.1385088711977005
1690840817851563500,10.4965634765625,-0.00824008695781231,-0.05633677542209625,-0.08050017058849335
1690840817861623600,10.50662353515625,-0.006386792752891779,-0.049981676042079926,-0.07657413929700851
1690840817871663600,10.51666357421875,-0.005391037091612816,-0.05837329477071762,-0.07816324383020401
1690840817881703700,10.52670361328125,-0.0033270870335400105,-0.04898298904299736,-0.07620475441217422
1690840817891744500,10.53674462890625,-0.002254898427054286,-0.025738386437296867,-0.0600564144551754
1690840817901784600,10.54678466796875,0.0018410432385280728,0.016937438398599625,-0.01703357882797718
1690840817911824400,10.556824462890624,0.0037257622461766005,0.045937929302453995,0.008964466862380505
1690840817921865500,10.566865478515625,0.002168612089008093,0.06314994394779205,0.016801083460450172
1690840817931905500,10.576905517578124,-0.00037736992817372084,0.07166939228773117,0.022892532870173454
1690840817941945600,10.586945556640625,-0.0028796761762350798,0.07875712960958481,0.038839805871248245
1690840817951985700,10.596985595703124,-0.004835767671465874,0.0769919902086258,0.0702374130487442
1690840817962026500,10.607026611328125,-0.004264520015567541,0.05987878143787384,0.07763034850358963
1690840817972097500,10.61709765625,-0.007042197044938803,0.02634638547897339,0.07011943310499191
1690840817982137600,10.6271376953125,-0.006346312817186117,-0.0027353328187018633,0.07752328366041183
1690840817992177400,10.637177490234375,-0.004733236040920019,-0.025178590789437294,0.08284348249435425
1690840818002217500,10.647217529296874,-0.0036607813090085983,-0.05085998401045799,0.0619770847260952
1690840818012258600,10.657258544921875,-0.0021603561472147703,-0.054473627358675,0.04127313941717148
1690840818022298600,10.667298583984374,-0.0020671456586569548,-0.041664887219667435,0.02550829015672207
1690840818032338700,10.677338623046875,-0.0029577065724879503,-0.028114991262555122,0.004748149774968624
1690840818042379500,10.687379638671874,-0.00279099284671247,-0.008638761937618256,-0.030050577595829964
1690840818052419600,10.697419677734375,-0.0046847667545080185,0.007930893450975418,-0.05187012255191803
1690840818062459400,10.70745947265625,-0.005900499876588583,0.03195899724960327,-0.06662297248840332
1690840818072499500,10.71749951171875,-0.006798251066356897,0.035403795540332794,-0.08447547256946564
1690840818082540500,10.72754052734375,-0.006772951222956181,0.02889210171997547,-0.09857743978500366
1690840818092580600,10.73758056640625,-0.005358013790100813,0.01986558362841606,-0.09945175796747208
1690840818102620700,10.74762060546875,-0.004199805203825235,0.006434996146708727,-0.09745678305625916
1690840818112661500,10.75766162109375,-0.0030423952266573906,-0.014072675257921219,-0.09692441672086716
1690840818122731800,10.767731689453125,-0.003884486621245742,-0.027471572160720825,-0.08661185950040817
1690840818132772600,10.777772705078124,-0.003973968792706728,-0.033424269407987595,-0.07365477830171585
1690840818142812400,10.7878125,-0.004156661685556173,-0.03923448920249939,-0.06210172176361084
1690840818152852500,10.7978525390625,-0.006400641519576311,-0.03753192722797394,-0.04740612953901291
1690840818162892500,10.807892578125,-0.003920439630746841,-0.027828168123960495,-0.033494044095277786
1690840818172933600,10.81793359375,-0.005633650813251734,-0.018030665814876556,-0.01870977133512497
1690840818182973700,10.8279736328125,-0.005194761790335178,-0.005330050364136696,-0.007819573394954205
1690840818193013800,10.838013671875,-0.0032557144295424223,0.0070765516720712185,0.0029411951545625925
1690840818203054600,10.8480546875,-0.0049494849517941475,0.019045330584049225,0.01411475334316492
1690840818213094400,10.858094482421874,-0.004685565363615751,0.025658758357167244,0.022492792457342148
1690840818223134500,10.868134521484375,-0.00336117553524673,0.028610073029994965,0.027940820902585983
1690840818233174500,10.878174560546874,-0.0037883466575294733,0.024926388636231422,0.031249798834323883
1690840818243215600,10.888215576171875,-0.004164917394518852,0.020234964787960052,0.03289483115077019
1690840818253255700,10.898255615234374,-0.004707936197519302,0.01233256608247757,0.030487867072224617
1690840818263295700,10.908295654296875,-0.006204898934811354,0.0009153284481726587,0.027941353619098663
1690840818273366800,10.91836669921875,-0.005991313606500626,-0.008469651453197002,0.02214391715824604
1690840818283406600,10.928406494140624,-0.005518335849046707,-0.013190902769565582,0.012539493851363659
1690840818293447400,10.938447509765625,-0.004448810592293739,-0.015557121485471725,0.00012490226072259247
1690840818303487500,10.948487548828124,-0.00657667638733983,-0.01455683819949627,-0.01068060752004385
1690840818313527600,10.958527587890625,-0.004322310443967581,-0.012342952191829681,-0.021878667175769806
1690840818323567600,10.968567626953124,-0.005179848056286573,-0.006904777605086565,-0.035894885659217834
1690840818333608700,10.978608642578125,-0.005300489254295826,-0.0007515440811403096,-0.046538740396499634
1690840818343648800,10.988648681640624,-0.0035265579354017973,0.0013480921043083072,-0.05583876371383667
1690840818353688600,10.9986884765625,-0.007250988855957985,0.005066397599875927,-0.06022712215781212
1690840818363729400,11.0087294921875,-0.005437642335891724,0.00600462919101119,-0.06343862414360046
1690840818373769500,11.01876953125,-0.006167082116007805,0.002067944500595331,-0.062430087476968765
1690840818383809500,11.0288095703125,-0.005283711478114128,-0.0017339842161163688,-0.06011846289038658
1690840818393849600,11.038849609375,-0.0037622477393597364,-0.008420116268098354,-0.05517616868019104
1690840818403890700,11.048890625,-0.0051803807727992535,-0.010976751334965229,-0.050032008439302444
1690840818413930800,11.0589306640625,-0.0030929953791201115,-0.013832991011440754,-0.04229818657040596
1690840818424001500,11.06900146484375,-0.004261590540409088,-0.014061756432056427,-0.033966489136219025
1690840818434041600,11.07904150390625,-0.006283195689320564,-0.013171728700399399,-0.026637736707925797
1690840818444081700,11.08908154296875,-0.0038101845420897007,-0.01064838282763958,-0.018002701923251152
1690840818454122500,11.09912255859375,-0.005437109619379044,-0.005648298189043999,-0.011697934940457344
1690840818464162600,11.10916259765625,-0.006509298458695412,-0.000529436394572258,-0.005056011490523815
1690840818474202600,11.11920263671875,-0.005548962391912937,0.0046690539456903934,0.0011507519520819187
1690840818484243700,11.12924365234375,-0.004976116586476564,0.00938897393643856,0.004773183725774288
1690840818494283800,11.13928369140625,-0.004326837603002787,0.009096292778849602,0.006972155533730984
1690840818504323600,11.149323486328125,-0.004801945760846138,0.01013865415006876,0.007874434813857079
1690840818514363600,11.15936376953125,-0.003692472819238901,0.007041930686682463,0.007212372962385416
1690840818524404500,11.169404541015625,-0.004739094991236925,0.005645368713885546,0.005527390632778406
1690840818534444500,11.179444580078124,-0.006155097857117653,0.0016972325975075364,0.0024778051301836967
1690840818544484600,11.189484619140625,-0.006061887368559837,-0.002625077962875366,-0.0022061625495553017
1690840818554525700,11.199525634765624,-0.0038253646343946457,-0.0046181874349713326,-0.006774548906832933
1690840818564565800,11.209565673828125,-0.005425125360488892,-0.006475209724158049,-0.015442073345184326
1690840818574636500,11.219636474609375,-0.0049034119583666325,-0.007253651972860098,-0.020715931430459023
1690840818584676600,11.229676513671874,-0.005106877535581589,-0.005103948060423136,-0.02640497498214245
1690840818594716700,11.239716552734375,-0.004514324478805065,-0.004299407359212637,-0.0326109416782856
1690840818604756500,11.249756591796874,-0.0037950044497847557,-0.003905259305611253,-0.03767121210694313
1690840818614797600,11.259797607421875,-0.006333263125270605,-0.0014674017438665032,-0.0420830063521862
1690840818624837600,11.269837646484374,-0.0054269894026219845,-0.0007014766451902688,-0.042884085327386856
1690840818634877700,11.279877685546875,-0.0046693203039467335,-0.0012476909905672073,-0.04313388839364052
1690840818644918800,11.289918701171874,-0.005897836294025183,-0.0025923210196197033,-0.041977278888225555
1690840818654958600,11.29995849609375,-0.0032746228389441967,-0.0031678301747888327,-0.03958362713456154
1690840818664998700,11.30999853515625,-0.004181961994618177,-0.006991064175963402,-0.03750423341989517
1690840818675038500,11.32003857421875,-0.003500725142657757,-0.006555104628205299,-0.032951291650533676
1690840818685079600,11.33007958984375,-0.004736964590847492,-0.0073021212592720985,-0.028746958822011948
1690840818695119600,11.34011962890625,-0.003638144349679351,-0.00743314903229475,-0.02605769969522953
1690840818705159700,11.35015966796875,-0.004281564150005579,-0.007096791639924049,-0.022481607273221016
1690840818715200800,11.36020068359375,-0.003981159534305334,-0.0026759442407637835,-0.014458035118877888
1690840818725270500,11.3702705078125,-0.0052197957411408424,-0.0013102752855047584,-0.011750132776796818
1690840818735311600,11.3803115234375,-0.0033132387325167656,0.0018279937794432044,-0.009620136581361294
1690840818745351700,11.3903515625,-0.005911685060709715,0.0008721852791495621,-0.007120493799448013
1690840818755391500,11.4003916015625,-0.004324174486100674,0.0036448021419346333,-0.005583050660789013
1690840818765431600,11.410431640625,-0.0041529336012899876,0.0017885789275169373,-0.004795021377503872
1690840818775472600,11.42047265625,-0.004262389149516821,0.0025446503423154354,-0.0051657333970069885
1690840818785512700,11.4305126953125,-0.0047031426802277565,0.0015805860748514533,-0.006791859865188599
1690840818795552500,11.440552490234374,-0.0046482812613248825,-0.00013662016135640442,-0.00857644435018301
1690840818805593600,11.450593505859375,-0.004416320007294416,-0.000788561999797821,-0.011285144835710526
1690840818815633400,11.46063330078125,-0.004199272487312555,-0.0018812569323927164,-0.014363226480782032
1690840818825673500,11.470673583984375,-0.005340969655662775,-0.0019062906503677368,-0.016686568036675453
1690840818835713500,11.480713623046874,-0.004969991277903318,-0.003929493948817253,-0.018810706213116646
1690840818845754600,11.490754638671875,-0.005694637540727854,-0.0035691685043275356,-0.024877652525901794
1690840818855794700,11.500794677734374,-0.005620068870484829,-0.0034876756835728884,-0.02624651789665222
1690840818865825300,11.5108251953125,-0.006323942448943853,-0.0032384039368480444,-0.028610605746507645
1690840818875866000,11.5208662109375,-0.005047223065048456,-0.003724697045981884,-0.030221551656723022
1690840818885936400,11.530936279296874,-0.006278668530285358,-0.0028796761762350798,-0.03241359815001488
1690840818895977200,11.540977294921875,-0.0029912625905126333,-0.0018716695485636592,-0.03247911483049393
1690840818906017300,11.551017333984374,-0.005110073368996382,-0.0025867284275591373,-0.03359098359942436
1690840818916057300,11.561057373046875,-0.005495166406035423,-0.002703641075640917,-0.0305805467069149
1690840818926098400,11.571098388671874,-0.0041132522746920586,-0.004790494218468666,-0.029438583180308342
1690840818936138500,11.581138427734375,-0.006433132104575634,-0.004334294702857733,-0.02690138854086399
1690840818946178300,11.59117822265625,-0.0054448326118290424,-0.004610464442521334,-0.024960210546851158
1690840818956218400,11.60121826171875,-0.0036916739773005247,-0.003245328087359667,-0.024954086169600487
1690840818966259200,11.61125927734375,-0.0046392264775931835,-0.002719353651627898,-0.019124159589409828
1690840818976299300,11.62129931640625,-0.00373002327978611,-0.0026674221735447645,-0.018667694181203842
1690840818986339300,11.63133935546875,-0.005017661955207586,-0.001071123406291008,-0.014916365034878254
1690840818996380400,11.64138037109375,-0.0038456046022474766,-0.0010892328573390841,-0.012577843852341175
1690840819006420500,11.65142041015625,-0.005605155136436224,-0.0015078817959874868,-0.011264106258749962
1690840819016460300,11.661460205078125,-0.005538309924304485,0.00030546457855962217,-0.011630024760961533
1690840819026500400,11.671500244140624,-0.005306348204612732,-0.00009747169679030776,-0.012006862089037895
1690840819036571400,11.6815712890625,-0.004347610287368298,0.0015028218040242791,-0.013370400294661522
1690840819046611200,11.691611083984375,-0.004030427895486355,-0.0009049421059899032,-0.013619671575725079
1690840819056652300,11.70165234375,-0.003780623432248831,0.0008977515972219408,-0.015960324555635452
1690840819066692400,11.7116923828125,-0.004516987595707178,0.0012093414552509785,-0.017298562452197075
