time,seconds_elapsed,z,y,x
1690821937059048000,0.0350478515625,-0.97540283203125,-0.0057373046875,0.0000457763671875
1690821937069058000,0.04505810546875,-0.9783172607421875,-0.0142822265625,-0.00115966796875
1690821937079098000,0.05509814453125,-0.977783203125,-0.022613525390625,-0.0003204345703125
1690821937089138000,0.065137939453125,-0.97808837890625,-0.027130126953125,0.0011138916015625
1690821937099178800,0.0751787109375,-0.97894287109375,-0.0315704345703125,0.0019683837890625
1690821937109218800,0.08521875,-0.9799346923828125,-0.0354461669921875,0.0035247802734375
1690821937119259000,0.0952587890625,-0.9788818359375,-0.03533935546875,0.0050811767578125
1690821937129300000,0.105300048828125,-0.9769439697265625,-0.033233642578125,0.00445556640625
1690821937139340000,0.115340087890625,-0.9766082763671875,-0.029754638671875,0.0038604736328125
1690821937149380000,0.125380126953125,-0.9749908447265625,-0.02520751953125,0.0039825439453125
1690821937159419600,0.135419677734375,-0.9724273681640625,-0.018798828125,0.0020599365234375
1690821937169460700,0.145460693359375,-0.9713134765625,-0.0137176513671875,0.001312255859375
1690821937179500800,0.155500732421875,-0.9694976806640625,-0.0082244873046875,0.000701904296875
1690821937189540900,0.165540771484375,-0.9676666259765625,-0.0037994384765625,0.00048828125
1690821937199582000,0.17558203125,-0.9678802490234375,-0.0020294189453125,0.0003204345703125
1690821937209622000,0.1856220703125,-0.96783447265625,-0.00177001953125,0.0011138916015625
1690821937219661800,0.195661865234375,-0.9691925048828125,-0.003509521484375,0.0010528564453125
1690821937229702000,0.205701904296875,-0.9689788818359375,-0.0068359375,0.001495361328125
1690821937239743000,0.215742919921875,-0.970855712890625,-0.0111541748046875,0.002197265625
1690821937249782800,0.22578271484375,-0.9731597900390625,-0.016143798828125,0.0020904541015625
1690821937259822800,0.23582275390625,-0.9734954833984375,-0.0208740234375,0.0024566650390625
1690821937269894000,0.245893798828125,-0.9747314453125,-0.0239715576171875,0.0031280517578125
1690821937279934000,0.255933837890625,-0.975921630859375,-0.026092529296875,0.003387451171875
1690821937289975000,0.26597509765625,-0.975982666015625,-0.0273284912109375,0.0034027099609375
1690821937300014800,0.276014892578125,-0.9760589599609375,-0.0269927978515625,0.0029449462890625
1690821937310054700,0.2860546875,-0.9760894775390625,-0.025543212890625,0.0028533935546875
1690821937320095700,0.296095703125,-0.9746856689453125,-0.023101806640625,0.0024566650390625
1690821937330135800,0.3061357421875,-0.973480224609375,-0.01953125,0.0019378662109375
1690821937340176000,0.31617578125,-0.9725341796875,-0.0167083740234375,0.001739501953125
1690821937350216000,0.3262158203125,-0.97186279296875,-0.0123748779296875,0.001922607421875
1690821937360257000,0.336257080078125,-0.9717559814453125,-0.010040283203125,0.0008544921875
1690821937370296800,0.346296875,-0.9721527099609375,-0.009002685546875,0.001373291015625
1690821937380337000,0.3563369140625,-0.9712066650390625,-0.008636474609375,0.00164794921875
1690821937390376700,0.366376708984375,-0.9709625244140625,-0.0085906982421875,0.0014495849609375
1690821937400417800,0.376417724609375,-0.9719696044921875,-0.0102081298828125,0.0014190673828125
1690821937410454000,0.3864541015625,-0.97357177734375,-0.012939453125,0.0022735595703125
1690821937420493800,0.396493896484375,-0.974822998046875,-0.01580810546875,0.002471923828125
1690821937430535000,0.406534912109375,-0.9741058349609375,-0.01861572265625,0.002288818359375
1690821937440575000,0.416574951171875,-0.974456787109375,-0.0206146240234375,0.0023345947265625
1690821937450615000,0.426614990234375,-0.97467041015625,-0.021759033203125,0.00225830078125
1690821937460654800,0.43665478515625,-0.975006103515625,-0.0222015380859375,0.00189208984375
1690821937470726000,0.446725830078125,-0.9755096435546875,-0.0226287841796875,0.002716064453125
1690821937480767000,0.45676708984375,-0.97613525390625,-0.02215576171875,0.0028076171875
1690821937490806800,0.466806884765625,-0.974884033203125,-0.01971435546875,0.002105712890625
1690821937500846800,0.476846923828125,-0.974639892578125,-0.0182037353515625,0.0017852783203125
1690821937510887000,0.486886962890625,-0.9747161865234375,-0.0166168212890625,0.00177001953125
1690821937520928000,0.496927978515625,-0.97381591796875,-0.0138702392578125,0.0016632080078125
1690821937530968000,0.506968017578125,-0.9728851318359375,-0.0125885009765625,0.0025177001953125
1690821937541008000,0.5170078125,-0.972442626953125,-0.0114898681640625,0.001495361328125
1690821937551049000,0.527049072265625,-0.972381591796875,-0.012054443359375,0.0015106201171875
1690821937561089000,0.537089111328125,-0.97210693359375,-0.012054443359375,0.000823974609375
1690821937571128800,0.54712890625,-0.9738922119140625,-0.012939453125,0.000457763671875
1690821937581169000,0.5571689453125,-0.9746856689453125,-0.014190673828125,0.0021820068359375
1690821937591210000,0.5672099609375,-0.97381591796875,-0.01641845703125,0.0019378662109375
1690821937601250000,0.57725,-0.9752960205078125,-0.017730712890625,0.0030059814453125
1690821937611289900,0.587289794921875,-0.9758453369140625,-0.018218994140625,0.0030364990234375
1690821937621331000,0.5973310546875,-0.97662353515625,-0.0197601318359375,0.0028533935546875
1690821937631371000,0.60737109375,-0.9755859375,-0.02001953125,0.0029754638671875
1690821937641410800,0.617410888671875,-0.97601318359375,-0.01995849609375,0.0026702880859375
1690821937651451000,0.627450927734375,-0.976165771484375,-0.0190887451171875,0.002655029296875
1690821937661492000,0.637491943359375,-0.97491455078125,-0.018218994140625,0.0020751953125
1690821937671562000,0.64756201171875,-0.97576904296875,-0.017242431640625,0.001373291015625
1690821937681603000,0.65760302734375,-0.97454833984375,-0.01556396484375,0.00201416015625
1690821937691643000,0.667642822265625,-0.973876953125,-0.0145721435546875,0.002044677734375
1690821937701683000,0.677682861328125,-0.97528076171875,-0.01385498046875,0.00213623046875
1690821937711724000,0.68772412109375,-0.9747314453125,-0.0126800537109375,0.0013580322265625
1690821937721763800,0.697763916015625,-0.9742889404296875,-0.0133514404296875,0.0020751953125
1690821937731804000,0.707803955078125,-0.97357177734375,-0.01361083984375,0.002288818359375
1690821937741844000,0.717843994140625,-0.9755401611328125,-0.0147705078125,0.001800537109375
1690821937751885000,0.727885009765625,-0.9764862060546875,-0.0160064697265625,0.0013885498046875
1690821937761924900,0.7379248046875,-0.9753570556640625,-0.016998291015625,0.002166748046875
1690821937771965000,0.74796484375,-0.976715087890625,-0.01800537109375,0.00286865234375
1690821937782006000,0.758006103515625,-0.9757080078125,-0.0173187255859375,0.0019073486328125
1690821937792045800,0.7680458984375,-0.97509765625,-0.0187225341796875,0.00115966796875
1690821937802086000,0.7780859375,-0.9765625,-0.01824951171875,0.0024871826171875
1690821937812126000,0.7881259765625,-0.9755401611328125,-0.01751708984375,0.002777099609375
1690821937822167000,0.7981669921875,-0.97552490234375,-0.0173492431640625,0.0018463134765625
1690821937832206800,0.808206787109375,-0.975494384765625,-0.0164794921875,0.001556396484375
1690821937842247000,0.818246826171875,-0.9754486083984375,-0.01556396484375,0.001678466796875
1690821937852288000,0.8282880859375,-0.9753265380859375,-0.0152130126953125,0.002044677734375
1690821937862327800,0.838327880859375,-0.9747314453125,-0.014862060546875,0.002716064453125
1690821937872398800,0.84839892578125,-0.9750823974609375,-0.0142974853515625,0.00225830078125
1690821937882439000,0.85843896484375,-0.97509765625,-0.014556884765625,0.00146484375
1690821937892479000,0.86847900390625,-0.9755401611328125,-0.0147552490234375,0.0018157958984375
1690821937902519000,0.87851904296875,-0.975189208984375,-0.0151824951171875,0.00225830078125
1690821937912559900,0.888559814453125,-0.9763031005859375,-0.015350341796875,0.0024871826171875
1690821937922600000,0.898599853515625,-0.976348876953125,-0.0169219970703125,0.0022430419921875
1690821937932639700,0.9086396484375,-0.975982666015625,-0.016693115234375,0.002471923828125
1690821937942680800,0.918680908203125,-0.977203369140625,-0.016876220703125,0.0018157958984375
1690821937952721000,0.928720947265625,-0.9768829345703125,-0.0169677734375,0.0014495849609375
1690821937962761000,0.938760986328125,-0.9757537841796875,-0.0172576904296875,0.002044677734375
1690821937972801000,0.948801025390625,-0.976531982421875,-0.0173797607421875,0.00164794921875
1690821937982841900,0.958841796875,-0.9766998291015625,-0.0167999267578125,0.001739501953125
1690821937992882000,0.9688818359375,-0.9759674072265625,-0.0166778564453125,0.0018310546875
1690821938002921700,0.978921630859375,-0.9758453369140625,-0.0165252685546875,0.001800537109375
1690821938012962800,0.988962890625,-0.97625732421875,-0.0156402587890625,0.0021209716796875
1690821938023003000,0.9990029296875,-0.975830078125,-0.014801025390625,0.0016326904296875
1690821938033043000,1.00904296875,-0.9759674072265625,-0.0148162841796875,0.001861572265625
1690821938043083000,1.0190830078125,-0.97711181640625,-0.0146484375,0.0021820068359375
1690821938053123800,1.029123779296875,-0.9758453369140625,-0.01513671875,0.0021820068359375
1690821938063164000,1.039163818359375,-0.9759368896484375,-0.0154876708984375,0.001922607421875
1690821938073235000,1.04923486328125,-0.976287841796875,-0.0162506103515625,0.00128173828125
1690821938083274800,1.059274658203125,-0.9771728515625,-0.0162506103515625,0.001922607421875
1690821938093314800,1.069314697265625,-0.9773101806640625,-0.0166015625,0.0019989013671875
1690821938103356000,1.07935595703125,-0.9775390625,-0.01678466796875,0.00274658203125
1690821938113396000,1.08939599609375,-0.9777069091796875,-0.0178375244140625,0.0031280517578125
1690821938123436000,1.09943603515625,-0.977081298828125,-0.0170745849609375,0.00323486328125
1690821938133476900,1.109476806640625,-0.975982666015625,-0.0173797607421875,0.00262451171875
1690821938143517000,1.119516845703125,-0.9769287109375,-0.0178985595703125,0.002044677734375
1690821938153556700,1.129556640625,-0.977386474609375,-0.01556396484375,0.0020751953125
1690821938163596800,1.1395966796875,-0.9768218994140625,-0.01629638671875,0.0021820068359375
1690821938173638000,1.149637939453125,-0.9770660400390625,-0.0156707763671875,0.0013427734375
1690821938183678000,1.159677978515625,-0.9762725830078125,-0.014892578125,0.0014801025390625
1690821938193718000,1.169718017578125,-0.9759979248046875,-0.01568603515625,0.0023956298828125
1690821938203758000,1.179758056640625,-0.97698974609375,-0.0160675048828125,0.0027008056640625
1690821938213799000,1.189798828125,-0.9764404296875,-0.015716552734375,0.0019378662109375
1690821938223839000,1.1998388671875,-0.9763641357421875,-0.016326904296875,0.001434326171875
1690821938233878800,1.209878662109375,-0.97625732421875,-0.015899658203125,0.0017242431640625
1690821938243920000,1.219919921875,-0.977203369140625,-0.0156097412109375,0.0020751953125
1690821938253960000,1.2299599609375,-0.9779205322265625,-0.0163116455078125,0.002593994140625
1690821938264000000,1.24,-0.9770660400390625,-0.0163116455078125,0.00286865234375
1690821938274071000,1.250071044921875,-0.97705078125,-0.0165557861328125,0.0015716552734375
1690821938284111000,1.260111083984375,-0.9764862060546875,-0.0170135498046875,0.0014801025390625
1690821938294152000,1.27015185546875,-0.9770660400390625,-0.0163726806640625,0.0028839111328125
1690821938304191700,1.280191650390625,-0.97711181640625,-0.016357421875,0.0019989013671875
1690821938314231800,1.290231689453125,-0.977203369140625,-0.0158233642578125,0.0017242431640625
1690821938324271900,1.30027197265625,-0.9771728515625,-0.0157318115234375,0.00177001953125
1690821938334313000,1.31031298828125,-0.977020263671875,-0.015960693359375,0.00091552734375
1690821938344353000,1.32035302734375,-0.9773406982421875,-0.0161895751953125,0.001251220703125
1690821938354393000,1.33039306640625,-0.976531982421875,-0.0157318115234375,0.0021820068359375
1690821938364434000,1.340433837890625,-0.977081298828125,-0.015625,0.002838134765625
1690821938374473700,1.3504736328125,-0.977203369140625,-0.0158233642578125,0.001922607421875
1690821938384513800,1.360513671875,-0.977203369140625,-0.01605224609375,0.0018157958984375
1690821938394553900,1.370553955078125,-0.9784393310546875,-0.0163421630859375,0.00177001953125
1690821938404568800,1.38056884765625,-0.9770660400390625,-0.016204833984375,0.0026397705078125
1690821938414609000,1.39060888671875,-0.976470947265625,-0.0167999267578125,0.0020751953125
1690821938424649000,1.40064892578125,-0.9770050048828125,-0.0165557861328125,0.002288818359375
1690821938434690000,1.41068994140625,-0.9766845703125,-0.016632080078125,0.00213623046875
1690821938444730000,1.420730224609375,-0.97747802734375,-0.0170135498046875,0.001739501953125
1690821938454770200,1.430770263671875,-0.977569580078125,-0.0172576904296875,0.0017242431640625
1690821938464810000,1.44081005859375,-0.9774627685546875,-0.016693115234375,0.002227783203125
1690821938474881000,1.450881103515625,-0.97723388671875,-0.0160980224609375,0.00189208984375
1690821938484921000,1.460921142578125,-0.977447509765625,-0.0160064697265625,0.001861572265625
1690821938494962000,1.4709619140625,-0.9774627685546875,-0.0152587890625,0.0019378662109375
1690821938505002000,1.481001953125,-0.9767608642578125,-0.0150146484375,0.0020751953125
1690821938515042000,1.4910419921875,-0.9775390625,-0.015380859375,0.00164794921875
1690821938525083100,1.501083251953125,-0.977508544921875,-0.015716552734375,0.0020599365234375
1690821938535123200,1.511123291015625,-0.9766998291015625,-0.0159759521484375,0.00201416015625
1690821938545163000,1.5211630859375,-0.97625732421875,-0.015716552734375,0.002349853515625
1690821938555203000,1.531203125,-0.97784423828125,-0.0166473388671875,0.0025634765625
1690821938565244000,1.541243896484375,-0.9775848388671875,-0.0172119140625,0.002288818359375
1690821938575284000,1.551283935546875,-0.9772796630859375,-0.0164031982421875,0.0015106201171875
1690821938585324000,1.561323974609375,-0.977569580078125,-0.016693115234375,0.001708984375
1690821938595365000,1.571365234375,-0.9775238037109375,-0.0163421630859375,0.002197265625
1690821938605405200,1.5814052734375,-0.977752685546875,-0.01617431640625,0.002655029296875
1690821938615445000,1.591445068359375,-0.97772216796875,-0.01641845703125,0.0023651123046875
1690821938625485000,1.601485107421875,-0.977294921875,-0.0164031982421875,0.00201416015625
1690821938635526000,1.61152587890625,-0.9762115478515625,-0.0160369873046875,0.001373291015625
1690821938645566000,1.62156591796875,-0.977783203125,-0.016387939453125,0.001708984375
1690821938655606000,1.63160595703125,-0.9775543212890625,-0.0161590576171875,0.0024566650390625
1690821938665677000,1.641677001953125,-0.977294921875,-0.01593017578125,0.001708984375
1690821938675717000,1.651717041015625,-0.9777984619140625,-0.0162811279296875,0.0019683837890625
1690821938685758200,1.66175830078125,-0.9782257080078125,-0.0160064697265625,0.00262451171875
1690821938695798000,1.671798095703125,-0.977203369140625,-0.0163726806640625,0.002471923828125
1690821938705838000,1.681838134765625,-0.977447509765625,-0.01605224609375,0.001983642578125
1690821938715878000,1.6918779296875,-0.977996826171875,-0.016204833984375,0.0020294189453125
1690821938725919000,1.7019189453125,-0.9766845703125,-0.0166015625,0.0023040771484375
1690821938735959000,1.711958984375,-0.9778900146484375,-0.0162506103515625,0.002288818359375
1690821938745999000,1.7219990234375,-0.9775390625,-0.0160369873046875,0.002288818359375
1690821938756040200,1.732040283203125,-0.9773101806640625,-0.0161895751953125,0.001678466796875
1690821938766080000,1.742080078125,-0.9780426025390625,-0.016204833984375,0.0023345947265625
1690821938776120000,1.7521201171875,-0.97662353515625,-0.0163421630859375,0.0026397705078125
1690821938786159900,1.762159912109375,-0.9775390625,-0.0154876708984375,0.0028228759765625
1690821938796201000,1.772200927734375,-0.9774017333984375,-0.01605224609375,0.0025634765625
1690821938806241000,1.782240966796875,-0.9786224365234375,-0.016357421875,0.002166748046875
1690821938816281000,1.792281005859375,-0.9786529541015625,-0.016510009765625,0.0019073486328125
1690821938826322200,1.802322265625,-0.9775543212890625,-0.0156097412109375,0.0017242431640625
1690821938836362200,1.8123623046875,-0.97747802734375,-0.0150909423828125,0.00177001953125
1690821938846402000,1.822402099609375,-0.97796630859375,-0.015838623046875,0.0019989013671875
1690821938856441900,1.83244189453125,-0.9777679443359375,-0.016754150390625,0.001983642578125
1690821938866513000,1.842512939453125,-0.9781036376953125,-0.016357421875,0.0021209716796875
1690821938876554000,1.852553955078125,-0.97808837890625,-0.015472412109375,0.0019989013671875
1690821938886594000,1.862593994140625,-0.977569580078125,-0.0160369873046875,0.00189208984375
1690821938896634000,1.872634033203125,-0.9768829345703125,-0.0167388916015625,0.00213623046875
1690821938906674000,1.882673828125,-0.9772491455078125,-0.016204833984375,0.00177001953125
1690821938916715000,1.892715087890625,-0.977813720703125,-0.0167083740234375,0.001495361328125
1690821938926755000,1.902755126953125,-0.978424072265625,-0.01617431640625,0.001129150390625
1690821938936795000,1.912794921875,-0.977874755859375,-0.0164947509765625,0.0020904541015625
1690821938946836000,1.9228359375,-0.9774169921875,-0.0166778564453125,0.0020599365234375
1690821938956876000,1.9328759765625,-0.9767608642578125,-0.0159912109375,0.00189208984375
1690821938966916000,1.942916015625,-0.9772186279296875,-0.01611328125,0.001373291015625
1690821938976956200,1.9529560546875,-0.9783782958984375,-0.01568603515625,0.001678466796875
1690821938986997200,1.962997314453125,-0.977783203125,-0.0162200927734375,0.0022125244140625
1690821938997037000,1.973037109375,-0.9766845703125,-0.015869140625,0.0017547607421875
1690821939007076900,1.983076904296875,-0.977264404296875,-0.0158538818359375,0.0019073486328125
1690821939017118000,1.993117919921875,-0.977874755859375,-0.015777587890625,0.0018768310546875
1690821939027158000,2.003157958984375,-0.978118896484375,-0.0154266357421875,0.0025634765625
1690821939037198000,2.013197998046875,-0.9777374267578125,-0.0157318115234375,0.001861572265625
1690821939047238100,2.023238037109375,-0.9784698486328125,-0.015777587890625,0.002105712890625
1690821939057279200,2.033279296875,-0.97802734375,-0.0163116455078125,0.002288818359375
1690821939067349000,2.043348876953125,-0.97808837890625,-0.0165252685546875,0.0019683837890625
1690821939077390000,2.05339013671875,-0.97796630859375,-0.0157012939453125,0.0020294189453125
1690821939087430000,2.063429931640625,-0.9783782958984375,-0.0160064697265625,0.0019073486328125
1690821939097470000,2.073469970703125,-0.978759765625,-0.01629638671875,0.0027313232421875
1690821939107511000,2.083510986328125,-0.977508544921875,-0.016448974609375,0.001953125
1690821939117551000,2.093551025390625,-0.9778289794921875,-0.01654052734375,0.002288818359375
1690821939127591000,2.1035908203125,-0.978118896484375,-0.0165863037109375,0.0029296875
1690821939137631000,2.113630859375,-0.9777069091796875,-0.0164642333984375,0.0029449462890625
1690821939147672000,2.123672119140625,-0.9783935546875,-0.01568603515625,0.002655029296875
1690821939157712000,2.1337119140625,-0.9783172607421875,-0.015838623046875,0.0019073486328125
1690821939167752000,2.143751953125,-0.9778289794921875,-0.0157928466796875,0.002532958984375
1690821939177793000,2.15379296875,-0.9779205322265625,-0.0159454345703125,0.002655029296875
1690821939187833000,2.1638330078125,-0.978790283203125,-0.0161285400390625,0.001739501953125
1690821939197873200,2.173873046875,-0.97943115234375,-0.0160369873046875,0.00286865234375
1690821939207913000,2.183912841796875,-0.9790802001953125,-0.0167236328125,0.0017852783203125
1690821939217954000,2.1939541015625,-0.97906494140625,-0.0162506103515625,0.0018463134765625
1690821939227993900,2.203993896484375,-0.9784088134765625,-0.0166778564453125,0.001678466796875
1690821939238034000,2.214033935546875,-0.978912353515625,-0.0162353515625,0.0011138916015625
1690821939248075000,2.224074951171875,-0.9781341552734375,-0.0165252685546875,0.0023651123046875
1690821939258115000,2.234114990234375,-0.9778594970703125,-0.015869140625,0.00140380859375
1690821939268186000,2.24418603515625,-0.977691650390625,-0.0156707763671875,0.002349853515625
1690821939278226000,2.254225830078125,-0.977783203125,-0.0157623291015625,0.0033721923828125
1690821939288266000,2.264265869140625,-0.9778594970703125,-0.0157318115234375,0.0027313232421875
1690821939298306000,2.27430615234375,-0.9775543212890625,-0.0160369873046875,0.0017547607421875
1690821939308347000,2.284346923828125,-0.9792633056640625,-0.0157623291015625,0.0019683837890625
1690821939318387000,2.294386962890625,-0.9779815673828125,-0.0155792236328125,0.0018463134765625
1690821939328427000,2.304427001953125,-0.978363037109375,-0.0156097412109375,0.0014801025390625
1690821939338468000,2.314468017578125,-0.977081298828125,-0.0160064697265625,0.00238037109375
1690821939348508200,2.324508056640625,-0.977691650390625,-0.0160980224609375,0.002166748046875
1690821939358548000,2.3345478515625,-0.97808837890625,-0.0160980224609375,0.0011138916015625
1690821939368588000,2.344588134765625,-0.9782867431640625,-0.0159454345703125,0.00128173828125
1690821939378628900,2.35462890625,-0.9778900146484375,-0.01629638671875,0.0021820068359375
1690821939388669000,2.3646689453125,-0.9791259765625,-0.01678466796875,0.0019683837890625
1690821939398709000,2.374708984375,-0.978271484375,-0.01611328125,0.001953125
1690821939408757200,2.38475732421875,-0.9778900146484375,-0.0155029296875,0.001922607421875
1690821939418797300,2.39479736328125,-0.9777374267578125,-0.0162200927734375,0.00140380859375
1690821939428837000,2.404837158203125,-0.97918701171875,-0.015869140625,0.00177001953125
1690821939438877200,2.414877197265625,-0.9784088134765625,-0.0156707763671875,0.0019683837890625
1690821939448918000,2.42491796875,-0.977813720703125,-0.015960693359375,0.0014495849609375
1690821939458989000,2.434989013671875,-0.977081298828125,-0.0164031982421875,0.0019073486328125
1690821939469029000,2.445029052734375,-0.9787750244140625,-0.016387939453125,0.0018310546875
1690821939479069200,2.455069091796875,-0.9782867431640625,-0.0166778564453125,0.002685546875
1690821939489109000,2.46510888671875,-0.9787750244140625,-0.0161895751953125,0.0022735595703125
1690821939499150000,2.475150146484375,-0.97833251953125,-0.0164794921875,0.0016632080078125
1690821939509190100,2.485190185546875,-0.978363037109375,-0.0164642333984375,0.001678466796875
1690821939519230200,2.495230224609375,-0.9787750244140625,-0.0162200927734375,0.0020294189453125
1690821939529270300,2.505270263671875,-0.9787445068359375,-0.0154571533203125,0.0016937255859375
1690821939539311000,2.51531103515625,-0.9788970947265625,-0.01458740234375,0.00146484375
1690821939549351200,2.52535107421875,-0.97802734375,-0.0160980224609375,0.0017547607421875
1690821939559391000,2.535390869140625,-0.978057861328125,-0.01617431640625,0.001922607421875
1690821939569432000,2.54543212890625,-0.9784393310546875,-0.0157470703125,0.0022430419921875
1690821939579472100,2.55547216796875,-0.9782257080078125,-0.016448974609375,0.00115966796875
1690821939589512200,2.56551220703125,-0.9788665771484375,-0.0164794921875,0.0023345947265625
1690821939599552300,2.57555224609375,-0.9797515869140625,-0.015594482421875,0.001800537109375
1690821939609593000,2.585593017578125,-0.9781341552734375,-0.0158538818359375,0.0019378662109375
1690821939619633200,2.595633056640625,-0.978057861328125,-0.016632080078125,0.0022430419921875
1690821939629673200,2.605673095703125,-0.9791717529296875,-0.0153656005859375,0.0016937255859375
1690821939639714300,2.61571435546875,-0.9788970947265625,-0.0157012939453125,0.0013427734375
1690821939649754000,2.625754150390625,-0.9785614013671875,-0.015625,0.0018310546875
1690821939659825200,2.6358251953125,-0.9796295166015625,-0.0157623291015625,0.0018157958984375
1690821939669865200,2.645865234375,-0.97833251953125,-0.0154571533203125,0.001953125
1690821939679905300,2.6559052734375,-0.978912353515625,-0.015869140625,0.001068115234375
1690821939689946000,2.665946044921875,-0.9789276123046875,-0.0159149169921875,0.0010528564453125
1690821939699986200,2.675986083984375,-0.977203369140625,-0.015594482421875,0.00146484375
1690821939710026000,2.68602587890625,-0.9778900146484375,-0.0155792236328125,0.001739501953125
1690821939720066000,2.696066162109375,-0.9784393310546875,-0.0162506103515625,0.0020599365234375
1690821939730107100,2.706107177734375,-0.9785614013671875,-0.0161285400390625,0.002227783203125
1690821939740147200,2.716147216796875,-0.978790283203125,-0.016632080078125,0.0020294189453125
1690821939750187300,2.726187255859375,-0.9785308837890625,-0.015594482421875,0.0019989013671875
1690821939760228000,2.73622802734375,-0.97894287109375,-0.0159759521484375,0.0025177001953125
1690821939770268200,2.74626806640625,-0.9784698486328125,-0.0160675048828125,0.0024261474609375
1690821939780308200,2.75630810546875,-0.9797210693359375,-0.0162506103515625,0.0025482177734375
1690821939790348000,2.76634814453125,-0.9793548583984375,-0.0162200927734375,0.0019073486328125
1690821939800389000,2.77638916015625,-0.9785308837890625,-0.015350341796875,0.0017852783203125
1690821939810429200,2.78642919921875,-0.97857666015625,-0.01611328125,0.0017547607421875
1690821939820469200,2.79646923828125,-0.9781036376953125,-0.015777587890625,0.0018157958984375
1690821939830510000,2.806510009765625,-0.97802734375,-0.0152740478515625,0.002044677734375
1690821939840550100,2.816550048828125,-0.979461669921875,-0.0153350830078125,0.0018768310546875
1690821939850621200,2.82662109375,-0.979461669921875,-0.0161285400390625,0.0016937255859375
1690821939860661000,2.836660888671875,-0.9788360595703125,-0.0159759521484375,0.00274658203125
1690821939870701000,2.846701171875,-0.97900390625,-0.0169677734375,0.00250244140625
1690821939880741000,2.8567412109375,-0.977996826171875,-0.016998291015625,0.0026397705078125
1690821939890782200,2.8667822265625,-0.978759765625,-0.0147857666015625,0.002960205078125
1690821939900822300,2.876822265625,-0.978790283203125,-0.016143798828125,0.0023956298828125
1690821939910862000,2.886862060546875,-0.9785003662109375,-0.0155487060546875,0.0012969970703125
1690821939920903200,2.896903076171875,-0.9781951904296875,-0.01654052734375,0.0015716552734375
1690821939930943200,2.906943115234375,-0.9779510498046875,-0.01580810546875,0.0023193359375
1690821939940983000,2.916983154296875,-0.978515625,-0.015777587890625,0.003204345703125
1690821939951023000,2.927023193359375,-0.978057861328125,-0.0157470703125,0.0028533935546875
1690821939961064200,2.937064208984375,-0.9784698486328125,-0.016204833984375,0.00201416015625
1690821939971104300,2.947104248046875,-0.9781341552734375,-0.01605224609375,0.0020751953125
1690821939981144000,2.95714404296875,-0.9791259765625,-0.01580810546875,0.002410888671875
1690821939991185200,2.96718505859375,-0.9800567626953125,-0.0157470703125,0.00146484375
1690821940001225200,2.97722509765625,-0.9789886474609375,-0.0164947509765625,0.0013275146484375
1690821940011265000,2.98726513671875,-0.9786224365234375,-0.015411376953125,0.0015106201171875
1690821940021305000,2.99730517578125,-0.9783172607421875,-0.0165252685546875,0.001983642578125
1690821940031346200,3.00734619140625,-0.9780120849609375,-0.016693115234375,0.002532958984375
1690821940041386200,3.01738623046875,-0.9792633056640625,-0.0157318115234375,0.0023345947265625
1690821940051457300,3.027457275390625,-0.97845458984375,-0.0157623291015625,0.0014190673828125
1690821940061497000,3.0374970703125,-0.9780731201171875,-0.016082763671875,0.00140380859375
1690821940071537000,3.047536865234375,-0.9786834716796875,-0.0159912109375,0.002105712890625
1690821940081578200,3.057578125,-0.9790496826171875,-0.0157318115234375,0.0022430419921875
1690821940091618000,3.0676181640625,-0.9782257080078125,-0.0159454345703125,0.0020751953125
1690821940101658000,3.077658203125,-0.9787750244140625,-0.016387939453125,0.0031890869140625
1690821940111698200,3.0876982421875,-0.9788970947265625,-0.015594482421875,0.0023651123046875
1690821940121739300,3.0977392578125,-0.9787750244140625,-0.01593017578125,0.002532958984375
1690821940131779000,3.107779052734375,-0.9791412353515625,-0.0159149169921875,0.00244140625
1690821940141819100,3.117819091796875,-0.9792938232421875,-0.01629638671875,0.0015716552734375
1690821940151860200,3.127860107421875,-0.9784393310546875,-0.0158843994140625,0.0022125244140625
1690821940161900000,3.137900146484375,-0.9795684814453125,-0.0168609619140625,0.0018310546875
1690821940171940000,3.147940185546875,-0.9791412353515625,-0.0158843994140625,0.00201416015625
1690821940181980200,3.157980224609375,-0.979095458984375,-0.0160369873046875,0.0019683837890625
1690821940192021200,3.168021240234375,-0.97906494140625,-0.0158843994140625,0.001434326171875
1690821940202061000,3.17806103515625,-0.97808837890625,-0.0164947509765625,0.0020599365234375
1690821940212101000,3.18810107421875,-0.9787445068359375,-0.0157623291015625,0.002105712890625
1690821940222142200,3.19814208984375,-0.9786224365234375,-0.016082763671875,0.001953125
1690821940232182000,3.20818212890625,-0.9792633056640625,-0.0156097412109375,0.0016937255859375
1690821940242253000,3.218253173828125,-0.9794921875,-0.0165557861328125,0.0016937255859375
1690821940252293000,3.228293212890625,-0.9787750244140625,-0.0165863037109375,0.0014190673828125
1690821940262333200,3.238333251953125,-0.9784698486328125,-0.015380859375,0.00189208984375
1690821940272374300,3.248374267578125,-0.9790802001953125,-0.0157318115234375,0.0015869140625
1690821940282414000,3.2584140625,-0.9795074462890625,-0.0159149169921875,0.0016021728515625
1690821940292454100,3.2684541015625,-0.978546142578125,-0.015594482421875,0.0023956298828125
1690821940302494000,3.278493896484375,-0.97857666015625,-0.0160369873046875,0.00201416015625
1690821940312535000,3.28853515625,-0.979095458984375,-0.0167388916015625,0.0015716552734375
1690821940322575000,3.2985751953125,-0.9788970947265625,-0.0156707763671875,0.0020904541015625
1690821940332615200,3.308615234375,-0.9789581298828125,-0.0161590576171875,0.00152587890625
1690821940342656300,3.31865625,-0.97906494140625,-0.015716552734375,0.0017547607421875
1690821940352696000,3.328696044921875,-0.978363037109375,-0.016387939453125,0.0015411376953125
1690821940362736000,3.338736083984375,-0.9782562255859375,-0.016357421875,0.002105712890625
1690821940372776000,3.34877587890625,-0.9788360595703125,-0.016082763671875,0.002349853515625
1690821940382817000,3.358817138671875,-0.97918701171875,-0.015289306640625,0.0023651123046875
1690821940392857000,3.368857177734375,-0.97845458984375,-0.01617431640625,0.0020294189453125
1690821940402897200,3.378897216796875,-0.978759765625,-0.015594482421875,0.002105712890625
1690821940412942800,3.38894287109375,-0.9787750244140625,-0.016448974609375,0.0013275146484375
1690821940422984000,3.39898388671875,-0.9792327880859375,-0.0160064697265625,0.0013580322265625
1690821940433024000,3.40902392578125,-0.979644775390625,-0.016632080078125,0.00201416015625
1690821940443095000,3.419094970703125,-0.9789581298828125,-0.016326904296875,0.0023040771484375
1690821940453134800,3.429134765625,-0.978912353515625,-0.0164947509765625,0.0021820068359375
1690821940463175000,3.4391748046875,-0.9782562255859375,-0.0164031982421875,0.001983642578125
1690821940473215700,3.4492158203125,-0.979339599609375,-0.0155792236328125,0.0014801025390625
1690821940483255800,3.459255859375,-0.9787445068359375,-0.015777587890625,0.0020599365234375
1690821940493295900,3.4692958984375,-0.9786529541015625,-0.016448974609375,0.002593994140625
1690821940503337000,3.4793369140625,-0.9791259765625,-0.01641845703125,0.00177001953125
1690821940513377000,3.489376953125,-0.9786376953125,-0.016143798828125,0.0021209716796875
1690821940523417000,3.4994169921875,-0.978485107421875,-0.0164337158203125,0.00201416015625
1690821940533457000,3.509456787109375,-0.97882080078125,-0.016143798828125,0.0017242431640625
1690821940543497700,3.519497802734375,-0.979248046875,-0.01580810546875,0.0008697509765625
1690821940553537800,3.529537841796875,-0.9794464111328125,-0.0156097412109375,0.001556396484375
1690821940563577900,3.539577880859375,-0.978607177734375,-0.015106201171875,0.0019073486328125
1690821940573619000,3.549618896484375,-0.978546142578125,-0.0162353515625,0.0009002685546875
1690821940583659000,3.559658935546875,-0.97900390625,-0.0160369873046875,0.0015411376953125
1690821940593699000,3.569698974609375,-0.9797210693359375,-0.01513671875,0.00213623046875
1690821940603739000,3.57973876953125,-0.9791259765625,-0.0155181884765625,0.0024871826171875
1690821940613779700,3.58977978515625,-0.9788818359375,-0.01654052734375,0.0023193359375
1690821940623819800,3.59981982421875,-0.978790283203125,-0.0165252685546875,0.0021209716796875
1690821940633890800,3.609890869140625,-0.9788665771484375,-0.0157928466796875,0.0013427734375
1690821940643931000,3.619930908203125,-0.980133056640625,-0.0156402587890625,0.0019683837890625
1690821940653971000,3.629970947265625,-0.9789886474609375,-0.015716552734375,0.0021514892578125
1690821940664012000,3.640011962890625,-0.978668212890625,-0.0159454345703125,0.0020751953125
1690821940674052000,3.650052001953125,-0.97906494140625,-0.0160980224609375,0.003021240234375
1690821940684092000,3.660091796875,-0.979339599609375,-0.0160369873046875,0.003021240234375
1690821940694132000,3.670132080078125,-0.9798736572265625,-0.0154876708984375,0.00213623046875
1690821940704172800,3.6801728515625,-0.9799041748046875,-0.015960693359375,0.0024566650390625
1690821940714212900,3.690212890625,-0.9789581298828125,-0.0162811279296875,0.00177001953125
1690821940724253000,3.7002529296875,-0.9782257080078125,-0.0161895751953125,0.00262451171875
1690821940734294000,3.7102939453125,-0.978973388671875,-0.0160369873046875,0.0029449462890625
1690821940744334000,3.720333984375,-0.9786529541015625,-0.0164794921875,0.001739501953125
1690821940754374000,3.730373779296875,-0.9788970947265625,-0.0169830322265625,0.002044677734375
1690821940764414000,3.7404140625,-0.980010986328125,-0.016387939453125,0.002288818359375
1690821940774454800,3.750454833984375,-0.9792633056640625,-0.0157012939453125,0.0021209716796875
1690821940784494800,3.760494873046875,-0.979095458984375,-0.015716552734375,0.002349853515625
1690821940794535000,3.770534912109375,-0.97857666015625,-0.01641845703125,0.0022430419921875
1690821940804576000,3.780575927734375,-0.9788360595703125,-0.0165863037109375,0.0023345947265625
1690821940814616000,3.790615966796875,-0.97894287109375,-0.0158538818359375,0.0025634765625
1690821940824687000,3.80068701171875,-0.9792633056640625,-0.015960693359375,0.0017852783203125
1690821940834727000,3.810726806640625,-0.978515625,-0.0162506103515625,0.00189208984375
1690821940844767000,3.82076708984375,-0.977813720703125,-0.0153045654296875,0.00244140625
1690821940854807800,3.830807861328125,-0.9791412353515625,-0.015289306640625,0.002410888671875
1690821940864848000,3.840847900390625,-0.978546142578125,-0.01593017578125,0.001922607421875
1690821940874888000,3.850887939453125,-0.9795379638671875,-0.016082763671875,0.0020904541015625
1690821940884928000,3.860927978515625,-0.9795684814453125,-0.01519775390625,0.00164794921875
1690821940894969000,3.870968994140625,-0.979034423828125,-0.0160675048828125,0.001983642578125
1690821940905009000,3.8810087890625,-0.979705810546875,-0.015533447265625,0.002349853515625
1690821940915049000,3.891049072265625,-0.97808837890625,-0.015411376953125,0.0017242431640625
1690821940925088800,3.9010888671875,-0.9788818359375,-0.0158843994140625,0.0022430419921875
1690821940935129900,3.9111298828125,-0.97900390625,-0.016204833984375,0.0013885498046875
1690821940945170000,3.921169921875,-0.9796142578125,-0.015960693359375,0.00250244140625
1690821940955210000,3.9312099609375,-0.97943115234375,-0.0161285400390625,0.002227783203125
1690821940965251000,3.9412509765625,-0.9797515869140625,-0.01629638671875,0.0027618408203125
1690821940975291000,3.951290771484375,-0.9790802001953125,-0.0161590576171875,0.002410888671875
1690821940985331000,3.9613310546875,-0.97943115234375,-0.0155029296875,0.001434326171875
1690821940995370800,3.971370849609375,-0.9793243408203125,-0.0165863037109375,0.002349853515625
1690821941005411800,3.981411865234375,-0.9798126220703125,-0.0164947509765625,0.002471923828125
1690821941015452000,3.991451904296875,-0.9790802001953125,-0.0157623291015625,0.0031280517578125
1690821941025523000,4.00152294921875,-0.980010986328125,-0.0157012939453125,0.0030364990234375
1690821941035563000,4.01156298828125,-0.9794921875,-0.015106201171875,0.00201416015625
1690821941045602800,4.021602783203125,-0.9792938232421875,-0.01617431640625,0.0017547607421875
1690821941055644000,4.031643798828125,-0.9788055419921875,-0.0159912109375,0.002044677734375
1690821941065684000,4.04168408203125,-0.9792633056640625,-0.0157470703125,0.001617431640625
1690821941075723800,4.051723876953125,-0.9794464111328125,-0.01580810546875,0.0012969970703125
1690821941085764900,4.061764892578125,-0.97979736328125,-0.0165252685546875,0.00146484375
1690821941095805000,4.071804931640625,-0.9790802001953125,-0.01611328125,0.001495361328125
1690821941105845000,4.081844970703125,-0.978515625,-0.0150909423828125,0.001739501953125
1690821941115884800,4.091884765625,-0.978668212890625,-0.0157318115234375,0.0020294189453125
1690821941125926000,4.10192578125,-0.979705810546875,-0.015167236328125,0.0018157958984375
1690821941135966000,4.111966064453125,-0.97943115234375,-0.016021728515625,0.002044677734375
1690821941146005800,4.122005859375,-0.978759765625,-0.0168914794921875,0.002105712890625
1690821941156046800,4.132046875,-0.979583740234375,-0.0155029296875,0.0023193359375
1690821941166087000,4.1420869140625,-0.9788970947265625,-0.01617431640625,0.001190185546875
1690821941176127000,4.152126953125,-0.9789581298828125,-0.0157012939453125,0.0020751953125
1690821941186167000,4.1621669921875,-0.9795379638671875,-0.015228271484375,0.002471923828125
1690821941196208000,4.1722080078125,-0.97967529296875,-0.0159759521484375,0.0023040771484375
1690821941206247700,4.18224755859375,-0.978302001953125,-0.015350341796875,0.0016326904296875
1690821941216318700,4.192318603515625,-0.9796142578125,-0.0154876708984375,0.0014190673828125
1690821941226358800,4.20235888671875,-0.9801177978515625,-0.0156402587890625,0.001129150390625
1690821941236398800,4.21239892578125,-0.9789886474609375,-0.016326904296875,0.0015869140625
1690821941246440000,4.22243994140625,-0.9791412353515625,-0.015838623046875,0.0023040771484375
1690821941256480000,4.23247998046875,-0.9788818359375,-0.0158233642578125,0.00152587890625
1690821941266519800,4.242519775390625,-0.9793243408203125,-0.0161895751953125,0.0018463134765625
1690821941276560000,4.252559814453125,-0.979156494140625,-0.015838623046875,0.0019683837890625
1690821941286600700,4.2626005859375,-0.9791412353515625,-0.0153045654296875,0.002105712890625
1690821941296640800,4.272640869140625,-0.9792327880859375,-0.0162353515625,0.0018768310546875
1690821941306680800,4.282680908203125,-0.9801025390625,-0.01654052734375,0.0022430419921875
1690821941316722000,4.292721923828125,-0.9795989990234375,-0.016387939453125,0.0019989013671875
1690821941326762000,4.302761962890625,-0.9793853759765625,-0.0165252685546875,0.002197265625
1690821941336802000,4.312802001953125,-0.979217529296875,-0.0158233642578125,0.0015106201171875
1690821941346841900,4.322841796875,-0.9797210693359375,-0.0157470703125,0.001861572265625
1690821941356882700,4.332882568359375,-0.9801177978515625,-0.0157470703125,0.001953125
1690821941366922800,4.3429228515625,-0.9794158935546875,-0.016265869140625,0.0024261474609375
1690821941376962800,4.352962890625,-0.97857666015625,-0.01593017578125,0.0025787353515625
1690821941387004000,4.36300390625,-0.979156494140625,-0.0156402587890625,0.0022125244140625
1690821941397044000,4.3730439453125,-0.9794921875,-0.015655517578125,0.0023040771484375
1690821941407090400,4.38309033203125,-0.9794464111328125,-0.015899658203125,0.0015411376953125
1690821941417130500,4.393130615234375,-0.97955322265625,-0.015838623046875,0.0020599365234375
1690821941427170300,4.40317041015625,-0.9783782958984375,-0.015289306640625,0.0032196044921875
1690821941437210400,4.41321044921875,-0.979217529296875,-0.0159759521484375,0.002197265625
1690821941447251200,4.423251220703125,-0.97943115234375,-0.0167388916015625,0.00201416015625
1690821941457291300,4.433291259765625,-0.978546142578125,-0.015869140625,0.0024871826171875
1690821941467331300,4.443331298828125,-0.979248046875,-0.01654052734375,0.0015411376953125
1690821941477372400,4.453372314453125,-0.979522705078125,-0.0158843994140625,0.0015411376953125
1690821941487412500,4.46341259765625,-0.978515625,-0.0157623291015625,0.001495361328125
1690821941497452500,4.47345263671875,-0.9789886474609375,-0.015228271484375,0.0015106201171875
1690821941507492400,4.483492431640625,-0.9796142578125,-0.015838623046875,0.00189208984375
1690821941517533200,4.493533203125,-0.978668212890625,-0.016357421875,0.002227783203125
1690821941527573200,4.5035732421875,-0.9790496826171875,-0.0154876708984375,0.0017242431640625
1690821941537613300,4.51361328125,-0.9798736572265625,-0.01568603515625,0.002532958984375
1690821941547654400,4.523654296875,-0.97967529296875,-0.0159912109375,0.0022125244140625
1690821941557694500,4.533694580078125,-0.9792938232421875,-0.016082763671875,0.0014801025390625
1690821941567734500,4.543734619140625,-0.979339599609375,-0.01641845703125,0.0025787353515625
1690821941577774300,4.5537744140625,-0.9792022705078125,-0.0160980224609375,0.0025482177734375
1690821941587815200,4.563815185546875,-0.9789276123046875,-0.0159149169921875,0.001739501953125
1690821941597886200,4.57388623046875,-0.9796905517578125,-0.015838623046875,0.001678466796875
1690821941607926300,4.58392626953125,-0.9788055419921875,-0.016204833984375,0.00189208984375
1690821941617966300,4.59396630859375,-0.978515625,-0.0157318115234375,0.002288818359375
1690821941628006400,4.60400634765625,-0.978759765625,-0.015655517578125,0.00152587890625
1690821941638047500,4.614047607421875,-0.9795379638671875,-0.0166015625,0.00152587890625
1690821941648087600,4.624087646484375,-0.978973388671875,-0.016021728515625,0.002197265625
1690821941658127400,4.63412744140625,-0.9792938232421875,-0.0163726806640625,0.0016937255859375
1690821941668168200,4.644168212890625,-0.979766845703125,-0.0165863037109375,0.00213623046875
1690821941678208300,4.654208251953125,-0.9793701171875,-0.0156707763671875,0.002532958984375
1690821941688248300,4.664248291015625,-0.9781951904296875,-0.01568603515625,0.0025482177734375
1690821941698288400,4.674288330078125,-0.9788055419921875,-0.015716552734375,0.0016326904296875
1690821941708329500,4.68432958984375,-0.9794464111328125,-0.0162353515625,0.0021820068359375
1690821941718369500,4.69436962890625,-0.97900390625,-0.015594482421875,0.0019989013671875
1690821941728409300,4.704409423828125,-0.978851318359375,-0.015350341796875,0.0020751953125
1690821941738449400,4.714449462890625,-0.9787750244140625,-0.015625,0.0015411376953125
1690821941748490200,4.724490234375,-0.9791717529296875,-0.01593017578125,0.002471923828125
1690821941758530300,4.7345302734375,-0.97900390625,-0.016387939453125,0.002044677734375
1690821941768570400,4.7445703125,-0.97918701171875,-0.015869140625,0.0015411376953125
1690821941778611500,4.754611572265625,-0.979248046875,-0.0157623291015625,0.0021514892578125
1690821941788681200,4.76468115234375,-0.9796600341796875,-0.0161285400390625,0.0023193359375
1690821941798722600,4.77472265625,-0.980194091796875,-0.016204833984375,0.002532958984375
1690821941808762400,4.784762451171875,-0.9792938232421875,-0.0166015625,0.0021820068359375
1690821941818802400,4.794802490234375,-0.9791259765625,-0.0164642333984375,0.00103759765625
1690821941828843300,4.80484326171875,-0.97967529296875,-0.0157623291015625,0.0018463134765625
1690821941838883300,4.81488330078125,-0.9798126220703125,-0.0155487060546875,0.002685546875
1690821941848923400,4.82492333984375,-0.979400634765625,-0.015411376953125,0.002166748046875
1690821941858963500,4.83496337890625,-0.9793548583984375,-0.01580810546875,0.001861572265625
1690821941869004500,4.845004638671875,-0.9788665771484375,-0.0160980224609375,0.001312255859375
1690821941879044400,4.85504443359375,-0.979766845703125,-0.01763916015625,0.0016632080078125
1690821941889084400,4.86508447265625,-0.9793243408203125,-0.016143798828125,0.0021209716796875
1690821941899125200,4.875125244140625,-0.9792327880859375,-0.0154876708984375,0.0022735595703125
1690821941909165300,4.885165283203125,-0.979400634765625,-0.0150299072265625,0.002105712890625
1690821941919205400,4.895205322265625,-0.9786224365234375,-0.016265869140625,0.0024261474609375
1690821941929245400,4.905245361328125,-0.979644775390625,-0.01593017578125,0.0025482177734375
1690821941939286500,4.91528662109375,-0.9792327880859375,-0.01605224609375,0.0015716552734375
1690821941949326300,4.925326416015625,-0.979522705078125,-0.015899658203125,0.0008392333984375
1690821941959366400,4.935366455078125,-0.98028564453125,-0.0157928466796875,0.00201416015625
1690821941969407200,4.9454072265625,-0.9784698486328125,-0.01568603515625,0.00250244140625
1690821941979447300,4.955447265625,-0.9791412353515625,-0.0160980224609375,0.0020904541015625
1690821941989518300,4.965518310546875,-0.979095458984375,-0.01678466796875,0.0022125244140625
1690821941999558400,4.975558349609375,-0.979461669921875,-0.0164337158203125,0.0023193359375
1690821942009598500,4.985598388671875,-0.9802703857421875,-0.015777587890625,0.001495361328125
1690821942019638300,4.99563818359375,-0.9794464111328125,-0.0160369873046875,0.0018768310546875
1690821942029679400,5.005679443359375,-0.9788818359375,-0.0160675048828125,0.0020294189453125
1690821942039719400,5.015719482421875,-0.978912353515625,-0.016510009765625,0.0018768310546875
1690821942049759500,5.025759521484375,-0.979217529296875,-0.015777587890625,0.0017852783203125
1690821942059800300,5.03580029296875,-0.9793853759765625,-0.01513671875,0.001953125
1690821942069840400,5.04584033203125,-0.9791259765625,-0.0152587890625,0.0024566650390625
1690821942079880400,5.05588037109375,-0.9791259765625,-0.0154571533203125,0.00177001953125
1690821942089920300,5.065920166015625,-0.9791107177734375,-0.0159454345703125,0.0016021728515625
1690821942099961300,5.07596142578125,-0.980316162109375,-0.015777587890625,0.0016937255859375
1690821942110001400,5.08600146484375,-0.9796142578125,-0.0157623291015625,0.001678466796875
1690821942120041500,5.09604150390625,-0.979888916015625,-0.015655517578125,0.00189208984375
1690821942130082300,5.106082275390625,-0.9788970947265625,-0.0163421630859375,0.002471923828125
1690821942140122400,5.116122314453125,-0.9789886474609375,-0.0154876708984375,0.001739501953125
1690821942150162400,5.126162353515625,-0.978790283203125,-0.0158538818359375,0.0019683837890625
1690821942160202500,5.136202392578125,-0.9793853759765625,-0.0160980224609375,0.00201416015625
1690821942170243600,5.14624365234375,-0.9792327880859375,-0.0164947509765625,0.0019989013671875
1690821942180314400,5.156314453125,-0.980072021484375,-0.016937255859375,0.0014495849609375
1690821942190354400,5.1663544921875,-0.9798431396484375,-0.0160675048828125,0.0017242431640625
1690821942200394500,5.17639453125,-0.980224609375,-0.01605224609375,0.00146484375
1690821942210434600,5.1864345703125,-0.9791717529296875,-0.01654052734375,0.001373291015625
1690821942220475400,5.196475341796875,-0.9785614013671875,-0.015716552734375,0.0018157958984375
1690821942230515500,5.206515380859375,-0.97857666015625,-0.0161285400390625,0.001922607421875
1690821942240555300,5.21655517578125,-0.9790802001953125,-0.015625,0.0013427734375
1690821942250595300,5.22659521484375,-0.97894287109375,-0.015533447265625,0.001708984375
1690821942260636400,5.236636474609375,-0.97882080078125,-0.01556396484375,0.001708984375
1690821942270676500,5.246676513671875,-0.9787750244140625,-0.016021728515625,0.0021514892578125
1690821942280716500,5.256716552734375,-0.97918701171875,-0.0159759521484375,0.0027618408203125
1690821942290757400,5.26675732421875,-0.979095458984375,-0.01611328125,0.001953125
1690821942300797400,5.27679736328125,-0.979461669921875,-0.0158843994140625,0.00128173828125
1690821942310837200,5.286837158203125,-0.9787445068359375,-0.0159454345703125,0.0018157958984375
1690821942320877300,5.296877197265625,-0.978729248046875,-0.0158538818359375,0.0009002685546875
1690821942330918400,5.30691845703125,-0.9796600341796875,-0.0155487060546875,0.0018157958984375
1690821942340958500,5.31695849609375,-0.9788665771484375,-0.0153961181640625,0.0022125244140625
1690821942350998500,5.32699853515625,-0.97918701171875,-0.0159912109375,0.001251220703125
1690821942361039400,5.337039306640625,-0.979400634765625,-0.0158233642578125,0.001312255859375
1690821942371109400,5.347109375,-0.9792327880859375,-0.0154571533203125,0.001739501953125
1690821942381150500,5.357150390625,-0.978759765625,-0.0157012939453125,0.002349853515625
1690821942391190300,5.367190185546875,-0.978668212890625,-0.0160980224609375,0.0027313232421875
1690821942401230300,5.377230224609375,-0.979278564453125,-0.015289306640625,0.0021209716796875
1690821942411263000,5.387262939453125,-0.9795379638671875,-0.01556396484375,0.0023651123046875
1690821942421303000,5.397302978515625,-0.978515625,-0.0155487060546875,0.00250244140625
1690821942431343000,5.407343017578125,-0.9805450439453125,-0.0155792236328125,0.0012969970703125
1690821942441383200,5.417383056640625,-0.979583740234375,-0.016357421875,0.0011749267578125
1690821942451424000,5.427424072265625,-0.979248046875,-0.0158233642578125,0.001922607421875
1690821942461463800,5.4374638671875,-0.9794769287109375,-0.0154266357421875,0.0022125244140625
1690821942471504000,5.44750390625,-0.979400634765625,-0.0160369873046875,0.0025787353515625
1690821942481545000,5.457544921875,-0.9797210693359375,-0.015838623046875,0.001708984375
1690821942491585000,5.4675849609375,-0.9790496826171875,-0.0158538818359375,0.0009765625
1690821942501625000,5.477625,-0.9799957275390625,-0.01568603515625,0.001251220703125
1690821942511665200,5.4876650390625,-0.9797515869140625,-0.016357421875,0.0019378662109375
1690821942521706000,5.4977060546875,-0.979034423828125,-0.016326904296875,0.0020751953125
1690821942531745800,5.507745849609375,-0.97930908203125,-0.0163421630859375,0.001800537109375
1690821942541785900,5.517785888671875,-0.9784088134765625,-0.0160675048828125,0.00225830078125
1690821942551827000,5.527826904296875,-0.9787750244140625,-0.0164642333984375,0.0028228759765625
1690821942561897000,5.53789697265625,-0.9793548583984375,-0.01702880859375,0.002349853515625
1690821942571938000,5.54793798828125,-0.9791412353515625,-0.0160064697265625,0.0021209716796875
1690821942581978000,5.55797802734375,-0.9793548583984375,-0.0156402587890625,0.0015106201171875
1690821942592018200,5.56801806640625,-0.9791107177734375,-0.0159149169921875,0.0015411376953125
1690821942602058000,5.57805810546875,-0.978851318359375,-0.0162811279296875,0.00152587890625
1690821942612098800,5.588098876953125,-0.978912353515625,-0.0157012939453125,0.001220703125
1690821942622139000,5.598138916015625,-0.979736328125,-0.0153656005859375,0.00213623046875
1690821942632179000,5.608178955078125,-0.979156494140625,-0.015167236328125,0.0018768310546875
1690821942642220000,5.618219970703125,-0.978668212890625,-0.01556396484375,0.002166748046875
1690821942652260000,5.628260009765625,-0.9791717529296875,-0.016845703125,0.0019683837890625
1690821942662300200,5.638300048828125,-0.9792327880859375,-0.0156707763671875,0.0026397705078125
1690821942672340000,5.648340087890625,-0.9790802001953125,-0.0157318115234375,0.00201416015625
1690821942682380800,5.658380859375,-0.979217529296875,-0.016510009765625,0.001800537109375
1690821942692420900,5.6684208984375,-0.9800567626953125,-0.0156402587890625,0.003204345703125
1690821942702461000,5.6784609375,-0.97943115234375,-0.0158538818359375,0.0018310546875
1690821942712502000,5.688501953125,-0.9798583984375,-0.01544189453125,0.0015411376953125
1690821942722542000,5.6985419921875,-0.9794769287109375,-0.0157623291015625,0.001068115234375
1690821942732582100,5.70858203125,-0.9793243408203125,-0.0164337158203125,0.00164794921875
1690821942742653000,5.71865283203125,-0.97955322265625,-0.015533447265625,0.0016021728515625
1690821942752693000,5.72869287109375,-0.978515625,-0.0157012939453125,0.0022125244140625
1690821942762733000,5.738733154296875,-0.97833251953125,-0.016082763671875,0.0027008056640625
1690821942772774000,5.74877392578125,-0.979095458984375,-0.0166015625,0.0019073486328125
1690821942782814000,5.75881396484375,-0.97967529296875,-0.0158843994140625,0.001953125
1690821942792854000,5.76885400390625,-0.9794769287109375,-0.0157623291015625,0.0020751953125
1690821942802895000,5.77889501953125,-0.9794158935546875,-0.0150604248046875,0.0018157958984375
1690821942812935200,5.78893505859375,-0.97918701171875,-0.014678955078125,0.001617431640625
1690821942822975000,5.79897509765625,-0.9791259765625,-0.0158843994140625,0.0009307861328125
1690821942833015000,5.80901513671875,-0.97979736328125,-0.0157623291015625,0.0022125244140625
1690821942843055900,5.819055908203125,-0.9792938232421875,-0.0160675048828125,0.002349853515625
1690821942853096000,5.829095947265625,-0.9792633056640625,-0.0161895751953125,0.0019989013671875
1690821942863136000,5.839135986328125,-0.9792327880859375,-0.0164947509765625,0.001800537109375
1690821942873177000,5.849177001953125,-0.979400634765625,-0.0159149169921875,0.0020599365234375
1690821942883217200,5.859217041015625,-0.979278564453125,-0.01495361328125,0.001739501953125
1690821942893257000,5.869257080078125,-0.979400634765625,-0.0152740478515625,0.00311279296875
1690821942903297000,5.879297119140625,-0.9791107177734375,-0.016082763671875,0.001922607421875
1690821942913337900,5.889337890625,-0.9789276123046875,-0.0160064697265625,0.0009613037109375
1690821942923378000,5.8993779296875,-0.9791107177734375,-0.0156097412109375,0.0022735595703125
1690821942933449000,5.909448974609375,-0.9793243408203125,-0.015869140625,0.0023345947265625
1690821942943489000,5.919489013671875,-0.9804534912109375,-0.015869140625,0.001800537109375
1690821942953529000,5.929529052734375,-0.980133056640625,-0.015533447265625,0.00189208984375
1690821942963570200,5.939570068359375,-0.98065185546875,-0.015594482421875,0.0015411376953125
1690821942973610000,5.94960986328125,-0.978515625,-0.0161590576171875,0.0020751953125
1690821942983650000,5.959650146484375,-0.9793243408203125,-0.0161285400390625,0.0015106201171875
1690821942993691000,5.96969091796875,-0.9795989990234375,-0.015899658203125,0.0018157958984375
1690821943003731000,5.97973095703125,-0.9794921875,-0.0157470703125,0.0020599365234375
1690821943013771000,5.98977099609375,-0.979095458984375,-0.0163116455078125,0.002777099609375
1690821943023811000,5.99981103515625,-0.979400634765625,-0.01654052734375,0.0016632080078125
1690821943033852200,6.00985205078125,-0.9791259765625,-0.0161590576171875,0.0023651123046875
1690821943043892000,6.01989208984375,-0.9797210693359375,-0.0162353515625,0.002685546875
1690821943053932000,6.02993212890625,-0.9799346923828125,-0.0159149169921875,0.001800537109375
1690821943063972900,6.039972900390625,-0.9789581298828125,-0.016387939453125,0.00140380859375
1690821943074013000,6.050012939453125,-0.9795379638671875,-0.016265869140625,0.0016021728515625
1690821943084053000,6.060052978515625,-0.979400634765625,-0.01617431640625,0.0019378662109375
1690821943094093000,6.070093017578125,-0.9646759033203125,-0.0208282470703125,-0.0093536376953125
1690821943104134100,6.080134033203125,-0.9950714111328125,-0.080047607421875,-0.0104522705078125
1690821943114174200,6.09017431640625,-1.01385498046875,-0.0160369873046875,0.099578857421875
1690821943124245000,6.100244873046875,-0.9600982666015625,0.0081329345703125,-0.0424957275390625
1690821943134285000,6.11028515625,-0.96868896484375,0.004791259765625,-0.017425537109375
1690821943144325000,6.1203251953125,-0.9703216552734375,0.0046844482421875,-0.026519775390625
1690821943154366000,6.130365966796875,-0.9625396728515625,0.03631591796875,0.0025634765625
1690821943164406000,6.140406005859375,-0.9720306396484375,0.0219879150390625,-0.019378662109375
1690821943174446000,6.150446044921875,-0.959075927734375,-0.0061187744140625,-0.0115966796875
1690821943184486000,6.16048583984375,-0.9832763671875,0.00018310546875,0.0082855224609375
1690821943194527000,6.17052685546875,-0.9798736572265625,-0.01605224609375,0.01226806640625
1690821943204567000,6.180567138671875,-0.985382080078125,-0.0267791748046875,0.0167083740234375
1690821943214607000,6.190607177734375,-0.9875335693359375,-0.035858154296875,0.017578125
1690821943224648000,6.20064794921875,-0.988983154296875,-0.042999267578125,0.0168609619140625
1690821943234688000,6.21068798828125,-0.98858642578125,-0.045867919921875,0.0151824951171875
1690821943244728000,6.22072802734375,-0.989013671875,-0.046722412109375,0.010345458984375
1690821943254767900,6.230767822265625,-0.98773193359375,-0.043853759765625,0.00360107421875
1690821943264809000,6.24080908203125,-0.9835205078125,-0.0384521484375,-0.0045928955078125
1690821943274849000,6.25084912109375,-0.979522705078125,-0.0303192138671875,-0.010467529296875
1690821943284889000,6.26088916015625,-0.9763946533203125,-0.0202484130859375,-0.0129547119140625
1690821943294930000,6.270929931640625,-0.97454833984375,-0.0088958740234375,-0.0101470947265625
1690821943304970000,6.280969970703125,-0.97332763671875,0.0020751953125,-0.0030364990234375
1690821943315041000,6.291041015625,-0.9730682373046875,0.0093231201171875,0.003570556640625
1690821943325081000,6.3010810546875,-0.9730072021484375,0.012847900390625,0.0082855224609375
1690821943335121000,6.311120849609375,-0.9735870361328125,0.0132598876953125,0.00982666015625
1690821943345161000,6.321160888671875,-0.9737396240234375,0.0094757080078125,0.0082244873046875
1690821943355202000,6.3312021484375,-0.9760284423828125,0.0020904541015625,0.006011962890625
1690821943365242000,6.3412421875,-0.97845458984375,-0.007080078125,0.0022735595703125
1690821943375282200,6.3512822265625,-0.9787750244140625,-0.0167388916015625,-0.0023193359375
1690821943385323000,6.361322998046875,-0.9802398681640625,-0.0240325927734375,-0.004425048828125
1690821943395363000,6.371363037109375,-0.9821624755859375,-0.0304412841796875,-0.004150390625
1690821943405403000,6.38140283203125,-0.98291015625,-0.033905029296875,-0.0021514892578125
1690821943415455700,6.391455810546875,-0.9837188720703125,-0.035858154296875,0.0010833740234375
1690821943425496800,6.401496826171875,-0.984344482421875,-0.0357208251953125,0.0048370361328125
1690821943435537000,6.411536865234375,-0.98541259765625,-0.0330352783203125,0.0069122314453125
1690821943445576700,6.42157666015625,-0.9846038818359375,-0.0281219482421875,0.0085601806640625
1690821943455617800,6.43161767578125,-0.983154296875,-0.023040771484375,0.008880615234375
1690821943465657600,6.44165771484375,-0.98095703125,-0.016326904296875,0.0072479248046875
1690821943475697700,6.45169775390625,-0.9779815673828125,-0.0095367431640625,0.0047760009765625
1690821943485737700,6.46173779296875,-0.975799560546875,-0.003814697265625,0.0009002685546875
1690821943495778800,6.47177880859375,-0.9745025634765625,-0.001007080078125,-0.002593994140625
1690821943505849900,6.481849853515625,-0.9740447998046875,0.00048828125,-0.004180908203125
1690821943515889700,6.4918896484375,-0.9737548828125,0,-0.0047454833984375
1690821943525929700,6.5019296875,-0.973876953125,-0.002410888671875,-0.00323486328125
1690821943535969800,6.5119697265625,-0.9772186279296875,-0.0076141357421875,-0.000335693359375
1690821943546010600,6.5220107421875,-0.978973388671875,-0.011749267578125,0.00323486328125
1690821943556050700,6.53205078125,-0.979400634765625,-0.01611328125,0.0053558349609375
1690821943566090800,6.5420908203125,-0.9806060791015625,-0.02056884765625,0.00640869140625
1690821943576130800,6.552130859375,-0.9821014404296875,-0.023956298828125,0.0073089599609375
1690821943586172000,6.562171875,-0.98272705078125,-0.025604248046875,0.00592041015625
1690821943596211700,6.572211669921875,-0.98333740234375,-0.0272216796875,0.00396728515625
1690821943606251800,6.582251708984375,-0.9828643798828125,-0.0265960693359375,0.0026702880859375
1690821943616292600,6.592292724609375,-0.98077392578125,-0.024810791015625,0.0001678466796875
1690821943626332700,6.602332763671875,-0.9803619384765625,-0.02197265625,-0.000701904296875
1690821943636372700,6.612372802734375,-0.97943115234375,-0.0181121826171875,0.00018310546875
1690821943646412800,6.622412841796875,-0.97833251953125,-0.01373291015625,0.0009918212890625
1690821943656454000,6.632453857421875,-0.9781951904296875,-0.0101318359375,0.0016326904296875
1690821943666493700,6.64249365234375,-0.977783203125,-0.0076141357421875,0.00286865234375
1690821943676533800,6.65253369140625,-0.977142333984375,-0.0058135986328125,0.0025634765625
1690821943686574600,6.66257470703125,-0.9774169921875,-0.0055694580078125,0.00335693359375
1690821943696644900,6.672644775390625,-0.9776153564453125,-0.007415771484375,0.002838134765625
1690821943706685700,6.682685791015625,-0.977081298828125,-0.0093994140625,0.00213623046875
1690821943716725800,6.692725830078125,-0.978546142578125,-0.01220703125,0.001312255859375
1690821943726765800,6.702765869140625,-0.9803466796875,-0.01507568359375,-0.00030517578125
1690821943736807000,6.712806884765625,-0.9813385009765625,-0.0178985595703125,0.000701904296875
1690821943746846700,6.7228466796875,-0.9810791015625,-0.0196990966796875,0.00189208984375
1690821943756886800,6.73288671875,-0.9814300537109375,-0.0210113525390625,0.0030059814453125
1690821943766926800,6.7429267578125,-0.9815826416015625,-0.02215576171875,0.00323486328125
1690821943776967700,6.7529677734375,-0.9816741943359375,-0.0213470458984375,0.0044403076171875
1690821943787007700,6.7630078125,-0.981109619140625,-0.0201263427734375,0.003662109375
1690821943797047800,6.7730478515625,-0.9815521240234375,-0.017913818359375,0.0033721923828125
1690821943807089000,6.7830888671875,-0.979949951171875,-0.016021728515625,0.0030975341796875
1690821943817128700,6.793128662109375,-0.978668212890625,-0.0145263671875,0.0023193359375
1690821943827168800,6.803168701171875,-0.9784088134765625,-0.0124053955078125,0.0012969970703125
1690821943837208800,6.813208740234375,-0.978363037109375,-0.010467529296875,0.001007080078125
1690821943847249700,6.823249755859375,-0.978424072265625,-0.0101165771484375,0.0009918212890625
1690821943857289700,6.833289794921875,-0.9788665771484375,-0.0103302001953125,0.00115966796875
1690821943867329800,6.843329833984375,-0.9780120849609375,-0.0107421875,0.001800537109375
1690821943877371000,6.853370849609375,-0.9788818359375,-0.011749267578125,0.0019378662109375
1690821943887440600,6.863440673828125,-0.9795074462890625,-0.0139923095703125,0.002960205078125
1690821943897481700,6.873481689453125,-0.979461669921875,-0.0160064697265625,0.0031280517578125
1690821943907521800,6.883521728515625,-0.980316162109375,-0.017425537109375,0.00341796875
1690821943917561900,6.893561767578125,-0.9805145263671875,-0.0185394287109375,0.00262451171875
1690821943927602000,6.903601806640625,-0.9808502197265625,-0.018951416015625,0.0022735595703125
1690821943937642800,6.913642822265625,-0.9804229736328125,-0.0196075439453125,0.0017852783203125
1690821943947682800,6.923682861328125,-0.9805450439453125,-0.0186920166015625,0.002593994140625
1690821943957722600,6.93372265625,-0.979766845703125,-0.018310546875,0.0023345947265625
1690821943967763700,6.943763671875,-0.9794158935546875,-0.016387939453125,0.002166748046875
1690821943977803800,6.9538037109375,-0.979736328125,-0.015838623046875,0.0020294189453125
1690821943987843800,6.96384375,-0.9794921875,-0.013885498046875,0.0015106201171875
1690821943997884000,6.9738837890625,-0.9786529541015625,-0.0137481689453125,0.00213623046875
1690821944007924700,6.9839248046875,-0.9794769287109375,-0.0132598876953125,0.0021820068359375
1690821944017964800,6.99396484375,-0.97845458984375,-0.012359619140625,0.00213623046875
1690821944028004600,7.004004638671875,-0.9781036376953125,-0.0124359130859375,0.0017852783203125
1690821944038045700,7.014045654296875,-0.9786224365234375,-0.012603759765625,0.0010833740234375
1690821944048085800,7.024085693359375,-0.9793243408203125,-0.0142364501953125,0.001373291015625
1690821944058125800,7.034125732421875,-0.97900390625,-0.01556396484375,0.0019073486328125
1690821944068166000,7.044165771484375,-0.97900390625,-0.0169219970703125,0.001495361328125
1690821944078237000,7.05423681640625,-0.980377197265625,-0.0164794921875,0.00152587890625
1690821944088276700,7.06427685546875,-0.980499267578125,-0.01654052734375,0.002685546875
1690821944098317800,7.07431787109375,-0.980499267578125,-0.0172576904296875,0.0027618408203125
1690821944108357600,7.084357666015625,-0.9800872802734375,-0.01763916015625,0.002349853515625
1690821944118397700,7.094397705078125,-0.9793243408203125,-0.0169677734375,0.0022430419921875
1690821944128438800,7.104438720703125,-0.9802398681640625,-0.0158843994140625,0.0023651123046875
1690821944138478800,7.114478759765625,-0.9800872802734375,-0.0153350830078125,0.0023040771484375
1690821944148519000,7.124518798828125,-0.9797210693359375,-0.01446533203125,0.0022125244140625
1690821944158558700,7.134558837890625,-0.979339599609375,-0.01470947265625,0.0020751953125
1690821944168599800,7.144599853515625,-0.9790802001953125,-0.013336181640625,0.002532958984375
1690821944178639600,7.1546396484375,-0.9796905517578125,-0.0134124755859375,0.001983642578125
1690821944188679700,7.1646796875,-0.9796600341796875,-0.0135650634765625,0.0018463134765625
1690821944198720800,7.174720703125,-0.978668212890625,-0.0144195556640625,0.0021514892578125
1690821944208760800,7.1847607421875,-0.9786224365234375,-0.0151214599609375,0.0024566650390625
1690821944218801000,7.19480078125,-0.98040771484375,-0.0154266357421875,0.0029296875
1690821944228840700,7.2048408203125,-0.9808502197265625,-0.0155792236328125,0.002349853515625
1690821944238881800,7.2148818359375,-0.9794769287109375,-0.0163421630859375,0.0027923583984375
1690821944248921900,7.224921875,-0.9782257080078125,-0.01739501953125,0.0023193359375
1690821944258992600,7.23499267578125,-0.9792633056640625,-0.017242431640625,0.0010833740234375
1690821944269032700,7.24503271484375,-0.9806671142578125,-0.0163421630859375,0.0018768310546875
1690821944279072800,7.25507275390625,-0.980560302734375,-0.01666259765625,0.0023193359375
1690821944289113900,7.26511376953125,-0.979766845703125,-0.01605224609375,0.00225830078125
1690821944299154000,7.27515380859375,-0.9806671142578125,-0.015594482421875,0.00213623046875
1690821944309193700,7.28519384765625,-0.979949951171875,-0.015869140625,0.0028228759765625
1690821944319234800,7.29523486328125,-0.9795074462890625,-0.0146331787109375,0.002349853515625
1690821944329274600,7.305274658203125,-0.9798736572265625,-0.0144195556640625,0.00225830078125
1690821944339314700,7.315314697265625,-0.97845458984375,-0.014251708984375,0.002685546875
1690821944349354800,7.325354736328125,-0.978485107421875,-0.013336181640625,0.0023345947265625
1690821944359395800,7.335395751953125,-0.97906494140625,-0.0130767822265625,0.0016937255859375
1690821944369436000,7.345435791015625,-0.9789581298828125,-0.01409912109375,0.0019683837890625
1690821944379475700,7.355475830078125,-0.9785919189453125,-0.0147247314453125,0.001739501953125
1690821944389516800,7.365516845703125,-0.9798126220703125,-0.014923095703125,0.0016632080078125
1690821944399556900,7.375556884765625,-0.9798431396484375,-0.015380859375,0.0031890869140625
1690821944409596700,7.3855966796875,-0.979156494140625,-0.0159149169921875,0.00274658203125
1690821944419618000,7.3956181640625,-0.979736328125,-0.016143798828125,0.00238037109375
1690821944429659100,7.4056591796875,-0.97991943359375,-0.0164031982421875,0.0020751953125
1690821944439699200,7.41569921875,-0.9800872802734375,-0.016693115234375,0.002227783203125
1690821944449770200,7.425770263671875,-0.9795379638671875,-0.015960693359375,0.0029449462890625
1690821944459810000,7.43581005859375,-0.9794158935546875,-0.0143890380859375,0.0019378662109375
1690821944469850000,7.44585009765625,-0.97930908203125,-0.0140838623046875,0.002044677734375
1690821944479891000,7.455890869140625,-0.9793243408203125,-0.0142059326171875,0.00323486328125
1690821944489931000,7.465930908203125,-0.9792022705078125,-0.014129638671875,0.002288818359375
1690821944499971000,7.47597119140625,-0.9799652099609375,-0.0146636962890625,0.002227783203125
1690821944510011100,7.48601123046875,-0.9789886474609375,-0.0140380859375,0.0023956298828125
1690821944520052200,7.49605224609375,-0.9805145263671875,-0.0139617919921875,0.002227783203125
1690821944530092300,7.50609228515625,-0.9803314208984375,-0.014892578125,0.002593994140625
1690821944540132000,7.516132080078125,-0.9804840087890625,-0.0150146484375,0.0021820068359375
1690821944550173000,7.5261728515625,-0.979827880859375,-0.01507568359375,0.001708984375
1690821944560213000,7.536212890625,-0.979888916015625,-0.014862060546875,0.0019378662109375
1690821944570253000,7.546253173828125,-0.979583740234375,-0.0145111083984375,0.0018157958984375
1690821944580293000,7.556293212890625,-0.980133056640625,-0.015899658203125,0.00225830078125
1690821944590334200,7.566334228515625,-0.9792022705078125,-0.015838623046875,0.0028533935546875
1690821944600374300,7.576374267578125,-0.9794464111328125,-0.0158538818359375,0.00274658203125
1690821944610414000,7.5864140625,-0.978912353515625,-0.015380859375,0.0019989013671875
1690821944620455000,7.596454833984375,-0.9788055419921875,-0.01544189453125,0.001983642578125
1690821944630495000,7.606494873046875,-0.9803314208984375,-0.01519775390625,0.002197265625
1690821944640566000,7.61656591796875,-0.9797821044921875,-0.0146026611328125,0.0026397705078125
1690821944650606000,7.626606201171875,-0.9795379638671875,-0.014434814453125,0.00238037109375
1690821944660646100,7.636646240234375,-0.97906494140625,-0.0148773193359375,0.0023193359375
1690821944670686200,7.646686279296875,-0.9793243408203125,-0.01507568359375,0.0022735595703125
1690821944680727300,7.656727294921875,-0.979949951171875,-0.0155029296875,0.0023345947265625
1690821944690767000,7.66676708984375,-0.9788665771484375,-0.015625,0.002410888671875
1690821944700807200,7.67680712890625,-0.9791107177734375,-0.01531982421875,0.0021820068359375
1690821944710848000,7.686847900390625,-0.9802398681640625,-0.015228271484375,0.0028533935546875
1690821944720888000,7.69688818359375,-0.9807281494140625,-0.014892578125,0.0020294189453125
1690821944730928000,7.70692822265625,-0.9791412353515625,-0.0150909423828125,0.0024871826171875
1690821944740968200,7.71696826171875,-0.978912353515625,-0.014923095703125,0.002899169921875
1690821944751009300,7.72700927734375,-0.9791717529296875,-0.0150604248046875,0.001953125
1690821944761049000,7.737049072265625,-0.9784088134765625,-0.0148773193359375,0.0020294189453125
1690821944771089200,7.747089111328125,-0.98065185546875,-0.014862060546875,0.0022430419921875
1690821944781130000,7.7571298828125,-0.9805145263671875,-0.0160980224609375,0.0022735595703125
1690821944791170000,7.767170166015625,-0.979766845703125,-0.01593017578125,0.0022125244140625
1690821944801210000,7.777210205078125,-0.979278564453125,-0.0150909423828125,0.0022125244140625
1690821944811250200,7.787250244140625,-0.9787750244140625,-0.014984130859375,0.0016632080078125
1690821944821291300,7.797291259765625,-0.9799041748046875,-0.015380859375,0.002685546875
1690821944831362300,7.8073623046875,-0.9801788330078125,-0.015167236328125,0.0027313232421875
1690821944841402000,7.817402099609375,-0.9794158935546875,-0.014862060546875,0.0028228759765625
1690821944851442200,7.827442138671875,-0.980194091796875,-0.015045166015625,0.0019989013671875
1690821944861482200,7.837482177734375,-0.9799041748046875,-0.0149078369140625,0.0019378662109375
1690821944871523000,7.847523193359375,-0.979644775390625,-0.0146484375,0.001953125
1690821944881563100,7.857563232421875,-0.979278564453125,-0.015228271484375,0.0025634765625
1690821944891603200,7.867603271484375,-0.980010986328125,-0.0150146484375,0.0026092529296875
1690821944901644300,7.877644287109375,-0.9802093505859375,-0.01544189453125,0.00201416015625
1690821944911684000,7.88768408203125,-0.979095458984375,-0.0152587890625,0.001190185546875
1690821944921724200,7.89772412109375,-0.9789886474609375,-0.0152740478515625,0.0017852783203125
1690821944931764200,7.90776416015625,-0.9785003662109375,-0.0152587890625,0.00244140625
1690821944941805000,7.91780517578125,-0.978912353515625,-0.0150909423828125,0.0016632080078125
1690821944951845000,7.92784521484375,-0.9796295166015625,-0.0157470703125,0.0019683837890625
1690821944961885200,7.93788525390625,-0.980194091796875,-0.0149688720703125,0.001617431640625
1690821944971925000,7.947925048828125,-0.9799957275390625,-0.015289306640625,0.0012664794921875
1690821944981966000,7.957966064453125,-0.979644775390625,-0.015350341796875,0.0017547607421875
1690821944992006100,7.968006103515625,-0.979461669921875,-0.01544189453125,0.0020599365234375
1690821945002046200,7.978046142578125,-0.9789886474609375,-0.0151214599609375,0.002044677734375
1690821945012117200,7.9881171875,-0.9796600341796875,-0.0145416259765625,0.0023193359375
1690821945022157300,7.9981572265625,-0.9796600341796875,-0.015106201171875,0.002288818359375
1690821945032198100,8.0081982421875,-0.979248046875,-0.01544189453125,0.0030975341796875
1690821945042238200,8.01823828125,-0.97918701171875,-0.0155181884765625,0.0022125244140625
1690821945052278000,8.028278076171874,-0.97943115234375,-0.0150299072265625,0.0019378662109375
1690821945062319000,8.038319091796875,-0.97900390625,-0.014892578125,0.0025634765625
1690821945072359200,8.048359130859374,-0.97882080078125,-0.0152130126953125,0.0015106201171875
1690821945082399200,8.058399169921875,-0.98004150390625,-0.015472412109375,0.00225830078125
1690821945092439300,8.068439208984374,-0.9804534912109375,-0.0160064697265625,0.0029754638671875
1690821945102480100,8.078480224609375,-0.9793701171875,-0.0149383544921875,0.0017852783203125
1690821945112520200,8.088520263671874,-0.98004150390625,-0.015838623046875,0.001708984375
1690821945122560000,8.09856005859375,-0.97991943359375,-0.01556396484375,0.0027923583984375
1690821945132601000,8.10860107421875,-0.9795684814453125,-0.0147247314453125,0.0025787353515625
1690821945142641200,8.11864111328125,-0.979827880859375,-0.0151214599609375,0.002899169921875
1690821945152681200,8.12868115234375,-0.9798736572265625,-0.015380859375,0.0025482177734375
1690821945162721300,8.13872119140625,-0.97918701171875,-0.0160980224609375,0.00213623046875
1690821945172762000,8.14876220703125,-0.9786224365234375,-0.0156402587890625,0.0016326904296875
1690821945182802200,8.15880224609375,-0.9800567626953125,-0.014801025390625,0.0017242431640625
1690821945192842200,8.16884228515625,-0.9799041748046875,-0.0154571533203125,0.00201416015625
1690821945202913000,8.1789130859375,-0.97900390625,-0.0160064697265625,0.0028533935546875
1690821945212953000,8.188953125,-0.979339599609375,-0.01556396484375,0.0020294189453125
1690821945222994200,8.198994140625,-0.979339599609375,-0.0153656005859375,0.001678466796875
1690821945233034200,8.2090341796875,-0.97967529296875,-0.0156707763671875,0.001617431640625
1690821945243074300,8.21907421875,-0.9798126220703125,-0.0152435302734375,0.0021514892578125
1690821945253114000,8.229114013671875,-0.9796295166015625,-0.0149993896484375,0.0020294189453125
1690821945263155200,8.2391552734375,-0.979248046875,-0.0155792236328125,0.0013427734375
1690821945273195000,8.249195068359375,-0.98028564453125,-0.0152740478515625,0.00262451171875
1690821945283235000,8.259235107421874,-0.98040771484375,-0.0154571533203125,0.0030517578125
1690821945293276200,8.269276123046875,-0.9798126220703125,-0.015167236328125,0.001953125
1690821945303316200,8.279316162109374,-0.9788818359375,-0.0152740478515625,0.00225830078125
1690821945313356300,8.289356201171875,-0.979766845703125,-0.0151519775390625,0.00177001953125
1690821945323396000,8.29939599609375,-0.979248046875,-0.015106201171875,0.0013885498046875
1690821945333437200,8.309437255859375,-0.979339599609375,-0.015106201171875,0.0025482177734375
1690821945343477200,8.319477294921874,-0.9795989990234375,-0.01544189453125,0.0026397705078125
1690821945353517000,8.32951708984375,-0.980194091796875,-0.0149383544921875,0.002777099609375
1690821945363558100,8.33955810546875,-0.9805908203125,-0.014617919921875,0.0020904541015625
1690821945373598200,8.34959814453125,-0.979644775390625,-0.0147552490234375,0.001678466796875
1690821945383638000,8.359637939453124,-0.978973388671875,-0.0155181884765625,0.001708984375
1690821945393709000,8.369708984375,-0.9798583984375,-0.01470947265625,0.0023040771484375
1690821945403749000,8.3797490234375,-0.9792022705078125,-0.01470947265625,0.002471923828125
1690821945413781800,8.38978173828125,-0.9794769287109375,-0.0146636962890625,0.0016021728515625
1690821945423821600,8.399821533203125,-0.9795989990234375,-0.0150909423828125,0.0013427734375
1690821945433861600,8.409861572265624,-0.97955322265625,-0.0153656005859375,0.0011138916015625
1690821945443901700,8.419901611328125,-0.97979736328125,-0.0149383544921875,0.001800537109375
1690821945453942800,8.42994287109375,-0.97857666015625,-0.015106201171875,0.0019683837890625
1690821945463982800,8.43998291015625,-0.9785919189453125,-0.0147705078125,0.002288818359375
1690821945474023000,8.45002294921875,-0.979736328125,-0.014862060546875,0.0021514892578125
1690821945484063000,8.46006298828125,-0.9794921875,-0.0144500732421875,0.0016326904296875
1690821945494103800,8.470103759765625,-0.979644775390625,-0.014862060546875,0.0014190673828125
1690821945504143600,8.4801435546875,-0.9800262451171875,-0.01470947265625,0.0018310546875
1690821945514183700,8.49018359375,-0.9798431396484375,-0.0148773193359375,0.0026092529296875
1690821945524224800,8.500224853515626,-0.9789581298828125,-0.0139617919921875,0.00225830078125
1690821945534264800,8.510264892578125,-0.9800872802734375,-0.0146484375,0.0015716552734375
1690821945544305000,8.520304931640625,-0.9807586669921875,-0.0146026611328125,0.002685546875
1690821945554345000,8.530344970703124,-0.9798431396484375,-0.0154876708984375,0.002716064453125
1690821945564385800,8.5403857421875,-0.9799957275390625,-0.015625,0.001373291015625
1690821945574456600,8.55045654296875,-0.9790802001953125,-0.0153350830078125,0.0016021728515625
1690821945584496600,8.56049658203125,-0.9793853759765625,-0.014892578125,0.001953125
1690821945594536700,8.57053662109375,-0.979888916015625,-0.0148468017578125,0.0025787353515625
1690821945604576800,8.58057666015625,-0.9794769287109375,-0.014801025390625,0.002593994140625
1690821945614617900,8.590617919921876,-0.980010986328125,-0.01470947265625,0.0023193359375
1690821945624658000,8.600657958984375,-0.9799041748046875,-0.0154876708984375,0.00244140625
1690821945634698000,8.610697998046875,-0.9801177978515625,-0.014923095703125,0.0030059814453125
1690821945644738800,8.62073876953125,-0.979461669921875,-0.014617919921875,0.002166748046875
1690821945654778600,8.630778564453125,-0.9799041748046875,-0.015167236328125,0.002197265625
1690821945664818700,8.640818603515624,-0.9806060791015625,-0.01513671875,0.002716064453125
1690821945674858800,8.650858642578125,-0.9793853759765625,-0.0150604248046875,0.0019073486328125
1690821945684899800,8.66089990234375,-0.980133056640625,-0.0158233642578125,0.0020294189453125
1690821945694940000,8.67093994140625,-0.9791259765625,-0.014556884765625,0.002349853515625
1690821945704980000,8.68097998046875,-0.9798583984375,-0.015869140625,0.00286865234375
1690821945715020800,8.691020751953126,-0.9804840087890625,-0.0163116455078125,0.0023040771484375
1690821945725060600,8.701060546875,-0.9798431396484375,-0.0149688720703125,0.0023345947265625
1690821945735100700,8.7111005859375,-0.9794158935546875,-0.0151519775390625,0.0018768310546875
1690821945745140700,8.721140625,-0.9793243408203125,-0.0153350830078125,0.00213623046875
1690821945755181800,8.731181884765626,-0.9802398681640625,-0.01593017578125,0.0015411376953125
1690821945765251800,8.741251953125,-0.979736328125,-0.0153961181640625,0.0015106201171875
1690821945775293000,8.75129296875,-0.9797515869140625,-0.0157470703125,0.0026397705078125
1690821945785333000,8.7613330078125,-0.980010986328125,-0.0144195556640625,0.0027618408203125
1690821945795372800,8.771372802734374,-0.9799346923828125,-0.014862060546875,0.0025634765625
1690821945805413600,8.78141357421875,-0.9798126220703125,-0.0147247314453125,0.0022735595703125
1690821945815453700,8.79145361328125,-0.9793701171875,-0.014556884765625,0.0025482177734375
1690821945825493800,8.80149365234375,-0.9793701171875,-0.014556884765625,0.0021514892578125
1690821945835533800,8.811533935546874,-0.9803466796875,-0.01483154296875,0.0020904541015625
1690821945845575000,8.821574951171876,-0.98004150390625,-0.01495361328125,0.00274658203125
1690821945855615000,8.831614990234375,-0.97967529296875,-0.014923095703125,0.00299072265625
1690821945865654800,8.84165478515625,-0.9798583984375,-0.014404296875,0.0023345947265625
1690821945875695600,8.851695556640625,-0.980682373046875,-0.0150146484375,0.0022735595703125
1690821945885735700,8.861735595703125,-0.9798736572265625,-0.0159454345703125,0.0028533935546875
1690821945895775700,8.871775634765624,-0.9800872802734375,-0.0152587890625,0.001129150390625
1690821945905815800,8.88181591796875,-0.9800262451171875,-0.0160369873046875,0.0016937255859375
1690821945915857000,8.89185693359375,-0.9799652099609375,-0.01568603515625,0.0020904541015625
1690821945925897000,8.90189697265625,-0.980316162109375,-0.015045166015625,0.00140380859375
1690821945935936800,8.911936767578124,-0.9798583984375,-0.0146026611328125,0.0027618408203125
1690821945946007800,8.9220078125,-0.979400634765625,-0.0154571533203125,0.003204345703125
1690821945956048000,8.9320478515625,-0.9790802001953125,-0.0150604248046875,0.002044677734375
1690821945966088700,8.942088623046875,-0.98046875,-0.0154266357421875,0.00213623046875
1690821945976128800,8.952128662109375,-0.9793701171875,-0.0154571533203125,0.001251220703125
1690821945986168800,8.9621689453125,-0.979827880859375,-0.0147857666015625,0.002288818359375
1690821945996209000,8.972208984375,-0.97930908203125,-0.0150909423828125,0.00238037109375
1690821946006250000,8.98225,-0.980255126953125,-0.01531982421875,0.0016937255859375
1690821946016289800,8.992289794921875,-0.979156494140625,-0.015045166015625,0.001922607421875
1690821946026329900,9.002329833984374,-0.979583740234375,-0.0147247314453125,0.0014495849609375
1690821946036370700,9.01237060546875,-0.979095458984375,-0.0157623291015625,0.001861572265625
1690821946046410800,9.02241064453125,-0.9791107177734375,-0.015045166015625,0.0024566650390625
1690821946056450800,9.032450927734375,-0.979949951171875,-0.015869140625,0.0010223388671875
1690821946066491000,9.042490966796874,-0.97943115234375,-0.0155029296875,0.00140380859375
1690821946076532000,9.052531982421876,-0.9801177978515625,-0.01519775390625,0.00201416015625
1690821946086571800,9.06257177734375,-0.9803314208984375,-0.014892578125,0.0023651123046875
1690821946096611800,9.07261181640625,-0.9802093505859375,-0.0143280029296875,0.002716064453125
1690821946106652700,9.082652587890625,-0.979217529296875,-0.0145721435546875,0.0021209716796875
1690821946116692700,9.092692626953125,-0.9790191650390625,-0.0148162841796875,0.0016937255859375
1690821946126732800,9.10273291015625,-0.98046875,-0.01519775390625,0.0022735595703125
1690821946136803800,9.112803955078125,-0.9786529541015625,-0.01495361328125,0.0020294189453125
1690821946146844000,9.122843994140625,-0.9799957275390625,-0.0146636962890625,0.0020294189453125
1690821946156885000,9.132885009765625,-0.9801025390625,-0.0151519775390625,0.002685546875
1690821946166924800,9.1429248046875,-0.9803466796875,-0.0153656005859375,0.00225830078125
1690821946176964900,9.15296484375,-0.980560302734375,-0.014862060546875,0.002410888671875
1690821946187005000,9.1630048828125,-0.979705810546875,-0.0147552490234375,0.002777099609375
1690821946197045800,9.173045654296875,-0.980712890625,-0.0151519775390625,0.00250244140625
1690821946207085800,9.1830859375,-0.9796905517578125,-0.015289306640625,0.002288818359375
1690821946217126000,9.1931259765625,-0.9801177978515625,-0.0151214599609375,0.00262451171875
1690821946227167000,9.2031669921875,-0.9792022705078125,-0.0154571533203125,0.0025177001953125
1690821946237206800,9.213206787109375,-0.9795989990234375,-0.01507568359375,0.0023345947265625
1690821946247246800,9.223246826171875,-0.979705810546875,-0.0154571533203125,0.0017547607421875
1690821946257287000,9.233286865234374,-0.9794464111328125,-0.0144195556640625,0.0021820068359375
1690821946267327700,9.24332763671875,-0.9793548583984375,-0.014495849609375,0.0026702880859375
1690821946277367800,9.253367919921875,-0.979339599609375,-0.0149078369140625,0.002777099609375
1690821946287407900,9.263407958984375,-0.9807281494140625,-0.0150299072265625,0.0023956298828125
1690821946297448000,9.273447998046874,-0.9794769287109375,-0.01483154296875,0.0024566650390625
1690821946307489000,9.283489013671876,-0.979095458984375,-0.0152740478515625,0.0023345947265625
1690821946317528800,9.29352880859375,-0.9790802001953125,-0.01513671875,0.0016937255859375
1690821946327599900,9.303599853515625,-0.979766845703125,-0.0153350830078125,0.0023193359375
1690821946337640000,9.313639892578125,-0.9793701171875,-0.0147552490234375,0.001983642578125
1690821946347679700,9.3236796875,-0.9806060791015625,-0.0155029296875,0.0022430419921875
1690821946357720800,9.333720947265626,-0.9805755615234375,-0.0155029296875,0.0022735595703125
1690821946367761000,9.343760986328125,-0.980499267578125,-0.015045166015625,0.0021514892578125
1690821946377800700,9.35380078125,-0.979095458984375,-0.0141448974609375,0.0019989013671875
1690821946387841800,9.363841796875,-0.9798431396484375,-0.01458740234375,0.0025177001953125
1690821946397881900,9.3738818359375,-0.978912353515625,-0.0149078369140625,0.00189208984375
1690821946407921700,9.383921630859374,-0.97918701171875,-0.0145111083984375,0.0018768310546875
1690821946417957000,9.39395703125,-0.9796142578125,-0.01495361328125,0.001434326171875
1690821946427998000,9.403998046875,-0.9796295166015625,-0.0146331787109375,0.0019683837890625
1690821946438038000,9.4140380859375,-0.979248046875,-0.0151214599609375,0.0019683837890625
1690821946448077800,9.424077880859375,-0.9792633056640625,-0.015716552734375,0.00238037109375
1690821946458119000,9.434118896484375,-0.9790191650390625,-0.0146942138671875,0.0022430419921875
1690821946468159000,9.444158935546875,-0.97967529296875,-0.0152130126953125,0.0024261474609375
1690821946478199000,9.454198974609374,-0.9801483154296875,-0.0154571533203125,0.0021820068359375
1690821946488239000,9.464239013671875,-0.979522705078125,-0.0151214599609375,0.0017852783203125
1690821946498280000,9.474280029296875,-0.979339599609375,-0.0154876708984375,0.001800537109375
1690821946508350000,9.484349853515624,-0.979949951171875,-0.0153656005859375,0.0024871826171875
1690821946518390800,9.494390869140625,-0.9801177978515625,-0.015533447265625,0.00201416015625
1690821946528430800,9.504430908203124,-0.9805145263671875,-0.0149078369140625,0.00225830078125
1690821946538471000,9.514470947265625,-0.9801788330078125,-0.0146942138671875,0.00213623046875
1690821946548512000,9.524511962890625,-0.9801025390625,-0.0149993896484375,0.002288818359375
1690821946558552000,9.534552001953125,-0.979705810546875,-0.0147247314453125,0.002166748046875
1690821946568592100,9.544592041015624,-0.9807891845703125,-0.01434326171875,0.001708984375
1690821946578632200,9.554632080078125,-0.9799652099609375,-0.014923095703125,0.0027008056640625
1690821946588673000,9.564673095703125,-0.9795074462890625,-0.0150299072265625,0.002685546875
1690821946598712800,9.574712890625,-0.979766845703125,-0.01519775390625,0.0021514892578125
1690821946608753000,9.5847529296875,-0.979583740234375,-0.0157012939453125,0.0025634765625
1690821946618794000,9.5947939453125,-0.9794464111328125,-0.0151824951171875,0.0022125244140625
1690821946628834000,9.604833984375,-0.9797210693359375,-0.014862060546875,0.0019378662109375
1690821946638874000,9.6148740234375,-0.9796905517578125,-0.0150146484375,0.0023345947265625
1690821946648914200,9.6249140625,-0.980194091796875,-0.0150909423828125,0.0018310546875
1690821946658955000,9.634955078125,-0.9797210693359375,-0.0155181884765625,0.00146484375
1690821946668994800,9.644994873046874,-0.978912353515625,-0.01544189453125,0.001251220703125
1690821946679035000,9.655034912109375,-0.979339599609375,-0.01519775390625,0.0020294189453125
1690821946689076000,9.665075927734375,-0.9793853759765625,-0.0149383544921875,0.001983642578125
1690821946699146000,9.67514599609375,-0.979248046875,-0.014312744140625,0.0024261474609375
1690821946709187000,9.68518701171875,-0.9795074462890625,-0.01513671875,0.002227783203125
1690821946719227100,9.69522705078125,-0.9801025390625,-0.0155792236328125,0.0020294189453125
1690821946729267200,9.70526708984375,-0.979278564453125,-0.01568603515625,0.0019683837890625
1690821946739308000,9.71530810546875,-0.9793548583984375,-0.0146636962890625,0.0016937255859375
1690821946749347800,9.725347900390625,-0.9795989990234375,-0.0146942138671875,0.002777099609375
1690821946759388000,9.735387939453124,-0.979949951171875,-0.0155181884765625,0.0020904541015625
1690821946769428000,9.745427978515625,-0.97991943359375,-0.0150146484375,0.001068115234375
1690821946779469000,9.755468994140625,-0.9803466796875,-0.015228271484375,0.0022430419921875
1690821946789509000,9.765509033203125,-0.979400634765625,-0.0154266357421875,0.0033721923828125
1690821946799549200,9.775549072265624,-0.9786529541015625,-0.0160980224609375,0.001495361328125
1690821946809589000,9.785589111328125,-0.980255126953125,-0.0157318115234375,0.0013580322265625
1690821946819629800,9.7956298828125,-0.9796600341796875,-0.015655517578125,0.0022430419921875
1690821946829670000,9.805669921875,-0.9795684814453125,-0.01513671875,0.0020599365234375
1690821946839710000,9.8157099609375,-0.97918701171875,-0.014923095703125,0.002532958984375
1690821946849751000,9.8257509765625,-0.9795989990234375,-0.0161285400390625,0.002288818359375
1690821946859791000,9.835791015625,-0.980377197265625,-0.0159149169921875,0.00262451171875
1690821946869831200,9.8458310546875,-0.979583740234375,-0.0151824951171875,0.00213623046875
1690821946879902200,9.855902099609375,-0.979827880859375,-0.01446533203125,0.0023345947265625
1690821946889942000,9.86594189453125,-0.979583740234375,-0.0155181884765625,0.0020599365234375
1690821946899982800,9.87598291015625,-0.9800262451171875,-0.0155487060546875,0.0018463134765625
1690821946910023000,9.88602294921875,-0.980377197265625,-0.015472412109375,0.0030975341796875
1690821946920063000,9.89606298828125,-0.979583740234375,-0.01513671875,0.0028839111328125
1690821946930103000,9.90610302734375,-0.9793701171875,-0.0149383544921875,0.0018310546875
1690821946940144000,9.91614404296875,-0.9795074462890625,-0.01513671875,0.001800537109375
1690821946950184200,9.92618408203125,-0.9795379638671875,-0.0153045654296875,0.0020599365234375
1690821946960224000,9.93622412109375,-0.9800872802734375,-0.015045166015625,0.002166748046875
1690821946970264800,9.946264892578125,-0.97918701171875,-0.0149688720703125,0.00177001953125
1690821946980305000,9.956304931640625,-0.9800262451171875,-0.01519775390625,0.001556396484375
1690821946990345000,9.966344970703124,-0.9793243408203125,-0.0154266357421875,0.002777099609375
1690821947000385000,9.976385009765625,-0.9798583984375,-0.0157928466796875,0.0025482177734375
1690821947010426000,9.986426025390625,-0.9802093505859375,-0.0153656005859375,0.0024871826171875
1690821947020466200,9.996466064453125,-0.980072021484375,-0.01531982421875,0.001953125
1690821947030506000,10.006506103515624,-0.9798431396484375,-0.0152435302734375,0.001556396484375
1690821947040546800,10.016546875,-0.9794464111328125,-0.0147247314453125,0.001983642578125
1690821947050587000,10.0265869140625,-0.97979736328125,-0.0141448974609375,0.002349853515625
1690821947060627000,10.036626953125,-0.9804229736328125,-0.014495849609375,0.0021820068359375
1690821947070698000,10.046697998046875,-0.9794769287109375,-0.0149688720703125,0.002197265625
1690821947080738000,10.056738037109374,-0.9792022705078125,-0.015716552734375,0.002044677734375
1690821947090778000,10.066778076171875,-0.98046875,-0.0153045654296875,0.002197265625
1690821947100819200,10.076819091796875,-0.97979736328125,-0.015380859375,0.0027008056640625
1690821947110859000,10.08685888671875,-0.97943115234375,-0.0150909423828125,0.0015106201171875
1690821947120899000,10.096899169921874,-0.9803466796875,-0.014923095703125,0.0016937255859375
1690821947130940000,10.10693994140625,-0.98016357421875,-0.014801025390625,0.0029449462890625
1690821947140980000,10.11697998046875,-0.979583740234375,-0.015045166015625,0.0022430419921875
1690821947151020000,10.12702001953125,-0.979461669921875,-0.015380859375,0.0021209716796875
1690821947161060000,10.13706005859375,-0.97918701171875,-0.01513671875,0.0015716552734375
1690821947171101200,10.14710107421875,-0.98052978515625,-0.0146942138671875,0.001708984375
1690821947181141000,10.15714111328125,-0.9798583984375,-0.014801025390625,0.002105712890625
1690821947191181000,10.16718115234375,-0.9805755615234375,-0.0148162841796875,0.0020904541015625
1690821947201222000,10.177221923828125,-0.98016357421875,-0.01416015625,0.0021514892578125
1690821947211262000,10.187261962890625,-0.9796295166015625,-0.01495361328125,0.003021240234375
1690821947221302000,10.197302001953124,-0.979827880859375,-0.0148773193359375,0.002593994140625
1690821947231342000,10.207342041015625,-0.979705810546875,-0.014862060546875,0.00164794921875
1690821947241383200,10.217383056640625,-0.980438232421875,-0.014923095703125,0.001739501953125
1690821947251454200,10.2274541015625,-0.979583740234375,-0.0148162841796875,0.0019989013671875
1690821947261494000,10.237493896484375,-0.979827880859375,-0.015167236328125,0.0024871826171875
1690821947271534000,10.2475341796875,-0.9790496826171875,-0.0151214599609375,0.001617431640625
1690821947281574000,10.257573974609375,-0.9795379638671875,-0.015380859375,0.00152587890625
1690821947291615000,10.267614990234375,-0.980072021484375,-0.0162506103515625,0.0022430419921875
1690821947301655000,10.277655029296875,-0.9792938232421875,-0.01568603515625,0.0020294189453125
1690821947311695000,10.287695068359374,-0.979827880859375,-0.014801025390625,0.0022430419921875
1690821947321735000,10.29773486328125,-0.979766845703125,-0.0151824951171875,0.00238037109375
1690821947331776000,10.30777587890625,-0.9801177978515625,-0.0151824951171875,0.0024566650390625
1690821947341816000,10.317816162109375,-0.980438232421875,-0.0151824951171875,0.0025177001953125
1690821947351855900,10.32785595703125,-0.980682373046875,-0.0146331787109375,0.00396728515625
1690821947361897000,10.33789697265625,-0.9806365966796875,-0.01470947265625,0.0020904541015625
1690821947371937000,10.34793701171875,-0.9800567626953125,-0.015777587890625,0.0014495849609375
1690821947381977000,10.35797705078125,-0.979644775390625,-0.0149993896484375,0.0020294189453125
1690821947392017200,10.36801708984375,-0.9796600341796875,-0.0145721435546875,0.001953125
1690821947402058200,10.378058349609375,-0.9797821044921875,-0.015411376953125,0.0024871826171875
1690821947412098000,10.38809814453125,-0.9801177978515625,-0.015625,0.00262451171875
1690821947422139400,10.398139404296876,-0.9801025390625,-0.0149993896484375,0.0017852783203125
1690821947432210400,10.40821044921875,-0.9795379638671875,-0.0149688720703125,0.0024261474609375
1690821947442250500,10.41825048828125,-0.97918701171875,-0.014617919921875,0.0033111572265625
1690821947452291600,10.42829150390625,-0.97930908203125,-0.014678955078125,0.0019989013671875
1690821947462331600,10.43833154296875,-0.978912353515625,-0.0145111083984375,0.0020294189453125
1690821947472371500,10.448371337890626,-0.9791717529296875,-0.014404296875,0.00164794921875
1690821947482412500,10.45841259765625,-0.9793243408203125,-0.0145111083984375,0.002349853515625
1690821947492452600,10.46845263671875,-0.979461669921875,-0.0148773193359375,0.002777099609375
1690821947502492400,10.478492431640625,-0.9804534912109375,-0.0157318115234375,0.00286865234375
1690821947512532500,10.488532470703126,-0.980072021484375,-0.015045166015625,0.0023193359375
1690821947522573600,10.498573486328125,-0.9804840087890625,-0.0148162841796875,0.002471923828125
1690821947532613600,10.508613525390626,-0.97991943359375,-0.01544189453125,0.002349853515625
1690821947542653400,10.5186533203125,-0.9797210693359375,-0.0152587890625,0.0021820068359375
1690821947552694500,10.528694580078126,-0.98004150390625,-0.015533447265625,0.0020904541015625
1690821947562734600,10.538734619140625,-0.9790191650390625,-0.0157623291015625,0.0026092529296875
1690821947572774400,10.5487744140625,-0.979156494140625,-0.01507568359375,0.0027923583984375
1690821947582814500,10.558814453125,-0.9798431396484375,-0.013946533203125,0.001983642578125
1690821947592855600,10.56885546875,-0.9792938232421875,-0.0155181884765625,0.0015869140625
1690821947602895600,10.5788955078125,-0.9801788330078125,-0.015289306640625,0.002777099609375
1690821947612935400,10.588935302734376,-0.980712890625,-0.0149078369140625,0.0019683837890625
1690821947623006500,10.59900634765625,-0.979766845703125,-0.0152130126953125,0.0017547607421875
1690821947633046500,10.609046630859375,-0.97998046875,-0.015533447265625,0.00244140625
1690821947643087600,10.619087646484376,-0.979766845703125,-0.015228271484375,0.00323486328125
1690821947653127400,10.62912744140625,-0.980438232421875,-0.0146942138671875,0.0025634765625
1690821947663167500,10.63916748046875,-0.9798736572265625,-0.0145721435546875,0.0020599365234375
1690821947673207600,10.64920751953125,-0.979217529296875,-0.0145111083984375,0.0024261474609375
1690821947683248600,10.65924853515625,-0.979400634765625,-0.015167236328125,0.003326416015625
1690821947693288400,10.669288330078125,-0.9793701171875,-0.0145721435546875,0.001373291015625
1690821947703328500,10.67932861328125,-0.979278564453125,-0.0146026611328125,0.001922607421875
1690821947713369600,10.68936962890625,-0.980224609375,-0.0147552490234375,0.0020904541015625
1690821947723409400,10.699409423828126,-0.980194091796875,-0.0152435302734375,0.002044677734375
1690821947733449500,10.709449462890625,-0.979766845703125,-0.0152740478515625,0.002227783203125
1690821947743489500,10.719489501953126,-0.98016357421875,-0.0152130126953125,0.00213623046875
1690821947753530600,10.729530517578125,-0.9800262451171875,-0.015289306640625,0.0023345947265625
1690821947763570400,10.7395703125,-0.979827880859375,-0.014984130859375,0.00189208984375
1690821947773610500,10.749610595703125,-0.9790802001953125,-0.0150299072265625,0.001800537109375
1690821947783651600,10.759651611328126,-0.979888916015625,-0.0142364501953125,0.0011749267578125
1690821947793691400,10.76969140625,-0.979766845703125,-0.0150604248046875,0.002716064453125
1690821947803762400,10.779762451171875,-0.9797821044921875,-0.014862060546875,0.001861572265625
1690821947813802500,10.789802490234376,-0.9799041748046875,-0.014984130859375,0.0013427734375
1690821947823842600,10.799842529296875,-0.9803619384765625,-0.0151519775390625,0.001495361328125
1690821947833882600,10.809882568359376,-0.97943115234375,-0.0149993896484375,0.001617431640625
1690821947843923500,10.81992333984375,-0.97979736328125,-0.0147247314453125,0.0019989013671875
1690821947853963500,10.829963623046876,-0.9808502197265625,-0.0146636962890625,0.0016326904296875
1690821947864003300,10.84000341796875,-0.9796600341796875,-0.0146331787109375,0.0018768310546875
1690821947874044400,10.85004443359375,-0.97967529296875,-0.01483154296875,0.001678466796875
1690821947884084500,10.86008447265625,-0.9794921875,-0.015411376953125,0.001983642578125
1690821947894124500,10.87012451171875,-0.979736328125,-0.0148162841796875,0.0026702880859375
1690821947904164600,10.88016455078125,-0.9812164306640625,-0.0149383544921875,0.0024261474609375
1690821947914205400,10.890205322265626,-0.98095703125,-0.0152740478515625,0.001617431640625
1690821947924245500,10.90024560546875,-0.98046875,-0.0148162841796875,0.002227783203125
1690821947934285300,10.910285400390626,-0.979339599609375,-0.0154876708984375,0.002044677734375
1690821947944326400,10.920326416015625,-0.9799041748046875,-0.0149078369140625,0.0016937255859375
1690821947954366500,10.930366455078126,-0.979522705078125,-0.0147705078125,0.0023040771484375
1690821947964406500,10.940406494140625,-0.979461669921875,-0.014984130859375,0.0013580322265625
1690821947974446600,10.950446533203126,-0.9796600341796875,-0.0153961181640625,0.002105712890625
1690821947984487400,10.9604873046875,-0.9795989990234375,-0.01416015625,0.002685546875
1690821947994558500,10.970558349609375,-0.9802703857421875,-0.0141754150390625,0.00299072265625
1690821948004598500,10.9805986328125,-0.9797210693359375,-0.014404296875,0.0026092529296875
1690821948014638300,10.990638427734375,-0.979583740234375,-0.014617919921875,0.001678466796875
1690821948024678400,11.000678466796876,-0.98046875,-0.015777587890625,0.0018463134765625
1690821948034719500,11.010719482421875,-0.979583740234375,-0.014739990234375,0.0023040771484375
1690821948044759600,11.020759521484376,-0.9802093505859375,-0.0148468017578125,0.00244140625
1690821948054799600,11.030799560546875,-0.9797210693359375,-0.015045166015625,0.001800537109375
1690821948064840400,11.04084033203125,-0.9801177978515625,-0.0149383544921875,0.001953125
1690821948074880500,11.050880615234375,-0.9804534912109375,-0.01495361328125,0.0016632080078125
1690821948084920300,11.06092041015625,-0.9804840087890625,-0.0152435302734375,0.0024566650390625
1690821948094960400,11.07096044921875,-0.97979736328125,-0.0146636962890625,0.002532958984375
1690821948105001500,11.08100146484375,-0.9810638427734375,-0.0151824951171875,0.00189208984375
1690821948115041500,11.09104150390625,-0.9802398681640625,-0.0155181884765625,0.001708984375
1690821948125081600,11.10108154296875,-0.979766845703125,-0.01531982421875,0.0015411376953125
1690821948135121700,11.11112158203125,-0.9791107177734375,-0.015045166015625,0.0016937255859375
1690821948145162500,11.12116259765625,-0.9790496826171875,-0.014434814453125,0.0026092529296875
1690821948155202600,11.13120263671875,-0.979156494140625,-0.0154876708984375,0.0019073486328125
1690821948165242400,11.141242431640626,-0.97979736328125,-0.015228271484375,0.0016021728515625
1690821948175313400,11.1513134765625,-0.97918701171875,-0.014862060546875,0.0019073486328125
1690821948185353500,11.161353515625,-0.979736328125,-0.015167236328125,0.00189208984375
1690821948195394600,11.17139453125,-0.9806060791015625,-0.014617919921875,0.0019989013671875
1690821948205434600,11.1814345703125,-0.979705810546875,-0.0148468017578125,0.0024871826171875
1690821948215474700,11.191474609375,-0.9796295166015625,-0.0143280029296875,0.00286865234375
1690821948225515500,11.201515625,-0.9795074462890625,-0.0153045654296875,0.0024261474609375
1690821948235555300,11.211555419921876,-0.979888916015625,-0.015045166015625,0.002197265625
1690821948245595400,11.221595458984375,-0.9806976318359375,-0.01531982421875,0.0024871826171875
1690821948255635500,11.231635498046876,-0.980438232421875,-0.0155792236328125,0.0021514892578125
1690821948265676500,11.241676513671875,-0.980926513671875,-0.0150909423828125,0.0013580322265625
1690821948275716600,11.251716552734376,-0.9812774658203125,-0.0142059326171875,0.0015716552734375
1690821948285756700,11.261756591796875,-0.9806671142578125,-0.01507568359375,0.0011444091796875
1690821948295797500,11.271797607421876,-0.979888916015625,-0.015167236328125,0.002227783203125
1690821948305837300,11.28183740234375,-0.9817047119140625,-0.0145111083984375,0.0016326904296875
1690821948315877400,11.29187744140625,-0.9813690185546875,-0.01483154296875,0.001434326171875
1690821948325917400,11.30191748046875,-0.9789276123046875,-0.015869140625,0.000946044921875
1690821948335958500,11.31195849609375,-0.979705810546875,-0.0156402587890625,0.001800537109375
1690821948345998600,11.32199853515625,-0.9802703857421875,-0.01507568359375,0.001983642578125
1690821948356069600,11.332069580078125,-0.980010986328125,-0.015350341796875,0.0023651123046875
1690821948366109700,11.342109619140626,-0.980865478515625,-0.0150146484375,0.0018768310546875
1690821948376149500,11.3521494140625,-0.9807891845703125,-0.01513671875,0.00164794921875
1690821948386190300,11.3621904296875,-0.9802703857421875,-0.014617919921875,0.0019989013671875
1690821948396230400,11.37223046875,-0.979217529296875,-0.0141143798828125,0.0017547607421875
1690821948406270500,11.3822705078125,-0.9803619384765625,-0.01470947265625,0.0021209716796875
1690821948416300800,11.39230078125,-0.9793701171875,-0.0148468017578125,0.002349853515625
1690821948426342000,11.402341796875,-0.9794158935546875,-0.015167236328125,0.0021514892578125
1690821948436381700,11.412381591796875,-0.9798431396484375,-0.014862060546875,0.0017852783203125
1690821948446421800,11.422421875,-0.9815216064453125,-0.0141143798828125,0.0017547607421875
1690821948456462800,11.432462890625,-0.9802093505859375,-0.0147857666015625,0.0024566650390625
1690821948466502700,11.442502685546875,-0.98046875,-0.015411376953125,0.002655029296875
1690821948476542700,11.452542724609375,-0.96246337890625,-0.016754150390625,0.005584716796875
1690821948486582800,11.462582763671875,-1.0054168701171875,-0.0426177978515625,-0.0398712158203125
1690821948496623900,11.472623779296875,-0.987335205078125,-0.0689849853515625,0.063262939453125
1690821948506663700,11.48266357421875,-0.9891204833984375,0.0220794677734375,0.0532684326171875
1690821948516703700,11.492703857421875,-0.95770263671875,-0.006439208984375,-0.055633544921875
1690821948526744800,11.502744873046876,-0.973785400390625,0.011077880859375,-0.0137481689453125
1690821948536784600,11.51278466796875,-0.9732818603515625,0.0305328369140625,0.013214111328125
1690821948546855700,11.522855712890625,-0.9632110595703125,0.0278472900390625,-0.0182952880859375
1690821948556895700,11.532895751953125,-0.9684906005859375,-0.004302978515625,-0.023468017578125
1690821948566935800,11.542935791015625,-0.9795989990234375,-0.0034027099609375,0.00347900390625
1690821948576977000,11.552976806640626,-0.9818572998046875,-0.0105133056640625,0.017852783203125
1690821948587016700,11.5630166015625,-0.9883270263671875,-0.0337677001953125,0.01934814453125
1690821948597056800,11.573056884765625,-0.9873199462890625,-0.03387451171875,0.014892578125
1690821948607096600,11.5830966796875,-0.9869232177734375,-0.038330078125,0.01422119140625
1690821948617137700,11.5931376953125,-0.9884185791015625,-0.04180908203125,0.011260986328125
1690821948627177700,11.603177734375,-0.9881744384765625,-0.042449951171875,0.006744384765625
1690821948637217800,11.6132177734375,-0.9862518310546875,-0.0414276123046875,0.0020599365234375
1690821948647257900,11.6232578125,-0.984649658203125,-0.03961181640625,-0.00360107421875
1690821948657298700,11.633298583984375,-0.982574462890625,-0.035186767578125,-0.007171630859375
1690821948667338800,11.6433388671875,-0.980987548828125,-0.0283050537109375,-0.0083465576171875
1690821948677378600,11.653378662109375,-0.978729248046875,-0.019012451171875,-0.0059967041015625
1690821948687419600,11.663419677734375,-0.9772186279296875,-0.00872802734375,0.0000152587890625
1690821948697459700,11.673459716796875,-0.9765472412109375,0.000518798828125,0.0044403076171875
1690821948707499800,11.683499755859375,-0.9752655029296875,0.0064697265625,0.0076446533203125
1690821948717539800,11.693539794921875,-0.974884033203125,0.010101318359375,0.00909423828125
1690821948727611000,11.70361083984375,-0.9750213623046875,0.0117950439453125,0.008758544921875
1690821948737651700,11.713651611328125,-0.974609375,0.0088653564453125,0.005828857421875
1690821948747691800,11.72369189453125,-0.976043701171875,0.0025482177734375,0.003082275390625
1690821948757731600,11.733731689453125,-0.977294921875,-0.003631591796875,-0.0002899169921875
1690821948767771600,11.743771728515625,-0.9785003662109375,-0.011138916015625,-0.0027618408203125
1690821948777812700,11.753812744140625,-0.98095703125,-0.0188446044921875,-0.0041961669921875
1690821948787852800,11.763852783203125,-0.981689453125,-0.0247039794921875,-0.0031280517578125
1690821948797892900,11.773892822265625,-0.983001708984375,-0.0291748046875,-0.001068115234375
1690821948807933700,11.78393359375,-0.9849395751953125,-0.032501220703125,0.0017547607421875
1690821948817973800,11.793973876953125,-0.9857940673828125,-0.033172607421875,0.005157470703125
1690821948828013600,11.804013671875,-0.9859466552734375,-0.0331268310546875,0.006561279296875
1690821948838053600,11.8140537109375,-0.9857330322265625,-0.031585693359375,0.0083770751953125
1690821948848094700,11.8240947265625,-0.9847869873046875,-0.027557373046875,0.00823974609375
1690821948858134800,11.834134765625,-0.9839324951171875,-0.0220947265625,0.008026123046875
1690821948868174800,11.8441748046875,-0.9807586669921875,-0.0175018310546875,0.0061492919921875
1690821948878215700,11.854215576171875,-0.9791259765625,-0.0123748779296875,0.0045928955078125
1690821948888255700,11.864255859375,-0.977142333984375,-0.0069580078125,0.0006561279296875
1690821948898295800,11.8742958984375,-0.9751739501953125,-0.0044403076171875,-0.0022430419921875
1690821948908335600,11.884335693359375,-0.9749755859375,-0.0012664794921875,-0.0035400390625
1690821948918406700,11.89440673828125,-0.9757537841796875,-0.0001220703125,-0.0038299560546875
1690821948928446700,11.90444677734375,-0.975616455078125,-0.001983642578125,-0.001708984375
1690821948938487800,11.91448779296875,-0.9757537841796875,-0.0047454833984375,0.000396728515625
1690821948948527900,11.92452783203125,-0.977386474609375,-0.0083465576171875,0.002838134765625
1690821948958568000,11.93456787109375,-0.97967529296875,-0.01239013671875,0.0043792724609375
1690821948968608800,11.94460888671875,-0.9803924560546875,-0.0168914794921875,0.0053253173828125
1690821948978648600,11.954648681640625,-0.9811859130859375,-0.0207366943359375,0.00616455078125
1690821948988688600,11.964688720703125,-0.982330322265625,-0.0240020751953125,0.004913330078125
1690821948998728700,11.974728759765625,-0.983673095703125,-0.025787353515625,0.0038299560546875
1690821949008769800,11.984769775390625,-0.983123779296875,-0.027099609375,0.0028228759765625
1690821949018809900,11.994809814453125,-0.9832916259765625,-0.027130126953125,0.0023345947265625
1690821949028850000,12.004849853515625,-0.982879638671875,-0.0255126953125,0.001190185546875
1690821949038890800,12.014890869140626,-0.98040771484375,-0.022613525390625,0.001068115234375
1690821949048930600,12.0249306640625,-0.9797515869140625,-0.0191497802734375,0.0007171630859375
1690821949058970600,12.034970703125,-0.98052978515625,-0.015777587890625,0.0015869140625
1690821949069010700,12.0450107421875,-0.9795684814453125,-0.0128326416015625,0.0025634765625
1690821949079051800,12.0550517578125,-0.97894287109375,-0.01019287109375,0.0033111572265625
1690821949089091800,12.065091796875,-0.97869873046875,-0.0081939697265625,0.0039215087890625
1690821949099163000,12.075162841796875,-0.9769744873046875,-0.0072479248046875,0.00341796875
1690821949109203000,12.085202880859375,-0.978240966796875,-0.00726318359375,0.002471923828125
1690821949119242800,12.09524267578125,-0.9779815673828125,-0.0089111328125,0.0027008056640625
1690821949129283600,12.10528369140625,-0.9783172607421875,-0.01092529296875,0.001983642578125
1690821949139323600,12.11532373046875,-0.9791717529296875,-0.013885498046875,0.0011138916015625
1690821949149363700,12.12536376953125,-0.98028564453125,-0.0158538818359375,0.0003509521484375
1690821949159403800,12.13540380859375,-0.98065185546875,-0.016876220703125,0.0007781982421875
1690821949169444900,12.14544482421875,-0.980621337890625,-0.0196533203125,0.0020904541015625
1690821949179485000,12.15548486328125,-0.9817352294921875,-0.02166748046875,0.002655029296875
1690821949189524700,12.165524658203125,-0.9820709228515625,-0.021240234375,0.0033416748046875
1690821949199565600,12.175565673828125,-0.982421875,-0.0222015380859375,0.0035400390625
1690821949209605600,12.185605712890625,-0.9825439453125,-0.0211029052734375,0.003875732421875
1690821949219645700,12.195645751953125,-0.9819488525390625,-0.019683837890625,0.0042572021484375
1690821949229685800,12.205685791015625,-0.9805145263671875,-0.018218994140625,0.0034942626953125
1690821949239726800,12.215726806640625,-0.9793243408203125,-0.015869140625,0.0032958984375
1690821949249767000,12.225766845703125,-0.9785308837890625,-0.0136566162109375,0.00286865234375
1690821949259807000,12.235806884765625,-0.9782257080078125,-0.0124359130859375,0.0011749267578125
1690821949269847800,12.245847900390626,-0.9781036376953125,-0.0115203857421875,0.000885009765625
1690821949279917800,12.255917724609375,-0.979095458984375,-0.0111846923828125,0.001373291015625
1690821949289958700,12.265958740234375,-0.9785919189453125,-0.0113677978515625,0.0018157958984375
1690821949299998700,12.275998779296875,-0.97857666015625,-0.0115966796875,0.0017852783203125
1690821949310038800,12.286038818359375,-0.9794921875,-0.01251220703125,0.002593994140625
1690821949320080000,12.296079833984376,-0.97930908203125,-0.013641357421875,0.0025787353515625
1690821949330120000,12.306119873046875,-0.9808807373046875,-0.015380859375,0.0030975341796875
1690821949340159700,12.31615966796875,-0.9805145263671875,-0.016998291015625,0.002685546875
1690821949350199800,12.32619970703125,-0.9801177978515625,-0.0178375244140625,0.00299072265625
1690821949360240600,12.33624072265625,-0.980926513671875,-0.019012451171875,0.0031280517578125
1690821949370280700,12.34628076171875,-0.981231689453125,-0.0186309814453125,0.0019989013671875
1690821949380320800,12.35632080078125,-0.9801483154296875,-0.0195465087890625,0.0027008056640625
1690821949390361900,12.36636181640625,-0.9804229736328125,-0.0199432373046875,0.003570556640625
1690821949400402000,12.37640185546875,-0.980743408203125,-0.0188751220703125,0.002349853515625
1690821949410442000,12.38644189453125,-0.9803466796875,-0.017242431640625,0.0021209716796875
1690821949420465200,12.396465087890626,-0.98028564453125,-0.015380859375,0.0024566650390625
1690821949430506200,12.40650634765625,-0.97845458984375,-0.0150909423828125,0.0029296875
1690821949440546300,12.41654638671875,-0.978912353515625,-0.0139007568359375,0.0029296875
1690821949450586400,12.42658642578125,-0.978790283203125,-0.01226806640625,0.002838134765625
1690821949460627200,12.436627197265626,-0.9793548583984375,-0.0130615234375,0.003173828125
1690821949470697200,12.446697265625,-0.9788970947265625,-0.0129241943359375,0.00238037109375
1690821949480738000,12.456738037109375,-0.9783477783203125,-0.013275146484375,0.0025482177734375
1690821949490778000,12.466778076171876,-0.978729248046875,-0.014129638671875,0.0023040771484375
1690821949500818200,12.476818115234375,-0.9791107177734375,-0.0143585205078125,0.00225830078125
1690821949510858200,12.486858154296876,-0.9794921875,-0.015350341796875,0.0017852783203125
1690821949520899300,12.4968994140625,-0.979736328125,-0.0161285400390625,0.0015716552734375
1690821949530939400,12.506939453125,-0.9803619384765625,-0.017181396484375,0.002410888671875
1690821949540979200,12.516979248046875,-0.980377197265625,-0.0166778564453125,0.002471923828125
1690821949551020000,12.52702001953125,-0.9809417724609375,-0.0167388916015625,0.00189208984375
1690821949561060000,12.53706005859375,-0.980377197265625,-0.0177154541015625,0.0020599365234375
1690821949571100200,12.54710009765625,-0.980194091796875,-0.0174102783203125,0.002532958984375
1690821949581140200,12.55714013671875,-0.9799957275390625,-0.0161895751953125,0.0024871826171875
1690821949591181300,12.567181396484376,-0.97918701171875,-0.015716552734375,0.001312255859375
1690821949601221400,12.577221435546875,-0.979095458984375,-0.014923095703125,0.0019378662109375
1690821949611261400,12.587261474609376,-0.9796295166015625,-0.01397705078125,0.002227783203125
1690821949621302300,12.59730224609375,-0.9793243408203125,-0.014434814453125,0.0016937255859375
1690821949631342000,12.607342041015626,-0.9792327880859375,-0.0140838623046875,0.0018768310546875
1690821949641382100,12.617382080078125,-0.9798583984375,-0.0137786865234375,0.001922607421875
1690821949651453200,12.627453125,-0.97991943359375,-0.0142669677734375,0.0022735595703125
1690821949661493200,12.6374931640625,-0.9793853759765625,-0.0140380859375,0.0024871826171875
1690821949671533300,12.647533203125,-0.9794769287109375,-0.014617919921875,0.0020599365234375
1690821949681574400,12.657574462890626,-0.97991943359375,-0.0147705078125,0.00177001953125
1690821949691614200,12.6676142578125,-0.9794464111328125,-0.01605224609375,0.0015869140625
1690821949701654300,12.677654296875,-0.9791412353515625,-0.016021728515625,0.0027618408203125
1690821949711695000,12.687695068359375,-0.9798431396484375,-0.016265869140625,0.0025482177734375
1690821949721735200,12.697735107421876,-0.980987548828125,-0.0162811279296875,0.0028228759765625
1690821949731775200,12.707775146484375,-0.9815216064453125,-0.0168609619140625,0.003082275390625
1690821949741815300,12.717815185546876,-0.98101806640625,-0.0166015625,0.0030059814453125
1690821949751856400,12.7278564453125,-0.98162841796875,-0.015411376953125,0.0026702880859375
1690821949761896400,12.737896484375,-0.9800872802734375,-0.0163726806640625,0.0028076171875
1690821949771936300,12.747936279296875,-0.980010986328125,-0.0155792236328125,0.0023193359375
1690821949781977000,12.75797705078125,-0.979248046875,-0.014862060546875,0.0023040771484375
1690821949792017200,12.76801708984375,-0.9792938232421875,-0.01458740234375,0.002166748046875
1690821949802057200,12.77805712890625,-0.9795684814453125,-0.014556884765625,0.002197265625
1690821949812097300,12.78809716796875,-0.9782867431640625,-0.014892578125,0.0021820068359375
1690821949822138400,12.798138427734376,-0.9794158935546875,-0.014984130859375,0.0023040771484375
1690821949832209400,12.80820947265625,-0.9801483154296875,-0.01531982421875,0.0018463134765625
1690821949842249200,12.818249267578125,-0.9797515869140625,-0.0157318115234375,0.0020294189453125
1690821949852289300,12.828289306640626,-0.98046875,-0.0165252685546875,0.0029144287109375
1690821949862329300,12.838329345703125,-0.979888916015625,-0.0164642333984375,0.0025787353515625
1690821949872370200,12.8483701171875,-0.9803466796875,-0.016632080078125,0.002410888671875
1690821949882410200,12.85841015625,-0.9803009033203125,-0.0165557861328125,0.00262451171875
1690821949892450300,12.8684501953125,-0.98016357421875,-0.0164947509765625,0.0028228759765625
1690821949902491400,12.878491455078125,-0.9800262451171875,-0.0160064697265625,0.0026702880859375
1690821949912531500,12.888531494140626,-0.9800567626953125,-0.0165252685546875,0.00238037109375
1690821949922571300,12.8985712890625,-0.979949951171875,-0.0165557861328125,0.0018463134765625
1690821949932611300,12.908611328125,-0.979949951171875,-0.0150299072265625,0.00262451171875
1690821949942652200,12.918652099609375,-0.9796142578125,-0.0148468017578125,0.00299072265625
1690821949952692200,12.928692138671876,-0.979949951171875,-0.0152587890625,0.002777099609375
1690821949962732300,12.938732177734375,-0.979736328125,-0.0146636962890625,0.0025482177734375
1690821949972772400,12.9487724609375,-0.97900390625,-0.01470947265625,0.002471923828125
1690821949982813400,12.9588134765625,-0.9794158935546875,-0.014434814453125,0.003173828125
