time,seconds_elapsed,z,y,x
1690821937229702000,0.205701904296875,0.29549276637136934,0.15014774523898958,-0.010387282773293554
1690821937239743000,0.215742919921875,0.30166122587323185,0.12021905544325709,0.00076511175413616
1690821937249782800,0.22578271484375,0.2707172215551138,0.07840033189477398,-0.0014386910336092113
1690821937259822800,0.23582275390625,0.25744331396222114,0.03524769286140799,0.0007630567943677306
1690821937269894000,0.245893798828125,0.25511925492882725,-0.004239336336497217,0.004150404527585487
1690821937279934000,0.255933837890625,0.23966508068740366,-0.026197796171717344,0.01066451054578647
1690821937289975000,0.26597509765625,0.23262568356990812,-0.04372453890349716,0.011773668230930342
1690821937300014800,0.276014892578125,0.2340086623609066,-0.05224754390856251,0.010108831158094108
1690821937310054700,0.2860546875,0.23393501260280608,-0.1902643958436325,0.019085982271982355
1690821937320095700,0.296095703125,0.2370493452310562,-0.17149331560656428,0.010671278213290497
1690821937330135800,0.3061357421875,0.25458324835598467,-0.12445156931332312,0.004801729734410764
1690821937340176000,0.31617578125,0.26367314826250077,-0.07717554847332649,-0.0007726877058157696
1690821937350216000,0.3262158203125,0.2721113062620163,-0.020357326515205203,-0.0017998958786833098
1690821937360257000,0.336257080078125,0.2770902637183666,0.03482429808387533,-0.005627941150683909
1690821937370296800,0.346296875,0.27338088780641556,0.06761749219894408,-0.014800603420229163
1690821937380337000,0.3563369140625,0.27566344578564167,0.09203797649983315,-0.008249284363910555
1690821937390376700,0.366376708984375,0.2829220386117697,0.1045253733575344,-0.009299871129076927
1690821937400417800,0.376417724609375,0.278256969410181,0.11062624751590192,-0.013978274736274034
1690821937410454000,0.3864541015625,0.26738135513067246,0.09286098332051188,-0.0067979073786642395
1690821937420493800,0.396493896484375,0.24848785409033297,0.0641364634164609,-0.002911259220645297
1690821937430535000,0.406534912109375,0.2462742696940899,0.03543380828434601,0.0001755757626146078
1690821937440575000,0.416574951171875,0.25280279467999933,0.005448620794713497,-0.004069477928616106
1690821937450615000,0.426614990234375,0.24753566793203352,-0.014968637480493634,-0.00013607486928813157
1690821937460654800,0.43665478515625,0.24676702164709566,-0.03001066899076104,-0.0023920371025335043
1690821937470726000,0.446725830078125,0.24091069683432578,-0.04018719509020448,-0.0018493541937321424
1690821937480767000,0.45676708984375,0.23474983611702918,-0.05226049472168088,0.007414317677379586
1690821937490806800,0.466806884765625,0.23649346491396425,-0.041711975238379086,0.0026413745043915695
1690821937500846800,0.476846923828125,0.24657997464239595,-0.025119956073444336,-0.003878551616531331
1690821937510887000,0.486886962890625,0.24870704979896543,-0.013133074350096285,-0.0010099830434308387
1690821937520928000,0.496927978515625,0.24856033480465412,0.010522672655992209,-0.005434071679553017
1690821937530968000,0.506968017578125,0.25931553757488723,0.03141439830884337,-0.0012742348866304383
1690821937541008000,0.5170078125,0.2639174784123897,0.04484614507826045,-0.00014057751446962355
1690821937551049000,0.527049072265625,0.2704536021828651,0.054569940707832575,-0.007074555195844732
1690821937561089000,0.537089111328125,0.2705412804663181,0.05200063820909708,-0.007887463030905928
1690821937571128800,0.54712890625,0.26345161446630955,0.054760385246016084,-0.01819154733304167
1690821937581169000,0.5571689453125,0.24784254192411898,0.04374625754496082,-0.010673846913001033
1690821937591210000,0.5672099609375,0.25139877310097214,0.03086094741085544,0.0006747825725818984
1690821937601250000,0.57725,0.2513864981412887,0.008947769755776972,-0.00010195568726630881
1690821937611289900,0.587289794921875,0.23867606965005397,0.00293839153945446,0.010387390087859239
1690821937621331000,0.5973310546875,0.23122107746899126,-0.006789605341199785,0.006903292565455194
1690821937631371000,0.60737109375,0.23350655805766582,-0.023103775679133833,0.005455050535500049
1690821937641410800,0.617410888671875,0.23923545709848404,-0.02339258429156616,0.00750557159082964
1690821937651451000,0.627450927734375,0.23195056078732013,-0.023953725305665283,0.0037399240305530834
1690821937661492000,0.637491943359375,0.2388742225706577,-0.015191541249863803,0.004222766510897782
1690821937671562000,0.64756201171875,0.24204759190976619,-0.009832242706418037,-0.002346259448758792
1690821937681603000,0.65760302734375,0.23802374322116374,0.0007306706284172833,-0.005824593950656708
1690821937691643000,0.667642822265625,0.25433891820609567,0.015527951863687484,0.0024195667135645635
1690821937701683000,0.677682861328125,0.24775135650932786,0.021986005429271607,-0.0017697633186122403
1690821937711724000,0.68772412109375,0.24294541753232476,0.03421617612289265,-0.0018208907176507636
1690821937721763800,0.697763916015625,0.24726269620954988,0.042263544706534595,-0.008507295979280025
1690821937731804000,0.707803955078125,0.25606559586822986,0.0346303464143537,0.004091995721100829
1690821937741844000,0.717843994140625,0.25170097091794014,0.03442353526325896,-0.001661688417813275
1690821937751885000,0.727885009765625,0.22788871817588804,0.02045291411047801,-0.005901403780223336
1690821937761924900,0.7379248046875,0.23580606717169283,0.012102087334543465,-0.003375655012135394
1690821937771965000,0.74796484375,0.2338561021476984,-0.00246414335751906,0.003386559998639859
1690821937782006000,0.758006103515625,0.22772505204677582,-0.0007486629428341984,0.004408441259129904
1690821937792045800,0.7680458984375,0.24539807138144967,-0.005103935542888939,-0.00835188165528234
1690821937802086000,0.7780859375,0.2362912203401327,-0.015436127128079532,-0.004178495827619918
1690821937812126000,0.7881259765625,0.23242402351796626,-0.007823149640019983,0.0061039931306382635
1690821937822167000,0.7981669921875,0.24187632699608802,-0.006263225113227963,0.0028449799182475545
1690821937832206800,0.808206787109375,0.23725626598000524,-0.0025540135980583727,-0.0037775297943153418
1690821937842247000,0.818246826171875,0.24190847570002078,0.006691661392059177,-0.006049657711072359
1690821937852288000,0.8282880859375,0.23787469013929366,0.011400533202756196,-0.0035130382058094255
1690821937862327800,0.838327880859375,0.24655425567924974,0.014765680520609021,-0.0013655207661213353
1690821937872398800,0.84839892578125,0.2435579964727163,0.021326409009378402,0.0075891422380344005
1690821937882439000,0.85843896484375,0.24444646974503992,0.02487991850618273,-0.0019379183931741862
1690821937892479000,0.86847900390625,0.2393459317356348,0.020689060953911393,-0.004471912116510793
1690821937902519000,0.87851904296875,0.24082769472599028,0.021229195712599902,-0.00033145131091587244
1690821937912559900,0.888559814453125,0.2384212181061506,0.018059863227792083,0.00431494515624363
1690821937922600000,0.898599853515625,0.22808979370594024,0.011701817704271525,0.0038836502000456673
1690821937932639700,0.9086396484375,0.2336246314793825,-0.0000011690437793731689,0.0002555525135132484
1690821937942680800,0.918680908203125,0.22913550336658953,0.005214629375748336,0.003570807691477239
1690821937952721000,0.928720947265625,0.2225578785419464,0.000504277994018048,-0.008625778109661768
1690821937962761000,0.938760986328125,0.22945114518702028,0.0018730821291916072,-0.0025237897064420392
1690821937972801000,0.948801025390625,0.23589549902081489,-0.006645849488954991,-0.0018776920889387837
1690821937982841900,0.958841796875,0.22797639645934104,-0.001484703866112977,-0.004489696651662234
1690821937992882000,0.9688818359375,0.22948387841284273,0.001007825335673988,-0.0014322453098022379
1690821938002921700,0.978921630859375,0.2348790154546499,-0.000674812255334109,-0.0027716863531735726
1690821938012962800,0.988962890625,0.23368483723402023,0.005140431628376245,-0.0006174994273926131
1690821938023003000,0.9990029296875,0.23144085769951342,0.014817556838318705,0.00036439231600379567
1690821938033043000,1.00904296875,0.23787527466118336,0.019447993117943405,-0.0047039992727572096
1690821938043083000,1.0190830078125,0.2309890222787857,0.023081582113634792,-0.002702744736231398
1690821938053123800,1.029123779296875,0.22589199140071867,0.017640834098123014,0.001177610678318888
1690821938063164000,1.039163818359375,0.23935236147642133,0.01894797117393464,-0.0013114250918617471
1690821938073235000,1.04923486328125,0.2311158635288477,0.009429086999315769,-0.0048177435792284085
1690821938083274800,1.059274658203125,0.23051146789491175,0.008752356781531126,-0.009509949666203464
1690821938093314800,1.069314697265625,0.21614333532452581,0.004876008538529277,0.00008938846663804725
1690821938103356000,1.07935595703125,0.2230284186631441,0.002648030290752649,-0.0020730297146597876
1690821938113396000,1.08939599609375,0.21465280450582502,-0.0025071239827200767,0.011747172949649392
1690821938123436000,1.09943603515625,0.2204962698370218,-0.007741097379755229,0.008801474886573851
1690821938133476900,1.109476806640625,0.2284317390114069,0.0006623911651782691,0.010875379100779537
1690821938143517000,1.119516845703125,0.23068390185236928,-0.011011132026370614,0.0029744035677518694
1690821938153556700,1.129556640625,0.22201193509697914,-0.0003425663599744439,-0.0012486437876475973
1690821938163596800,1.1395966796875,0.22425942176282404,0.009540401886682957,0.00012885739392368123
1690821938173638000,1.149637939453125,0.22620646417737006,0.002839260280225426,-0.0010676794638624415
1690821938183678000,1.159677978515625,0.22486031026542186,0.014766210243571548,-0.010111260577198118
1690821938193718000,1.169718017578125,0.23458441642224787,0.0160765439234674,-0.003231036076787859
1690821938203758000,1.179758056640625,0.2323345916688442,0.00921537118339911,0.003977281016961206
1690821938213799000,1.189798828125,0.22559680784642694,0.008654796424880623,0.00481111747561954
1690821938223839000,1.1998388671875,0.2329226206898689,0.009805701759364455,-0.004114730426005553
1690821938233878800,1.209878662109375,0.22812895667254923,0.002754796867165714,-0.008804383796290494
1690821938243920000,1.219919921875,0.2296241636663675,0.015256916369963437,0.0023048291765386236
1690821938253960000,1.2299599609375,0.21794950796365736,0.009914294966682792,-0.0027860550885321573
1690821938264000000,1.24,0.21525661561787127,0.0049758521838113665,0.010278271724155639
1690821938274071000,1.250071044921875,0.22573592405617235,0.0031981019215658307,0.0033136363263241947
1690821938284111000,1.260111083984375,0.22603753735125062,0.002011467686574906,-0.010223080071352888
1690821938294152000,1.27015185546875,0.22918284963965416,-0.0010045556663535536,0.0006686085601220838
1690821938304191700,1.280191650390625,0.22170506110489366,0.006235368991922586,0.005488283801532816
1690821938314231800,1.290231689453125,0.22529928620457648,0.004588168040476739,-0.003920655458897818
1690821938324271900,1.30027197265625,0.218270995002985,0.010588778428453951,-0.0014113486522459424
1690821938334313000,1.31031298828125,0.2276993330836296,0.009920870837941765,-0.004292290366441011
1690821938344353000,1.32035302734375,0.22231413291394708,0.006054295070283115,-0.013344543409999458
1690821938354393000,1.33039306640625,0.2266536234229803,0.0066645359231159084,-0.0043944629661273205
1690821938364434000,1.340433837890625,0.22740064239799976,0.012587313568219542,0.0036924704429227855
1690821938374473700,1.3504736328125,0.22515198668837547,0.008800269310176372,0.005786526962590869
1690821938384513800,1.360513671875,0.22320494427382945,0.009931556628737598,-0.0036532686604070475
1690821938394553900,1.370553955078125,0.21661972066462037,0.0029733715212903913,-0.0034925936394021844
1690821938404568800,1.38056884765625,0.2149725379794836,0.008568944772332906,0.0007276795203099026
1690821938414609000,1.39060888671875,0.2275426812171936,0.001636935285758227,0.003059419536660425
1690821938424649000,1.40064892578125,0.22574878353774547,0.0008175269279628992,0.0004997958984342403
1690821938434690000,1.41068994140625,0.22530162429213524,-0.0004801847323775291,0.001311797267908696
1690821938444730000,1.420730224609375,0.22575404423475265,0.0014037475843913852,0.0008957912123878486
1690821938454770200,1.430770263671875,0.2173766765117645,-0.005479381259158253,-0.005753211498167365
1690821938464810000,1.44081005859375,0.21842764686942098,-0.002993519260175526,0.002017801529238932
1690821938474881000,1.450881103515625,0.21917817297577857,0.004960289288498461,-0.0006078822156763635
1690821938484921000,1.460921142578125,0.22007950572967527,0.004456340088043361,0.00026029262071242554
1690821938494962000,1.4709619140625,0.22112755347788332,0.010372925454378127,-0.0012837151010287925
1690821938505002000,1.481001953125,0.22307342684864997,0.015894227892812342,0.0009511929277447052
1690821938515042000,1.4910419921875,0.22726211071014402,0.016696685115806756,-0.0025830204968340692
1690821938525083100,1.501083251953125,0.21409400157928465,0.011474603085964917,-0.003286739186244085
1690821938535123200,1.511123291015625,0.22396832986176013,0.007407353647053241,-0.0012730841091601176
1690821938545163000,1.5211630859375,0.2292021388620138,0.00868352932902053,0.0015199738256051205
1690821938555203000,1.531203125,0.22725275835990905,0.006372074048873037,0.005166397186694666
1690821938565244000,1.541243896484375,0.21199030729830265,-0.0026267865733243523,0.00404254197262926
1690821938575284000,1.551283935546875,0.22141806085705756,-0.0010432985078543424,-0.0020830487851751967
1690821938585324000,1.561323974609375,0.2232160501897335,0.004828096009884029,-0.006106949989416171
1690821938595365000,1.571365234375,0.2146890448629856,-0.0013005612045526504,-0.0019379115433082914
1690821938605405200,1.5814052734375,0.22037878093719482,0.005517667442932725,0.0026088307915255425
1690821938615445000,1.591445068359375,0.21604221303761004,0.004280965254828333,0.008281894292146898
1690821938625485000,1.601485107421875,0.21514906359016894,0.003121712217107415,0.000157359685911797
1690821938635526000,1.61152587890625,0.2274211006641388,0.004068601145781577,-0.0018346909141400828
1690821938645566000,1.62156591796875,0.22517653660774228,0.0030187998319044706,-0.008414471163251436
1690821938655606000,1.63160595703125,0.21620003394782542,0.002623389039840549,0.00014595009261975065
1690821938665677000,1.641677001953125,0.22278759564459322,0.004826579906232655,0.003070566551759839
1690821938675717000,1.651717041015625,0.21815116801559925,0.005136997562274336,-0.005358257363829761
1690821938685758200,1.66175830078125,0.21740356451869008,0.003610865707229823,0.005170347276027314
1690821938695798000,1.671798095703125,0.21486089429855346,0.003866009512078017,0.0072247567718964996
1690821938705838000,1.681838134765625,0.2229413249015808,0.0031052908052690326,0.004574714903859421
1690821938715878000,1.6918779296875,0.2142617593616247,0.004650127360783517,-0.0036550267926533705
1690821938725919000,1.7019189453125,0.221294142216444,0.0024366160297766325,0.0039151458834297955
1690821938735959000,1.711958984375,0.22683131807744503,0.0004779014437459409,0.0022753542035934514
1690821938745999000,1.7219990234375,0.21291735901534556,0.00450162226818502,0.00415446193148382
1690821938756040200,1.732040283203125,0.22294483203291893,0.005883413749095052,0.0002502393008675426
1690821938766080000,1.742080078125,0.21441724218428135,0.004883205464296042,-0.0043603118180646555
1690821938776120000,1.7521201171875,0.22145196312665938,0.0030959201887249947,0.00527836509461049
1690821938786159900,1.762159912109375,0.22459493732750416,0.004705967467557639,0.007205072540603577
1690821938796201000,1.772200927734375,0.21920915263593196,0.010186042846459895,0.006115092196676414
1690821938806241000,1.782240966796875,0.21741291686892508,0.002731032399088144,0.0029417822230723683
1690821938816281000,1.792281005859375,0.20424363869428633,-0.0020095314578153192,0.0009845951571362092
1690821938826322200,1.802322265625,0.21471651739180087,0.0034912396492436525,-0.0017834356509381904
1690821938836362200,1.8123623046875,0.21815935132205486,0.012415263203252105,-0.0013342830943525769
1690821938846402000,1.822402099609375,0.22294892368614672,0.01010041038962081,0.00002225978086935356
1690821938856441900,1.83244189453125,0.21142741271853446,0.003300320187024772,-0.0003266472716350108
1690821938866513000,1.842512939453125,0.2169640040576458,-0.003110295773949474,-0.0004572764975368045
1690821938876554000,1.852553955078125,0.2151683528125286,0.006889649915881454,-0.0006728212276473641
1690821938886594000,1.862593994140625,0.21367197677493094,0.009151329503860325,-0.0028934039035462774
1690821938896634000,1.872634033203125,0.2218991223722696,0.0006180040341801941,0.0010788858444662763
1690821938906674000,1.882673828125,0.22399404882490634,0.0006398688061162829,-0.0012801577373407781
1690821938916715000,1.892715087890625,0.21935762119591234,0.0012728877463378011,-0.003558174255478661
1690821938926755000,1.902755126953125,0.21262626711428165,-0.0009812295896932481,-0.006170619492908008
1690821938936795000,1.912794921875,0.21367489938437936,0.005393456541374325,-0.005405612770048901
1690821938946836000,1.9228359375,0.2136743148624897,-0.0013032646182924508,0.0034535516870906574
1690821938956876000,1.9328759765625,0.22564590768516063,0.003609550532978028,-0.0006148782120435498
1690821938966916000,1.942916015625,0.2248977196663618,0.005403539543971419,-0.0024800624458584932
1690821938976956200,1.9529560546875,0.21487083117067812,0.005174516561068594,-0.007201706973160617
1690821938986997200,1.962997314453125,0.21352350821495056,0.00655349503038451,-0.001214755217777565
1690821938997037000,1.973037109375,0.22145371669232844,0.0046608131515793495,0.00039466415668139234
1690821939007076900,1.983076904296875,0.22504385013878345,0.00860441794451326,-0.001068158954475075
1690821939017118000,1.993117919921875,0.21816285845339298,0.0046212117935530836,-0.0022486305934493428
1690821939027158000,2.003157958984375,0.21202830122113225,0.010850808631815015,0.002886839448730461
1690821939037198000,2.013197998046875,0.21472119356691835,0.009104841747321188,0.004393604449601843
1690821939047238100,2.023238037109375,0.2123269919067621,0.005209058151487261,-0.0008214998501818627
1690821939057279200,2.033279296875,0.21098317608237266,0.00731762953698635,0.004278455920622218
1690821939067349000,2.043348876953125,0.21502456042766568,-0.00009818141115829347,0.0033384716567699795
1690821939077390000,2.05339013671875,0.21367723747193812,0.00395324940411374,-0.0009059678298188373
1690821939087430000,2.063429931640625,0.21382979768514632,0.0069383661621250205,-0.0017053311967174523
1690821939097470000,2.073469970703125,0.20619886441528795,0.002098999839555472,0.00197495790135581
1690821939107511000,2.083510986328125,0.21068974609375,0.0016919899412430823,0.004802705840300768
1690821939117551000,2.093551025390625,0.21967150945067404,-0.0011851363976486027,-0.001274995221744757
1690821939127591000,2.1035908203125,0.21518238133788106,-0.000014192922133952378,0.005931604838953353
1690821939137631000,2.113630859375,0.214583830922842,-0.0007545812269672751,0.010258080602786502
1690821939147672000,2.123672119140625,0.21353695221841335,0.0028202267861925064,0.009008210689143743
1690821939157712000,2.1337119140625,0.2106932532250881,0.006155654819216579,0.0016521077387151308
1690821939167752000,2.143751953125,0.21204174522459507,0.006199256498925387,0.0028883235863409935
1690821939177793000,2.15379296875,0.21802783389687536,0.005704860578104853,0.0051543322895653545
1690821939187833000,2.1638330078125,0.21428689380288124,0.002728201121184975,0.004945740173337981
1690821939197873200,2.173873046875,0.20246610762774944,0.004772548164054751,0.0018285808337619527
1690821939207913000,2.183912841796875,0.20097090063393114,-0.00023373569063842294,0.005673540707945358
1690821939217954000,2.1939541015625,0.2045627876460552,-0.003136179133877158,-0.0030569033525884148
1690821939227993900,2.203993896484375,0.20875205602943897,0.0006616057138890027,0.002566238325391896
1690821939238034000,2.214033935546875,0.20710545786619186,-0.002755436187982559,-0.006499924512510188
1690821939248075000,2.224074951171875,0.20621055485308168,0.0002098250920884311,-0.004248706953041255
1690821939258115000,2.234114990234375,0.2171340999275446,0.0012495251370593906,0.0024944517308147624
1690821939268186000,2.24418603515625,0.215189980122447,0.009271320888027549,-0.004025188979029189
1690821939278226000,2.254225830078125,0.21773265034258366,0.0055873716782778495,0.011133390716149005
1690821939288266000,2.264265869140625,0.2144400385379791,0.007985975518915802,0.011546551794034894
1690821939298306000,2.27430615234375,0.21787994985878467,0.0039043322284705935,0.001688243064598646
1690821939308347000,2.284346923828125,0.21249182707965372,0.002622347860224545,-0.0007846841042861342
1690821939318387000,2.294386962890625,0.20396131462156772,0.007365048875287175,0.00035765204796334724
1690821939328427000,2.304427001953125,0.21548341011106967,0.007657090624421835,-0.004455196160438936
1690821939338468000,2.314468017578125,0.2123404359102249,0.0064829505448229605,-0.00456083935884526
1690821939348508200,2.324508056640625,0.22341478763222694,0.004156462092325091,0.006095490163774229
1690821939358548000,2.3345478515625,0.21593407648801802,0.001388294286932796,-0.00035878227583598343
1690821939368588000,2.344588134765625,0.21369009695351124,0.0022560900974087418,-0.010392536620434838
1690821939378628900,2.35462890625,0.21369243504106997,0.004043284041434526,-0.0027249314518645405
1690821939388669000,2.3646689453125,0.21294366250038146,-0.0018851561594754457,0.0023691562671563585
1690821939398709000,2.374708984375,0.20201836386024952,-0.0025614662521518767,-0.0020089606356574223
1690821939408757200,2.38475732421875,0.2165320423811674,0.006954385715164243,0.0033932546009076757
1690821939418797300,2.39479736328125,0.2153343570291996,0.004914404320158064,-0.004749254053435288
1690821939428837000,2.404837158203125,0.2115945859789848,0.0024662987819872796,-0.004825369763257913
1690821939438877200,2.414877197265625,0.20441139647662637,0.008199344274960458,-0.0017670736046042292
1690821939448918000,2.42491796875,0.21204349879026413,0.005633822902198881,-0.004145712369447573
1690821939458989000,2.434989013671875,0.2220686337202787,0.00522208202984184,-0.0030639153319760226
1690821939469029000,2.445029052734375,0.2168283949792385,-0.0019355894387699663,-0.002494061288458761
1690821939479069200,2.455069091796875,0.20635142462849615,-0.0002918956186622381,0.002526575318572577
1690821939489109000,2.46510888671875,0.21084055274128913,-0.0012036949676461517,0.004856646250933409
1690821939499150000,2.475150146484375,0.20470599550902843,0.0004221344022080302,0.0009835083117475732
1690821939509190100,2.485190185546875,0.21248715090453624,-0.0007550744173116981,-0.0033018408572534096
1690821939519230200,2.495230224609375,0.2087462108105421,0.003742145670391619,0.0006247443022206425
1690821939529270300,2.505270263671875,0.2065022312760353,0.0019029840771108864,0.0030541040407260876
1690821939539311000,2.51531103515625,0.208449858212471,0.01676622495437041,-0.0058097103337117
1690821939549351200,2.52535107421875,0.20575813491046427,0.012460709780175237,-0.002836475809739204
1690821939559391000,2.535390869140625,0.21787936533689498,0.0011760397757403552,-0.004807345482800156
1690821939569432000,2.54543212890625,0.21039514706134796,0.004315159785374998,0.004779900353448465
1690821939579472100,2.55547216796875,0.21204116070270537,0.005352996666822582,-0.00265421343636699
1690821939589512200,2.56551220703125,0.21308803940713406,-0.001921944505907595,-0.0058678691200911995
1690821939599552300,2.57555224609375,0.2003682585656643,0.0029212394752539694,0.0024715126715775114
1690821939609593000,2.585593017578125,0.2033615951627493,0.009480524925608188,-0.0013680198255286086
1690821939619633200,2.595633056640625,0.21368834338784218,0.002662186680268496,0.0014716697129595559
1690821939629673200,2.605673095703125,0.21054770727455616,0.0025458850905299185,0.002689091811858816
1690821939639714300,2.61571435546875,0.20321488016843794,0.01186232376191765,-0.004793158268887782
1690821939649754000,2.625754150390625,0.20889994006752965,0.004890110129117965,-0.0025879843663191423
1690821939659825200,2.6358251953125,0.20351123276650904,0.009491703906748443,-0.000653464648273075
1690821939669865200,2.645865234375,0.2002192054837942,0.005761193875223398,0.001295273108081892
1690821939679905300,2.6559052734375,0.21428572475910185,0.00889139992604032,-0.0006737037187034729
1690821939689946000,2.665946044921875,0.20022037452757357,0.004507741481717675,-0.009154622006067075
1690821939699986200,2.675986083984375,0.21548399463295936,0.007157981995865702,-0.007229353031911887
1690821939710026000,2.68602587890625,0.21997312274575231,0.01073364852555096,-0.0037088324892567467
1690821939720066000,2.696066162109375,0.2118921076208353,0.0027156339005567133,0.0008761754797538742
1690821939730107100,2.706107177734375,0.20874854889810085,0.0038455877785570918,0.004012549834809033
1690821939740147200,2.716147216796875,0.20949673691689966,0.0005426372430287302,0.002207364718010649
1690821939750187300,2.726187255859375,0.20605565655231475,0.0009607165246270596,0.0023395796878670806
1690821939760228000,2.73622802734375,0.20799919183552265,0.00792628122093156,0.002425806941394694
1690821939770268200,2.74626806640625,0.20784838518798351,0.003517579666897654,0.008200157125713304
1690821939780308200,2.75630810546875,0.2050064397603273,0.004084821628220379,0.005248827331227949
1690821939790348000,2.76634814453125,0.19677520250976085,0.00011547960583120584,0.006428899394691688
1690821939800389000,2.77638916015625,0.20590251181721686,0.007019614704791456,-0.00031675149870570747
1690821939810429200,2.78642919921875,0.20979250499308108,0.008565437640994787,-0.0013808701739471871
1690821939820469200,2.79646923828125,0.2088940948486328,0.003956482540816068,0.0009152379816630855
1690821939830510000,2.806510009765625,0.21921967402994633,0.008412987025640905,0.0016292988269298802
1690821939840550100,2.816550048828125,0.20904373245239258,0.010958470257371664,0.004544301499286666
1690821939850621200,2.82662109375,0.19737316840291022,0.009399586910195648,-0.0030131966416025533
1690821939860661000,2.836660888671875,0.20156419035196302,0.004103361931908875,0.004320967330009444
1690821939870701000,2.846701171875,0.2042582517415285,0.003466707996185869,0.004752481481916038
1690821939880741000,2.8567412109375,0.2103933934956789,-0.009251830736268311,0.008381595231889513
1690821939890782200,2.8667822265625,0.2129378172814846,0.006408990259468555,0.009176824704720638
1690821939900822300,2.876822265625,0.20470950264036655,0.013490692148730159,0.011779865076276473
1690821939910862000,2.886862060546875,0.20800152992308138,-0.00042176907602697606,-0.0028286977870156985
1690821939920903200,2.896903076171875,0.21069617583453654,0.007142017241753638,-0.006284710859251208
1690821939930943200,2.906943115234375,0.21458616901040076,0.000305558817833662,0.0020285729433584493
1690821939940983000,2.916983154296875,0.2148854442179203,0.007478117328323423,0.009363552049011924
1690821939951023000,2.927023193359375,0.20904899314939976,0.006477379320561885,0.01242615791495773
1690821939961064200,2.937064208984375,0.21263971111774443,0.0035174335364252327,0.006877515378448879
1690821939971104300,2.947104248046875,0.21188918501138687,0.0006462437479756772,0.0010966669546847697
1690821939981144000,2.95714404296875,0.21084055274128913,0.007439246622659265,0.00417328079638537
1690821939991185200,2.96718505859375,0.19767127456665037,0.006168368170317262,0.001210972950159339
1690821940001225200,2.97722509765625,0.1961760675728321,0.004005417982768267,-0.005532765689009102
1690821940011265000,2.98726513671875,0.2087467953324318,0.002263250490557402,-0.003746543284296058
1690821940021305000,2.99730517578125,0.2082972979992628,0.008300923219602555,-0.0030008303503738713
1690821940031346200,3.00734619140625,0.2144324397534132,-0.00592654050476849,0.004870807207026519
1690821940041386200,3.01738623046875,0.20979367403686044,0.0030613968646153807,0.005425261610368034
1690821940051457300,3.027457275390625,0.2027595376163721,0.008821914886403829,0.0022798945230373645
1690821940061497000,3.0374970703125,0.2126362039864063,0.007111804766580462,-0.006992055411008186
1690821940071537000,3.047536865234375,0.2111421660363674,0.004468742911890149,-0.0022639366187911943
1690821940081578200,3.057578125,0.20246435406208038,0.003951039180718362,0.0027663719988835506
1690821940091618000,3.0676181640625,0.20979718116819857,0.007199209055397659,0.001456359121040441
1690821940101658000,3.077658203125,0.21009704089760778,0.0007070522908121347,0.008388140278751961
1690821940111698200,3.0876982421875,0.20590718799233435,0.0017844357313588262,0.009570019565167603
1690821940121739300,3.0977392578125,0.20605682559609412,0.009396061512548477,0.005694197620195337
1690821940131779000,3.107779052734375,0.20471067168414592,0.004583016941323876,0.0056385527345992155
1690821940141819100,3.117819091796875,0.19932313342690466,0.002805211880151182,0.0018383852751459925
1690821940151860200,3.127860107421875,0.20725275738239288,0.0033031514649279415,-0.001972825309773907
1690821940161900000,3.137900146484375,0.20650398484170435,0.002450498424656689,0.00449588664714247
1690821940171940000,3.147940185546875,0.20021979000568388,-0.0023651216961443422,-0.00004332882671733387
1690821940181980200,3.157980224609375,0.204410227432847,0.007177490413933992,0.001734814161172835
1690821940192021200,3.168021240234375,0.20036942760944365,0.003585457271337509,-0.0013480992738623171
1690821940202061000,3.17806103515625,0.20815116752684115,0.0046126083619892596,-0.004322695779503556
1690821940212101000,3.18810107421875,0.21084405987262725,-0.0003096322047524154,0.002863283901562681
1690821940222142200,3.19814208984375,0.20695231313109397,0.006928082230128347,0.0007215420404681935
1690821940232182000,3.20818212890625,0.20755027902424333,0.003071498133521527,-0.0019344797604950144
1690821940242253000,3.218253173828125,0.19812486355304718,0.0050625258202664555,-0.0015774784497916698
1690821940252293000,3.228293212890625,0.20396073009967802,-0.002551255385391414,-0.0033557047777168915
1690821940262333200,3.238333251953125,0.20755144806802273,0.0028651071075350043,-0.004142456399858929
1690821940272374300,3.248374267578125,0.20949615239501,0.009342504694405942,-0.00044738300789613273
1690821940282414000,3.2584140625,0.1979746414273977,0.005587316879350691,-0.004242542073735967
1690821940292454100,3.2684541015625,0.2050064397603273,0.006279463861975819,0.0003986564868537243
1690821940302494000,3.278493896484375,0.21308803940713406,0.009506499617081134,0.005856460668443469
1690821940312535000,3.28853515625,0.20156594391763208,-0.0014368826690129934,-0.004833708333340473
1690821940322575000,3.2985751953125,0.20575579682290554,0.0021660919927060603,-0.00021215861306991428
1690821940332615200,3.308615234375,0.2056049901753664,0.005987787439022213,0.0014294836722023318
1690821940342656300,3.31865625,0.20455752694904802,0.004777772328443825,-0.004683819567831233
1690821940352696000,3.328696044921875,0.20426058982908724,0.0040633587150834495,0.0002555079893849324
1690821940362736000,3.338736083984375,0.21383915003538131,0.0005292663048021495,-0.0038782308144785925
1690821940372776000,3.34877587890625,0.21129589529335496,0.000022394494898617265,0.0051252705918624995
1690821940382817000,3.358817138671875,0.203813430583477,0.007229695525206625,0.004045475998520851
1690821940392857000,3.368857177734375,0.2065063229292631,0.008327007508929818,0.003472401376388734
1690821940402897200,3.378897216796875,0.20785423040688036,0.0037599370554089544,0.002007197936833836
1690821940412942800,3.38894287109375,0.20830431226193905,0.0054814636183902615,-0.00029971359893679616
1690821940422984000,3.39898388671875,0.2048638164192438,0.0025441315248608586,-0.0054849798828829075
1690821940433024000,3.40902392578125,0.19902794987261294,0.0019518099212087689,-0.0025756135085131973
1690821940443095000,3.419094970703125,0.20456512573361396,0.000905570537596941,0.002316545872151619
1690821940453134800,3.429134765625,0.2017220112621784,-0.0007499415844678879,0.003995461702690227
1690821940463175000,3.4391748046875,0.2101017170727253,-0.002127988472022116,0.0018530896539334207
1690821940473215700,3.4492158203125,0.20546412039995193,0.001545183615386486,-0.0014089808819349855
1690821940483255800,3.459255859375,0.20366846915483475,0.008132014659792184,-0.003321362975053489
1690821940493295900,3.4692958984375,0.20830723487138747,0.004257748776022345,0.00603030113169807
1690821940503337000,3.4793369140625,0.20770985350012777,-0.0023910781213082374,0.0029807682348124216
1690821940513377000,3.489376953125,0.20232231524288652,0.0024172537421807646,-0.0008118050066521391
1690821940523417000,3.4994169921875,0.21175065332353113,0.0031144239597953854,0.003070067653193837
1690821940533457000,3.509456787109375,0.20666297479569912,0.0014440978610888123,0.000745854497817345
1690821940543497700,3.519497802734375,0.20501696115434168,0.004612864090315997,-0.007421771473117405
1690821940553537800,3.529537841796875,0.19783377165198324,0.004803838351462036,-0.005317561168904649
1690821940563577900,3.539577880859375,0.2051642606705427,0.008633278712816536,-0.0017524422910530119
1690821940573619000,3.549618896484375,0.20845687247514724,0.009651625442504882,-0.003809625982609577
1690821940583659000,3.559658935546875,0.20726094068884848,-0.0005842296287417412,-0.009173784505907678
1690821940593699000,3.569698974609375,0.20292203470170497,0.0061114686176180835,-0.0005970571442740038
1690821940603739000,3.57973876953125,0.20052724851965903,0.01362909597242251,0.0052019331493123894
1690821940613779700,3.58977978515625,0.2024719528466463,0.003169076756481081,0.006092955713393166
1690821940623819800,3.59981982421875,0.20546353587806224,-0.001403948513790965,0.0019740537190577013
1690821940633890800,3.609890869140625,0.20591303321123122,0.0014119308908469973,0.0006723691364983096
1690821940643931000,3.619930908203125,0.2017220112621784,0.007005202586948871,-0.005810051685362122
1690821940653971000,3.629970947265625,0.1942407155960798,0.007742485619243234,0.004783630105428164
1690821940664012000,3.640011962890625,0.20740707116127013,0.005898501720372587,0.00010130380836199037
1690821940674052000,3.650052001953125,0.2048638164192438,0.003315481223538518,0.005287877275049686
1690821940684092000,3.660091796875,0.20336685585975645,0.0024459501137025653,0.015722191227576694
1690821940694132000,3.670132080078125,0.1969341924637556,0.007289554219972342,0.006145401711616432
1690821940704172800,3.6801728515625,0.19708324554562567,0.005835556019376963,0.004465796327911084
1690821940714212900,3.690212890625,0.19932780960202215,0.0025093890050426125,0.003351954476139508
1690821940724253000,3.7002529296875,0.20965338878333567,0.00040949411634355783,0.0004241882203321438
1690821940734294000,3.7102939453125,0.20995091042518615,0.005137856078799814,0.01297778789026197
1690821940744334000,3.720333984375,0.20426526600420475,0.0037444654916413125,0.003782911505619995
1690821940754374000,3.730373779296875,0.2066588831424713,-0.004762319030985236,-0.003317116058198735
1690821940764414000,3.7404140625,0.2009732387214899,-0.0016746369476430118,0.004350358962919563
1690821940774454800,3.750454833984375,0.19438976867794988,0.0017283581625670195,0.001981935631413944
1690821940784494800,3.760494873046875,0.2048638164192438,0.008783062447048724,0.0035456412841798736
1690821940794535000,3.770534912109375,0.20396482175290584,0.0032991876758635044,0.004900389494537375
1690821940804576000,3.780575927734375,0.2071077959537506,-0.002854914507083595,0.0028849580188980324
1690821940814616000,3.790615966796875,0.20561141991615295,0.0004335325790569186,0.006957769548916258
1690821940824687000,3.80068701171875,0.20411562840044498,0.006704484341014176,0.0031661301725020167
1690821940834727000,3.810726806640625,0.20351707798540591,0.0019137246668338775,-0.0030880805172084362
1690821940844767000,3.82076708984375,0.21383915003538131,0.006264229760225862,0.0010333068368025124
1690821940854807800,3.830807861328125,0.21174188549518583,0.010735657819546758,0.005247571522480575
1690821940864848000,3.840847900390625,0.20515783092975615,0.00878770208954811,0.0024451441128156147
1690821940874888000,3.850887939453125,0.20770167019367217,0.005328574611619115,-0.001489384607807733
1690821940884928000,3.860927978515625,0.19333821379840374,0.0056689855471253395,0.0014621746571850962
1690821940894969000,3.870968994140625,0.20680559813678262,0.00912612199736759,-0.0035944648449891246
1690821940905009000,3.8810087890625,0.19977321528196335,0.002045552619267255,0.0037155841737403533
1690821940915049000,3.891049072265625,0.20500877784788607,0.010520699894614518,-0.0008613158373394981
1690821940925088800,3.9010888671875,0.21114625768959522,0.007862531802337615,0.0006834225367638282
1690821940935129900,3.9111298828125,0.20545944422483442,0.005915982578136026,-0.0022564508570125327
1690821940945170000,3.921169921875,0.20231705454587937,0.00010000804206356405,-0.00006666061159921809
1690821940955210000,3.9312099609375,0.1970779848486185,0.0055665846185758705,0.004315141519065946
1690821940965251000,3.9412509765625,0.20186405008137226,0.0001473543151281774,0.004086753290402703
1690821940975291000,3.951290771484375,0.1985726073205471,0.001631711121369153,0.0076248528722324405
1690821940985331000,3.9613310546875,0.20605156489908694,0.007906188280973583,-0.0020529459078563374
1690821940995370800,3.971370849609375,0.1982721630692482,0.006933909182716161,-0.00547109520471422
1690821941005411800,3.981411865234375,0.19991934575438497,-0.003040390609204769,0.005899026876757852
1690821941015452000,3.991451904296875,0.19872282944619654,0.0023076924204826353,0.0041560145677533
1690821941025523000,4.00152294921875,0.2033604261189699,0.008807922893669455,0.014561006527673451
1690821941035563000,4.01156298828125,0.1939320880383253,0.009329480816051363,0.0039319919869536535
1690821941045602800,4.021602783203125,0.20246026240885256,0.009243921424448489,-0.0015683726947288959
1690821941055644000,4.031643798828125,0.202610484534502,0.0026329240531660614,-0.0020398923467495477
1690821941065684000,4.04168408203125,0.2066506998360157,0.005332739330083131,0.0007806358335423283
1690821941075723800,4.051723876953125,0.19767302813231943,0.006190561735816299,-0.008993762038683052
1690821941085764900,4.061764892578125,0.2015653593957424,0.003527333875931799,-0.007612374699860811
1690821941095805000,4.071804931640625,0.19752689765989778,-0.0033194084799848494,-0.007491296470304951
1690821941105845000,4.081844970703125,0.20426117435097693,0.007414422708656638,-0.004335277841507923
1690821941115884800,4.091884765625,0.21114333508014677,0.011526570735219866,-0.0005968447984312661
1690821941125926000,4.10192578125,0.20111820015013215,0.008779847576655448,-0.0008677410115487873
1690821941135966000,4.111966064453125,0.2002192054837942,0.01229950960278511,0.000036240357160568236
1690821941146005800,4.122005859375,0.20246435406208038,-0.0017827552309259771,0.0016534914116258731
1690821941156046800,4.132046875,0.2057563813447952,0.001202690320648253,0.0013891916193650104
1690821941166087000,4.1420869140625,0.1993219643831253,0.007948785313684493,0.0016889828501152806
1690821941176127000,4.152126953125,0.20889760197997093,0.0015515402909368275,-0.008037751371925696
1690821941186167000,4.1621669921875,0.20201602577269076,0.011488668143935501,0.0046718049030518155
1690821941196208000,4.1722080078125,0.1981277861624956,0.008021850549895316,0.0027247807548148556
1690821941206247700,4.18224755859375,0.20276888996660708,0.007591478042304515,0.002210152613429818
1690821941216318700,4.192318603515625,0.21369418860673903,0.011373115472868085,-0.007110811536025721
1690821941226358800,4.20235888671875,0.19139818564653396,0.00568944381326437,-0.006979198212723713
1690821941236398800,4.21239892578125,0.19977555336952207,0.0031122320027090608,-0.009775187890091911
1690821941246440000,4.22243994140625,0.20516250710487363,0.003437153108138591,-0.0017256022331886924
1690821941256480000,4.23247998046875,0.206209970331192,0.0049185325060039755,0.0008016626385506242
1690821941266519800,4.242519775390625,0.20112346084713933,0.0051609629597514865,-0.006191632598184515
1690821941276560000,4.252559814453125,0.20291911209225652,0.0004914733113721013,-0.0004305551706813276
1690821941286600700,4.2626005859375,0.20217033955156802,0.010559643665514885,-0.002383639166946523
1690821941296640800,4.272640869140625,0.20650924553871153,0.006544599337875843,-0.0014790595766156912
1690821941306680800,4.282680908203125,0.19872750562131403,-0.002845964015647769,-0.00025111608370207247
1690821941316722000,4.292721923828125,0.19468787484169006,0.0016298296915367245,0.002230330035067163
1690821941326762000,4.302761962890625,0.19947744720578192,-0.0030726671773009,-0.00021394414477981627
1690821941336802000,4.312802001953125,0.20292145017981528,0.000996317560970783,-0.0003713928789482452
1690821941346841900,4.322841796875,0.2002279733121395,0.005634571820870042,-0.005650719238072633
1690821941356882700,4.332882568359375,0.1949906571805477,0.007882113285642117,-0.0008035143856308422
1690821941366922800,4.3429228515625,0.19558979211747646,0.0033474837969988585,-0.0011036321266554296
1690821941376962800,4.352962890625,0.20471768594682216,0.003935878144204616,0.003942609279090539
1690821941387004000,4.36300390625,0.2084586260408163,0.005579809426330029,0.0034199485282995737
1690821941397044000,4.3730439453125,0.1987327663183212,0.005823737717419862,0.002706783873820677
1690821941407090400,4.38309033203125,0.1994832924246788,0.008073726867605,-0.000011105915904045104
1690821941417130500,4.393130615234375,0.1976876411795616,0.002375076834578067,-0.00436100822109729
1690821941427170300,4.40317041015625,0.2021761847704649,0.008425645577814429,0.002794532939221244
1690821941437210400,4.41321044921875,0.20935820522904394,0.008469338589068502,0.013353101175790652
1690821941447251200,4.423251220703125,0.20008184283971786,0.000471252507250756,-0.0025453256848151796
1690821941457291300,4.433291259765625,0.20127894366979598,-0.0010541486954316495,0.00591394588467665
1690821941467331300,4.443331298828125,0.21265140155553816,0.0032841910361312327,-0.0009846271231770515
1690821941477372400,4.453372314453125,0.19649287843704222,-0.00013056757710874079,-0.005132510900113266
1690821941487412500,4.46341259765625,0.20292904896438121,0.006323430867865681,-0.0047800464839208865
1690821941497452500,4.47345263671875,0.21130875477492808,0.005287621546722948,-0.00564043530607596
1690821941507492400,4.483492431640625,0.2006850694298744,0.00913436010275036,-0.004683890349778812
1690821941517533200,4.493533203125,0.2011351512849331,0.002323711973521858,0.0014768721861066296
1690821941527573200,4.5035732421875,0.21011340751051902,0.001725782612990588,-0.001735934114246629
1690821941537613300,4.51361328125,0.19904080935418605,0.01082012123260647,0.001113582698511891
1690821941547654400,4.523654296875,0.19649755461215973,0.0034646621695719657,0.00403651865721913
1690821941557694500,4.533694580078125,0.1966460231721401,0.002339932455960661,-0.003703126550966408
1690821941567734500,4.543734619140625,0.20203297690749167,0.002754888198710978,-0.0036975347771076483
1690821941577774300,4.5537744140625,0.2024807206749916,-0.00272580823469907,0.007877578674419782
1690821941587815200,4.563815185546875,0.20427754096388814,0.002458188540767878,-0.00035869779415661465
1690821941597886200,4.57388623046875,0.20038754778802392,0.004075049152877181,-0.003951836048450786
1690821941607926300,4.58392626953125,0.2011345667630434,0.00203134143082425,-0.003902318367897533
1690821941617966300,4.59396630859375,0.20786825893223285,0.0021833353884518143,0.0014569984418572857
1690821941628006400,4.60400634765625,0.21175942115187643,0.008601878927554934,-0.0014617202827474102
1690821941638047500,4.614047607421875,0.20292963348627088,0.0034381577551364896,-0.006755221297696698
1690821941648087600,4.624087646484375,0.20008651901483535,-0.001381663616746664,-0.0012744266828754916
1690821941658127400,4.63412744140625,0.20622107624709604,0.002543875796534121,-0.002988879617676139
1690821941668168200,4.644168212890625,0.19754092618525027,-0.0066591108293272555,-0.002654772842081729
1690821941678208300,4.654208251953125,0.19724106645584105,0.0044289954233914615,0.0021171017518267035
1690821941688248300,4.664248291015625,0.20517127493321893,0.004633267557527869,0.005283701140142511
1690821941698288400,4.674288330078125,0.21444763732254504,0.009025766895432025,0.002019253700808622
1690821941708329500,4.68432958984375,0.201426243185997,0.0036591800946742296,-0.00519501135982573
1690821941718369500,4.69436962890625,0.20307050326168535,0.0008061287511140108,0.0020346773155150003
1690821941728409300,4.704409423828125,0.2045680483430624,0.011192242480628192,-0.005100912468740716
1690821941738449400,4.714449462890625,0.2075608004182577,0.009579674451146275,-0.000728426155692432
1690821941748490200,4.724490234375,0.20277122805416584,0.004560238853935152,-0.001605478418280836
1690821941758530300,4.7345302734375,0.20531448279619216,0.0012974376657046377,0.003319766956300009
1690821941768570400,4.7445703125,0.20321955634355543,0.0005469846245832741,-0.0021223464658134614
1690821941778611500,4.754611572265625,0.2042670195698738,0.006827617530338466,-0.004668222423188853
1690821941788681200,4.76468115234375,0.19783377165198324,0.0033247970411553977,0.002712403047143016
1690821941798722600,4.77472265625,0.19753332740068436,0.00459114544885233,0.0017633586940006352
1690821941808762400,4.784762451171875,0.19513737217485905,-0.0006874342748895287,0.0036202660065260714
1690821941818802400,4.794802490234375,0.20426526600420475,-0.004271649437211453,-0.006730417933291755
1690821941828843300,4.80484326171875,0.20291794304847716,0.0032490649238228796,-0.008733165740582626
1690821941838883300,4.81488330078125,0.19573475354611872,0.0058235367880202825,0.003614461886824574
1690821941848923400,4.82492333984375,0.19842589232623575,0.009523067159391939,0.003545988344051875
1690821941858963500,4.83496337890625,0.19887480513751504,0.0068619033924303945,0.000022629673627670852
1690821941869004500,4.845004638671875,0.20470891811847686,0.005907324347645044,-0.005179347999813035
1690821941879044400,4.85504443359375,0.20351240181028843,-0.003986768081225454,-0.005239759250427596
1690821941889084400,4.86508447265625,0.19632979682981966,-0.00696854210468009,-0.005790604916086886
1690821941899125200,4.875125244140625,0.20785013875365255,0.006005487492494284,0.0016810666884295642
1690821941909165300,4.885165283203125,0.19617723661661146,0.01357360292552039,0.0008900944072520359
1690821941919205400,4.895205322265625,0.21024375589191913,0.009504855649266392,0.005473353377170861
1690821941929245400,4.905245361328125,0.20246260049641132,0.0002357997835613787,0.0009974112562253139
1690821941939286500,4.91528662109375,0.19692425559163093,0.004380808900110424,0.004503279935731552
1690821941949326300,4.925326416015625,0.2050064397603273,0.0035475546800531445,-0.010536342705029528
1690821941959366400,4.935366455078125,0.19168869302570818,0.007273589465860277,-0.01056425134197343
1690821941969407200,4.9454072265625,0.20006898335814474,0.007681786674261093,0.0044349000077927485
1690821941979447300,4.955447265625,0.20904899314939976,0.004440612795948982,0.0023502346542663873
1690821941989518300,4.965518310546875,0.20366262393593787,-0.00009454641565680504,0.0017720603069756179
1690821941999558400,4.975558349609375,0.2029167740046978,-0.006224372673872858,0.0014181734019657595
1690821942009598500,4.985598388671875,0.1952870097786188,0.004768785304389894,-0.0004769127797684632
1690821942019638300,4.99563818359375,0.19244447982907295,0.003949413479212671,-0.004655164295504801
1690821942029679400,5.005679443359375,0.206209970331192,0.0038767683681100603,0.0005197198750334791
1690821942039719400,5.015719482421875,0.20456512573361396,0.002017988758906722,-0.0006707913840538821
1690821942049759500,5.025759521484375,0.2042664350479841,-0.0002468691668473184,-0.0035850805287132967
1690821942059800300,5.03580029296875,0.20157354270219802,0.009883333572838455,-0.0012762670135125517
1690821942069840400,5.04584033203125,0.20112287632524967,0.010590038803778588,0.000364179970161058
1690821942079880400,5.05588037109375,0.20501520758867262,0.011834504173230379,0.0025871737988549283
1690821942089920300,5.065920166015625,0.20366846915483475,0.008811320427153258,-0.0034370435102842748
1690821942099961300,5.07596142578125,0.20037468830645083,0.0018939787867479024,-0.004761423981841653
1690821942110001400,5.08600146484375,0.1933399673640728,0.00637419294072315,-0.0008951792910345829
1690821942120041500,5.09604150390625,0.19827683924436568,0.009000906448811291,-0.004493822554219514
1690821942130082300,5.106082275390625,0.1997743843257427,0.002967325372993946,0.0012952388587524183
1690821942140122400,5.116122314453125,0.20800386801064014,0.004032159859221429,0.002342832232522778
1690821942150162400,5.126162353515625,0.2059095260798931,0.007449238293711096,-0.0016386112196138127
1690821942160202500,5.136202392578125,0.20486264737546442,0.004735723285004496,-0.002237679941172246
1690821942170243600,5.14624365234375,0.20157178913652896,0.0000036167291924357413,0.0031812284185783937
1690821942180314400,5.156314453125,0.19828209994137286,-0.002066339678969234,-0.005251967994740698
1690821942190354400,5.1663544921875,0.19588556019365785,-0.004497548881266266,-0.0018900286974152549
1690821942200394500,5.17639453125,0.19438801511228082,0.004420994780026376,-0.005985821527510415
1690821942210434600,5.1864345703125,0.196633163690567,-0.0008642886791378259,-0.0036066872890340163
1690821942220475400,5.196475341796875,0.20411562840044498,0.003289086406957358,-0.004480839775060304
1690821942230515500,5.206515380859375,0.21040040775835514,0.00437633365439251,-0.00006226756427204236
1690821942240555300,5.21655517578125,0.20575988847613333,0.0029766046579927205,-0.0046447433661902324
1690821942250595300,5.22659521484375,0.20486089380979536,0.010973192902468145,-0.006428711023379582
1690821942260636400,5.236636474609375,0.207403564029932,0.008478416944667697,-0.0019097974103875457
1690821942270676500,5.246676513671875,0.20471008716225622,0.005174991485103964,-0.005997550781210884
1690821942280716500,5.256716552734375,0.20650515388548374,0.006859419174399226,0.006370099004206713
1690821942290757400,5.26675732421875,0.20471067168414592,0.004692779192421585,0.003294659914507065
1690821942300797400,5.27679736328125,0.2011211227595806,0.004119180555548519,-0.004975569056021049
1690821942310837200,5.286837158203125,0.20276538283526896,0.0031587014929391442,-0.00638227121590171
1690821942320877300,5.296877197265625,0.20620763224363325,0.0038958383947610854,-0.005260329397709574
1690821942330918400,5.30691845703125,0.20516250710487363,0.006304433906450867,-0.0071703277374967
1690821942340958500,5.31695849609375,0.1985807906270027,0.010499072584696113,0.002257889328850433
1690821942350998500,5.32699853515625,0.206062670814991,0.007050594364944845,-0.0016702804329339414
1690821942361039400,5.337039306640625,0.20082535468339918,0.0028599560083821416,-0.0077963027322897685
1690821942371109400,5.347109375,0.20112404536902903,0.0073765566499903795,-0.004944534596940503
1690821942381150500,5.357150390625,0.20306991873979569,0.00795923364246264,-0.0009201447689323685
1690821942391190300,5.367190185546875,0.2054652894437313,0.005949921380355954,0.004802173834049608
1690821942401230300,5.377230224609375,0.2071118876069784,0.0051315542021766304,0.007008764517214149
1690821942411263000,5.387262939453125,0.19843466015458106,0.011486859779339283,-0.003540515301201958
1690821942421303000,5.397302978515625,0.20412088909745216,0.0084936327801086,0.007359635197941679
1690821942431343000,5.407343017578125,0.206366622197628,0.009467756775580346,0.0004556096968357451
1690821942441383200,5.417383056640625,0.18811025001704693,0.002319949113857001,-0.009242206674686167
1690821942451424000,5.427424072265625,0.2017261029154062,0.0029581556858494875,-0.004250853244354948
1690821942461463800,5.4374638671875,0.20217384668290614,0.004664502946007997,-0.0019550110918702557
1690821942471504000,5.44750390625,0.19873101275265215,0.010757486058864741,0.0035293774192570707
1690821942481545000,5.457544921875,0.19843115302324293,0.0023854520981200036,0.001573779522208497
1690821942491585000,5.4675849609375,0.19828209994137286,0.006283464183658361,-0.008831255820195656
1690821942501625000,5.477625,0.20366905367672442,0.0041853776595555245,-0.011791868324612733
1690821942511665200,5.4876650390625,0.19214871175289153,0.004675645394530147,-0.0026176534187979995
1690821942521706000,5.4977060546875,0.20367139176428317,0.00027362930960953235,-0.002399928148044273
1690821942531745800,5.507745849609375,0.20217443120479583,0.0006146795659326017,-0.001848774238419719
1690821942541785900,5.517785888671875,0.2045680483430624,0.0013916735541075467,-0.0014224477182840927
1690821942551827000,5.527826904296875,0.21130115599036214,0.002793612773902714,0.002507692521589342
1690821942561897000,5.53789697265625,0.2027723970979452,-0.00606034121857956,0.007645690164284315
1690821942571938000,5.54793798828125,0.20306991873979569,-0.0029623934695497153,-0.0007193569332477637
1690821942581978000,5.55797802734375,0.19768238048255443,0.007102306285873055,0.00035670676646986976
1690821942592018200,5.56801806640625,0.2029202811360359,0.007358820063900202,-0.007529171662125736
1690821942602058000,5.57805810546875,0.205613173481822,0.004875131755694747,-0.0027389188780216497
1690821942612098800,5.588098876953125,0.2081575972676277,0.0031950149153359233,-0.007328132664691656
1690821942622139000,5.598138916015625,0.2023199771553278,0.009120422908943146,-0.00529998783795163
1690821942632179000,5.608178955078125,0.19663257916867732,0.00800446102367714,0.0009915043885353953
1690821942642220000,5.618219970703125,0.20411387483477592,0.013581804498285055,0.00114252109862864
1690821942652260000,5.628260009765625,0.20874971794188021,0.002072751153446734,-0.0010967639944516122
1690821942662300200,5.638300048828125,0.2021662478983402,-0.0017066943200305103,0.0030528253990923983
1690821942672340000,5.648340087890625,0.20411387483477592,0.010000219684466719,0.006113256432616617
1690821942682380800,5.658380859375,0.20171967317461967,0.0038649865987710652,-0.001363815149513539
1690821942692420900,5.6684208984375,0.19842647684812545,0.0010779314298182726,0.005049844435206614
1690821942702461000,5.6784609375,0.19438450798094273,0.0076150781136006115,0.004865911836200393
1690821942712502000,5.688501953125,0.1984247232824564,0.006290715908352285,-0.0032203023369307628
1690821942722542000,5.6985419921875,0.19692717820107936,0.011287738744355737,-0.005693850560323335
1690821942732582100,5.70858203125,0.20276246022582053,0.0026398104516789315,-0.006246698670112527
1690821942742653000,5.71865283203125,0.19827099402546883,0.0029119784565642473,-0.0024878393269376826
1690821942752693000,5.72869287109375,0.20245967788696287,0.006443020393233746,-0.0023161657045944594
1690821942762733000,5.738733154296875,0.212636788508296,0.00796374542079866,0.004922902720444836
1690821942772774000,5.74877392578125,0.20575404325723648,-0.0001397372642531991,0.0032876525016967205
1690821942782814000,5.75881396484375,0.2033604261189699,0.0020552702956832944,-0.001382704796362668
1690821942792854000,5.76885400390625,0.1955792707234621,0.00389026717050001,-0.0008066105250152759
1690821942802895000,5.77889501953125,0.205007024282217,0.009537808070797472,0.000570134888018947
1690821942812935200,5.78893505859375,0.2005196497350931,0.016151545388437806,-0.0022464135201880706
1690821942822975000,5.79897509765625,0.20605624107420442,0.012887081966083496,-0.007306594403029885
1690821942833015000,5.80901513671875,0.19827625472247598,0.0030649039959535,-0.007500155630195513
1690821942843055900,5.819055908203125,0.1981277861624956,0.009742829123605043,0.006154551990807521
1690821942853096000,5.829095947265625,0.20351473989784716,0.0031405447817407545,-0.00010931929310318082
1690821942863136000,5.839135986328125,0.2015700355708599,0.0004481273599900305,-0.00034831339746015143
1690821942873177000,5.849177001953125,0.2002244661808014,-0.00006237944541499018,-0.001875678228365723
1690821942883217200,5.859217041015625,0.20232056167721746,0.009119820120744406,-0.00038623197176493703
1690821942893257000,5.869257080078125,0.19947803172767162,0.014757058822736143,0.0029908934782491995
1690821942903297000,5.879297119140625,0.20337036299109457,0.005703417539689689,0.009376692375086712
1690821942913337900,5.889337890625,0.205465873965621,0.0026661870019510387,-0.008860881490190512
1690821942923378000,5.8993779296875,0.20426994217932223,0.004411185772065073,-0.00520710137312999
1690821942933449000,5.909448974609375,0.20486673902869224,0.007787786065693944,0.006611166334641165
1690821942943489000,5.919489013671875,0.19469255101680755,0.0060847998064011335,-0.00040906257479218766
1690821942953529000,5.929529052734375,0.19514204834997653,0.007378639009222388,-0.0023345575945219023
1690821942963570200,5.939570068359375,0.18721183987259862,0.008834409041795879,-0.0016254823099821805
1690821942973610000,5.94960986328125,0.19888474200963974,0.0037040604160167275,-0.001982234742224682
1690821942983650000,5.959650146484375,0.20905893002152443,0.00227194525366649,-0.0006564294985611923
1690821942993691000,5.96969091796875,0.19663842438757417,0.0023014270764775573,-0.005372589566570241
1690821943003731000,5.97973095703125,0.19783435617387293,0.007730082795396447,0.0013124891043640673
1690821943013771000,5.98977099609375,0.20127602106034753,0.0031020211359485982,0.004638345591444522
1690821943023811000,5.99981103515625,0.2020236245572567,-0.0029904505202546713,0.003431198291387409
1690821943033852200,6.00985205078125,0.2011263834565878,0.0008779884109273552,-0.0037451664612512103
1690821943043892000,6.01989208984375,0.20456863286495208,0.0017300751956179736,0.008809502929402515
1690821943053932000,6.02993212890625,0.19573942972123623,0.002379734743386507,0.002289960400969721
1690821943063972900,6.039972900390625,0.19903145700395106,0.0028187837477773427,-0.002808513515512459
1690821943074013000,6.050012939453125,0.2047159323811531,-0.00154933006754145,-0.006585020396520849
1690821943084053000,6.060052978515625,0.1987292591869831,0.0010644143611192702,-0.00023661263431422412
1690821943094093000,6.070093017578125,0.20730594887435436,-0.0022591771036386487,-0.02592456872090697
1690821943104134100,6.080134033203125,-0.02727203780710697,-0.2694036547385156,-0.4871913962692022
1690821943114174200,6.09017431640625,-0.18536065904796123,-0.5304887592691928,0.8908816486395895
1690821943124245000,6.100244873046875,0.14924538957178593,0.17697952846530823,0.13748033390557393
1690821943134285000,6.11028515625,0.37184535368978977,0.1582371080671437,-0.37374388078749177
1690821943144325000,6.1203251953125,0.30676702457964417,0.19163151947837323,-0.23888136469749732
1690821943154366000,6.130365966796875,0.40855742001533507,0.21498707796148955,-0.23430185488751157
1690821943164406000,6.140406005859375,0.23808687158524988,0.5832711955057457,-0.06909058325907681
1690821943174446000,6.150446044921875,0.3517074055463075,0.19002881525577975,-0.26083673752648756
1690821943184486000,6.16048583984375,0.24965280621647834,0.11844556123102083,-0.11131486910087987
1690821943194527000,6.17052685546875,0.18527239624261854,0.10696697608968242,0.015668264516675842
1690821943204567000,6.180567138671875,0.17273264814317224,-0.023909612169303,0.05842382139069959
1690821943214607000,6.190607177734375,0.13094810085892677,-0.10607961706221103,0.09083956049550324
1690821943224648000,6.20064794921875,0.11620178262591362,-0.17818768041236324,0.09575683262618258
1690821943234688000,6.21068798828125,0.10426759920418262,-0.2334481606676243,0.08963103408911265
1690821943244728000,6.22072802734375,0.10906301678717135,-0.2528228876199573,0.07020980568050872
1690821943254767900,6.230767822265625,0.10793898119330406,-0.2590567405082285,0.01853052664657589
1690821943264809000,6.24080908203125,0.13109598489701746,-0.23180139810759573,-0.05107876042409334
1690821943274849000,6.25084912109375,0.17714929554164408,-0.18391029584286733,-0.12081254609068855
1690821943284889000,6.26088916015625,0.2101531549990177,-0.11027712355097755,-0.17138864965569228
1690821943294930000,6.270929931640625,0.24115911863744258,-0.018007292790338397,-0.17752021121326833
1690821943304970000,6.280969970703125,0.2542939100205898,0.08570059017185121,-0.13215403344943188
1690821943315041000,6.291041015625,0.2645236276119947,0.17382336598932743,-0.06359871697768103
1690821943325081000,6.3010810546875,0.2646732652157545,0.23153246323941273,-0.006315101430937648
1690821943335121000,6.311120849609375,0.25998423061668874,0.253750889185071,0.031061379053513517
1690821943345161000,6.321160888671875,0.25809213325977326,0.25407814837805925,0.03067711527654901
1690821943355202000,6.3312021484375,0.25107319440841674,0.20797482457924632,0.014321727012237533
1690821943365242000,6.3412421875,0.22217677026987073,0.1417498827172443,-0.011465958555205725
1690821943375282200,6.3512822265625,0.20464403618872165,0.05495050099063664,-0.051513740608142684
1690821943385323000,6.361322998046875,0.20492986739277838,-0.017815916670393197,-0.08901598006384447
1690821943395363000,6.371363037109375,0.1834054333269596,-0.08055604862393811,-0.10130691363452933
1690821943405403000,6.38140283203125,0.16956337045729158,-0.12987119234241545,-0.09311209027105942
1690821943415455700,6.391455810546875,0.16206746174395084,-0.15723335611838846,-0.07102608136630151
1690821943425496800,6.401496826171875,0.1559814198285341,-0.1731095186315477,-0.03679127360817511
1690821943435537000,6.411536865234375,0.14800328055620193,-0.16663381981141864,-0.007324579867580905
1690821943445576700,6.42157666015625,0.14065876301229,-0.13630217523798346,0.013553555651335045
1690821943455617800,6.43161767578125,0.15517653318643568,-0.09688894192865118,0.02421561851170845
1690821943465657600,6.44165771484375,0.17163082438111305,-0.05041566143943928,0.021202631932660004
1690821943475697700,6.45169775390625,0.1974912418246269,0.011395866160793229,0.006981310254707932
1690821943485737700,6.46173779296875,0.22660803071558475,0.06917206469718366,-0.02196289398174267
1690821943495778800,6.47177880859375,0.2401210077613592,0.11325416660038753,-0.05867874599983915
1690821943505849900,6.481849853515625,0.2511959440052509,0.13315598616674543,-0.08602832428887486
1690821943515889700,6.4918896484375,0.2560930683970451,0.14514403693387284,-0.0964946179819759
1690821943525929700,6.5019296875,0.2584095286458731,0.1357729089331813,-0.09676969946315511
1690821943535969800,6.5119697265625,0.24169863234162328,0.10826423109229653,-0.07692258749241009
1690821943546010600,6.5220107421875,0.21151041482686994,0.06422364850956946,-0.049742237423593176
1690821943556050700,6.53205078125,0.20407178925871847,0.03165403401730582,-0.016079366068216038
1690821943566090800,6.5420908203125,0.19515841496288774,-0.009247446822095662,-0.004729973964230157
1690821943576130800,6.552130859375,0.18073825994431972,-0.04473123172800988,0.00826903024399653
1690821943586172000,6.562171875,0.1709925264775753,-0.07131952505465597,0.007576294172904454
1690821943596211700,6.572211669921875,0.16577333052456378,-0.08749804978156461,-0.00815690707245376
1690821943606251800,6.582251708984375,0.15938801340162753,-0.10179507161080836,-0.02592761462794151
1690821943616292600,6.592292724609375,0.1745733075737953,-0.08850644137281924,-0.0372901767407544
1690821943626332700,6.602332763671875,0.19006489121615885,-0.07517095805210992,-0.06344460412820335
1690821943636372700,6.612372802734375,0.19508067355155945,-0.04608063704296946,-0.05786131953657604
1690821943646412800,6.622412841796875,0.2054746417939663,-0.006759301534481346,-0.051715628988947715
1690821943656454000,6.632453857421875,0.2137567324489355,0.02621353259696625,-0.04397677836520597
1690821943666493700,6.64249365234375,0.21169220113456247,0.05617701971144415,-0.03608008399836253
1690821943676533800,6.65253369140625,0.22008009025156497,0.07963676008824258,-0.025466728251078166
1690821943686574600,6.66257470703125,0.2229056690663099,0.09360298819369636,-0.02954546263180673
1690821943696644900,6.672644775390625,0.2180833634763956,0.08720918637020512,-0.022290979725215584
1690821943706685700,6.682685791015625,0.22117431522905825,0.07152285647387616,-0.032320434637321156
1690821943716725800,6.692725830078125,0.21707389417290687,0.0542258765105158,-0.03473177009536885
1690821943726765800,6.702765869140625,0.20025895297229288,0.028417170987930146,-0.05104375760937109
1690821943736807000,6.712806884765625,0.1888379797697067,0.002765756652597338,-0.058096886424697
1690821943746846700,6.7228466796875,0.1798246522307396,-0.021073146634362636,-0.04346041264117229
1690821943756886800,6.73288671875,0.18384674735367296,-0.03332185763167217,-0.03584794660976622
1690821943766926800,6.7429267578125,0.17636954334080218,-0.04899259723322466,-0.028860731770657
1690821943776967700,6.7529677734375,0.1808820523291826,-0.051102830852847544,-0.020130445257038807
1690821943787007700,6.7630078125,0.18046996439695356,-0.04665520379422232,-0.013504894204018637
1690821943797047800,6.7730478515625,0.18156477389633655,-0.02842347286455333,-0.02344180742788594
1690821943807089000,6.7830888671875,0.18340894045829773,-0.01604563732855022,-0.02462764251185581
1690821943817128700,6.793128662109375,0.20020926861166952,0.0034446422948502,-0.028679274256527422
1690821943827168800,6.803168701171875,0.21221242561638354,0.014173724243137984,-0.03285775181783829
1690821943837208800,6.813208740234375,0.20893734946846962,0.03870643674684688,-0.04645470821948256
1690821943847249700,6.823249755859375,0.21297931833565234,0.050423515952331945,-0.04464027920865919
1690821943857289700,6.833289794921875,0.20713117682933807,0.04992058966518379,-0.04746660237549804
1690821943867329800,6.843329833984375,0.21009937898516653,0.04956225034734234,-0.042213823813293125
1690821943877371000,6.853370849609375,0.21216157221198081,0.04599347021616995,-0.03620404830474872
1690821943887440600,6.863440673828125,0.20045593684911728,0.03183768348852172,-0.035366802896163424
1690821943897481700,6.873481689453125,0.20102350760400295,0.010474796659965067,-0.02517171822672244
1690821943907521800,6.883521728515625,0.1962111388862133,-0.0030315862482413647,-0.02642199228245299
1690821943917561900,6.893561767578125,0.18856559256911276,-0.017536862266995013,-0.02358583270818926
1690821943927602000,6.903601806640625,0.18856091639399528,-0.02347074582800269,-0.03143984784393106
1690821943937642800,6.913642822265625,0.18647241968214512,-0.030355281177349386,-0.03613770050369203
1690821943947682800,6.923682861328125,0.1908294458478689,-0.03001119871372357,-0.03715006045058835
1690821943957722600,6.93372265625,0.1890571754783392,-0.024957532053347675,-0.031592969746142625
1690821943967763700,6.943763671875,0.20240005665421484,-0.01693765426483005,-0.03570928249116987
1690821943977803800,6.9538037109375,0.195840552008152,-0.0030604104839265346,-0.032570943366247225
1690821943987843800,6.96384375,0.19885317782759665,0.0067555569411255414,-0.03939027255885303
1690821943997884000,6.9738837890625,0.20126257705688474,0.01825460034860298,-0.03942007404207252
1690821944007924700,6.9839248046875,0.20560791278481483,0.019587401588633657,-0.03371035005918238
1690821944017964800,6.99396484375,0.20096563993692396,0.026297064428264273,-0.032724307297053744
1690821944028004600,7.004004638671875,0.21217735430300236,0.033032190502714366,-0.03757571111728902
1690821944038045700,7.014045654296875,0.21395780797898767,0.031181722064130005,-0.03796419897822197
1690821944048085800,7.024085693359375,0.20421324355602263,0.026796419651992618,-0.04767270570711698
1690821944058125800,7.034125732421875,0.20045535232722758,0.012561923398636281,-0.03622689489079639
1690821944068166000,7.044165771484375,0.20941958002746103,-0.0006818995832465588,-0.0376876972915139
1690821944078237000,7.05423681640625,0.19758651889264583,-0.0074749207242392,-0.038810924601205624
1690821944088276700,7.06427685546875,0.1886030019700527,-0.00015325433295220137,-0.03864592959810979
1690821944098317800,7.07431787109375,0.18965455684959887,-0.007968293731752783,-0.025946999748423693
1690821944108357600,7.084357666015625,0.18996143084168432,-0.012283453517127781,-0.029194512035977095
1690821944118397700,7.094397705078125,0.19805530544817446,-0.015641568305995314,-0.03274556014763657
1690821944128438800,7.104438720703125,0.19732348404228686,-0.005803041989263147,-0.03237306900685653
1690821944138478800,7.114478759765625,0.1898579704672098,-0.000308664090372622,-0.03270501807469409
1690821944148519000,7.124518798828125,0.1978010384261608,0.00722264472991228,-0.029151755173061972
1690821944158558700,7.134558837890625,0.19706161823570728,0.008961834813747554,-0.035877017440623604
1690821944168599800,7.144599853515625,0.20260463931560516,0.014545699360687284,-0.030315369292069225
1690821944178639600,7.1546396484375,0.20125731635987756,0.023117493677232412,-0.03229663820320274
1690821944188679700,7.1646796875,0.19915596016645432,0.023182850531022994,-0.03583397744991816
1690821944198720800,7.174720703125,0.20004326439499853,0.01856284431386739,-0.0354804010721622
1690821944208760800,7.1847607421875,0.2117050606161356,0.011745547248143702,-0.03097640418380033
1690821944218801000,7.19480078125,0.19837562344372273,0.007186915829405188,-0.028115996084269134
1690821944228840700,7.2048408203125,0.18803952286839484,0.005774966672249138,-0.027208699380466713
1690821944238881800,7.2148818359375,0.19057517882585526,0.0025642061985097823,-0.030946036445000207
1690821944248921900,7.224921875,0.20583470727801323,-0.009609631197992711,-0.02833860759269446
1690821944258992600,7.23499267578125,0.21212007115781306,-0.012152356217056513,-0.03869972844484727
1690821944269032700,7.24503271484375,0.19372049111425876,-0.009816716343723237,-0.03805167176569812
1690821944279072800,7.25507275390625,0.1850479398369789,-0.0028801768125034867,-0.03459090488653164
1690821944289113900,7.26511376953125,0.19478256738781927,-0.007412504746206104,-0.03003871690831147
1690821944299154000,7.27515380859375,0.19299568397104738,0.00446996675459668,-0.03507551463227719
1690821944309193700,7.28519384765625,0.18761808258593082,-0.0017687815045006573,-0.027839119938225482
1690821944319234800,7.29523486328125,0.20079203693568706,0.004020926079154014,-0.027423237180290744
1690821944329274600,7.305274658203125,0.19884908617436883,0.013364216224849223,-0.029348638585186562
1690821944339314700,7.315314697265625,0.20049626885950564,0.01259816375579685,-0.030184166960720904
1690821944349354800,7.325354736328125,0.21231647051274774,0.019737733312137424,-0.02619628006806597
1690821944359395800,7.335395751953125,0.20722586937546728,0.02488857673667371,-0.032742783668660555
1690821944369436000,7.345435791015625,0.20303075577318666,0.02240072371000424,-0.036585531036159954
1690821944379475700,7.355475830078125,0.20826105764210223,0.015196893278416244,-0.03508416829619091
1690821944389516800,7.365516845703125,0.20316694937348365,0.01115138074727729,-0.03829260894868057
1690821944399556900,7.375556884765625,0.19433365457653998,0.009648940295074135,-0.02951072011198848
1690821944409578000,7.385577880859375,0.19926994193494318,0.003490801257826388,-0.021931128870300017
1690821944419618000,7.3956181640625,0.2006196029782295,-0.000387629344407469,-0.02961238582159858
1690821944429659100,7.4056591796875,0.1946381904810667,-0.0019424027720466256,-0.027644766409904695
1690821944439699200,7.41569921875,0.19613865817189216,-0.008005867529474199,-0.035764716172567566
1690821944449770200,7.425770263671875,0.19389760124683378,-0.005500076987314969,-0.026123082401114515
1690821944459810000,7.43581005859375,0.20048750103116034,0.005564904118143022,-0.02747307680454105
1690821944469850000,7.44585009765625,0.1992950763761997,0.019038352871127425,-0.035812436904967763
1690821944479891000,7.455890869140625,0.20259002626836298,0.013627598135080188,-0.02874111941240262
1690821944489931000,7.465930908203125,0.20019816269576549,0.016344474144652486,-0.022358839063346386
1690821944499971000,7.47597119140625,0.19840368049442766,0.012973865200392901,-0.03404879279988818
1690821944510011100,7.48601123046875,0.19989713392257688,0.01376567316520959,-0.02759099496263079
1690821944520052200,7.49605224609375,0.2001923174768686,0.019424283448792993,-0.03205595674854703
1690821944530092300,7.50609228515625,0.1895657095223665,0.017631993204541504,-0.027298167762206865
1690821944540132000,7.516132080078125,0.19031097493171692,0.00720724623138085,-0.027380142390658144
1690821944550173000,7.5261728515625,0.1934521955668926,0.010715163020789623,-0.033491720606130544
1690821944560213000,7.536212890625,0.1958452281832695,0.008243183416686952,-0.03392697021823842
1690821944570253000,7.546253173828125,0.19464812735319137,0.01397272177832201,-0.03389431919080671
1690821944580293000,7.556293212890625,0.20078326910734176,0.010235727207083255,-0.03426616644419264
1690821944590334200,7.566334228515625,0.19435002118945122,-0.001982679983507842,-0.026527831843681633
1690821944600374300,7.576374267578125,0.20482699154019354,0.001001980116777122,-0.025669036756991406
1690821944610414000,7.5864140625,0.1980968065023422,0.0015607830433174968,-0.027081830730941146
1690821944620455000,7.596454833984375,0.2103705971419811,0.005718724706675857,-0.03524553287036251
1690821944630495000,7.606494873046875,0.20094635071456432,0.005210318526811897,-0.02977698353247251
1690821944640566000,7.61656591796875,0.19301789580285547,0.00760852050865069,-0.028686283952626398
1690821944650606000,7.626606201171875,0.1975093620032072,0.013315043320879339,-0.026590202155942096
1690821944660646100,7.636646240234375,0.20110007997155188,0.012890388168022036,-0.030924792727571912
1690821944670686200,7.646686279296875,0.20439035368859768,0.006302735139708966,-0.03101901491624303
1690821944680727300,7.656727294921875,0.19675825137495995,0.007687558827921747,-0.029171336656366474
1690821944690767000,7.66676708984375,0.20019582460820673,-0.0007650660883635282,-0.027445526643912307
1690821944700807200,7.67680712890625,0.2058791309416294,0.0035755021329037843,-0.030734494319860823
1690821944710848000,7.686847900390625,0.2004904236406088,0.0042803989992477,-0.02668596784772817
1690821944720888000,7.69688818359375,0.1903150665849447,0.00817830148693174,-0.026417772765061815
1690821944730928000,7.70692822265625,0.19240940851569174,0.007760624064132571,-0.03175185010228306
1690821944740968200,7.71696826171875,0.20572890881597994,0.008586809222586452,-0.02360316743548028
1690821944751009300,7.72700927734375,0.20348785189092158,0.007316022101789712,-0.028499255214235745
1690821944761049000,7.737049072265625,0.20588263807296753,0.007001293596811592,-0.03293932458749041
1690821944771089200,7.747089111328125,0.20438801560103892,0.010058507476653903,-0.030663885902217587
1690821944781130000,7.7571298828125,0.18359014224410056,0.0046968891119584435,-0.02889356546117924
1690821944791170000,7.767170166015625,0.1928694272428751,-0.005447232555225491,-0.030039990983367897
1690821944801210000,7.777210205078125,0.19631284569501875,-0.000007379588857293129,-0.030392142589017748
1690821944811250200,7.787250244140625,0.20409458561241625,0.009555508124269545,-0.03357174073951319
1690821944821291300,7.797291259765625,0.20379472588300704,0.0068889740624465045,-0.032381530874525194
1690821944831362300,7.8073623046875,0.19122516716718674,0.001974277481343597,-0.02445387511383742
1690821944841402000,7.817402099609375,0.19646014521121977,0.01001163612762466,-0.02510440687786322
1690821944851442200,7.827442138671875,0.19930267516076564,0.006982424499560147,-0.02560115458597429
1690821944861482200,7.837482177734375,0.1940636054635048,0.010253573391027749,-0.03167193956675474
1690821944871523000,7.847523193359375,0.19600772526860236,0.009139182408340274,-0.03481738885247614
1690821944881563100,7.857563232421875,0.19870120213627815,0.008269523434340953,-0.030308624457451513
1690821944891603200,7.867603271484375,0.20019874721765518,0.008093052622582763,-0.02432279151349794
1690821944901644300,7.877644287109375,0.19256722942590712,0.005684438844583928,-0.030572997314948586
1690821944911684000,7.88768408203125,0.19840426501631736,0.004130231672525406,-0.03388866120157763
1690821944921724200,7.89772412109375,0.20289514669477937,0.0076276270679198205,-0.040857317470689304
1690821944931764200,7.90776416015625,0.20768413453698156,0.004309150169696659,-0.028380094947130417
1690821944941805000,7.91780517578125,0.20798457878828047,0.006348419178649783,-0.03357003283961676
1690821944951845000,7.92784521484375,0.20589082137942313,0.0023898177459836007,-0.03291862885933369
1690821944961885200,7.93788525390625,0.19526830507814882,0.00395014413157478,-0.03380766382066067
1690821944971925000,7.947925048828125,0.19302432554364204,0.005124759135209023,-0.03593301281102467
1690821944981966000,7.957966064453125,0.1994610805928707,0.0047196854656562206,-0.04095146659412421
1690821944992006100,7.968006103515625,0.19467209275066852,0.0031104236381128427,-0.030120609338372014
1690821945002046200,7.978046142578125,0.20364976445436475,0.0063024794113822275,-0.029939727212977593
1690821945012117200,7.9881171875,0.20110358710289,0.008267623738199472,-0.02947122378523927
1690821945022157300,7.9981572265625,0.19855799427330492,0.012159662740677594,-0.029363119201688093
1690821945032198100,8.0081982421875,0.1990069070845842,0.005910941076837479,-0.024179291389579884
1690821945042238200,8.01823828125,0.2030477069079876,0.003181881439127028,-0.023702919749217108
1690821945052278000,8.028278076171874,0.20035539908409117,0.005127444282639771,-0.031102802475867792
1690821945062319000,8.038319091796875,0.20125497827231884,0.009406071449909358,-0.027965878989896737
1690821945072359200,8.048359130859374,0.2066419320076704,0.005039035346824676,-0.02894500338747166
1690821945082399200,8.058399169921875,0.20364976445436475,0.005706942937336861,-0.034874297538329845
1690821945092439300,8.068439208984374,0.18988310490846633,-0.003903802505508065,-0.02450901196771301
1690821945102480100,8.078480224609375,0.19601941570639608,0.0028010836943052706,-0.025278626367030665
1690821945112520200,8.088520263671874,0.20081015711426733,0.007488090733066201,-0.03607837153188884
1690821945122560000,8.09856005859375,0.19273089555501938,-0.004714643964357674,-0.02707270670956932
1690821945132601000,8.10860107421875,0.19707038606405258,0.006228811386972666,-0.023361408268590456
1690821945142641200,8.11864111328125,0.1975175453096628,0.00976927873911336,-0.0244202331391396
1690821945152681200,8.12868115234375,0.1966197196871042,0.006495937890559435,-0.02028023812442552
1690821945162721300,8.13872119140625,0.19811551120281218,0.002819459601212293,-0.02877267446129117
1690821945172762000,8.14876220703125,0.20574644447267054,-0.0014643369315192102,-0.0297499128624564
1690821945182802200,8.15880224609375,0.2027548614412546,0.005680931713245809,-0.033058649251377206
1690821945192842200,8.16884228515625,0.19332827692627905,0.010758362841699272,-0.03243394148177467
1690821945202913000,8.1789130859375,0.20125965444743632,-0.000338401641510427,-0.02437732101259753
1690821945212953000,8.188953125,0.202756030485034,-0.0012290851372294127,-0.024819794949935747
1690821945222994200,8.198994140625,0.20036358239054677,0.004840352703258395,-0.03372826930836308
1690821945233034200,8.2090341796875,0.20215981815755366,0.0028477175813168285,-0.03249132965824101
1690821945243074300,8.21907421875,0.19737199935913086,0.0017695121568627654,-0.03247492194613442
1690821945253114000,8.229114013671875,0.19871815327107906,0.007488876184355467,-0.028152067478070964
1690821945263155200,8.2391552734375,0.19961539437174797,0.006797916511818766,-0.03350914666496683
1690821945273195000,8.249195068359375,0.19871756874918936,0.0024140936707146466,-0.033738923133118076
1690821945283235000,8.259235107421874,0.19018822533488272,0.00573521918375045,-0.020259743325668385
1690821945293276200,8.269276123046875,0.19213351418375968,0.0034654110882431266,-0.026986996620916758
1690821945303316200,8.279316162109374,0.20186054295003414,0.007035926518775522,-0.0305503881909186
1690821945313356300,8.289356201171875,0.20290683713257313,0.00368031421424821,-0.026841674432670697
1690821945323396000,8.29939599609375,0.19856676210165022,0.00805259274803102,-0.0372942181616323
1690821945333437200,8.309437255859375,0.20185937390625475,0.006094882808998227,-0.030280160981370135
1690821945343477200,8.319477294921874,0.20170798273682594,0.004550849971082061,-0.027068866218090987
1690821945353517000,8.32951708984375,0.19781740503907203,0.005440729749202728,-0.020165114711620843
1690821945363558100,8.33955810546875,0.19108371286988257,0.009804605780821292,-0.02689955579948146
1690821945373598200,8.34959814453125,0.19183306993246077,0.012878843860700725,-0.029374033321347085
1690821945383638000,8.359637939453124,0.20410335344076155,0.008714070597756654,-0.033394662572978996
1690821945393709000,8.369708984375,0.19991350053548812,0.003650010407529771,-0.03058982058558613
1690821945403749000,8.3797490234375,0.19931436559855936,0.010582640948612242,-0.024949937835359013
1690821945413781800,8.38978173828125,0.20125965444743632,0.009583948767464608,-0.028637444408796727
1690821945423821600,8.399821533203125,0.1972176855802536,0.009652648355811833,-0.03570606762077659
1690821945433861600,8.409861572265624,0.2015560070455074,0.003931640360504389,-0.037397559805097985
1690821945443901700,8.419901611328125,0.19572189406454563,0.00614823869774118,-0.03691720154278446
1690821945453942800,8.42994287109375,0.20335574994385242,0.00517773143146187,-0.030994999286415983
1690821945463982800,8.43998291015625,0.20934183861613273,0.006355543039180338,-0.026693945658206937
1690821945474023000,8.45002294921875,0.2050035171508789,0.00959598626513034,-0.025133701471006496
1690821945484063000,8.46006298828125,0.19722294627726078,0.008544778445456177,-0.03240287049007602
1690821945494103800,8.470103759765625,0.20245967788696287,0.014559198163077235,-0.03343825968611054
1690821945504143600,8.4801435546875,0.19527765742838382,0.010966050775628537,-0.03494519365034066
1690821945514183700,8.49018359375,0.19512801982462405,0.007552095879986882,-0.029350341918505725
1690821945524224800,8.500224853515626,0.2018611274719238,0.014032891000341623,-0.021250663192314095
1690821945534264800,8.510264892578125,0.2017091517806053,0.014913418428227304,-0.030202771196491084
1690821945544305000,8.520304931640625,0.18749474846720696,0.012167298057861625,-0.029424448334332554
1690821945554345000,8.530344970703124,0.19063596910238265,0.008939129791595042,-0.020631928505771793
1690821945564385800,8.5403857421875,0.19407821851074694,-0.00038746494762599467,-0.025716871653823182
1690821945574456600,8.55045654296875,0.1963239516109228,0.004073459983989596,-0.03531951598860323
1690821945584496600,8.56049658203125,0.2045546043395996,0.0077134969867765895,-0.03003802735514473
1690821945594536700,8.57053662109375,0.19692191750407217,0.009729202457051724,-0.02680389513897244
1690821945604576800,8.58057666015625,0.19752105244100093,0.010609510689228772,-0.020785570997791363
1690821945614617900,8.590617919921876,0.1969248401135206,0.01197749284049496,-0.024359735123557037
1690821945624658000,8.600657958984375,0.19543021764159202,0.007384685157518833,-0.02718513127521146
1690821945634698000,8.610697998046875,0.1931862381070852,0.003050144818238914,-0.021526301795919425
1690821945644738800,8.62073876953125,0.19483342079222202,0.0107642993921414,-0.022173901817342266
1690821945654778600,8.630778564453125,0.19857552992999553,0.008759023984335363,-0.026932745683030224
1690821945664818700,8.640818603515624,0.19154373159706592,0.005568228586390615,-0.02532831986080855
1690821945674858800,8.650858642578125,0.1964817725211382,0.008823467522673309,-0.022303679376584475
1690821945684899800,8.66089990234375,0.19767770430743692,0.0014611403274349868,-0.03047863812895957
1690821945694940000,8.67093994140625,0.19558160881102085,0.0036401831332594156,-0.02324970978873316
1690821945704980000,8.68097998046875,0.20396248366534708,0.010152067511621862,-0.024115583070181308
1690821945715020800,8.691020751953126,0.19139409399330615,-0.008038381559588014,-0.020655263715586625
1690821945725060600,8.701060546875,0.19229191961586475,0.0009350158277899027,-0.024594977784692308
1690821945735100700,8.7111005859375,0.19573475354611872,0.006889522051718086,-0.028783661646186374
1690821945745140700,8.721140625,0.2035176625072956,0.004870163319632411,-0.02685138297593221
1690821945755181800,8.731181884765626,0.19588731375932691,0.00047017479501664633,-0.02650007162049878
1690821945765251800,8.741251953125,0.1909516109228134,-0.00037350948750972747,-0.03202569404102396
1690821945775293000,8.75129296875,0.20202596264481543,0.001962605309858918,-0.029738528385339302
1690821945785333000,8.7613330078125,0.19484335766434668,0.0031834706080146134,-0.018173758231312967
1690821945795372800,8.771372802734374,0.19619126514196394,0.015119681590050458,-0.019872588905296286
1690821945805413600,8.78141357421875,0.1951432173937559,0.006325440161861479,-0.023677260151575317
1690821945815453700,8.79145361328125,0.19858663584589958,0.011492230074200778,-0.02399217588622123
1690821945825493800,8.80149365234375,0.20322773965001106,0.011375617957208305,-0.023462402691342865
1690821945835533800,8.811533935546874,0.195448922342062,0.010361563810147344,-0.024368174158339386
1690821945845575000,8.821574951171876,0.1927554454743862,0.009497950984444468,-0.02343871128850151
1690821945855615000,8.831614990234375,0.1970949359834194,0.008155669530015439,-0.017753866018541155
1690821945865654800,8.84165478515625,0.19724457358717917,0.011916958292294293,-0.019305424575787038
1690821945875695600,8.851695556640625,0.19425182151198386,0.009376352165080606,-0.027004829105129465
1690821945885735700,8.861735595703125,0.1879676266759634,0.002033880447782576,-0.01878372508950997
1690821945895775700,8.871775634765624,0.19559855994582176,0.00025455928295850755,-0.023752389480709096
1690821945905815800,8.88181591796875,0.1938011551350355,0.0054536257633939385,-0.03611995478444732
1690821945915857000,8.89185693359375,0.19649463200271128,-0.0027497370995581147,-0.025283768333029002
1690821945925897000,8.90189697265625,0.19305296711623668,0.0059451356073841445,-0.027290043821255675
1690821945935936800,8.911936767578124,0.1938011551350355,0.008841898228507488,-0.031383541946276086
1690821945946007800,8.9220078125,0.196045719191432,0.007349449447356164,-0.01369350297814235
1690821945956048000,8.9320478515625,0.20502572898268698,0.002628174812812358,-0.02140994540725369
1690821945966088700,8.942088623046875,0.19485271001458168,0.006383855818212032,-0.02374228364522569
1690821945976128800,8.952128662109375,0.19605039536654947,0.0014215024367906152,-0.028597980048088355
1690821945986168800,8.9621689453125,0.19994155758619309,0.0063385736380703744,-0.029573017359012736
1690821945996209000,8.972208984375,0.19814707538485526,0.008070201469957829,-0.02222648138795048
1690821946006250000,8.98225,0.19799919134676455,0.004805025661550462,-0.02722456823645625
1690821946016289800,8.992289794921875,0.19680442860424519,0.0036273967169225215,-0.028824564478732644
1690821946026329900,9.002329833984374,0.2009948660314083,0.009114742086827754,-0.029240716664725913
1690821946036370700,9.01237060546875,0.20009645588696,0.006354921984672546,-0.031331679328298195
1690821946046410800,9.02241064453125,0.2041355021446943,0.0023897629470564425,-0.02490093846132513
1690821946056450800,9.032450927734375,0.2000935332775116,0.005211505836900323,-0.023405096713267265
1690821946066491000,9.042490966796874,0.19515432330965995,-0.0018834391264244913,-0.038800398640614
1690821946076532000,9.052531982421876,0.19994214210808275,0.0056081952705979345,-0.026405840298673138
1690821946086571800,9.06257177734375,0.1905155575931072,0.005157656757812947,-0.02631739026366267
1690821946096611800,9.07261181640625,0.19305822781324386,0.014978683950472622,-0.019088868348812682
1690821946106652700,9.082652587890625,0.19575170468091962,0.013357768217753618,-0.02215372667899355
1690821946116692700,9.092692626953125,0.20727672277987003,0.00989734383188188,-0.027793787525733932
1690821946126732800,9.10273291015625,0.19515841496288774,0.007784881722554564,-0.026429819395882077
1690821946136803800,9.112803955078125,0.19830080464184283,0.004664923071116209,-0.018317431885167025
1690821946146844000,9.122843994140625,0.2048848592072725,0.009177815651986748,-0.028601500879158265
1690821946156885000,9.132885009765625,0.19351181679964063,0.008752265449985861,-0.01914008707939647
1690821946166924800,9.1429248046875,0.19366320796906947,0.0027924071975052355,-0.02213684404285159
1690821946176964900,9.15296484375,0.18917583342194555,0.004351473207771778,-0.021057131647900677
1690821946187005000,9.1630048828125,0.19471242476105688,0.008380728723853826,-0.020025423113140275
1690821946197045800,9.173045654296875,0.19172201077342033,0.008134023953787982,-0.01914118305793963
1690821946207085800,9.1830859375,0.1930693337291479,0.0030053192958235738,-0.024022465993207877
1690821946217126000,9.1931259765625,0.19501403805613515,0.007978248870186506,-0.020932943579228595
1690821946227167000,9.2031669921875,0.1953138977855444,0.005542199095990508,-0.020045826580352148
1690821946237206800,9.213206787109375,0.2038444102436304,0.0029538631032221016,-0.02212140444512479
1690821946247246800,9.223246826171875,0.1963625300556421,0.0032474574886262415,-0.025214169128960927
1690821946257287000,9.233286865234374,0.19860884767770767,0.006590338175743818,-0.027094493849691932
1690821946267327700,9.24332763671875,0.20309856031239032,0.013899017221294342,-0.02123136483679991
1690821946277367800,9.253367919921875,0.20294950723052024,0.0084973408408463,-0.016248982447502204
1690821946287407900,9.263407958984375,0.1939712510049343,0.0067167958333157,-0.01948968140177894
1690821946297448000,9.273447998046874,0.19067980824410916,0.0071650875900872045,-0.01968062369688414
1690821946307489000,9.283489013671876,0.20384850189685821,0.00774853176753968,-0.02064138588728383
1690821946317528800,9.29352880859375,0.2041501151919365,0.004198492869455367,-0.023068083311244846
1690821946327599900,9.303599853515625,0.19951134947538374,0.004214274960476905,-0.026296895464905535
1690821946337640000,9.313639892578125,0.1990606830984354,0.004165686578396707,-0.02364000144768506
1690821946347679700,9.3236796875,0.1948696611493826,0.009600772038102149,-0.023107492873026058
1690821946357720800,9.333720947265626,0.1864899553388357,0.00033294001510366793,-0.023103985741687937
1690821946367761000,9.343760986328125,0.1893313162446022,0.0027941424968652424,-0.022906915099895557
1690821946377800700,9.35380078125,0.1950169606655836,0.009732106800191103,-0.026584060109523123
1690821946387841800,9.363841796875,0.2027981160610914,0.01764061490241438,-0.02065820459134411
1690821946397881900,9.3738818359375,0.19830898794829843,0.0059384684045799075,-0.02257582911516074
1690821946407921700,9.383921630859374,0.2069891380101442,0.012353778806980699,-0.024390098295779896
1690821946417957000,9.39395703125,0.1978612441807985,0.007100205660331994,-0.02874812454192433
1690821946427998000,9.403998046875,0.1995055042564869,0.007794416735880077,-0.02816121433232911
1690821946438038000,9.4140380859375,0.198158765822649,0.010665149866603314,-0.02693593315395992
1690821946448077800,9.424077880859375,0.2035474731236696,0.000689900226611644,-0.024351003827829842
1690821946458119000,9.434118896484375,0.20264964750111103,0.0036629612206481397,-0.02117612751822453
1690821946468159000,9.444158935546875,0.2022019037336111,0.010207030835561454,-0.021681866816966794
1690821946478199000,9.454198974609374,0.1968161190420389,0.0013404913561418652,-0.022188546830625273
1690821946488239000,9.464239013671875,0.19352526080310345,0.004542082142736763,-0.02234349536374211
1690821946498280000,9.474280029296875,0.20205518873929976,0.0009048398852348328,-0.029959838419244624
1690821946508350000,9.484349853515624,0.1986117702871561,0.004016377768199891,-0.022454106998210772
1690821946518390800,9.494390869140625,0.1960667619794607,-0.0006759447664953768,-0.022075524043361654
1690821946528430800,9.504430908203124,0.18963234501779078,0.004569792133569717,-0.023619703011750242
1690821946538471000,9.514470947265625,0.19397066648304462,0.010617493066284804,-0.021270372539781965
1690821946548512000,9.524511962890625,0.1914262426972389,0.008279387241229414,-0.021938654589629732
1690821946558552000,9.534552001953125,0.19741174684762955,0.008027732301410287,-0.01974198022899218
1690821946568592100,9.544592041015624,0.19426818812489507,0.010189823972433804,-0.026449254748714155
1690821946578632200,9.554632080078125,0.18813421541452408,0.011002565127424896,-0.022165554114105177
1690821946588673000,9.564673095703125,0.19950784234404562,0.004054481288883835,-0.01692879510493949
1690821946598712800,9.574712890625,0.19801146630644798,0.007214662352856248,-0.01957330456462223
1690821946608753000,9.5847529296875,0.2014525466710329,0.003222012520115822,-0.023725629337946884
1690821946618794000,9.5947939453125,0.19771277562081813,0.0022631226263940332,-0.017478601874271405
1690821946628834000,9.604833984375,0.2007078657835722,0.005301869267784059,-0.024829727255483155
1690821946638874000,9.6148740234375,0.1969680947333574,0.00694247608166188,-0.021788555761566384
1690821946648914200,9.6249140625,0.199361711871624,0.008208386097941547,-0.0227321019556839
1690821946658955000,9.634955078125,0.19143091887235641,0.005637932821735739,-0.027521318126749246
1690821946668994800,9.644994873046874,0.2034007581293583,-0.000724788876902312,-0.029259453331236727
1690821946679035000,9.655034912109375,0.20444822135567664,0.007030811952240765,-0.02974316802783869
1690821946689076000,9.665075927734375,0.19951018043160437,0.003875855052657425,-0.022890662651415913
1690821946699146000,9.67514599609375,0.20324995148181915,0.012472929940931498,-0.023816280463198197
1690821946709187000,9.68518701171875,0.20025719940662381,0.011584091342426836,-0.018134682029671965
1690821946719227100,9.69522705078125,0.19801263535022734,0.0033476664600893854,-0.02393932688755449
1690821946729267200,9.70526708984375,0.1959182934194803,0.0018094057758338748,-0.022996374348481185
1690821946739308000,9.71530810546875,0.20444588326811788,0.0027950558123178777,-0.026454054221417753
1690821946749347800,9.725347900390625,0.20085399625599384,0.011513784318882971,-0.024339888778771274
1690821946759388000,9.735387939453124,0.19471885450184345,0.005848470299877226,-0.016940101950243116
1690821946769428000,9.745427978515625,0.19681378095448016,0.003635306028742343,-0.028119005458685568
1690821946779469000,9.755468994140625,0.19262334352731703,0.005598112268000841,-0.029159851714549583
1690821946789509000,9.765509033203125,0.1909779144078493,0.005125800314825028,-0.015542099120048804
1690821946799549200,9.775549072265624,0.20683891588449477,-0.001121916702017188,-0.015417650756472721
1690821946809589000,9.785589111328125,0.20219898112416265,-0.0018209866157732903,-0.032785736894397996
1690821946819629800,9.7956298828125,0.19411679695546627,0.0017003559107892214,-0.023926727700885383
1690821946829670000,9.805669921875,0.19860475602447986,0.002501114367041737,-0.02507609866540879
1690821946839710000,9.8157099609375,0.19950199712514877,0.006556545503996312,-0.020482185870734974
1690821946849751000,9.8257509765625,0.20429098496735096,0.004580660587456077,-0.020656067433184943
1690821946859791000,9.835791015625,0.19246961427032946,-0.005597546012420207,-0.01843890740694478
1690821946869831200,9.8458310546875,0.19187281742095946,0.0022519619115628302,-0.020647943492233752
1690821946879902200,9.855902099609375,0.20189912139475344,0.009737897220160812,-0.020268122994946316
1690821946889942000,9.86594189453125,0.19396832839548586,0.00945557314744219,-0.022635715209390034
1690821946899982800,9.87598291015625,0.20114976433217524,0.002490172847919166,-0.024850719811161978
1690821946910023000,9.88602294921875,0.19112462940216063,0.0011098792043514548,-0.018848511121142653
1690821946920063000,9.89606298828125,0.1963631145775318,0.004035520860087126,-0.01313201947074849
1690821946930103000,9.90610302734375,0.19935528213083742,0.0037329211843200026,-0.018128791145002467
1690821946940144000,9.91614404296875,0.19965163472890854,0.009708433663658797,-0.028827637785230762
1690821946950184200,9.92618408203125,0.20009996301829813,0.0036140988439321516,-0.022511344477627426
1690821946960224000,9.93622412109375,0.19755787732005117,0.005317687891423702,-0.023385117937740868
1690821946970264800,9.946264892578125,0.19636136101186275,0.007824866673070937,-0.02317920640236698
1690821946980305000,9.956304931640625,0.20144962406158445,0.0064664743340574204,-0.027679257767973465
1690821946990345000,9.966344970703124,0.19531448230743406,0.0030584925214760003,-0.024096271014935337
1690821947000385000,9.976385009765625,0.20189912139475344,0.002597396082058549,-0.01594698555993382
1690821947010426000,9.986426025390625,0.19187457098662852,0.0008916698764078318,-0.020193856748915277
1690821947020466200,9.996466064453125,0.19247487496733665,0.0029170382241718467,-0.01842457292091567
1690821947030506000,10.006506103515624,0.19442074833810327,0.00288067000284791,-0.028861932780477217
1690821947040546800,10.016546875,0.19876140789091587,0.007187975275330245,-0.02798467958848923
1690821947050587000,10.0265869140625,0.20100655646920204,0.011961144493892788,-0.02174842468057759
1690821947060627000,10.036626953125,0.19247896662056446,0.012191208656411618,-0.021209075373178347
1690821947070698000,10.046697998046875,0.19367606745064259,0.01352344364086166,-0.023583978677820413
1690821947080738000,10.056738037109374,0.2016091985374689,0.0011684044585563243,-0.01939145432484802
1690821947090778000,10.066778076171875,0.19996318489611148,0.003239000187534839,-0.024677523235301486
1690821947100819200,10.076819091796875,0.18709376645088194,0.0033956337876617907,-0.018313395030866375
1690821947110859000,10.08685888671875,0.20235680203437803,0.0035453079240396618,-0.0205389803921571
1690821947120899000,10.096899169921874,0.19577274746894835,0.0067034066287800665,-0.030822556195803916
1690821947130940000,10.10693994140625,0.19218378306627273,0.005820230586081743,-0.02031566106425598
1690821947140980000,10.11697998046875,0.1935311060220003,0.00832357344282791,-0.016904482647590337
1690821947151020000,10.12702001953125,0.1996668322980404,0.0052962797772139305,-0.023311089153727513
1690821947161060000,10.13706005859375,0.20146306806504724,0.0010961794725619256,-0.022932976556336505
1690821947171101200,10.14710107421875,0.1986205381155014,0.006307045988645404,-0.027706565900007262
1690821947181141000,10.15714111328125,0.18919278455674648,0.010081376895587892,-0.022828931659972292
1690821947191181000,10.16718115234375,0.19562544795274733,0.006308196766115725,-0.022680453966837374
1690821947201222000,10.177221923828125,0.18754501734971998,0.010967402482498436,-0.0213067407611059
1690821947211262000,10.187261962890625,0.1954740567833185,0.01059403912546113,-0.019579076718282885
1690821947221302000,10.197302001953124,0.19831834029853343,0.007387626033276319,-0.012920217050705105
1690821947231342000,10.207342041015625,0.19906652831733226,0.007657273287512361,-0.023430573647818528
1690821947241383200,10.217383056640625,0.19472586876451967,0.009086520639341324,-0.027663557875342665
1690821947251454200,10.2274541015625,0.1927817489594221,0.0072031363118439905,-0.02648800672336947
1690821947261494000,10.237493896484375,0.19607319172024726,0.00691703111315146,-0.020361628230987115
1690821947271534000,10.2475341796875,0.19861644646227358,0.00444910662965849,-0.01928487041152548
1690821947281574000,10.257573974609375,0.2046031196564436,0.00423449576459825,-0.028924933280399998
1690821947291615000,10.267614990234375,0.1936795745819807,-0.0018876038448885082,-0.022557690670271403
1690821947301655000,10.277655029296875,0.19861820002794264,-0.004639697298314422,-0.022014281675685195
1690821947311695000,10.287695068359374,0.19772212797105312,0.005288333932776004,-0.02077137807565741
1690821947321735000,10.29773486328125,0.19951836373805998,0.007668981991615146,-0.024717229624604806
1690821947331776000,10.30777587890625,0.19577742364406583,0.006208316588215529,-0.017050804916257038
1690821947341816000,10.317816162109375,0.19293255560696124,0.004359875709936022,-0.019875602846289985
1690821947351855900,10.32785595703125,0.19113807340562342,0.006116418787371367,-0.00906577011225745
1690821947361897000,10.33789697265625,0.1875491090029478,0.011839618739765136,-0.008004744151467458
1690821947371937000,10.34793701171875,0.19218787471950052,0.004373593708034604,-0.028333036368433383
1690821947381977000,10.35797705078125,0.19517945775091647,0.001415127494931221,-0.024623555425205265
1690821947392017200,10.36801708984375,0.19637772762477396,0.009003061873279511,-0.02207842381992377
1690821947402058200,10.378058349609375,0.197875272706151,0.008934764143731445,-0.021268422611290586
1690821947412098000,10.38809814453125,0.19428397021591662,0.0011514898563735187,-0.014208069470734335
1690821947422139400,10.398139404296876,0.19458266090154647,0.002718118118587881,-0.02213727786769159
1690821947432210400,10.40821044921875,0.19996903011500836,0.005909534571040422,-0.02446683049353305
1690821947442250500,10.41825048828125,0.19922084209620952,0.008601385737210511,-0.013297471131570636
1690821947452291600,10.42829150390625,0.20475684891343116,0.007720401651598513,-0.01310654253619723
1690821947462331600,10.43833154296875,0.20221184060573577,0.010786218963004648,-0.024343756669713182
1690821947472371500,10.448371337890626,0.20535481480658052,0.008964848754741251,-0.022684280758583916
1690821947482412500,10.45841259765625,0.2014648216307163,0.014132533716224133,-0.023441524300095624
1690821947492452600,10.46845263671875,0.20191373444199562,0.010098455894552171,-0.019375366273149848
1690821947502492400,10.478492431640625,0.1945814918577671,0.002647043910063803,-0.013546440923959017
1690821947512532500,10.488532470703126,0.18919336907863615,0.000875211931951344,-0.01689823100331705
1690821947522573600,10.498573486328125,0.1956272015184164,0.008547883717995136,-0.01971056674399879
1690821947532613600,10.508613525390626,0.19068974511623382,0.0064068348350003355,-0.018142664406727998
1690821947542653400,10.5186533203125,0.19907061997056005,0.0010907178461551665,-0.019228541680984198
1690821947552694500,10.528694580078126,0.19652736522853373,0.004541059229429811,-0.022853390247793866
1690821947562734600,10.538734619140625,0.19727613776922226,-0.00012980039212852717,-0.018114598222868514
1690821947572774400,10.5487744140625,0.2059568723529577,0.00036218437589704986,-0.017152959249634295
1690821947582814500,10.558814453125,0.2002712279319763,0.011069785144738852,-0.01535821675339248
1690821947592855600,10.56885546875,0.19548457817733286,0.009654913378134369,-0.0285795584754087
1690821947602895600,10.5788955078125,0.20072364787459374,0.0005454137220047414,-0.02140553409361746
1690821947612935400,10.588935302734376,0.18935118998885153,0.005817764634359628,-0.0164276223834604
1690821947623006500,10.59900634765625,0.1911474257558584,0.00664527410021983,-0.025415573452576064
1690821947633046500,10.609046630859375,0.1963859109312296,0.001331065940670669,-0.02125027046666946
1690821947643087600,10.619087646484376,0.19518764105737207,0.00242572930958122,-0.014631039556581526
1690821947653127400,10.62912744140625,0.19383856453597545,0.007244838295411318,-0.012970842126244678
1690821947663167500,10.63916748046875,0.19368834241032598,0.011027297709882259,-0.018412590222177096
1690821947673207600,10.64920751953125,0.1975795046299696,0.008961688683275133,-0.020025971102411857
1690821947683248600,10.65924853515625,0.20341537117660044,0.009708506728895007,-0.01295294570995029
1690821947693288400,10.669288330078125,0.1992249337494373,0.00539760299352929,-0.013734209447866306
1690821947703328500,10.67932861328125,0.20595979496240616,0.012075911713670938,-0.028939934486709534
1690821947713369600,10.68936962890625,0.1983276926487684,0.008484810152836144,-0.021212705802102574
1690821947723409400,10.699409423828126,0.19099369649887085,0.007229622459970414,-0.022305126981576905
1690821947733449500,10.709449462890625,0.19518354940414429,0.0023904570668004453,-0.019635259318351743
1690821947743489500,10.719489501953126,0.1938368109703064,0.0035617110695689916,-0.02416710776144173
1690821947753530600,10.729530517578125,0.19668109448552132,0.0034695210077799856,-0.01984864177412819
1690821947763570400,10.7395703125,0.19204408233463763,0.005325496738543734,-0.022232586901751346
1690821947773610500,10.749610595703125,0.20236849247217178,0.004744125787168741,-0.02300063496506773
1690821947783651600,10.759651611328126,0.19967618464827536,0.010966872759535909,-0.02953220585801173
1690821947793691400,10.76969140625,0.1951864720135927,0.009530145354149862,-0.022784380132192743
1690821947803762400,10.779762451171875,0.19593466003239154,0.0052237259976565835,-0.01835580026733223
1690821947813802500,10.789802490234376,0.198628721421957,0.007434442583378404,-0.028482591773802413
1690821947823842600,10.799842529296875,0.1918932756870985,0.0062032568206079304,-0.028179727236554025
1690821947833882600,10.809882568359376,0.1975789201080799,0.007908544634841383,-0.02597633544076234
1690821947843923500,10.81992333984375,0.20102000047266483,0.0058345513723790645,-0.025822921277605927
1690821947853963500,10.829963623046876,0.19174246903955935,0.009889617183152585,-0.023436076373420656
1690821947864003300,10.84000341796875,0.1900976244419813,0.009679244101792573,-0.02491003508323338
1690821947874044400,10.85004443359375,0.19937515587508678,0.008740702876355498,-0.025564590001828036
1690821947884084500,10.86008447265625,0.19608312859237192,0.005012238671444356,-0.025667196426354347
1690821947894124500,10.87012451171875,0.2008727009564638,0.005084217062266543,-0.020012052174913697
1690821947904164600,10.88016455078125,0.1915969230890274,0.007685805262252688,-0.014629929878306575
1690821947914205400,10.890205322265626,0.18456337119042873,0.003077690412290394,-0.024247178127174265
1690821947924245500,10.90024560546875,0.18456570927798746,0.005913416161714122,-0.02577760713142343
1690821947934285300,10.910285400390626,0.1992301944464445,0.003055250251619145,-0.01965443437627982
1690821947944326400,10.920326416015625,0.19803367813825606,0.0052327586874831465,-0.02586951863199938
1690821947954366500,10.930366455078126,0.19579028312563895,0.00830619304976426,-0.021851738924579693
1690821947964406500,10.940406494140625,0.2022241155654192,0.005975512479338795,-0.0214767863986548
1690821947974446600,10.950446533203126,0.19713702155947685,0.003731067153951153,-0.02867990444418974
1690821947984487400,10.9604873046875,0.2005763483583927,0.0065402245568577195,-0.01715990958022885
1690821947994558500,10.970558349609375,0.19518881010115147,0.01635280358158052,-0.014806743183359504
1690821948004598500,10.9805986328125,0.19249650227725504,0.011328737475024536,-0.01320926312515512
1690821948014638300,10.990638427734375,0.1996791072577238,0.010591600573202594,-0.01945389313576743
1690821948024678400,11.000678466796876,0.19399112474918365,0.006386751028196886,-0.025800449150893835
1690821948034719500,11.010719482421875,0.19234452658593654,-0.00017409619158133862,-0.023283552692830563
1690821948044759600,11.020759521484376,0.19967618464827536,0.009280052183754741,-0.017798175517725758
1690821948054799600,11.030799560546875,0.19384148714542387,0.006679368166066706,-0.019934639557148328
1690821948064840400,11.04084033203125,0.19698504586815832,0.005749804831529036,-0.02317171721565537
1690821948074880500,11.050880615234375,0.19279402391910552,0.009721010017441585,-0.024620418186625463
1690821948084920300,11.06092041015625,0.19010113157331943,0.0023415033585391935,-0.022842480694712137
1690821948094960400,11.07096044921875,0.193395496943593,0.006688556119520217,-0.01787747869847808
1690821948105001500,11.08100146484375,0.19055355151593684,0.008733953475160523,-0.01974876616280526
1690821948115041500,11.09104150390625,0.18486673805117607,0.0008219565079081803,-0.025057416797825135
1690821948125081600,11.10108154296875,0.19623802689313888,0.0012987711062654851,-0.025588135274196972
1690821948135121700,11.11112158203125,0.2001274355471134,0.004325982573488727,-0.026434276375290937
1690821948145162500,11.12116259765625,0.2050643074274063,0.008248434980539605,-0.0245646328787785
1690821948155202600,11.13120263671875,0.20252105268537998,0.008694187720352783,-0.015556232676678336
1690821948165242400,11.141242431640626,0.20326865618228912,-0.0012891538945492356,-0.029005117810564113
1690821948175313400,11.1513134765625,0.1977308957993984,0.006236063111666589,-0.02572027832046151
1690821948185353500,11.161353515625,0.20416414371728897,0.008296320109721273,-0.02520044199770782
1690821948195394600,11.17139453125,0.19084581246078014,0.006396861430257558,-0.023494359599030575
1690821948205434600,11.1814345703125,0.1932400141209364,0.007755326834507286,-0.02272123350179754
1690821948215474700,11.191474609375,0.19982348416447637,0.011817352109029889,-0.014367488682991824
1690821948225515500,11.201515625,0.1957832688629627,0.010031674268655479,-0.019575441722781396
1690821948235555300,11.211555419921876,0.20162030445337295,0.002772259458620101,-0.014955303074885158
1690821948245595400,11.221595458984375,0.1914437783539295,0.006602850597444921,-0.020627581124217247
1690821948255635500,11.231635498046876,0.18964754258692262,0.0016019370376132427,-0.015045008918642997
1690821948265676500,11.241676513671875,0.18800094442367551,0.002562598763313144,-0.024551024478534234
1690821948275716600,11.251716552734376,0.184708332619071,0.007705843403283506,-0.028345772552420382
1690821948285756700,11.261756591796875,0.18201485575139523,0.01428765121269971,-0.026827266881405375
1690821948295797500,11.271797607421876,0.19308570034205913,0.0021607399641536177,-0.02674149286067113
1690821948305837300,11.28183740234375,0.19039339251816273,0.009616681993287057,-0.021183182880096137
1690821948315877400,11.29187744140625,0.1749836419403553,0.011104381534084677,-0.025439292254881
1690821948325917400,11.30191748046875,0.19338906720280646,0.0028261633366346356,-0.031171164137497542
1690821948335958500,11.31195849609375,0.20356442425847052,-0.0025107955108396706,-0.029019493395788593
1690821948345998600,11.32199853515625,0.19398761761784553,0.005127754809893668,-0.023103150058048777
1690821948356069600,11.332069580078125,0.19174246903955935,0.0037948257056996224,-0.019405076424824072
1690821948366109700,11.342109619140626,0.19428455473780631,0.004654511274956166,-0.01794947992218658
1690821948376149500,11.3521494140625,0.18470950166285036,0.006785239693336188,-0.024750643270439465
1690821948386190300,11.3621904296875,0.1887508860081434,0.007000983069557696,-0.024171199414669536
1690821948396230400,11.37223046875,0.1954834091335535,0.012142254948150365,-0.023191330665000714
1690821948406270500,11.3822705078125,0.19937457135319708,0.013172346914559601,-0.024910336477332748
1690821948416300800,11.39230078125,0.1915922469139099,0.008445665452536196,-0.018593522579921407
1690821948426342000,11.402341796875,0.20416180562973021,0.006805953687801957,-0.019904961371514946
1690821948436381700,11.412381591796875,0.19653145688176155,0.005587883134931326,-0.020855243267095647
1690821948446421800,11.422421875,0.18919862977564333,0.011138576064631343,-0.024298529288498683
1690821948456462800,11.432462890625,0.18246318404078482,0.014692067295126615,-0.020989788333000615
1690821948466502700,11.442502685546875,0.19563187769353388,0.004349957104120403,-0.015041004030383191
1690821948476542700,11.452542724609375,0.19006956739127634,-0.002091464987071231,-0.030527733401115982
1690821948486582800,11.462582763671875,0.16308219174444674,-0.15319507704563437,-0.16536555344127118
1690821948496623900,11.472623779296875,0.10120236641466616,-0.2850416611142456,-0.3658381491642445
1690821948506663700,11.48266357421875,-0.15434242044985294,-0.20303722204659133,1.0449091579213738
1690821948516703700,11.492703857421875,0.27492402559518814,0.2503163298928179,-0.2553868563564494
1690821948526744800,11.502744873046876,0.3770078510195017,0.06802498615444637,-0.5059412875877694
1690821948536784600,11.51278466796875,0.32682898487746714,0.24433588551003485,-0.05836680767356883
1690821948546855700,11.522855712890625,0.24616204149127005,0.4981462132647633,-0.03659785622819327
1690821948556895700,11.532895751953125,0.38539164848327634,0.26516156018935144,-0.3136492949066683
1690821948566935800,11.542935791015625,0.25490999609231946,0.08836396416220814,-0.24923054395010694
1690821948576977000,11.552976806640626,0.20551848093569278,0.13493461321182548,0.0431999487738125
1690821948587016700,11.5630166015625,0.14255729010999202,-0.016280761258676647,0.10261108243511989
1690821948597056800,11.573056884765625,0.11184826359152793,-0.15050521690715105,0.07945261742668226
1690821948607096600,11.5830966796875,0.12326865227222442,-0.1436132471700199,0.051910530506540084
1690821948617137700,11.5931376953125,0.12131634916067123,-0.1897219412636943,0.047988589556142686
1690821948627177700,11.603177734375,0.10853227091133594,-0.216510762131121,0.015939984996989367
1690821948637217800,11.6132177734375,0.12230594471991062,-0.22478507133843376,-0.02756666423897259
1690821948647257900,11.6232578125,0.1392728616118431,-0.2167392919236794,-0.06899875395689159
1690821948657298700,11.633298583984375,0.15881109029650686,-0.2020216152632609,-0.1221023667055182
1690821948667338800,11.6433388671875,0.17370587708950042,-0.16461871712934226,-0.14792583140581844
1690821948677378600,11.653378662109375,0.19590543393790721,-0.10015725040906108,-0.15196925244457088
1690821948687419600,11.663419677734375,0.21387246778309343,-0.015892465193988754,-0.1122192249289248
1690821948697459700,11.673459716796875,0.22565701360106466,0.07521508032162673,-0.05751537390942685
1690821948707499800,11.683499755859375,0.23230595009624957,0.14776615646523422,-0.018739424723479895
1690821948717539800,11.693539794921875,0.2472919223040342,0.190452410962712,0.0007266794398892671
1690821948727611000,11.70361083984375,0.24413141244649886,0.22579127097260204,0.017375835619540883
1690821948737651700,11.713651611328125,0.24676468355953693,0.22941386365024372,0.00042249516181182116
1690821948747691800,11.72369189453125,0.24337036494612693,0.1921308838352561,-0.025673087311023846
1690821948757731600,11.733731689453125,0.228269241926074,0.14368022059216162,-0.05414247254338115
1690821948767771600,11.743771728515625,0.2159872679799795,0.08587296933038159,-0.08475497988481075
1690821948777812700,11.753812744140625,0.19876257693469523,0.021948924821894613,-0.10547661880091763
1690821948787852800,11.763852783203125,0.17990823886096477,-0.0398815266745165,-0.11481643834789283
1690821948797892900,11.773892822265625,0.17724632617533206,-0.08572601687405258,-0.09919263402745127
1690821948807933700,11.78393359375,0.1554769774377346,-0.12270387626262381,-0.07642424604883417
1690821948817973800,11.793973876953125,0.14334171848595142,-0.14707714215461165,-0.05323358667069114
1690821948828013600,11.804013671875,0.13560206414461135,-0.14824313546037302,-0.021700110293133183
1690821948838053600,11.8140537109375,0.13599369381070137,-0.1533327136843465,-0.011871475182753055
1690821948848094700,11.8240947265625,0.14016016584038735,-0.1311936183189042,0.0059788552138954395
1690821948858134800,11.834134765625,0.1507791750103235,-0.09310443668756634,0.000378130863700062
1690821948868174800,11.8441748046875,0.1643915207773447,-0.04936336677437648,-0.003270454771723598
1690821948878215700,11.854215576171875,0.19818916096091269,-0.013774468393018468,-0.018955761754745615
1690821948888255700,11.864255859375,0.2072644478201866,0.037156102032307535,-0.039062314679543485
1690821948898295800,11.8742958984375,0.23425942225158214,0.07234344300860539,-0.07896442291778512
1690821948908335600,11.884335693359375,0.24535189415216443,0.09724884301591664,-0.09633839537380262
1690821948918406700,11.89440673828125,0.24054420160949228,0.12789858622835018,-0.10671581434020772
1690821948928446700,11.90444677734375,0.23480361213088033,0.12507179270405322,-0.10369535227417945
1690821948938487800,11.91448779296875,0.2392109071791172,0.11159833481791429,-0.08232751527586951
1690821948948527900,11.92452783203125,0.2298334225028753,0.08339579296135344,-0.06160142394693102
1690821948958568000,11.93456787109375,0.21296821241974828,0.055114066655049095,-0.0410464240017347
1690821948968608800,11.94460888671875,0.1931172645241022,0.01669509594691917,-0.030484095188789067
1690821948978648600,11.954648681640625,0.18660276806354523,-0.02134624622100964,-0.019955970039544624
1690821948988688600,11.964688720703125,0.18101181618869303,-0.05055686914157122,-0.01957739165127277
1690821948998728700,11.974728759765625,0.1627314786106348,-0.07870475820144637,-0.03339693216187879
1690821949008769800,11.984769775390625,0.16019465360939503,-0.09308865459654479,-0.043447996117593715
1690821949018809900,11.994809814453125,0.1647217756450176,-0.10509595805341378,-0.04785619991470594
1690821949028850000,12.004849853515625,0.16028993067741393,-0.09824974542045965,-0.05759546254146844
1690821949038890800,12.014890869140626,0.17592355313897132,-0.08170662516485899,-0.06300441804607398
1690821949048930600,12.0249306640625,0.1972474961966276,-0.0542832327209413,-0.06654358849027193
1690821949058970600,12.034970703125,0.19387714298069475,-0.02759545194203965,-0.0671876402811613
1690821949069010700,12.0450107421875,0.1904945148050785,0.0014264800060074777,-0.05613202065909281
1690821949079051800,12.0550517578125,0.20101123264431953,0.025520691494597122,-0.04649641020304989
1690821949089091800,12.065091796875,0.20522621999084947,0.048546333036758,-0.04028959601875395
1690821949099163000,12.075162841796875,0.21570611295104025,0.06214791994774714,-0.035105809305841104
1690821949109203000,12.085202880859375,0.22287352036237715,0.07013387720035388,-0.04566871350752189
1690821949119242800,12.09524267578125,0.2095218713581562,0.06739632372893392,-0.046898648028122256
1690821949129283600,12.10528369140625,0.2162093862980604,0.0495057800529059,-0.04870006686032284
1690821949139323600,12.11532373046875,0.20612930631041526,0.035244203996378926,-0.05731485550180077
1690821949149363700,12.12536376953125,0.20113222867548464,0.005931070549413562,-0.06655360299421008
1690821949159403800,12.13540380859375,0.18910919792652128,-0.004245948740374297,-0.0678218876306666
1690821949169444900,12.14544482421875,0.188621122148633,-0.016724943095911292,-0.064020052228868
1690821949179485000,12.15548486328125,0.18695055858790874,-0.04224551585949957,-0.04895869496362284
1690821949189524700,12.165524658203125,0.17467501438260077,-0.05150680854385718,-0.05033566413894296
1690821949199565600,12.175565673828125,0.17528934688866138,-0.05068104351051152,-0.040018286530394104
1690821949209605600,12.185605712890625,0.1696323440402746,-0.058019953297544266,-0.04031723751092795
1690821949219645700,12.195645751953125,0.16937281632125376,-0.04572891926215961,-0.033908429914549926
1690821949229685800,12.205685791015625,0.18183949918448924,-0.03296093363109976,-0.034520136638684196
1690821949239726800,12.215726806640625,0.19415537540018557,-0.021677551401453093,-0.04043035162973683
1690821949249767000,12.225766845703125,0.2046680015861988,0.0046353133841417725,-0.041918535227724346
1690821949259807000,12.235806884765625,0.2108335384786129,0.01690019006496295,-0.050150142371049145
1690821949269847800,12.245847900390626,0.21174539262652395,0.026189959925133732,-0.06409916361337527
1690821949279917800,12.255917724609375,0.21025077015459537,0.03411695353211835,-0.061329972894676024
1690821949289958700,12.265958740234375,0.20425299104452133,0.03478129005921073,-0.0574686395577155
